time,pitch,roll,gyrx,gyry,gyrz,f1,f2,f3,f4,f5,f6,f7,g1,g2,g3
0.351,56.72,24.44,-1.0,-1.0,-2.0,0,1,0,0,0,0,0,0.00,0.00,0.00,
0.365,64.964,28.012999999999998,1.0,-1.0,-1.0,0,1,0,0,0,0,0,0.00,0.00,0.00,
0.378,72.9704,31.2773,2.0,0.0,0.0,0,1,0,0,0,0,0,0.00,0.00,0.00,
0.392,79.82804,33.961729999999996,0.0,0.0,0.0,0,1,0,0,0,0,0,0.10,0.00,0.10,
0.404,85.652804,36.345172999999996,-1.0,0.0,1.0,0,1,0,0,0,0,0,0.00,0.00,0.10,
0.418,90.7352804,38.302517300000005,-7.0,1.0,3.0,0,1,0,0,0,0,0,0.00,0.00,0.10,
0.431,95.29352804,40.02825173,-10.0,0.0,2.0,0,1,0,0,0,0,0,0.00,0.00,0.00,
0.445,99.160352804,41.595825173,-13.0,1.0,4.0,0,1,0,0,0,0,0,0.00,0.00,0.00,
0.458,102.46303528039999,43.0665825173,-12.0,0.0,1.0,0,1,0,0,0,0,0,0.00,0.00,0.00,
0.472,105.07030352804,44.338658251729996,-9.0,-3.0,-4.0,0,1,0,0,0,0,0,0.00,0.00,0.00,
0.485,106.99603035280398,45.482865825173,-4.0,-2.0,-6.0,0,1,0,0,0,0,0,0.10,0.00,0.00,
0.498,108.53860303528039,46.4252865825173,-1.0,0.0,-4.0,0,1,0,0,0,0,0,0.00,0.00,0.00,
0.513,109.79086030352805,47.176528658251726,0.0,0.0,-2.0,0,1,0,0,0,0,0,0.00,0.00,0.00,
0.526,110.9420860303528,47.80065286582517,0.0,0.0,0.0,0,1,0,0,0,0,0,0.00,0.00,0.00,
0.539,112.08320860303527,48.259065286582526,-1.0,-1.0,1.0,0,1,0,0,0,0,0,0.00,0.00,0.00,
0.552,113.24132086030353,48.73690652865825,-4.0,-2.0,3.0,0,1,0,0,0,0,0,0.00,0.00,0.10,
0.566,114.47313208603035,49.126690652865825,-5.0,-1.0,3.0,0,1,0,0,0,0,0,0.00,0.00,0.10,
0.579,115.48731320860303,49.318669065286585,-5.0,0.0,4.0,0,1,0,0,0,0,0,0.10,0.00,0.00,
0.592,116.45273132086031,49.32886690652866,-4.0,0.0,0.0,0,1,0,0,0,0,0,0.00,0.00,0.00,
0.606,117.09827313208604,49.401886690652866,-2.0,-1.0,-2.0,0,1,0,0,0,0,0,0.00,0.00,0.10,
0.62,117.59482731320861,49.50818866906529,0.0,0.0,-4.0,0,1,0,0,0,0,0,0.00,0.00,0.10,
0.633,118.00448273132086,49.59981886690653,0.0,-2.0,-5.0,0,1,0,0,0,0,0,0.00,0.00,0.00,
0.647,118.21644827313207,49.79798188669065,-1.0,0.0,-3.0,0,1,0,0,0,0,0,0.00,0.00,0.00,
0.66,118.4356448273132,49.970798188669065,-3.0,0.0,0.0,0,1,0,0,0,0,0,0.00,0.00,0.10,
0.673,118.65556448273134,50.16807981886691,-4.0,-2.0,-1.0,0,1,0,0,0,0,0,0.00,0.00,0.10,
0.688,118.73155644827312,50.349807981886684,-4.0,0.0,2.0,0,1,0,0,0,0,0,0.00,0.00,0.10,
0.701,118.94615564482731,50.29598079818867,-2.0,1.0,2.0,0,1,0,0,0,0,0,0.00,0.00,0.00,
0.714,119.13861556448273,50.164598079818866,0.0,1.0,2.0,0,1,0,0,0,0,0,0.00,0.00,0.00,
0.728,119.46386155644826,50.03445980798189,0.0,2.0,0.0,0,1,0,0,0,0,0,0.00,0.00,0.00,
0.741,119.73038615564482,50.03944598079819,0.0,-2.0,-3.0,0,1,0,0,0,0,0,0.00,0.00,0.00,
0.754,119.68503861556448,50.21094459807982,-1.0,-1.0,-3.0,0,1,0,0,0,0,0,0.00,0.00,0.00,
0.768,119.74350386155645,50.30909445980799,-2.0,0.0,-1.0,0,1,0,0,0,0,0,0.10,0.00,0.00,
0.781,119.81235038615563,50.381909445980796,-3.0,0.0,-1.0,0,1,0,0,0,0,0,0.10,0.00,0.00,
0.795,119.61223503861557,50.551190944598076,-3.0,3.0,1.0,0,1,0,0,0,0,0,0.00,0.00,0.00,
0.808,119.61922350386155,50.595119094459804,-3.0,1.0,0.0,0,1,0,0,0,0,0,0.10,0.00,0.00,
0.822,119.71892235038615,50.84251190944598,0.0,-2.0,-3.0,0,1,0,0,0,0,0,0.00,0.00,0.00,
0.835,119.4858922350386,51.2092511909446,0.0,-1.0,-2.0,0,1,0,0,0,0,0,0.00,0.00,0.00,
0.848,119.39058922350385,51.31792511909446,2.0,-1.0,-2.0,0,1,0,0,0,0,0,0.10,0.00,0.00,
0.862,119.26405892235039,51.17579251190944,3.0,-1.0,0.0,0,1,0,0,0,0,0,0.00,0.00,0.10,
0.875,119.29640589223504,50.846579251190946,3.0,3.0,5.0,0,1,0,0,0,0,0,0.00,0.00,0.10,
0.888,119.5696405892235,50.3996579251191,0.0,2.0,3.0,0,1,0,0,0,0,0,0.00,0.00,0.00,
0.902,119.92996405892235,50.16596579251191,-2.0,-1.0,0.0,0,1,0,0,0,0,0,0.00,0.00,0.00,
0.916,120.09199640589223,50.043596579251194,-7.0,-1.0,-1.0,0,1,0,0,0,0,0,0.00,0.00,0.00,
0.929,120.10819964058922,50.103359657925125,-11.0,-4.0,-3.0,0,1,0,0,0,0,0,0.00,0.00,0.00,
0.943,120.00181996405892,50.46933596579251,-11.0,-4.0,-2.0,0,1,0,0,0,0,0,0.00,0.00,0.00,
0.957,119.84718199640588,50.676933596579254,-7.0,2.0,4.0,0,1,0,0,0,0,0,0.00,0.00,0.00,
0.97,119.76871819964059,50.652693359657924,-1.0,4.0,0.0,0,1,0,0,0,0,0,0.00,0.00,0.00,
0.984,119.51787181996406,50.70426933596579,2.0,1.0,-3.0,0,1,0,0,0,0,0,0.00,0.00,0.00,
0.997,119.3397871819964,50.75442693359658,4.0,1.0,-3.0,0,1,0,0,0,0,0,0.00,0.00,0.10,
1.01,119.33097871819965,50.73244269335965,3.0,-2.0,-5.0,0,1,0,0,0,0,0,0.10,0.00,0.10,
1.024,119.35709787181997,50.89224426933596,1.0,-4.0,-5.0,0,1,0,0,0,0,0,0.10,0.00,0.00,
1.038,119.341709787182,51.007224426933604,-1.0,1.0,0.0,0,1,0,0,0,0,0,0.00,0.00,0.10,
1.051,119.6281709787182,50.85672244269337,-2.0,2.0,0.0,0,1,0,0,0,0,0,0.00,0.00,0.10,
1.064,119.77381709787183,50.67967224426934,-3.0,0.0,-2.0,0,1,0,0,0,0,0,0.00,0.00,0.00,
1.078,119.83338170978719,50.58996722442693,-2.0,0.0,-2.0,0,1,0,0,0,0,0,0.00,0.00,0.00,
1.091,119.95633817097871,50.43699672244269,-1.0,1.0,-1.0,0,1,0,0,0,0,0,0.00,0.00,0.00,
1.104,120.04063381709787,50.38569967224427,-1.0,0.0,-2.0,0,1,0,0,0,0,0,0.00,0.00,0.00,
1.119,120.09406338170979,50.416569967224426,-2.0,-1.0,-3.0,0,1,0,0,0,0,0,0.00,0.00,0.00,
1.132,119.99140633817098,50.50965699672244,-3.0,-4.0,-4.0,0,1,0,0,0,0,0,0.00,0.00,0.00,
1.145,119.7021406338171,50.770965699672246,-3.0,-1.0,-2.0,0,1,0,0,0,0,0,0.10,0.00,0.00,
1.159,119.6102140633817,50.842096569967225,-2.0,1.0,0.0,0,1,0,0,0,0,0,0.10,0.00,0.00,
1.172,119.70902140633817,50.750209656996724,-2.0,1.0,1.0,0,1,0,0,0,0,0,0.00,0.00,0.10,
1.186,119.79990214063382,50.552020965699676,-3.0,1.0,2.0,0,1,0,0,0,0,0,0.00,0.00,0.10,
1.2,119.95299021406338,50.271202096569965,-4.0,3.0,5.0,0,1,0,0,0,0,0,0.00,0.00,0.00,
1.213,120.32829902140635,49.883120209656994,-6.0,1.0,3.0,0,1,0,0,0,0,0,0.00,0.00,0.00,
1.226,120.46482990214064,49.8263120209657,-8.0,-3.0,-1.0,0,1,0,0,0,0,0,0.00,0.00,0.00,
1.24,120.44248299021406,49.99163120209657,-8.0,-2.0,-2.0,0,1,0,0,0,0,0,0.00,0.00,0.00,
1.253,120.3682482990214,50.31416312020966,-7.0,-1.0,-3.0,0,1,0,0,0,0,0,0.00,0.00,0.00,
1.267,120.13582482990213,50.64341631202097,-5.0,-2.0,-3.0,0,1,0,0,0,0,0,0.00,0.00,0.00,
1.281,119.73458248299022,50.8923416312021,-1.0,0.0,-3.0,0,1,0,0,0,0,0,0.00,0.00,0.00,
1.294,119.40645824829903,50.944234163120214,1.0,0.0,-1.0,0,1,0,0,0,0,0,0.00,0.00,0.00,
1.307,119.2746458248299,50.88642341631202,2.0,0.0,-1.0,0,1,0,0,0,0,0,0.00,0.00,0.00,
1.32,119.29746458248299,50.8716423416312,2.0,0.0,0.0,0,1,0,0,0,0,0,0.00,0.00,0.00,
1.334,119.53374645824829,50.789164234163124,2.0,-2.0,-1.0,0,1,0,0,0,0,0,0.00,0.00,0.00,
1.348,119.62937464582483,50.70891642341631,0.0,-2.0,-1.0,0,1,0,0,0,0,0,0.00,0.00,0.00,
1.361,119.76493746458249,50.61989164234163,0.0,1.0,0.0,0,1,0,0,0,0,0,0.00,0.00,0.00,
1.375,119.98549374645825,50.59298916423417,-2.0,1.0,0.0,0,1,0,0,0,0,0,0.00,0.00,0.00,
1.388,120.21454937464581,50.74329891642341,-4.0,-1.0,-2.0,0,1,0,0,0,0,0,0.00,0.00,0.00,
1.401,120.3274549374646,51.12732989164235,-5.0,-3.0,-4.0,0,1,0,0,0,0,0,0.00,0.00,0.00,
1.415,120.27574549374646,51.76873298916424,-4.0,-5.0,-6.0,0,1,0,0,0,0,0,0.00,0.00,0.00,
1.429,120.28857454937466,52.65187329891643,-1.0,-5.0,-9.0,0,1,0,0,0,0,0,0.00,0.00,0.00,
1.442,120.36185745493748,53.68518732989164,1.0,-2.0,-7.0,0,1,0,0,0,0,0,0.00,0.00,0.00,
1.456,120.54918574549373,54.76951873298917,6.0,1.0,-5.0,0,1,0,0,0,0,0,0.00,0.00,0.00,
1.469,120.73891857454939,55.42695187329892,13.0,4.0,-3.0,0,1,0,0,0,0,0,0.10,0.00,0.00,
1.482,120.71289185745493,55.26769518732989,21.0,4.0,-4.0,0,1,0,0,0,0,0,0.00,0.00,0.00,
1.497,120.80028918574548,54.88276951873299,26.0,0.0,-11.0,0,1,0,0,0,0,0,0.00,0.00,0.00,
1.51,120.70102891857454,54.6372769518733,28.0,-4.0,-20.0,0,1,0,0,0,0,0,0.00,0.00,0.00,
1.523,120.63710289185744,54.87372769518733,24.0,-12.0,-28.0,0,1,0,0,0,0,0,0.00,0.00,0.00,
1.538,120.33371028918573,55.85137276951873,17.0,-12.0,-26.0,0,1,0,0,0,0,0,0.00,0.00,0.10,
1.551,120.51037102891857,57.605137276951865,10.0,-6.0,-21.0,0,1,0,0,0,0,0,0.00,0.00,0.00,
1.564,121.06803710289185,59.72451372769518,8.0,-2.0,-15.0,0,1,0,0,0,0,0,0.10,0.00,0.00,
1.579,121.60980371028919,61.34045137276952,12.0,1.0,-12.0,0,0,0,0,0,0,0,0.10,0.00,0.00,
1.592,122.01498037102891,62.60904513727695,22.0,8.0,-14.0,0,0,0,0,0,0,0,0.10,0.00,0.10,
1.605,122.19049803710288,63.9689045137277,34.0,4.0,-27.0,0,0,0,0,0,0,0,0.10,0.00,0.00,
1.619,121.7850498037103,65.42789045137278,47.0,-6.0,-45.0,0,0,0,0,0,0,0,0.20,0.00,0.00,
1.633,121.16850498037103,67.19378904513728,59.0,-18.0,-61.0,0,0,0,0,0,0,0,0.10,0.00,0.00,
1.646,120.5488504980371,69.32337890451373,68.0,-18.0,-60.0,0,0,0,0,0,0,0,0.20,0.00,0.00,
1.66,119.83888504980371,71.21033789045137,74.0,-10.0,-46.0,0,0,0,0,0,0,0,0.20,0.00,0.00,
1.674,119.21888850498038,72.72203378904513,77.0,0.0,-34.0,0,0,0,0,0,0,0,0.29,0.00,0.00,
1.688,118.85088885049804,74.05220337890451,77.0,5.0,-29.0,0,0,0,0,0,0,0,0.20,0.00,0.00,
1.701,118.59808888504979,75.09422033789045,76.0,0.0,-28.0,0,0,0,0,0,0,0,0.29,0.00,0.10,
1.715,118.32080888850498,75.98142203378904,77.0,0.0,-30.0,0,0,0,0,0,0,0,0.20,0.00,0.20,
1.728,117.79808088885049,76.6371422033789,79.0,0.0,-29.0,0,0,0,0,0,0,0,0.10,0.00,0.10,
1.742,117.34980808888504,77.0357142203379,83.0,1.0,-30.0,0,0,0,0,0,0,0,0.20,0.00,0.00,
1.756,116.6749808088885,77.2645714220338,84.0,0.0,-28.0,0,0,0,0,0,0,0,0.29,0.00,0.10,
1.769,116.31949808088885,77.19745714220338,85.0,-5.0,-24.0,0,1,0,0,0,0,0,0.29,0.00,0.10,
1.783,116.18494980808887,77.07374571422034,81.0,-6.0,-23.0,0,1,0,0,0,0,0,0.20,0.00,0.10,
1.797,115.88349498080889,77.12437457142204,75.0,-10.0,-25.0,0,1,0,0,0,0,0,0.20,0.00,0.20,
1.81,115.88034949808089,77.4264374571422,68.0,-14.0,-25.0,0,1,0,0,0,0,0,0.20,0.00,0.20,
1.824,116.0420349498081,77.95164374571422,60.0,-14.0,-17.0,0,1,0,0,0,0,0,0.20,0.00,0.20,
1.838,116.31020349498081,78.33716437457142,53.0,-15.0,0.0,0,1,0,0,0,0,0,0.20,0.00,0.20,
1.852,116.67902034949807,79.35671643745714,49.0,-16.0,-24.0,0,0,0,0,0,0,0,0.20,0.00,0.20,
1.865,116.6979020349498,78.84667164374571,46.0,-13.0,-18.0,0,0,0,0,0,0,0,0.20,0.00,0.10,
1.88,116.24079020349498,81.66666716437459,43.0,-20.0,-5.0,0,0,0,0,0,0,0,0.29,0.00,0.00,
1.893,116.4290790203495,83.83866671643746,49.0,-11.0,-23.0,0,0,0,0,0,0,0,0.20,0.00,0.00,
1.906,117.05090790203495,86.25186667164374,52.0,-17.0,-19.0,0,0,0,0,0,0,0,0.29,0.00,0.10,
1.921,116.75309079020349,88.43718666716438,59.0,-18.0,-26.0,0,0,0,0,0,0,0,0.29,0.00,0.00,
1.934,116.75030907902035,88.87171866671645,72.0,-8.0,-35.0,0,0,0,0,0,0,0,969.82,0.00,0.00,
1.948,117.80303090790203,89.94117186667165,82.0,2.0,-33.0,0,0,0,0,0,0,0,0.00,0.00,0.00,
1.961,118.6643030907902,90.90311718666717,85.0,16.0,-26.0,0,0,0,0,0,0,0,0.20,0.00,0.00,
2.399,116.38343030907902,97.04731171866672,-4.0,-3.0,2.0,1,1,0,0,0,0,0,0.00,0.00,0.00,
2.412,116.1103430309079,97.71573117186668,-5.0,2.0,11.0,1,1,0,0,0,0,0,0.00,0.00,0.00,
2.425,116.52403430309079,97.66557311718667,-5.0,3.0,9.0,1,1,0,0,0,0,0,0.00,0.00,0.00,
2.44,116.98840343030909,97.46255731171865,-7.0,-3.0,6.0,1,1,0,0,0,0,0,0.00,0.00,0.00,
2.453,116.75584034303091,97.16325573117186,-9.0,-10.0,-1.0,1,1,0,0,0,0,0,0.00,0.00,0.00,
2.466,116.10258403430309,96.8273255731172,-7.0,-7.0,-2.0,1,1,0,0,0,0,0,0.00,0.00,0.00,
2.481,115.68625840343032,96.28073255731172,-5.0,-10.0,-5.0,1,1,0,0,0,0,0,0.00,0.00,0.00,
2.495,115.24862584034304,96.15407325573116,-2.0,-8.0,-2.0,1,1,0,0,0,0,0,0.00,0.00,0.00,
2.508,114.9078625840343,96.13240732557311,0.0,0.0,4.0,1,1,0,0,0,0,0,0.00,0.00,0.00,
2.522,114.75678625840342,96.06724073255731,4.0,6.0,4.0,1,1,0,0,0,0,0,0.00,0.00,0.00,
2.536,114.81367862584034,96.54672407325573,3.0,-3.0,3.0,1,1,0,0,0,0,0,0.00,0.00,0.00,
2.549,114.52236786258403,96.64867240732556,4.0,-7.0,2.0,1,1,0,0,0,0,0,0.00,0.00,0.00,
2.564,113.7552367862584,96.42486724073257,3.0,-24.0,-3.0,1,1,0,0,0,0,0,0.00,0.00,0.00,
2.577,112.48152367862585,96.78948672407326,6.0,-18.0,2.0,1,1,0,0,0,0,0,0.00,0.00,0.00,
2.591,111.5171523678626,96.48394867240734,6.0,-22.0,17.0,1,1,0,0,0,0,0,0.00,0.00,0.00,
2.606,110.23271523678626,96.37239486724073,4.0,-19.0,26.0,1,1,0,0,0,0,0,0.00,0.00,0.00,
2.619,108.70027152367862,96.11823948672408,0.0,-23.0,37.0,1,1,0,0,0,0,0,0.00,0.00,0.00,
2.633,108.86202715236786,94.94082394867242,-4.0,-24.0,40.0,1,1,1,0,0,0,0,0.00,0.00,0.00,
2.647,110.81320271523678,93.96808239486724,-11.0,-1.0,56.0,1,1,1,0,0,0,0,0.00,0.00,0.10,
2.661,113.10532027152368,93.20480823948672,-7.0,10.0,45.0,2,1,1,0,0,0,0,0.00,0.00,0.29,
2.675,115.21553202715236,92.93048082394868,-4.0,15.0,34.0,2,1,1,0,0,0,0,0.00,0.00,0.59,
2.689,116.20955320271524,94.00104808239487,4.0,-4.0,5.0,2,1,1,0,0,0,0,0.00,0.00,0.78,
2.703,116.00295532027152,95.1071048082395,4.0,0.0,3.0,2,1,1,0,0,0,0,0.00,0.00,0.78,
2.716,115.64929553202715,96.30671048082395,3.0,4.0,-4.0,2,1,1,0,0,0,0,0.00,0.00,0.69,
2.731,115.44292955320272,97.4616710480824,2.0,3.0,-8.0,2,1,1,0,0,0,0,0.00,0.00,0.59,
2.744,115.22429295532028,98.72916710480824,3.0,8.0,-5.0,2,1,1,0,0,0,0,0.00,0.00,0.10,
2.758,115.92242929553203,99.95391671048083,1.0,5.0,-2.0,2,1,1,0,0,0,0,0.00,0.00,0.00,
2.771,115.8482429295532,100.2743916710481,-5.0,-1.0,13.0,2,1,1,0,0,0,0,0.00,0.00,0.00,
2.786,115.45382429295532,99.12743916710481,-1.0,2.0,24.0,2,1,1,0,0,0,0,0.00,0.00,0.00,
2.799,115.19838242929553,98.39174391671048,0.0,2.0,9.0,2,1,1,0,0,0,0,0.00,0.00,0.20,
2.813,115.25383824292956,98.04817439167105,0.0,-3.0,6.0,3,1,1,0,0,0,0,0.00,0.00,0.39,
2.827,115.15138382429296,97.87881743916711,0.0,-1.0,-6.0,3,1,1,0,0,0,0,0.00,-2851.18,0.49,
2.849,115.0691383824293,97.90688174391671,-1.0,-2.0,-1.0,3,1,1,0,0,0,0,0.00,0.00,0.69,
2.864,115.06991383824293,97.77468817439168,-1.0,-3.0,4.0,3,1,1,0,0,0,0,0.00,0.00,0.69,
2.877,114.76399138382429,97.77946881743918,-2.0,-8.0,-3.0,3,1,1,0,0,0,0,0.00,0.00,0.88,
2.891,114.33739913838244,97.52794688174392,-2.0,-5.0,1.0,3,1,1,0,0,0,0,0.00,0.00,0.98,
2.905,114.11473991383825,97.57479468817439,-1.0,-3.0,6.0,3,1,1,0,0,0,0,0.00,0.00,0.88,
2.919,114.22747399138382,96.85047946881744,-1.0,-1.0,-9.0,3,1,1,0,0,0,0,0.00,0.00,0.78,
2.932,114.13974739913837,95.97704794688174,-5.0,-7.0,3.0,3,1,1,0,0,0,0,0.00,0.00,0.59,
2.947,114.13997473991384,97.26670479468817,-2.0,-5.0,-22.0,3,1,1,0,0,0,0,0.00,0.00,0.49,
2.961,114.20299747399139,96.84667047946883,-4.0,-2.0,-3.0,3,1,1,0,0,0,0,0.00,0.00,0.39,
2.974,113.89429974739915,96.90366704794687,-5.0,-5.0,1.0,3,1,1,0,0,0,0,0.00,0.00,0.29,
2.989,113.76442997473991,96.49536670479469,-5.0,-1.0,6.0,3,1,1,0,0,0,0,0.00,0.00,0.10,
3.002,113.69744299747398,95.74353667047946,-4.0,0.0,3.0,2,1,1,0,0,0,0,0.00,0.00,0.00,
3.016,113.8527442997474,95.11935366704795,-4.0,-1.0,-2.0,2,1,1,0,0,0,0,0.00,0.00,0.00,
3.03,113.76027442997474,94.45393536670478,-4.0,0.0,-2.0,2,1,1,0,0,0,0,0.00,0.00,0.00,
3.044,113.73302744299747,94.36039353667047,-3.0,0.0,-6.0,2,1,1,0,0,0,0,0.00,0.00,0.00,
3.058,113.94630274429976,94.87303935366705,-3.0,0.0,-11.0,2,1,1,0,0,0,0,0.00,0.00,0.00,
3.072,113.79663027442997,95.54530393536672,-4.0,0.0,-9.0,2,1,1,0,0,0,0,0.00,0.00,0.00,
3.086,113.808663027443,96.09853039353666,-4.0,1.0,-7.0,2,1,1,0,0,0,0,0.00,0.00,0.00,
3.099,113.9088663027443,97.14385303935367,-3.0,1.0,-10.0,2,1,1,0,0,0,0,0.00,0.00,0.00,
3.113,113.91888663027443,98.39138530393538,-5.0,-1.0,-15.0,2,1,1,0,0,0,0,0.00,0.00,0.00,
3.128,113.77588866302744,98.85813853039355,-11.0,-1.0,2.0,2,1,1,0,0,0,0,0.00,0.00,0.00,
3.141,113.59058886630274,98.02281385303937,-8.0,10.0,13.0,2,1,1,0,0,0,0,0.00,0.00,0.00,
3.155,113.65305888663026,97.65128138530395,-6.0,12.0,5.0,2,1,1,0,0,0,0,0.00,0.00,0.00,
3.169,114.19030588866303,96.7771281385304,-7.0,0.0,-8.0,2,1,1,0,0,0,0,0.00,0.00,0.00,
3.182,113.49703058886631,93.16171281385304,-4.0,-2.0,-24.0,2,1,1,0,0,0,0,0.00,0.00,0.00,
3.196,113.22970305888664,92.2331712813853,-6.0,6.0,0.0,2,1,1,0,0,0,0,0.00,0.00,0.00,
3.21,112.87897030588867,92.31131712813853,-5.0,6.0,-3.0,2,1,1,0,0,0,0,0.00,0.00,0.00,
3.224,112.75389703058886,93.07513171281384,-6.0,3.0,0.0,2,1,1,0,0,0,0,0.00,0.00,0.00,
3.237,112.93038970305888,93.43951317128139,-6.0,4.0,-1.0,2,1,1,0,0,0,0,0.00,0.00,0.00,
3.251,113.26303897030589,93.62895131712816,-5.0,5.0,-2.0,2,1,1,0,0,0,0,0.00,0.00,0.00,
3.265,113.79130389703059,93.43189513171282,-4.0,5.0,1.0,2,1,1,0,0,0,0,0.00,0.00,0.00,
3.278,114.39313038970305,93.37618951317128,-3.0,1.0,-1.0,2,1,1,0,0,0,0,0.00,0.00,0.00,
3.293,114.6333130389703,93.82961895131713,-4.0,5.0,6.0,2,1,1,0,0,0,0,0.00,0.00,0.00,
3.306,114.78333130389701,93.94696189513171,-3.0,2.0,2.0,2,1,1,0,0,0,0,0.00,0.00,0.00,
3.319,114.7803331303897,94.45369618951318,-3.0,3.0,0.0,2,1,1,0,0,0,0,0.00,0.00,0.00,
3.334,114.59103331303896,94.70236961895132,-3.0,5.0,1.0,2,1,1,0,0,0,0,0.00,0.00,0.00,
3.347,114.80610333130389,95.11423696189513,-4.0,3.0,6.0,2,1,1,0,0,0,0,0.00,0.00,0.00,
3.36,115.09761033313039,95.51542369618952,-3.0,3.0,0.0,2,1,1,0,0,0,0,0.00,0.00,0.00,
3.375,115.29776103331304,95.42054236961894,-2.0,2.0,1.0,2,1,1,0,0,0,0,0.00,0.00,0.00,
3.388,115.3807761033313,95.1770542369619,-2.0,0.0,0.0,2,1,1,0,0,0,0,0.00,0.00,0.00,
3.401,115.18207761033314,94.97270542369618,-2.0,1.0,0.0,2,1,1,0,0,0,0,0.00,0.00,0.00,
3.416,115.13520776103331,94.88027054236963,-2.0,0.0,-1.0,2,1,1,0,0,0,0,0.00,0.00,0.00,
3.429,115.18452077610334,95.05102705423697,-2.0,0.0,0.0,2,1,1,0,0,0,0,0.00,0.00,0.00,
3.442,115.11745207761034,95.22110270542369,-2.0,0.0,0.0,2,1,1,0,0,0,0,0.00,0.00,0.00,
3.457,115.21874520776103,94.64411027054237,-2.0,0.0,-1.0,2,1,1,0,0,0,0,0.00,0.00,0.00,
3.47,115.3908745207761,94.77541102705425,-1.0,0.0,0.0,2,1,1,0,0,0,0,0.00,0.00,0.00,
3.483,115.40808745207761,94.80654110270544,-1.0,0.0,0.0,2,1,1,0,0,0,0,0.00,0.00,0.00,
3.497,115.38280874520775,94.88165411027055,-1.0,1.0,0.0,2,1,1,0,0,0,0,0.00,0.00,0.00,
3.511,115.24528087452077,95.01516541102706,-1.0,0.0,-3.0,2,1,1,0,0,0,0,0.00,0.00,0.00,
3.524,115.09652808745207,95.11851654110271,-1.0,0.0,-3.0,2,1,1,0,0,0,0,0.00,0.00,0.00,
3.538,115.0996528087452,95.24585165411028,-2.0,0.0,0.0,2,1,1,0,0,0,0,0.00,0.00,0.00,
3.552,114.97396528087452,95.22258516541103,-2.0,0.0,-2.0,2,1,1,0,0,0,0,0.00,0.00,0.00,
3.565,115.05139652808745,95.3192585165411,-2.0,2.0,-1.0,2,1,1,0,0,0,0,0.00,0.00,0.00,
3.579,115.19413965280873,95.3739258516541,-2.0,2.0,0.0,2,1,1,0,0,0,0,0.00,0.00,0.00,
3.593,115.28041396528089,95.37039258516542,-2.0,2.0,0.0,2,1,1,0,0,0,0,0.00,0.00,0.00,
3.607,115.37004139652808,95.74803925851656,-3.0,0.0,0.0,2,1,1,0,0,0,0,0.00,0.00,0.00,
3.62,115.3610041396528,95.74080392585165,-2.0,0.0,0.0,2,1,1,0,0,0,0,0.00,0.00,0.00,
3.634,115.38710041396527,95.67708039258517,-2.0,0.0,1.0,2,1,1,0,0,0,0,0.00,0.00,0.00,
3.648,115.39871004139654,95.56270803925852,-1.0,0.0,-2.0,2,1,1,0,0,0,0,0.00,0.00,0.00,
3.661,115.52587100413966,95.69527080392585,-2.0,0.0,0.0,2,1,1,0,0,0,0,0.00,0.00,0.00,
3.676,115.70958710041397,95.78952708039259,-2.0,1.0,0.0,2,1,1,0,0,0,0,0.00,0.00,0.00,
3.689,115.7009587100414,95.75395270803925,-2.0,1.0,0.0,2,1,1,0,0,0,0,0.00,0.00,0.00,
3.703,115.58309587100413,95.75039527080392,-3.0,-2.0,-2.0,2,1,1,0,0,0,0,0.00,0.00,0.00,
3.717,115.64330958710042,95.6330395270804,-2.0,-2.0,-1.0,2,1,1,0,0,0,0,0.00,0.00,0.00,
3.731,115.56833095871005,95.57630395270803,-1.0,-2.0,-2.0,2,1,1,0,0,0,0,0.00,0.00,0.00,
3.744,115.434833095871,95.68763039527082,-1.0,-4.0,-2.0,2,1,1,0,0,0,0,0.00,0.00,0.00,
3.759,115.2864833095871,95.78876303952708,-2.0,-1.0,2.0,2,1,1,0,0,0,0,0.00,0.00,0.00,
3.773,115.3706483309587,95.75387630395271,-2.0,0.0,3.0,2,1,1,0,0,0,0,0.00,0.00,0.00,
3.786,115.43306483309587,95.60638763039528,-2.0,0.0,0.0,2,1,1,0,0,0,0,0.00,0.00,0.00,
3.8,115.39430648330958,95.55563876303952,-2.0,0.0,-1.0,2,1,1,0,0,0,0,0.00,0.00,0.00,
3.814,115.31843064833096,95.50556387630395,-2.0,0.0,-2.0,2,1,1,0,0,0,0,0.00,0.00,0.00,
3.828,115.2658430648331,95.4735563876304,-2.0,0.0,-2.0,2,1,1,0,0,0,0,0.00,0.00,0.00,
3.842,115.28758430648332,95.56035563876303,-2.0,0.0,-1.0,2,1,1,0,0,0,0,0.00,0.00,0.00,
3.856,115.35275843064832,95.59603556387628,-3.0,0.0,0.0,2,1,1,0,0,0,0,0.00,0.00,0.00,
3.869,115.43127584306482,95.57260355638762,-2.0,0.0,0.0,2,1,1,0,0,0,0,0.00,0.00,0.00,
3.883,115.41212758430648,95.45326035563876,-2.0,0.0,0.0,2,1,1,0,0,0,0,0.00,0.00,0.00,
3.897,115.32021275843066,95.47732603556388,-2.0,0.0,-1.0,2,1,1,0,0,0,0,0.00,0.00,0.00,
3.91,115.24802127584306,95.45273260355638,-2.0,0.0,-1.0,2,1,1,0,0,0,0,0.00,0.00,0.00,
3.924,115.30380212758432,95.53127326035565,-2.0,0.0,-1.0,2,1,1,0,0,0,0,0.00,0.00,0.00,
3.938,115.30938021275844,95.56612732603556,-2.0,0.0,0.0,2,1,1,0,0,0,0,0.00,0.00,0.00,
3.952,115.38193802127584,95.52461273260356,-2.0,0.0,0.0,2,1,1,0,0,0,0,0.00,0.00,0.00,
3.965,115.37119380212759,95.49346127326035,-2.0,0.0,0.0,2,1,1,0,0,0,0,0.00,0.00,0.00,
3.98,115.38811938021276,95.50834612732604,-1.0,0.0,-1.0,2,1,1,0,0,0,0,0.00,0.00,0.00,
3.993,115.29981193802128,95.59083461273259,-2.0,0.0,-1.0,2,1,1,0,0,0,0,0.00,0.00,0.00,
4.007,115.29998119380213,95.58108346127327,-2.0,0.0,0.0,2,1,1,0,0,0,0,0.00,0.00,0.00,
4.021,115.36299811938022,95.49910834612733,-2.0,0.0,0.0,2,1,1,0,0,0,0,0.00,0.00,0.00,
4.035,115.44129981193802,95.45491083461273,-2.0,0.0,0.0,2,1,1,0,0,0,0,0.00,0.00,0.00,
4.048,115.53912998119381,95.46849108346127,-2.0,1.0,0.0,2,1,1,0,0,0,0,0.00,0.00,0.00,
4.062,115.49491299811937,95.46084910834612,-2.0,0.0,0.0,2,1,1,0,0,0,0,0.00,0.00,0.00,
4.076,115.48149129981194,95.46908491083461,-2.0,0.0,-1.0,2,1,1,0,0,0,0,0.00,0.00,0.00,
4.089,115.5431491299812,95.41590849108346,-2.0,1.0,-1.0,2,1,1,0,0,0,0,0.00,0.00,0.00,
4.104,115.52231491299813,95.48259084910835,-2.0,0.0,-1.0,2,1,1,0,0,0,0,0.00,0.00,0.00,
4.117,115.4212314912998,95.55225908491084,-2.0,0.0,-1.0,2,1,1,0,0,0,0,0.00,0.00,0.00,
4.131,115.39312314912998,95.58622590849109,-3.0,0.0,0.0,2,1,1,0,0,0,0,0.00,0.00,0.00,
4.145,115.39031231491299,95.55362259084912,-3.0,-1.0,0.0,2,1,1,0,0,0,0,0.00,0.00,0.00,
4.159,115.4980312314913,95.40636225908491,-2.0,0.0,0.0,2,1,1,0,0,0,0,0.00,0.00,0.00,
4.172,115.58080312314914,95.3736362259085,-2.0,-1.0,0.0,2,1,1,0,0,0,0,0.00,0.00,0.00,
4.187,115.52608031231492,95.43336362259085,-2.0,-1.0,-2.0,2,1,1,0,0,0,0,0.00,0.00,0.00,
4.2,115.49360803123149,95.49333636225909,-2.0,-1.0,0.0,2,1,1,0,0,0,0,0.00,0,2,
4.629,115.36436080312315,95.57133363622592,-1.0,0.0,0.0,2,1,1,0,0,0,0,0.00,,4.6290,
4.642,115.34243608031232,95.57913336362259,-1.0,-1.0,-2.0,2,1,1,0,0,0,0,0.00,0.00,0.00,
4.657,115.46624360803123,95.55291333636227,-1.0,1.0,0.0,2,1,1,0,0,0,0,0.00,0.00,0.00,
4.67,115.23562436080311,95.60429133363623,-2.0,-1.0,0.0,2,1,1,0,0,0,0,0.00,0.00,0.00,
4.684,115.2395624360803,95.51042913336363,-2.0,1.0,0.0,2,1,1,0,0,0,0,0.00,0.00,0.00,
4.698,115.30295624360804,95.47404291333636,-1.0,-1.0,-3.0,2,1,1,0,0,0,0,0.00,0.00,0.00,
4.711,115.3272956243608,95.56040429133363,-2.0,0.0,0.0,2,1,1,0,0,0,0,0.00,0.00,0.00,
4.725,115.36572956243609,95.55104042913337,-1.0,0.0,0.0,2,1,1,0,0,0,0,0.00,0.00,0.00,
4.739,115.4145729562436,95.56810404291332,-2.0,-1.0,-1.0,2,1,1,0,0,0,0,0.00,0.00,0.00,
4.753,115.43745729562436,95.56081040429133,-2.0,0.0,0.0,2,1,1,0,0,0,0,0.00,0.00,0.00,
4.766,115.50274572956243,95.69508104042913,-2.0,0.0,-1.0,2,1,1,0,0,0,0,0.00,0.00,0.00,
4.781,115.50927457295624,95.64550810404292,-1.0,0.0,0.0,2,1,1,0,0,0,0,0.00,0.00,0.00,
4.794,115.47392745729562,95.6945508104043,-2.0,-1.0,-1.0,2,1,1,0,0,0,0,0.00,0.00,0.00,
4.808,115.44339274572955,95.71745508104043,-2.0,-1.0,0.0,2,1,1,0,0,0,0,0.00,0.00,0.00,
4.822,115.44033927457295,95.76474550810404,-2.0,0.0,0.0,2,1,1,0,0,0,0,0.00,0.00,0.00,
4.836,115.42203392745729,95.7424745508104,-2.0,0.0,-2.0,2,1,1,0,0,0,0,0.00,0.00,0.00,
4.849,115.38420339274572,95.74924745508103,-2.0,0.0,0.0,2,1,1,0,0,0,0,0.00,0.00,0.00,
4.862,115.39842033927458,95.6689247455081,-2.0,0.0,-1.0,2,1,1,0,0,0,0,0.00,0.00,0.00,
4.877,115.48084203392746,95.56189247455082,-2.0,0.0,0.0,2,1,1,0,0,0,0,0.00,0.00,0.00,
4.89,115.41708420339275,95.55118924745508,-1.0,0.0,-2.0,2,1,1,0,0,0,0,0.00,0.00,0.00,
4.904,115.34770842033929,95.5681189247455,-2.0,-1.0,0.0,2,1,1,0,0,0,0,0.00,0.00,0.00,
4.918,115.33177084203392,95.55181189247455,-1.0,0.0,0.0,2,1,1,0,0,0,0,0.00,0.00,0.00,
4.932,115.30317708420338,95.55018118924745,-1.0,-1.0,0.0,2,1,1,0,0,0,0,0.00,0.00,0.00,
4.945,115.27331770842034,95.50501811892474,-2.0,-1.0,0.0,2,1,1,0,0,0,0,0.00,0.00,0.00,
4.96,115.30633177084204,95.45550181189247,-2.0,-1.0,0.0,2,1,1,0,0,0,0,0.00,0.00,0.00,
4.973,115.3186331770842,95.41455018118924,-2.0,-1.0,0.0,2,1,1,0,0,0,0,0.00,0.00,0.00,
4.987,115.33786331770843,95.42845501811894,-1.0,0.0,-1.0,2,1,1,0,0,0,0,0.00,0.00,0.00,
5.001,115.39378633177085,95.4208455018119,-2.0,-1.0,0.0,2,1,1,0,0,0,0,0.00,0.00,0.00,
5.015,115.36337863317708,95.41108455018119,-2.0,0.0,0.0,2,1,1,0,0,0,0,0.00,0.00,0.00,
5.028,115.36033786331771,95.37410845501813,-1.0,0.0,-1.0,2,1,1,0,0,0,0,0.00,0.00,0.00,
5.043,115.29703378633178,95.3074108455018,-1.0,0.0,-2.0,2,1,1,0,0,0,0,0.00,0.00,0.00,
5.056,115.30870337863318,95.45374108455019,-2.0,-1.0,0.0,2,1,1,0,0,0,0,0.00,0.00,0.00,
5.07,115.28287033786333,95.39637410845502,-2.0,0.0,0.0,2,1,1,0,0,0,0,0.00,0.00,0.00,
5.084,115.31628703378632,95.3276374108455,-2.0,0.0,-1.0,2,1,1,0,0,0,0,0.00,0.00,0.00,
5.098,115.32862870337863,95.40176374108455,-2.0,-1.0,-2.0,2,1,1,0,0,0,0,0.00,0.00,0.00,
5.112,115.40186287033787,95.40917637410845,-2.0,0.0,0.0,2,1,1,0,0,0,0,0.00,0.00,0.00,
5.126,115.38218628703379,95.48191763741085,-2.0,0.0,0.0,2,1,1,0,0,0,0,0.00,0.00,0.00,
5.139,115.40721862870338,95.53419176374109,-2.0,0.0,0.0,2,1,1,0,0,0,0,0.00,0.00,0.00,
5.153,115.39172186287033,95.49441917637411,-2.0,0.0,0.0,2,1,1,0,0,0,0,0.00,0.00,0.00,
5.167,115.35417218628703,95.49044191763741,-2.0,0.0,-1.0,2,1,1,0,0,0,0,0.00,0.00,0.00,
5.181,115.4494172186287,95.55304419176375,-2.0,1.0,-1.0,2,1,1,0,0,0,0,0.00,0.00,0.00,
5.194,115.53094172186287,95.64030441917637,-2.0,0.0,0.0,2,1,1,0,0,0,0,0.00,0.00,0.00,
5.209,115.55709417218628,95.57703044191763,-2.0,0.0,0.0,2,1,1,0,0,0,0,0.00,0.00,0.00,
5.222,115.58670941721863,95.57970304419177,-1.0,0.0,0.0,2,1,1,0,0,0,0,0.00,0.00,0.00,
5.236,115.62567094172185,95.55297030441918,-1.0,0.0,-1.0,2,1,1,0,0,0,0,0.00,0.00,0.00,
5.25,115.59356709417219,95.57729703044193,-2.0,0.0,-1.0,2,1,1,0,0,0,0,0.00,0.00,0.00,
5.264,115.56335670941722,95.52572970304419,-2.0,0.0,0.0,2,1,1,0,0,0,0,0.00,0.00,0.00,
5.277,115.47033567094172,95.52057297030441,-2.0,0.0,0.0,2,1,1,0,0,0,0,0.00,0.00,0.00,
5.291,115.45203356709418,95.53805729703045,-2.0,0.0,-1.0,2,1,1,0,0,0,0,0.00,0.00,0.00,
5.305,115.45920335670942,95.62980572970305,-2.0,0.0,0.0,2,1,1,0,0,0,0,0.00,0.00,0.00,
5.318,115.46892033567094,95.6299805729703,-2.0,0.0,0.0,2,1,1,0,0,0,0,0.00,0.00,0.00,
5.332,115.48789203356709,95.55799805729703,-2.0,0.0,-1.0,2,1,1,0,0,0,0,0.00,0.00,0.00,
5.346,115.52578920335671,95.58679980572971,-1.0,0.0,-1.0,2,1,1,0,0,0,0,0.00,0.00,0.00,
5.36,115.52057892033567,95.65267998057297,-2.0,0.0,-1.0,2,1,1,0,0,0,0,0.00,0.00,0.00,
5.373,115.49305789203356,95.6412679980573,-2.0,0.0,0.0,2,1,1,0,0,0,0,0.00,0.00,0.00,
5.388,115.49930578920336,95.60412679980573,-2.0,0.0,0.0,2,1,1,0,0,0,0,0.00,0.00,0.00,
5.401,115.47293057892034,95.53741267998058,-2.0,0.0,0.0,2,1,1,0,0,0,0,0.00,0.00,0.00,
5.415,115.47929305789204,95.51274126799805,-2.0,0.0,0.0,2,1,1,0,0,0,0,0.00,0.00,0.00,
5.429,115.4979293057892,95.4922741267998,-2.0,0.0,0.0,2,1,1,0,0,0,0,0.00,0.00,0.00,
5.443,115.49979293057892,95.44522741267998,-2.0,0.0,0.0,2,1,1,0,0,0,0,0.00,0.00,0.00,
5.456,115.49097929305789,95.440522741268,-2.0,0.0,-1.0,2,1,1,0,0,0,0,0.00,0.00,0.00,
5.471,115.47209792930579,95.4760522741268,-2.0,0.0,-1.0,2,1,1,0,0,0,0,0.00,0.00,0.00,
5.484,115.50620979293058,95.45260522741268,-2.0,0.0,0.0,2,1,1,0,0,0,0,0.00,0.00,0.00,
5.497,115.52762097929306,95.48626052274128,-2.0,-1.0,-1.0,2,1,1,0,0,0,0,0.00,0.00,0.00,
5.512,115.5657620979293,95.52562605227413,-2.0,0.0,0.0,2,1,1,0,0,0,0,0.00,0.00,0.00,
5.525,115.54257620979293,95.5655626052274,-2.0,0.0,0.0,2,1,1,0,0,0,0,0.00,0.00,0.00,
5.539,115.53125762097929,95.56955626052273,-2.0,0.0,0.0,2,1,1,0,0,0,0,0.00,0.00,0.00,
5.553,115.50312576209792,95.53395562605228,-2.0,0.0,0.0,2,1,1,0,0,0,0,0.00,0.00,0.00,
5.567,115.47331257620979,95.53939556260522,-2.0,0.0,-1.0,2,1,1,0,0,0,0,0.00,0.00,0.00,
5.58,115.52433125762099,95.55793955626052,-2.0,0.0,0.0,2,1,1,0,0,0,0,0.00,0.00,0.00,
5.595,115.5384331257621,95.57779395562605,-2.0,-1.0,-1.0,2,1,1,0,0,0,0,0.00,0.00,0.00,
5.608,115.49484331257621,95.55277939556261,-2.0,0.0,0.0,2,1,1,0,0,0,0,0.00,0.00,0.00,
5.622,115.54448433125762,95.47827793955626,-2.0,0.0,0.0,2,1,1,0,0,0,0,0.00,0.00,0.00,
5.636,115.52244843312576,95.47982779395562,-2.0,0.0,-1.0,2,1,1,0,0,0,0,0.00,0.00,0.00,
5.65,115.48424484331258,95.54298277939557,-2.0,-1.0,0.0,2,1,1,0,0,0,0,0.00,0.00,0.00,
5.663,115.43542448433126,95.56729827793954,-2.0,0.0,0.0,2,1,1,0,0,0,0,0.00,0.00,0.00,
5.678,115.43054244843314,95.51572982779396,-2.0,0.0,0.0,2,1,1,0,0,0,0,0.00,0.00,0.00,
5.691,115.43005424484332,95.5375729827794,-2.0,0.0,-1.0,2,1,1,0,0,0,0,0.00,0.00,0.00,
5.705,115.42100542448433,95.47675729827793,-2.0,0.0,0.0,2,1,1,0,0,0,0,0.00,0.00,0.00,
5.719,115.39310054244842,95.42567572982779,-2.0,0.0,0.0,2,1,1,0,0,0,0,0.00,0.00,0.00,
5.732,115.46231005424484,95.39356757298278,-1.0,0.0,-1.0,2,1,1,0,0,0,0,0.00,0.00,0.00,
5.746,115.39723100542449,95.43535675729828,-1.0,0.0,-1.0,2,1,1,0,0,0,0,0.00,0.00,0.00,
5.76,115.33672310054244,95.49353567572983,-2.0,0.0,0.0,2,1,1,0,0,0,0,0.00,0.00,0.00,
5.774,115.35767231005424,95.52635356757298,-2.0,0.0,0.0,2,1,1,0,0,0,0,0.00,0.00,0.00,
5.787,115.42276723100544,95.5296353567573,-2.0,0.0,0.0,2,1,1,0,0,0,0,0.00,0.00,0.00,
5.801,115.42927672310056,95.53896353567573,-2.0,0.0,0.0,2,1,1,0,0,0,0,0.00,0.00,0.00,
5.815,115.36692767231006,95.51289635356757,-2.0,0.0,0.0,2,1,1,0,0,0,0,0.00,0.00,0.00,
5.829,115.351692767231,95.52828963535676,-2.0,0.0,0.0,2,1,1,0,0,0,0,0.00,0.00,0.00,
5.842,115.36816927672311,95.51182896353568,-2.0,0.0,0.0,2,1,1,0,0,0,0,0.00,0.00,0.00,
5.857,115.3518169276723,95.51018289635357,-2.0,0.0,0.0,2,1,1,0,0,0,0,0.00,0.00,0.00,
5.87,115.34118169276724,95.56401828963534,-2.0,0.0,-1.0,2,1,1,0,0,0,0,0.00,0.00,0.00,
5.883,115.35811816927672,95.56940182896352,-2.0,-1.0,0.0,2,1,1,0,0,0,0,0.00,0.00,0.00,
5.898,115.41381181692768,95.56994018289635,-2.0,0.0,0.0,2,1,1,0,0,0,0,0.00,0.00,0.00,
5.911,115.52738118169277,95.60599401828964,-2.0,0.0,0.0,2,1,1,0,0,0,0,0.00,0.00,0.00,
5.925,115.54773811816928,95.58259940182897,-2.0,0.0,0.0,2,1,1,0,0,0,0,0.00,0.00,0.00,
5.939,115.53177381181693,95.59825994018288,-2.0,0.0,0.0,2,1,1,0,0,0,0,0.00,0.00,0.00,
5.953,115.47617738118169,95.56382599401829,-2.0,0.0,0.0,2,1,1,0,0,0,0,0.00,0.00,0.00,
5.966,115.54261773811817,95.55138259940183,-2.0,0.0,-1.0,2,1,1,0,0,0,0,0.00,0.00,0.00,
5.981,115.54926177381182,95.57713825994018,-2.0,-1.0,0.0,2,1,1,0,0,0,0,0.00,0.00,0.00,
5.994,115.63092617738118,95.52571382599402,-2.0,0.0,0.0,2,1,1,0,0,0,0,0.00,0.00,0.00,
6.008,115.63009261773811,95.5385713825994,-2.0,-1.0,-3.0,2,1,1,0,0,0,0,0.00,0.00,0.00,
6.022,115.66600926177382,95.58485713825995,-2.0,0.0,0.0,2,1,1,0,0,0,0,0.00,0.00,0.00,
6.036,115.6696009261774,95.55348571382599,-2.0,0.0,0.0,2,1,1,0,0,0,0,0.00,0.00,0.00,
6.049,115.62496009261774,95.5503485713826,-2.0,0.0,-1.0,2,1,1,0,0,0,0,0.00,0.00,0.00,
6.064,115.61149600926177,95.52303485713826,-2.0,0.0,0.0,2,1,1,0,0,0,0,0.00,0.00,0.00,
6.077,115.59214960092618,95.54730348571383,-2.0,0.0,0.0,2,1,1,0,0,0,0,0.00,0.00,0.00,
6.09,115.59921496009261,95.54073034857139,-2.0,0.0,0.0,2,1,1,0,0,0,0,0.00,0.00,0.00,
6.105,115.57292149600924,95.54007303485714,-2.0,0.0,0.0,2,1,1,0,0,0,0,0.00,0.00,0.00,
6.118,115.57929214960093,95.54000730348571,-2.0,0.0,0.0,2,1,1,0,0,0,0,0.00,0.00,0.00,
6.132,115.6069292149601,95.49500073034858,-2.0,0.0,-1.0,2,1,1,0,0,0,0,0.00,0.00,0.00,
6.146,115.54669292149602,95.49950007303485,-2.0,0.0,-1.0,2,1,1,0,0,0,0,0.00,0.00,0.00,
6.16,115.5226692921496,95.49995000730348,-2.0,0.0,-1.0,2,1,1,0,0,0,0,0.00,0.00,0.00,
6.173,115.53826692921496,95.49999500073035,-2.0,0.0,0.0,2,1,1,0,0,0,0,0.00,0.00,0.00,
6.188,115.5308266929215,95.49099950007303,-2.0,0.0,0.0,2,1,1,0,0,0,0,0.00,0.00,0.00,
6.201,115.46708266929215,95.43609995000732,-2.0,0.0,0.0,2,1,1,0,0,0,0,0.00,0.00,0.00,
6.215,115.50570826692922,95.47560999500072,-2.0,0.0,0.0,2,1,1,0,0,0,0,0.00,0.00,0.00,
6.228,115.58157082669292,95.47056099950007,-2.0,0.0,-1.0,2,1,1,0,0,0,0,0.00,0.00,0.00,
6.243,115.57115708266929,95.45205609995,-2.0,0.0,-1.0,2,1,1,0,0,0,0,0.00,0.00,0.00,
6.256,115.65111570826691,95.459205609995,-2.0,0.0,0.0,2,1,1,0,0,0,0,0.00,0.00,0.00,
6.269,115.76711157082669,95.51392056099951,-2.0,0.0,0.0,2,1,1,0,0,0,0,0.00,0.00,0.00,
6.284,115.72471115708267,95.43839205609996,-2.0,0.0,0.0,2,1,1,0,0,0,0,0.00,0.00,0.00,
6.297,115.69347111570826,95.51183920561,-2.0,0.0,0.0,2,1,1,0,0,0,0,0.00,0.00,0.00,
6.311,115.65434711157083,95.537183920561,-2.0,-1.0,-1.0,2,1,1,0,0,0,0,0.00,0.00,0.00,
6.325,115.68643471115708,95.59371839205609,-2.0,-1.0,-1.0,2,1,1,0,0,0,0,0.00,-2180.37,0.00,
6.347,115.6626434711157,95.54537183920561,-2.0,0.0,0.0,2,1,1,0,0,0,0,0.00,0.00,0.00,
6.361,115.61526434711158,95.55853718392056,-2.0,-1.0,-2.0,2,1,1,0,0,0,0,0.00,0.00,0.00,
6.375,115.67352643471116,95.58685371839206,-2.0,-1.0,0.0,2,1,1,0,0,0,0,0.00,0.00,0.00,
6.388,115.75135264347112,95.54468537183921,-2.0,0.0,0.0,2,1,1,0,0,0,0,0.00,0.00,0.00,
6.403,115.7231352643471,95.45946853718392,-2.0,0.0,0.0,2,1,1,0,0,0,0,0.00,0.00,0.00,
6.416,115.71131352643471,95.4329468537184,-2.0,-1.0,-1.0,2,1,1,0,0,0,0,0.00,0.00,0.00,
6.429,115.62913135264347,95.43029468537185,-2.0,-1.0,-2.0,2,1,1,0,0,0,0,0.00,0.00,0.00,
6.444,115.50391313526434,95.4300294685372,-2.0,-1.0,-3.0,2,1,1,0,0,0,0,0.00,0.00,0.00,
6.457,115.21239131352644,95.45700294685372,-2.0,-3.0,-2.0,2,1,1,0,0,0,0,0.00,0.00,0.00,
6.471,115.14723913135265,95.43270029468539,-4.0,-3.0,-5.0,2,1,1,0,0,0,0,0.00,0.00,0.00,
6.484,114.77172391313526,95.31327002946853,-5.0,-2.0,-3.0,2,1,1,0,0,0,0,0.00,0.00,0.00,
6.499,114.94117239131353,95.65232700294685,-5.0,-1.0,0.0,2,1,1,0,0,0,0,0.00,0.00,0.00,
6.512,115.04811723913136,95.86623270029469,-5.0,3.0,5.0,1,1,0,0,0,0,0,0.00,0.00,0.00,
6.525,115.23881172391314,95.64462327002947,-6.0,4.0,8.0,1,1,0,0,0,0,0,0.00,0.00,0.00,
6.539,115.49188117239132,95.17246232700295,-5.0,1.0,3.0,1,1,0,0,0,0,0,0.00,0.00,0.00,
6.552,115.53518811723913,95.03524623270029,-6.0,-6.0,-3.0,1,1,0,0,0,0,0,0.00,0.00,0.00,
6.566,115.4315188117239,95.01252462327002,-6.0,-1.0,0.0,1,1,0,0,0,0,0,0.00,0.00,0.00,
6.58,115.31315188117239,94.85725246232701,-6.0,-1.0,1.0,1,1,0,0,0,0,0,0.00,0.00,0.00,
6.593,115.15731518811724,94.5897252462327,-6.0,-6.0,-1.0,1,1,0,0,0,0,0,0.00,0.00,0.00,
6.606,114.83573151881171,94.35597252462327,-5.0,-5.0,-8.0,1,1,0,0,0,0,0,0.00,0.00,0.00,
6.621,114.74957315188117,94.35059725246232,-2.0,-3.0,-6.0,1,1,0,0,0,0,0,0.00,0.00,0.00,
6.634,114.9029573151881,94.39505972524624,0.0,3.0,-1.0,1,1,0,0,0,0,0,0.00,0.00,0.00,
6.647,115.08929573151882,95.71350597252462,1.0,6.0,0.0,1,1,0,0,0,0,0,0.00,0.00,,
7.079,117.37592957315188,94.26135059725246,20.0,5.0,-1.0,3,1,1,0,0,0,0,0.69,0.00,0.00,
7.093,117.53259295731519,94.25113505972524,18.0,0.0,-1.0,3,1,1,0,0,0,0,0.39,0.00,0.00,
7.106,117.09825929573151,95.04211350597252,12.0,-3.0,-10.0,3,1,1,0,0,0,0,0.10,0.00,0.59,
7.12,116.79382592957315,94.84221135059724,3.0,0.0,-7.0,3,1,1,0,0,0,0,0.00,0.00,0.78,
7.134,117.06038259295731,97.29722113505973,0.0,4.0,16.0,3,1,1,0,0,0,0,0.00,0.00,1.08,
7.147,117.22203825929572,97.50672211350597,1.0,6.0,-9.0,3,1,1,0,0,0,0,0.00,-2403.94,1.28,
7.169,117.37320382592956,97.19467221135059,0.0,8.0,0.0,3,1,1,0,0,0,0,0.00,0.00,1.77,
7.183,117.73932038259296,96.95646722113507,-1.0,7.0,-4.0,3,1,1,0,0,0,0,0.00,0.00,2.06,
7.196,117.99193203825929,97.3106467221135,-2.0,7.0,1.0,3,1,2,0,0,0,0,0.00,0.00,2.75,
7.209,117.92719320382592,97.45406467221135,-12.0,6.0,-9.0,3,1,1,0,0,0,0,0.00,0.00,3.04,
7.223,117.3267193203826,96.78440646722113,-13.0,12.0,-1.0,3,1,1,0,0,0,0,0.00,0.00,3.04,
7.237,117.42867193203826,96.5194406467221,-12.0,19.0,4.0,3,1,1,0,0,0,0,0.00,0.00,2.94,
7.25,118.00586719320381,96.2679440646722,-9.0,1.0,-6.0,3,1,1,0,0,0,0,0.00,0.00,2.65,
7.264,118.42358671932038,95.75679440646724,-5.0,0.0,-3.0,3,1,1,0,0,0,0,0.00,0.00,2.45,
7.277,118.73535867193203,95.17467944064673,1.0,-2.0,0.0,3,1,1,0,0,0,0,0.00,0.00,2.35,
7.291,119.0455358671932,95.05346794406466,4.0,-8.0,-3.0,3,1,1,0,0,0,0,0.00,0.00,2.35,
7.305,118.89655358671932,95.12234679440647,3.0,-10.0,-4.0,3,1,1,0,0,0,0,0.00,0.00,2.26,
7.318,118.66565535867193,95.31823467944065,1.0,-7.0,-4.0,3,1,2,0,0,0,0,0.00,0.00,2.26,
7.332,118.4265655358672,95.51782346794407,-1.0,-7.0,-6.0,3,1,2,0,0,0,0,0.00,0.00,2.06,
7.346,118.23165655358672,95.55578234679442,-2.0,-2.0,-3.0,3,1,2,0,0,0,0,0.00,0.00,1.96,
7.36,118.19416565535866,95.47857823467945,-3.0,-2.0,-3.0,3,1,2,0,0,0,0,0.00,0.00,1.67,
7.373,118.32541656553586,95.33585782346793,-2.0,0.0,-1.0,3,1,2,0,0,0,0,0.00,0.00,1.57,
7.387,118.59954165655358,95.35758578234679,-4.0,-1.0,-3.0,3,1,1,0,0,0,0,0.00,0.00,1.47,
7.4,118.53695416565536,95.42275857823469,-6.0,-3.0,-4.0,3,1,1,0,0,0,0,0.00,0.00,1.37,
7.414,118.33269541656553,95.40227585782348,-7.0,-1.0,-3.0,3,1,1,0,0,0,0,0.00,0.00,1.37,
7.428,118.36626954165655,95.21122758578235,-5.0,0.0,-1.0,3,1,1,0,0,0,0,0.00,0.00,1.57,
7.441,118.43262695416566,95.05712275857823,-2.0,-2.0,0.0,3,1,1,0,0,0,0,0.00,0.00,1.47,
7.455,118.67326269541655,94.80771227585782,0.0,-5.0,3.0,3,1,1,0,0,0,0,0.00,0.00,1.57,
7.469,119.18332626954165,93.92777122758578,5.0,-7.0,11.0,3,1,2,0,0,0,0,0.00,0.00,1.47,
7.482,118.87433262695417,94.45177712275859,0.0,-9.0,0.0,3,1,2,0,0,0,0,0.00,0.00,1.37,
7.496,118.35743326269541,95.14317771227587,-9.0,-9.0,-8.0,3,1,2,0,0,0,0,0.00,0.00,1.37,
7.51,117.99974332626954,95.14031777122759,-11.0,5.0,2.0,3,1,2,0,0,0,0,0.00,0.00,1.28,
7.523,118.09897433262695,94.82503177712276,-9.0,5.0,-1.0,3,1,1,0,0,0,0,0.00,0.00,1.08,
7.536,118.3788974332627,94.64050317771228,-7.0,0.0,-1.0,3,1,1,0,0,0,0,0.00,0.00,1.08,
7.55,118.34388974332627,94.46905031777123,-5.0,-1.0,0.0,3,1,1,0,0,0,0,0.00,0.00,0.88,
7.564,118.49338897433263,94.34390503177713,-2.0,0.0,2.0,3,1,1,0,0,0,0,0.00,0.00,0.78,
7.577,118.32833889743326,94.25039050317771,-1.0,-6.0,5.0,3,1,1,0,0,0,0,0.00,0.00,0.69,
7.591,118.33883388974333,92.73803905031777,3.0,-2.0,0.0,3,1,2,0,0,0,0,0.00,0.00,0.59,
7.605,118.03388338897433,93.06380390503176,0.0,0.0,1.0,3,1,2,0,0,0,0,0.00,0.00,0.69,
7.618,117.79638833889743,93.58238039050318,-1.0,-1.0,-1.0,3,1,2,0,0,0,0,0.00,0.00,0.78,
7.632,117.98863883388974,93.76923803905032,-2.0,0.0,5.0,3,1,2,0,0,0,0,0.00,0.00,0.88,
7.646,118.46686388338897,93.92292380390504,-1.0,2.0,3.0,3,1,2,0,0,0,0,0.00,0.00,1.08,
7.66,118.3976863883389,93.99229238039051,-2.0,-2.0,2.0,3,1,2,0,0,0,0,0.00,0.00,1.18,
7.673,118.26476863883389,93.72022923803905,2.0,-1.0,-16.0,3,1,2,0,0,0,0,0.00,0.00,1.28,
7.688,118.52147686388338,93.08102292380391,3.0,0.0,15.0,3,1,2,0,0,0,0,0.00,0.00,1.47,
7.701,118.29514768638833,89.26410229238039,10.0,-3.0,-46.0,3,1,2,0,0,0,0,0.00,0.00,1.77,
7.715,118.11051476863884,89.11641022923803,7.0,-6.0,-31.0,3,1,2,0,0,0,0,0.00,0.00,2.16,
7.73,118.02005147686388,88.90364102292381,9.0,-2.0,-19.0,3,1,2,0,0,0,0,0.00,0.00,2.84,
7.743,117.66900514768639,88.04536410229238,8.0,0.0,0.0,3,1,2,0,0,0,0,0.00,0.00,3.24,
7.757,117.30990051476863,88.47253641022922,6.0,-11.0,-8.0,3,1,2,0,0,0,0,0.00,0.00,3.63,
7.771,116.54499005147686,85.63525364102291,11.0,-10.0,-37.0,3,1,2,0,0,1,0,0.00,0.00,4.02,
7.785,117.81849900514769,88.8975253641023,9.0,-17.0,-15.0,3,1,2,1,0,1,0,0.00,0.00,5.40,
7.799,117.00984990051478,90.69975253641023,8.0,-18.0,-3.0,3,2,2,1,0,1,0,0.00,0.00,6.18,
7.813,116.6589849900515,96.10897525364102,7.0,-21.0,-27.0,4,2,2,1,0,1,0,0.00,0.00,6.97,
7.827,116.23689849900515,95.8308975253641,8.0,-8.0,-5.0,4,2,3,1,0,1,0,0.00,0.00,7.65,
7.841,116.24868984990052,96.21708975253641,5.0,-11.0,-6.0,4,2,3,1,0,1,1,0.00,0.00,8.73,
7.855,115.73686898499005,96.67870897525364,1.0,-13.0,-8.0,4,2,3,1,0,1,1,0.00,0.00,9.22,
7.869,115.613686898499,96.67087089752536,1.0,-6.0,-11.0,4,2,3,1,0,2,1,0.00,0.00,9.71,
7.882,115.7273686898499,96.68808708975254,1.0,-4.0,-9.0,4,2,3,1,0,2,1,0.00,0.00,10.59,
7.897,115.90073686898499,97.66180870897524,0.0,-6.0,-4.0,4,2,3,1,0,2,1,0.00,0.00,11.18,
7.911,115.5220736868985,97.80418087089751,2.0,0.0,-4.0,3,2,3,1,0,2,1,0.00,0.00,11.67,
7.924,115.51120736868985,98.17841808708974,1.0,6.0,0.0,3,2,3,1,0,2,1,0.00,0.00,12.07,
7.939,115.61812073686897,98.53984180870897,0.0,8.0,1.0,3,2,3,1,0,2,1,0.00,0.00,13.24,
7.952,115.5568120736869,98.5309841808709,-2.0,16.0,5.0,3,2,3,1,0,2,1,0.00,0.00,13.83,
7.966,115.7126812073687,98.76409841808709,-2.0,13.0,2.0,3,3,3,1,0,2,1,0.00,0.00,14.42,
7.98,116.22326812073686,98.6794098418087,-3.0,15.0,8.0,3,3,3,1,0,1,1,0.00,0.00,15.01,
7.994,116.28332681207368,98.49094098418087,-4.0,16.0,9.0,3,3,3,1,0,1,0,0.00,0.00,15.21,
8.008,116.64933268120737,98.24709409841807,-4.0,18.0,8.0,3,3,3,1,0,1,0,0.00,0.00,15.11,
8.022,117.17193326812074,98.1147094098418,-7.0,14.0,9.0,3,3,3,1,0,1,0,0.00,0.00,14.91,
8.036,117.54819332681207,97.80447094098417,-10.0,12.0,7.0,3,3,3,1,0,1,0,0.00,0.00,14.52,
8.05,117.70281933268122,97.37744709409841,-9.0,12.0,5.0,3,3,3,1,0,1,0,0.00,0.00,13.34,
8.064,117.88928193326812,97.19974470940984,-8.0,14.0,4.0,4,2,3,1,0,1,0,0.00,0.00,12.46,
8.078,118.00692819332681,97.10997447094098,-9.0,10.0,4.0,3,2,3,1,0,0,0,0.00,0.00,11.87,
8.091,118.21669281933268,96.9029974470941,-7.0,9.0,3.0,3,2,3,1,0,0,0,0.00,0.00,11.58,
8.105,118.43566928193326,96.76529974470941,-5.0,11.0,4.0,3,2,3,1,0,0,0,0.00,0.00,10.89,
8.12,118.58356692819332,96.73352997447094,-6.0,12.0,5.0,3,2,3,1,0,0,0,0.00,0.00,10.89,
8.133,118.64335669281934,96.6493529974471,-6.0,11.0,4.0,3,2,3,0,0,0,0,0.00,0.00,10.89,
8.147,118.74833566928193,96.58693529974471,-7.0,10.0,3.0,3,2,3,0,0,0,0,0.00,0.00,10.79,
8.161,119.0288335669282,96.40069352997448,-7.0,13.0,3.0,3,2,3,0,0,0,0,0.00,0.00,10.99,
8.175,119.23688335669281,96.46306935299745,-8.0,11.0,3.0,3,2,3,0,0,0,0,0.00,0.00,11.28,
8.189,119.49168833566928,96.38830693529975,-8.0,9.0,2.0,3,2,3,0,0,0,0,0.00,0.00,11.38,
8.203,119.67916883356693,96.30883069352997,-8.0,9.0,3.0,3,2,3,0,0,0,0,0.00,0.00,11.48,
8.217,119.6979168833567,96.417883069353,-7.0,8.0,3.0,3,2,2,0,0,0,0,0.00,0.00,11.48,
8.23,119.89779168833566,96.11378830693529,-9.0,6.0,-1.0,3,2,2,0,0,0,0,0.00,0.00,11.48,
8.245,120.12477916883357,95.81337883069352,-5.0,7.0,2.0,3,2,2,0,0,0,0,0.00,0.00,11.38,
8.258,120.66047791688335,95.61233788306936,-2.0,4.0,0.0,3,2,2,0,0,0,0,0.00,0.00,11.09,
8.272,120.94804779168834,95.54723378830694,0.0,0.0,0.0,3,2,2,0,0,0,0,0.00,0.00,10.89,
8.286,121.05780477916882,95.49572337883069,0.0,-2.0,-1.0,3,2,2,0,0,0,0,0.00,0.00,10.69,
8.3,120.89778047791688,95.41857233788306,1.0,-3.0,-1.0,4,2,2,0,0,0,0,0.00,0.00,10.69,
8.314,120.79177804779168,95.54585723378831,0.0,-3.0,0.0,4,2,2,0,0,0,0,0.00,0.00,10.59,
8.328,120.58317780477917,95.66658572337883,0.0,-3.0,-1.0,4,2,2,0,0,0,0,0.00,0.00,10.30,
8.342,120.47231778047791,95.7236585723379,0.0,-2.0,-1.0,4,2,2,0,0,0,0,0.00,0.00,10.01,
8.355,120.37123177804779,95.79236585723379,-1.0,-1.0,0.0,4,2,2,0,0,0,0,0.00,0.00,9.81,
8.37,120.34312317780478,95.81723658572338,-1.0,0.0,0.0,4,2,2,0,0,0,0,0.00,0.00,9.52,
8.383,120.34931231778047,95.71172365857234,-1.0,-1.0,-1.0,4,2,2,0,0,0,0,0.00,0.00,8.73,
8.397,120.41293123177805,95.75517236585725,0.0,-1.0,-1.0,4,2,2,0,0,0,0,0.00,0.00,8.44,
8.411,120.4372931231778,95.81351723658572,-1.0,-3.0,-1.0,4,2,2,0,0,0,0,0.00,0.00,8.04,
8.425,120.54772931231778,95.80135172365857,-2.0,-5.0,-1.0,4,2,2,0,0,0,0,0.00,0.00,7.75,
8.439,120.45077293123178,95.70113517236585,-1.0,-6.0,-2.0,4,2,2,0,0,0,0,0.00,0.00,6.97,
8.453,120.31507729312317,95.71811351723657,0.0,-6.0,-2.0,4,2,2,0,0,0,0,0.00,0.00,6.57,
8.467,120.04950772931231,95.75581135172366,-1.0,-5.0,-2.0,4,2,2,0,0,0,0,0.00,0.00,6.18,
8.48,119.79795077293122,95.63358113517236,0.0,-4.0,-2.0,4,2,2,0,0,0,0,0.00,0.00,5.89,
8.495,119.71879507729311,95.57635811351723,1.0,-6.0,-3.0,4,2,2,0,0,0,0,0.00,0.00,5.49,
8.508,119.68387950772932,95.51663581135172,3.0,-5.0,-3.0,4,2,2,0,0,0,0,0.00,0.00,5.59,
8.522,119.63538795077292,95.71766358113517,2.0,-7.0,-3.0,4,2,2,0,0,0,0,0.00,0.00,5.69,
8.537,119.51353879507728,95.75576635811353,2.0,-7.0,-4.0,4,2,3,0,0,0,0,0.00,0.00,5.98,
8.55,119.60935387950772,95.89457663581135,2.0,-8.0,-4.0,4,2,3,0,0,0,0,0.00,0.00,6.28,
8.564,119.63693538795077,95.91745766358113,3.0,-10.0,-4.0,4,2,3,0,0,0,0,0.00,0.00,6.47,
8.578,119.54969353879508,96.09974576635813,3.0,-12.0,-4.0,4,2,3,1,0,0,0,0.00,0.00,6.67,
8.592,119.28896935387951,96.1989745766358,3.0,-11.0,-4.0,4,3,3,1,0,0,0,0.00,0.00,6.77,
8.605,119.16389693538797,96.27189745766358,3.0,-10.0,-4.0,4,3,3,1,0,0,0,0.00,0.00,7.16,
8.62,118.98038969353878,96.34218974576636,4.0,-10.0,-4.0,4,3,3,1,0,1,0,0.00,0.00,7.36,
8.634,118.88103896935388,96.58321897457662,3.0,-11.0,-4.0,4,3,3,1,0,1,0,0.00,0.00,7.65,
8.647,118.69110389693539,96.69732189745767,3.0,-10.0,-3.0,4,3,3,1,0,1,0,0.00,0.00,7.95,
8.662,118.47411038969354,96.91573218974577,2.0,-10.0,-3.0,4,3,3,1,0,1,0,0.00,0.00,8.14,
8.676,118.22741103896936,97.04557321897457,1.0,-10.0,-3.0,4,3,3,1,0,1,0,0.00,0.00,8.24,
8.689,118.02274110389693,97.14855732189746,1.0,-11.0,-3.0,4,3,3,1,0,1,0,0.00,0.00,8.24,
8.704,117.76827411038968,97.21285573218975,1.0,-9.0,-3.0,4,3,3,1,0,1,0,0.00,0.00,8.34,
8.717,117.67982741103897,97.25528557321898,1.0,-8.0,-2.0,4,3,3,1,0,1,0,0.00,0.00,8.04,
8.731,117.6799827411039,97.29552855732189,1.0,-8.0,-2.0,4,3,3,1,0,1,0,0.00,0.00,7.95,
8.744,117.58099827411039,97.39855285573219,0.0,-7.0,-2.0,4,3,3,1,0,1,0,0.00,0.00,7.95,
8.759,117.40009982741103,97.52585528557321,0.0,-5.0,-1.0,4,3,3,1,0,1,0,0.00,0.00,7.75,
8.772,117.22900998274109,97.49358552855732,0.0,-4.0,-1.0,4,4,3,1,0,1,0,0.00,0.00,7.65,
8.786,117.11290099827411,97.50835855285573,0.0,-4.0,-1.0,4,4,3,1,0,1,0,0.00,0.00,7.65,
8.801,117.05629009982741,97.60883585528558,-1.0,-2.0,-1.0,4,4,3,1,0,1,0,0.00,0.00,7.65,
8.814,116.97862900998274,97.65488358552857,-1.0,-1.0,-1.0,4,4,3,1,0,1,0,0.00,0.00,7.46,
8.828,116.93486290099828,97.65948835855286,-2.0,0.0,0.0,4,4,3,1,0,1,0,0.00,0.00,7.36,
8.842,116.94848629009984,97.65094883585529,-2.0,0.0,0.0,4,4,3,1,0,1,0,0.00,0.00,7.46,
8.856,117.00384862901,97.58709488358554,-2.0,0.0,0.0,4,4,3,1,0,1,0,0.00,0.00,7.36,
8.869,117.072384862901,97.61670948835855,-2.0,0.0,0.0,4,4,3,1,0,1,0,0.00,0.00,7.36,
8.884,117.1062384862901,97.65567094883586,-2.0,-1.0,0.0,4,4,3,1,0,1,0,0.00,0.00,7.36,
8.897,117.08262384862901,97.65056709488358,-2.0,-1.0,0.0,4,4,3,1,0,1,0,0.00,0.00,7.26,
8.911,117.1072623848629,97.74005670948836,-2.0,-1.0,0.0,4,4,3,1,0,1,0,0.00,0.00,7.26,
8.925,117.11872623848629,97.75800567094885,-2.0,-1.0,0.0,3,4,3,1,0,1,0,0.00,0.00,7.26,
8.939,117.07487262384862,97.71480056709487,-2.0,0.0,0.0,3,4,3,1,0,0,0,0.00,0.00,7.26,
8.952,117.00748726238486,97.71048005670949,-2.0,0.0,0.0,3,4,3,1,0,0,0,0.00,0.00,7.26,
8.967,117.02774872623849,97.75504800567096,-3.0,0.0,0.0,3,4,3,1,0,0,0,0.00,0.00,7.26,
8.98,117.07477487262385,97.76850480056709,-3.0,2.0,1.0,3,4,3,1,0,0,0,0.00,0.00,7.16,
8.994,117.02547748726238,97.70685048005672,-3.0,1.0,0.0,3,4,3,1,0,0,0,0.00,0.00,7.16,
9.008,117.13754774872623,97.56568504800568,-2.0,1.0,0.0,3,4,3,1,0,0,0,0.00,0.00,7.16,
9.021,117.13975477487263,97.54256850480057,-2.0,1.0,0.0,3,4,3,1,0,0,0,0.00,0.00,7.16,
9.035,117.16697547748726,97.60325685048005,-2.0,1.0,0.0,3,4,3,1,0,0,0,0.00,0.00,7.26,
9.049,117.16969754774873,97.573325685048,-3.0,1.0,0.0,3,4,3,1,0,0,0,0.00,0.00,7.36,
9.063,117.21496975477487,97.6513325685048,-3.0,1.0,0.0,3,4,3,1,0,0,0,0.00,0.00,7.36,
9.076,117.26449697547747,97.61413325685048,-4.0,2.0,0.0,3,4,3,1,0,0,0,0.00,0.00,7.36,
9.09,117.28744969754776,97.60141332568504,-4.0,3.0,0.0,3,4,3,1,0,0,0,0.00,0.00,7.36,
9.104,117.32574496975477,97.54614133256851,-4.0,3.0,0.0,3,4,3,1,0,0,0,0.00,0.00,7.46,
9.117,117.37457449697547,97.40561413325685,-4.0,3.0,0.0,3,4,3,1,0,0,0,0.00,0.00,7.65,
9.131,117.42445744969756,97.35556141332567,-3.0,4.0,0.0,3,4,3,1,0,0,0,0.00,0.00,7.65,
9.145,117.52844574496976,97.29655614133257,-4.0,3.0,0.0,3,4,3,1,0,0,0,0.00,0.00,7.85,
9.158,117.58384457449698,97.30865561413326,-4.0,3.0,0.0,3,4,3,1,0,0,0,0.00,0.00,7.95,
9.171,117.6073844574497,97.22886556141333,-3.0,3.0,0.0,3,4,3,1,0,0,0,0.00,0.00,8.14,
9.186,117.74473844574497,97.21188655614132,-3.0,3.0,0.0,3,4,3,1,0,0,0,0.00,0.00,8.24,
9.199,117.78547384457451,97.20118865561413,-3.0,2.0,0.0,3,4,3,1,0,0,0,0.00,0.00,8.34,
9.212,117.91554738445747,97.1911188655614,-3.0,1.0,0.0,3,4,3,1,0,0,0,0.00,0.00,8.44,
9.227,117.91955473844574,97.14511188655614,-2.0,0.0,0.0,3,4,3,1,0,0,0,0.00,0.00,8.73,
9.24,117.96495547384457,97.13151118865561,-2.0,-1.0,0.0,3,4,3,1,0,0,0,0.00,0.00,8.93,
9.683,117.48349554738446,98.06615111886556,0.0,0.0,-1.0,3,4,4,2,0,2,1,0.00,0.00,24.23,
9.697,117.48934955473844,98.24061511188657,-1.0,0.0,-1.0,3,4,4,2,0,2,1,0.00,0.00,25.21,
9.711,117.64293495547385,98.01506151118866,0.0,-1.0,-1.0,3,4,4,2,0,2,1,0.00,0.00,26.19,
9.724,117.52329349554738,98.05550615111886,0.0,-3.0,-2.0,3,4,4,2,0,2,1,0.00,0.00,27.08,
9.739,117.53832934955474,98.17655061511188,0.0,-4.0,-2.0,3,4,4,2,0,2,1,0.00,0.00,28.35,
9.753,117.42283293495547,98.20665506151119,0.0,-2.0,-1.0,3,4,4,2,0,2,1,0.00,0.00,28.74,
9.766,117.26728329349555,98.26366550615111,0.0,0.0,-1.0,3,4,4,2,0,3,1,0.00,0.00,29.04,
9.781,117.22472832934956,98.2153665506151,-1.0,0.0,-1.0,3,4,4,2,0,3,1,0.00,0.00,29.33,
9.795,117.28347283293496,98.2735366550615,-1.0,0.0,0.0,3,4,4,2,0,3,1,0.00,0.00,29.63,
9.808,117.20834728329349,98.28835366550616,-1.0,0.0,-1.0,3,4,4,2,0,3,1,0.00,0.00,29.82,
9.823,117.25483472832936,98.2988353665506,-1.0,0.0,-1.0,3,4,4,2,0,3,1,0.00,0.00,30.12,
9.836,117.22348347283294,98.37188353665506,-2.0,0.0,-2.0,2,4,4,2,0,3,1,0.00,0.00,30.61,
9.85,117.2833483472833,98.5141883536655,-3.0,0.0,-1.0,2,4,4,2,0,3,1,0.00,0.00,31.69,
9.865,117.39733483472833,98.43841883536655,-3.0,1.0,-1.0,2,4,4,2,0,3,1,0.00,0.00,32.08,
9.878,117.48073348347283,98.49384188353666,-3.0,1.0,0.0,2,4,4,2,0,2,1,0.00,0.00,32.37,
9.892,117.43507334834729,98.41838418835367,-3.0,3.0,0.0,2,4,4,2,0,2,1,0.00,0.00,32.57,
9.906,117.48450733483473,98.34783841883537,-3.0,2.0,0.0,2,4,4,2,0,2,1,0.00,0.00,32.96,
9.92,117.61545073348347,98.25978384188353,-2.0,1.0,0.0,2,4,4,2,0,2,1,0.00,0.00,32.96,
9.933,117.58354507334835,98.18797838418836,-2.0,0.0,0.0,2,4,4,2,0,2,1,0.00,0.00,32.96,
9.948,117.60735450733483,98.19879783841884,-2.0,0.0,0.0,2,4,4,2,0,2,1,0.00,0.00,32.96,
9.961,117.66373545073348,98.21787978384188,-2.0,0.0,0.0,2,4,4,2,0,2,1,0.00,0.00,33.16,
9.975,117.71437354507336,98.17478797838419,-2.0,0.0,0.0,2,4,4,2,0,2,1,0.00,0.00,33.16,
9.989,117.73743735450732,98.20647879783841,-2.0,0.0,0.0,2,5,4,2,0,2,1,0.00,0.00,33.26,
10.003,117.62274373545074,98.25464787978385,-2.0,0.0,0.0,2,5,4,2,0,2,1,0.00,0.00,33.35,
10.017,117.62027437354507,98.30446478797839,-2.0,0.0,0.0,2,5,4,2,0,2,1,0.00,0.00,33.45,
10.031,117.62002743735451,98.26444647879785,-2.0,0.0,0.0,2,5,4,2,0,2,1,0.00,0.00,33.35,
10.045,117.52100274373545,98.20644464787979,-2.0,0.0,0.0,2,5,4,2,0,2,1,0.00,0.00,33.45,
10.059,117.50210027437355,98.17364446478798,-2.0,0.0,0.0,2,5,4,2,0,2,1,0.00,0.00,33.55,
10.073,117.50921002743735,98.16136444647879,-2.0,0.0,-1.0,2,5,4,2,0,2,1,0.00,0.00,33.65,
10.087,117.52792100274374,98.09713644464789,-1.0,-1.0,0.0,2,5,4,2,0,2,1,0.00,0.00,33.84,
10.101,117.47579210027438,98.0817136444648,-1.0,-1.0,0.0,2,5,4,2,0,2,1,0.00,0.00,33.84,
10.115,117.52457921002744,98.07117136444647,-1.0,-1.0,-1.0,2,5,4,2,0,2,1,0.00,0.00,34.04,
10.129,117.48445792100274,98.11511713644465,-1.0,-1.0,-1.0,2,5,4,2,0,2,1,0.00,0.00,34.14,
10.143,117.55244579210027,98.13751171364447,-1.0,0.0,-1.0,2,5,4,2,0,2,1,0.00,0.00,34.04,
10.158,117.60424457921003,98.15775117136444,-2.0,-1.0,0.0,2,5,4,2,0,2,1,0.00,0.00,34.04,
10.171,117.62742445792101,98.10577511713643,-1.0,-1.0,-1.0,2,5,4,2,0,2,1,0.00,0.00,33.94,
10.185,117.5757424457921,98.05557751171365,-1.0,-1.0,-1.0,2,5,4,2,0,2,1,0.00,0.00,33.94,
10.2,117.5795742445792,98.09555775117136,-1.0,-1.0,-1.0,2,5,4,2,0,2,1,0.00,0.00,33.94,
10.214,117.50795742445791,98.18055577511713,-2.0,-1.0,0.0,2,5,4,2,0,2,1,0.00,0.00,33.84,
10.227,117.50979574244579,98.22505557751172,-2.0,0.0,0.0,2,5,4,2,0,2,1,0.00,0.00,33.65,
10.242,117.50997957424458,98.22950555775118,-2.0,0.0,0.0,2,5,4,2,0,2,1,0.00,0.00,33.45,
10.256,117.50999795742446,98.25695055577512,-1.0,0.0,-1.0,2,5,4,2,0,2,1,0.00,0.00,33.26,
10.269,117.51899979574245,98.28669505557752,-1.0,-1.0,0.0,2,5,4,2,0,2,1,0.00,0.00,32.96,
10.284,117.51989997957425,98.35266950555776,-1.0,-1.0,0.0,2,5,4,2,0,2,1,0.00,0.00,32.18,
10.298,117.48398999795742,98.34126695055578,-1.0,-1.0,0.0,2,5,4,2,0,2,1,0.00,0.00,31.69,
10.311,117.37239899979573,98.34012669505557,-2.0,-1.0,0.0,2,5,4,2,0,2,1,0.00,0.00,31.29,
10.326,117.36123989997957,98.31301266950555,-2.0,-1.0,0.0,2,5,4,2,0,2,1,0.00,0.00,30.51,
10.34,117.33312398999794,98.23830126695057,-2.0,-1.0,0.0,2,5,4,2,0,2,1,0.00,0.00,30.12,
10.354,117.3123123989998,98.22183012669505,-2.0,-1.0,0.0,2,5,4,2,0,2,1,0.00,0.00,29.82,
10.368,117.20223123989999,98.2201830126695,-2.0,0.0,-1.0,2,5,4,2,0,2,1,0.00,0.00,29.53,
10.382,117.11922312399,98.19301830126695,-2.0,0.0,0.0,2,5,4,2,0,2,1,0.00,0.00,29.14,
10.396,117.22792231239899,98.1003018301267,-1.0,0.0,0.0,2,5,4,2,0,2,1,0.00,0.00,29.04,
10.409,117.3017922312399,98.10003018301266,-1.0,-1.0,0.0,2,5,4,2,0,2,1,0.00,0.00,29.04,
10.424,117.30917922312399,98.11800301830127,-1.0,-2.0,-1.0,2,5,4,2,0,2,1,0.00,0.00,28.74,
10.438,117.27391792231239,98.13780030183014,-1.0,-2.0,-1.0,3,5,4,2,0,2,1,0.00,0.00,28.25,
10.451,117.27039179223122,98.157780030183,-1.0,-2.0,-1.0,3,5,4,2,0,2,1,0.00,0.00,28.15,
10.466,117.17103917922313,98.2227780030183,-1.0,-1.0,-1.0,3,5,4,2,0,2,1,0.00,0.00,28.06,
10.48,117.14310391792232,98.22927780030184,-1.0,-1.0,-1.0,3,5,4,2,0,2,1,0.00,0.00,27.96,
10.494,117.22131039179223,98.23892778003018,-1.0,-1.0,-1.0,3,5,4,2,0,2,1,0.00,0.00,27.76,
10.509,117.19313103917922,98.30289277800301,-1.0,-1.0,-1.0,3,5,4,2,0,2,1,0.00,0.00,27.66,
10.522,117.18131310391792,98.29128927780032,-1.0,0.0,-1.0,2,5,4,2,0,2,1,0.00,0.00,27.57,
10.536,117.20713131039177,98.22712892778003,-1.0,0.0,0.0,3,5,4,2,0,2,1,0.00,0.00,27.47,
10.551,117.21871313103918,98.18471289277801,-1.0,0.0,-1.0,2,5,4,2,0,2,1,0.00,0.00,27.66,
10.564,117.21987131310392,98.1984712892778,-1.0,-1.0,-1.0,2,5,4,2,0,2,1,0.00,0.00,27.57,
10.578,117.29198713131038,98.23584712892777,-1.0,-1.0,0.0,2,5,4,2,0,2,1,0.00,0.00,27.57,
10.593,117.34419871313104,98.27558471289277,-1.0,-2.0,0.0,2,5,4,2,0,2,1,0.00,0.00,27.47,
10.607,117.30441987131309,98.34255847128928,-1.0,-2.0,-1.0,2,5,4,2,0,2,1,0.00,0.00,27.37,
10.62,117.24644198713129,98.40325584712893,-1.0,-2.0,0.0,3,5,4,2,0,2,1,0.00,0.00,27.27,
10.635,117.18664419871313,98.43632558471289,-1.0,-2.0,-1.0,3,5,4,2,0,2,1,0.00,0.00,27.08,
10.649,117.09966441987132,98.52063255847129,-2.0,-2.0,-1.0,3,5,4,2,0,2,1,0.00,0.00,26.68,
10.663,117.04596644198715,98.49306325584712,-1.0,-2.0,-1.0,3,5,4,2,0,2,1,0.00,0.00,26.59,
10.677,117.14859664419872,98.5173063255847,-1.0,-1.0,0.0,3,5,4,2,0,2,1,0.00,0.00,26.29,
10.691,117.12285966441988,98.47473063255848,-1.0,-1.0,-1.0,3,5,4,2,0,2,1,0.00,0.00,26.09,
10.705,117.14728596644198,98.50647306325585,-1.0,-1.0,0.0,3,5,4,2,0,2,1,0.00,0.00,26.00,
10.72,117.1407285966442,98.52764730632559,-1.0,-2.0,0.0,3,5,4,2,0,2,1,0.00,0.00,25.70,
10.733,117.14007285966441,98.54776473063255,-1.0,-1.0,0.0,3,5,4,2,0,2,1,0.00,0.00,25.31,
10.747,117.02300728596646,98.49577647306324,-2.0,-1.0,0.0,3,5,4,2,0,2,1,0.00,0.00,25.11,
10.762,116.93930072859665,98.49057764730631,-2.0,0.0,0.0,3,5,4,2,0,2,1,0.00,0.00,25.02,
10.775,116.98493007285965,98.51705776473062,-2.0,0.0,0.0,3,5,4,2,0,2,1,0.00,0.00,24.82,
10.789,117.06149300728596,98.54670577647306,-2.0,0.0,0.0,3,5,4,2,0,2,1,0.00,0.00,24.62,
10.804,117.0511493007286,98.55867057764732,-2.0,0.0,0.0,3,5,4,2,0,2,1,0.00,0.00,24.13,
10.817,117.01411493007286,98.57786705776472,-2.0,0.0,0.0,3,5,4,2,0,2,1,0.00,0.00,23.94,
10.831,117.0374114930073,98.59778670577646,-2.0,1.0,0.0,3,5,4,2,0,2,1,0.00,0.00,23.74,
10.845,117.07574114930073,98.56377867057765,-2.0,0.0,0.0,3,5,4,2,0,2,1,0.00,0.00,23.54,
10.859,117.13357411493007,98.53337786705777,-1.0,0.0,0.0,3,5,4,2,0,2,1,0.00,0.00,22.66,
10.873,117.067357411493,98.51233778670579,-2.0,0.0,0.0,3,5,4,2,0,2,1,0.00,0.00,22.37,
10.887,117.0697357411493,98.47423377867058,-2.0,0.0,0.0,3,5,4,2,0,2,0,0.00,0.00,22.07,
10.901,117.06097357411493,98.54242337786705,-2.0,0.0,0.0,3,5,4,2,0,2,0,0.00,0.00,21.68,
10.915,117.0150973574115,98.5942423377867,-3.0,0.0,0.0,3,5,4,2,0,2,0,0.00,0.00,20.99,
10.929,116.99250973574115,98.56342423377868,-3.0,1.0,0.0,3,5,4,2,0,2,0,0.00,0.00,20.60,
10.943,116.9902509735741,98.45234242337787,-3.0,1.0,0.0,3,5,4,2,0,2,0,0.00,0.00,20.11,
10.956,117.0530250973574,98.35123424233778,-2.0,0.0,0.0,3,5,4,2,0,2,0,0.00,0.00,19.52,
10.971,117.08630250973573,98.26012342423377,-2.0,-1.0,0.0,3,5,4,2,0,2,0,0.00,0.00,19.23,
10.985,117.20663025097357,98.24201234242338,-2.0,-1.0,-1.0,3,5,4,2,0,2,0,0.00,0.00,19.23,
10.999,117.20966302509734,98.31220123424234,-2.0,-1.0,0.0,3,5,4,2,0,2,0,0.00,0.00,19.42,
11.013,117.20996630250973,98.38222012342423,-2.0,-1.0,0.0,3,5,4,2,0,2,0,0.00,0.00,19.52,
11.027,117.22799663025097,98.37122201234243,-2.0,-1.0,0.0,3,5,4,2,0,2,0,0.00,0.00,19.72,
11.041,117.2027996630251,98.37912220123424,-2.0,0.0,0.0,3,5,4,2,0,2,0,0.00,0.00,19.82,
11.055,117.15527996630252,98.36191222012343,-2.0,0.0,0.0,3,5,4,2,0,2,0,0.00,0.00,19.82,
11.069,117.05152799663026,98.36919122201235,-2.0,0.0,0.0,3,5,4,2,0,2,0,0.00,0.00,19.91,
11.082,116.99615279966302,98.33391912220124,-2.0,1.0,0.0,3,5,4,2,0,2,0,0.00,0.00,19.91,
11.097,117.0176152799663,98.36639191222012,-2.0,1.0,0.0,3,5,4,2,0,2,0,0.00,0.00,20.01,
11.111,117.03776152799664,98.46863919122201,-3.0,2.0,0.0,3,5,4,2,0,2,0,0.00,0.00,20.01,
11.124,117.17477615279967,98.54186391912219,-4.0,5.0,1.0,3,5,4,2,0,2,0,0.00,0.00,20.01,
11.139,117.40447761527997,98.46818639191221,-4.0,4.0,0.0,3,5,4,2,0,2,0,0.00,0.00,19.91,
11.153,117.643447761528,98.41581863919123,-4.0,4.0,1.0,3,5,4,2,0,1,0,0.00,0.00,19.62,
11.166,117.79334477615281,98.53658186391911,-5.0,6.0,3.0,3,5,4,1,0,1,0,0.00,0.00,19.13,
11.181,117.85333447761528,98.20665818639192,-4.0,7.0,1.0,3,5,3,1,0,1,0,0.00,0.00,17.27,
11.194,118.03933344776154,98.15566581863919,-4.0,4.0,2.0,3,5,3,1,0,1,0,0.00,0.00,16.19,
11.208,117.94993334477616,98.15956658186391,-5.0,3.0,1.0,3,5,3,1,0,1,0,0.00,0.00,15.21,
11.223,117.96799333447761,98.1149566581864,-5.0,3.0,1.0,3,4,3,1,0,1,0,0.00,0.00,14.52,
11.236,118.00579933344775,98.16449566581865,-6.0,4.0,3.0,3,4,3,1,0,1,0,0.00,0.00,12.75,
11.25,118.09957993334478,98.12444956658187,-6.0,3.0,2.0,3,4,3,1,0,1,0,0.00,0.00,11.97,
11.265,118.11795799333449,98.05744495665819,-6.0,3.0,2.0,3,4,3,1,0,1,0,0.00,0.00,11.28,
11.278,118.04779579933344,97.95174449566582,-5.0,3.0,2.0,3,4,3,1,0,1,0,0.00,0.00,10.59,
11.292,118.14877957993333,97.82417444956658,-4.0,2.0,1.0,3,4,3,1,0,0,0,0.00,0.00,8.93,
11.305,118.14987795799334,97.71241744495666,-3.0,3.0,1.0,3,4,3,1,0,0,0,0.00,0.00,8.14,
11.32,118.05998779579933,97.53024174449567,-3.0,4.0,0.0,3,4,3,1,0,0,0,0.00,0.00,7.55,
11.333,118.39299877957993,97.35002417444956,0.0,3.0,0.0,3,4,3,1,0,0,0,0.00,0.00,6.97,
11.347,118.48929987795799,97.38600241744496,0.0,0.0,-1.0,3,4,3,1,0,0,0,0.00,0.00,6.67,
11.361,118.4359299877958,97.5336002417445,0.0,1.0,-1.0,3,4,3,1,0,1,0,0.00,0.00,6.77,
11.375,118.47559299877958,97.61136002417445,0.0,5.0,1.0,3,4,3,1,0,1,0,0.00,0.00,7.06,
11.388,118.34455929987796,97.72713600241744,0.0,6.0,2.0,3,4,3,1,0,1,0,0.00,0.00,7.36,
11.403,118.0704559299878,97.73871360024174,1.0,10.0,1.0,3,4,3,1,0,1,0,0.00,0.00,7.95,
11.416,118.04304559299878,97.87487136002417,2.0,18.0,4.0,3,4,3,1,0,1,0,0.00,0.00,8.34,
11.43,118.52630455929987,98.02348713600242,2.0,20.0,6.0,3,4,3,1,0,1,0,0.00,0.00,8.93,
11.444,119.18663045592999,98.08334871360024,2.0,17.0,6.0,2,4,3,1,0,1,0,0.00,0.00,9.32,
11.458,119.630663045593,97.99033487136002,3.0,13.0,5.0,2,4,4,1,0,1,0,0.00,0.00,10.79,
11.472,119.89106630455929,98.044033487136,5.0,11.0,4.0,2,5,4,1,0,1,0,0.00,0.00,11.48,
11.486,120.27710663045592,98.1844033487136,5.0,6.0,4.0,2,5,4,1,0,1,0,0.00,0.00,12.26,
11.5,120.41471066304561,98.25244033487137,6.0,6.0,6.0,2,5,4,1,0,1,0,0.00,0.00,13.05,
11.836,119.94247106630455,98.38524403348714,2.0,-15.0,-11.0,2,7,3,1,0,1,1,0.00,0.00,15.21,
11.85,119.54424710663045,98.57852440334871,0.0,-11.0,-9.0,2,7,4,1,0,1,1,0.00,0.00,16.28,
11.864,119.33342471066305,98.62485244033486,1.0,-11.0,-10.0,2,7,4,1,0,2,1,0.00,0.00,17.27,
11.878,119.1503424710663,98.64748524403349,0.0,-11.0,-11.0,2,7,4,1,0,2,1,0.00,0.00,18.15,
11.892,119.09603424710664,98.73074852440334,2.0,-16.0,-12.0,2,7,4,1,0,2,1,0.00,0.00,20.01,
11.907,118.98260342471067,98.63107485244035,3.0,-22.0,-15.0,2,7,4,2,0,2,1,0.00,0.00,20.99,
11.921,118.06226034247106,98.68410748524403,3.0,-24.0,-22.0,2,7,4,2,0,2,2,0.00,0.00,21.97,
11.935,117.6372260342471,98.6894107485244,2.0,-19.0,-22.0,2,7,4,2,0,3,2,0.00,0.00,25.41,
11.95,117.12672260342471,99.06794107485243,-2.0,-19.0,-27.0,3,8,4,2,1,3,2,0.00,0.00,27.37,
11.964,116.58967226034248,99.16879410748525,1.0,-21.0,-31.0,3,8,4,2,1,4,2,0.00,0.00,29.53,
11.978,116.32896722603425,99.06187941074852,5.0,-14.0,-29.0,3,8,4,2,1,4,3,0.00,0.00,31.98,
11.993,116.49189672260343,99.32118794107484,11.0,-27.0,-32.0,3,8,4,2,1,5,3,0.00,0.00,37.57,
12.007,116.82318967226034,99.70711879410749,27.0,-22.0,-31.0,4,8,4,2,2,5,3,0.00,0.00,39.44,
12.022,116.79331896722604,100.25871187941074,29.0,-17.0,-33.0,4,8,4,2,2,6,3,0.00,0.00,41.10,
12.037,115.78233189672261,100.86287118794107,32.0,0.0,-30.0,4,8,4,3,2,7,3,0.00,0.00,43.16,
12.051,114.75423318967226,102.3182871187941,32.0,-14.0,-33.0,4,8,4,3,2,7,3,0.00,0.00,43.75,
12.065,114.30942331896722,102.0498287118794,34.0,8.0,-40.0,4,8,4,3,2,8,4,0.00,0.00,44.44,
12.08,114.30094233189672,102.14898287118794,42.0,-1.0,-38.0,4,9,4,3,2,8,4,0.00,0.00,46.40,
12.094,114.51609423318968,102.50089828711879,41.0,0.0,-44.0,3,8,4,3,2,9,4,0.00,0.00,47.19,
12.108,113.21460942331896,103.76908982871188,46.0,10.0,-43.0,3,8,4,3,2,10,4,0.00,0.00,48.07,
12.123,115.8924609423319,106.28990898287118,73.0,13.0,-6.0,3,8,3,3,2,11,4,0.00,0.00,49.83,
12.137,117.34824609423319,107.76599089828713,60.0,-5.0,-21.0,2,8,3,3,2,11,4,0.00,0.00,51.70,
12.151,116.96282460942332,108.10259908982871,65.0,-4.0,-33.0,0,7,2,3,2,11,4,0.00,0.00,50.72,
12.166,116.55528246094234,108.13625990898288,73.0,3.0,-39.0,0,7,1,3,2,12,5,0.00,0.00,49.54,
12.18,115.49752824609423,107.8426259908983,82.0,4.0,-39.0,0,6,0,3,2,0,5,0.00,0.00,45.42,
12.194,115.40075282460941,108.26326259908983,79.0,1.0,-65.0,0,6,0,3,2,1,5,3.04,0.00,42.58,
12.209,114.81507528246094,109.21432625990897,105.0,25.0,-50.0,0,5,0,3,2,0,5,6.08,0.00,39.44,
12.223,114.0275075282461,109.63343262599089,125.0,35.0,-34.0,0,5,0,3,2,1,5,7.95,0.00,36.10,
12.237,114.8937507528246,109.05434326259908,137.0,24.0,-58.0,0,5,0,1,1,2,5,8.53,0.00,27.08,
12.252,116.27637507528246,108.3034343262599,149.0,21.0,-85.0,0,5,0,0,1,1,5,6.97,0.00,21.68,
12.266,117.95363750752826,107.706343432626,166.0,21.0,-86.0,0,6,0,0,2,12,4,4.12,0.00,17.27,
12.28,120.01136375075282,106.5756343432626,178.0,24.0,-88.0,0,6,0,1,2,11,4,0.39,0.00,11.77,
12.295,121.74713637507527,107.18256343432627,179.0,7.0,-125.0,0,6,0,1,2,9,4,0.00,0.00,10.20,
12.309,122.04671363750752,110.60025634343263,180.0,-7.0,-142.0,0,6,0,0,2,7,3,0.00,0.00,8.93,
12.322,122.58967136375075,112.78702563434327,189.0,0.0,-165.0,0,6,0,1,2,5,3,0.00,0.00,7.75,
12.337,121.21296713637508,115.43570256343433,195.0,-88.0,-250.0,0,4,0,0,2,3,3,0.00,0.00,5.20,
12.351,118.45629671363751,110.44457025634343,214.0,-78.0,-231.0,0,3,0,0,2,2,2,0.00,0.00,3.73,
12.365,116.81262967136375,112.36645702563435,219.0,-50.0,-109.0,0,2,0,0,3,1,2,0.00,0.00,2.45,
12.38,115.69426296713637,113.97164570256345,223.0,-37.0,-66.0,0,2,0,0,2,1,1,0.00,0.00,0.59,
12.394,114.65542629671364,115.41016457025633,211.0,-4.0,-88.0,0,2,0,0,0,0,0,0.00,0.00,0.10,
12.408,114.63254262967136,118.20001645702564,189.0,18.0,-127.0,0,2,0,0,0,0,0,0.00,0.00,0.00,
12.422,114.17125426296715,122.43900164570256,168.0,122.0,-70.0,0,2,0,0,0,0,0,0.00,0.00,0.00,
12.436,111.18212542629671,126.30090016457025,73.0,50.0,-111.0,0,2,0,0,0,0,0,0.20,0.00,0.49,
12.449,109.83921254262967,127.97409001645701,9.0,-13.0,-78.0,0,2,0,0,0,0,0,0.49,0.00,0.29,
12.464,111.10892125426297,125.5944090016457,-43.0,10.0,69.0,0,2,0,0,0,0,0,0.59,0.00,0.00,
12.477,113.6028921254263,119.29044090016458,-51.0,28.0,151.0,0,2,0,0,0,0,0,0.69,0.00,0.00,
12.491,117.49728921254264,109.53404409001647,-63.0,74.0,184.0,0,2,0,0,0,0,0,0.49,0.00,0.00,
12.505,124.96072892125427,96.35440440900165,-94.0,115.0,161.0,0,2,0,0,0,0,0,0.39,0.00,0.00,
12.519,127.88507289212544,92.16544044090017,-124.0,84.0,108.0,0,2,0,0,0,0,0,0.20,0.00,0.00,
12.532,125.00050728921255,94.52754404409002,-169.0,-7.0,22.0,0,2,0,0,0,0,0,0.29,0.00,0.00,
12.547,118.94305072892125,88.427754404409,-184.0,-18.0,23.0,0,2,0,0,0,0,0,0.39,0.00,0.00,
12.56,119.88530507289212,83.8397754404409,-207.0,-4.0,42.0,0,2,0,0,0,0,0,0.49,0.00,0.00,
12.573,118.78253050728921,83.41697754404409,-222.0,0.0,50.0,0,2,0,0,0,0,0,0.59,0.00,0.00,
12.588,115.97225305072891,83.3206977544044,-231.0,22.0,67.0,0,2,0,0,0,0,0,0.69,0.00,0.00,
12.601,113.38722530507287,85.12006977544044,-235.0,33.0,95.0,0,2,0,0,0,0,0,0.69,0.00,0.00,
12.614,112.02172253050729,89.69200697754405,-246.0,-19.0,133.0,0,2,0,0,0,0,0,0.69,0.00,0.00,
12.628,111.39017225305074,83.6782006977544,-250.0,-37.0,-19.0,0,2,0,0,0,0,0,0.78,0.00,0.00,
12.642,108.57301722530508,85.70482006977544,-250.0,-35.0,76.0,0,2,0,0,0,0,0,0.78,0.00,0.00,
12.656,106.3743017225305,87.20348200697755,-250.0,-4.0,71.0,0,2,0,0,0,0,0,0.69,0.00,0.00,
12.669,106.20843017225305,89.62134820069775,-249.0,6.0,62.0,0,2,0,0,0,0,0,0.69,0.00,0.00,
12.683,106.7948430172253,92.05013482006977,-236.0,12.0,107.0,0,2,0,0,0,0,0,0.78,0.00,0.00,
12.696,107.32148430172252,93.29201348200698,-225.0,4.0,172.0,0,2,0,0,0,0,0,0.78,0.00,0.00,
12.71,107.55414843017225,93.9922013482007,-218.0,9.0,171.0,0,2,0,0,0,0,0,0.88,0.00,0.00,
12.724,108.76541484301723,92.77522013482007,-203.0,12.0,79.0,0,2,0,0,0,0,0,0.78,0.00,0.00,
12.737,109.49854148430173,94.33652201348201,-197.0,18.0,114.0,0,2,0,0,0,0,0,0.78,0.00,0.00,
12.751,110.40885414843018,96.4096522013482,-196.0,4.0,93.0,0,2,0,0,0,0,0,0.78,0.00,0.00,
12.765,111.37288541484303,98.24596522013482,-189.0,-5.0,111.0,0,2,0,0,0,0,0,0.78,0.00,0.00,
12.778,112.12628854148429,99.32959652201349,-180.0,-19.0,129.0,0,2,0,0,0,0,0,0.88,0.00,0.00,
12.792,112.83162885414842,100.30195965220135,-166.0,-34.0,132.0,0,2,0,0,0,0,0,0.98,0.00,0.00,
12.806,112.86616288541485,100.84919596522013,-148.0,-61.0,78.0,0,2,0,0,0,0,0,1.08,0.00,0.00,
12.82,112.31161628854149,101.34491959652202,-132.0,-85.0,19.0,0,2,0,0,0,0,0,1.08,0.00,0.00,
12.833,111.30216162885415,102.24949195965219,-110.0,-80.0,-49.0,0,2,0,0,0,0,0,1.18,0.00,0.00,
12.848,110.76021616288543,104.42794919596523,-93.0,-28.0,-64.0,0,2,0,0,0,0,0,1.28,0.00,0.00,
12.862,110.76002161628855,107.14779491959652,-78.0,35.0,-63.0,0,2,0,0,0,0,0,1.37,0.00,0.00,
12.875,110.94000216162884,110.33577949195964,-67.0,92.0,-36.0,0,2,0,0,0,0,0,1.28,0.00,0.00,
12.89,111.27300021616288,113.89457794919596,-57.0,124.0,-39.0,0,2,0,0,0,0,0,1.37,0.00,0.10,
12.903,111.66630002161628,117.77845779491959,-55.0,131.0,-42.0,0,2,0,0,0,0,0,1.47,0.00,0.00,
12.917,111.40863000216163,121.94684577949195,-58.0,117.0,-70.0,0,2,0,0,0,0,0,1.47,0.00,0.00,
12.932,110.08686300021616,126.0266845779492,-63.0,85.0,-71.0,0,2,0,0,0,0,0,1.47,0.00,0.00,
12.946,107.4976863000216,128.91866845779492,-58.0,51.0,-32.0,0,2,0,0,0,0,0,1.57,0.00,0.00,
12.959,105.53776863000215,130.37786684577947,-52.0,23.0,-2.0,0,2,0,0,0,0,0,1.57,0.00,0.00,
12.974,104.96377686300022,130.39778668457797,-40.0,-4.0,37.0,0,2,0,0,0,0,0,1.57,0.00,0.00,
12.987,99.19137768630002,122.74977866845781,1.0,161.0,-43.0,0,2,0,0,0,0,0,1.67,0.00,0.00,
13.001,105.55313776863,124.50497786684578,3.0,-27.0,91.0,0,2,0,0,0,0,0,1.67,0.00,0.00,
13.015,109.267313776863,123.16849778668458,-2.0,-8.0,36.0,0,2,0,0,0,0,0,1.77,0.00,0.29,
13.029,108.8647313776863,121.40584977866845,9.0,-41.0,28.0,0,2,0,0,0,0,0,1.67,0.00,0.39,
13.042,107.79847313776864,120.36558497786685,26.0,-42.0,33.0,0,2,0,0,0,0,0,970.01,0.00,0.29,
13.057,107.70984731377686,119.73955849778669,42.0,-21.0,49.0,0,2,0,0,0,0,0,0.00,0.00,0.29,
13.07,108.24998473137768,119.65895584977866,54.0,-17.0,46.0,0,2,0,0,0,0,0,1.77,0.00,0.29,
13.084,108.53799847313776,120.52389558497786,51.0,-20.0,79.0,0,2,0,0,0,0,0,1.86,0.00,0.29,
13.097,110.32179984731377,115.93038955849778,-42.0,3.0,183.0,0,2,0,0,0,0,0,1.86,0.00,0.20,
13.112,121.15617998473137,99.31603895584978,47.0,25.0,173.0,0,2,0,0,0,0,0,1.77,0.00,0.10,
13.125,128.60261799847314,85.73860389558497,68.0,-81.0,-35.0,0,2,0,0,0,0,0,1.77,0.00,0.00,
13.138,126.97126179984731,82.33786038955849,203.0,-69.0,-82.0,0,2,0,0,0,0,0,1.96,0.00,0.00,
13.153,125.19712617998474,84.28378603895584,250.0,87.0,35.0,0,2,0,0,0,0,0,1.96,0.00,0.00,
13.166,121.35671261799847,89.32037860389558,250.0,-20.0,-132.0,1,2,0,0,0,0,0,2.16,0.00,0.00,
13.18,118.51567126179985,96.43903786038956,166.0,25.0,-88.0,2,2,1,0,0,0,0,1.96,0.00,0.49,
13.195,117.37656712617999,100.86790378603897,71.0,0.0,-50.0,2,2,2,0,0,0,0,1.08,0.00,0.69,
13.208,118.18065671261799,101.4457903786039,27.0,7.0,-21.0,2,3,2,0,0,0,0,0.10,0.00,2.06,
13.221,119.82706567126179,104.7075790378604,8.0,0.0,26.0,2,3,2,0,0,0,0,0.00,0.00,4.71,
13.236,121.33270656712618,104.16075790378603,39.0,59.0,34.0,2,3,2,0,0,0,0,0.00,0.00,7.06,
13.249,125.08327065671261,104.6730757903786,35.0,31.0,23.0,3,3,2,0,0,0,0,0.00,0.00,8.14,
13.263,126.37632706567125,103.55430757903787,32.0,1.0,0.0,3,3,2,0,0,0,0,0.00,0.00,9.91,
13.278,125.66863270656712,104.00043075790379,22.0,-23.0,-21.0,3,4,3,0,0,0,0,0.00,0.00,12.26,
13.292,126.29086327065671,107.48304307579039,-5.0,-44.0,46.0,3,4,3,0,0,1,0,0.00,0.00,18.05,
13.306,124.49008632706567,108.94730430757903,11.0,16.0,-52.0,3,4,3,0,0,1,0,0.00,0.00,20.40,
13.32,120.95300863270657,105.8177304307579,-11.0,-6.0,55.0,3,4,3,0,0,1,0,0.00,0.00,22.27,
13.334,120.07730086327065,106.38677304307579,0.0,20.0,3.0,3,4,3,0,0,1,0,0.00,0.00,24.03,
13.348,120.36773008632707,107.49667730430758,4.0,32.0,10.0,3,4,3,0,0,1,0,0.00,0.00,24.62,
13.363,120.9547730086327,105.48366773043077,0.0,22.0,7.0,3,4,3,0,0,1,0,0.00,0.00,25.60,
13.377,120.51847730086327,102.28536677304308,-5.0,1.0,4.0,3,4,3,0,0,2,0,0.00,0.00,27.37,
13.39,120.69984773008632,101.26353667730432,-4.0,-9.0,-9.0,3,4,3,0,0,2,0,0.00,0.00,32.18,
13.405,123.49898477300863,107.65035366773043,-5.0,-12.0,0.0,3,4,3,1,0,2,0,0.00,0.00,35.02,
13.419,120.83589847730086,102.13303536677303,5.0,0.0,-12.0,2,4,3,1,0,2,0,0.00,0.00,37.96,
13.433,122.00058984773008,101.8783035366773,4.0,5.0,19.0,2,4,3,1,0,2,1,0.00,0.00,40.71,
13.883,121.67605898477301,95.18383035366773,2.0,0.0,0.0,4,3,2,0,0,0,0,0.00,0.00,16tch,
13.896,121.7696058984773,94.62238303536677,0.0,0.0,0.0,4,3,2,0,0,0,0,0.00,0.00,16.19,
13.91,121.86896058984772,94.53923830353668,0.0,-1.0,-2.0,4,3,2,0,0,0,0,0.00,0.00,16.19,
13.924,119.48489605898477,94.98092383035367,-4.0,-20.0,-23.0,4,3,3,0,0,0,0,0.00,0.00,16.87,
13.937,119.46248960589847,95.31309238303537,0.0,-17.0,-18.0,4,3,3,0,0,0,0,0.00,0.00,17.46,
13.952,119.72124896058985,95.14830923830354,2.0,-7.0,-6.0,4,3,3,0,0,0,0,0.00,0.00,18.15,
13.966,122.17712489605898,95.24883092383035,-1.0,-25.0,-28.0,4,3,3,0,0,0,0,0.00,0.00,19.03,
13.979,120.9917124896059,95.57388309238304,1.0,10.0,2.0,4,3,3,0,0,0,0,0.00,0.00,21.19,
13.993,119.09117124896059,96.0203883092383,-6.0,-13.0,-23.0,4,3,3,0,0,0,0,0.00,0.00,22.07,
14.008,118.67611712489605,95.98403883092384,-8.0,2.0,-11.0,4,3,3,0,0,0,0,0.00,0.00,22.76,
14.021,119.42661171248962,95.79140388309239,-3.0,-19.0,-18.0,4,3,3,0,0,0,0,0.00,0.00,23.15,
14.035,119.72666117124896,95.29514038830924,0.0,-10.0,-12.0,4,3,3,0,0,0,0,0.00,0.00,23.64,
14.05,119.69366611712489,95.38051403883092,3.0,-16.0,-14.0,4,3,3,0,0,0,0,0.00,0.00,24.13,
14.064,120.68936661171249,95.08305140388309,6.0,-20.0,-13.0,4,3,3,0,0,0,0,0.00,0.00,25.02,
14.078,121.55393666117126,94.86430514038831,6.0,-37.0,-20.0,4,3,3,0,0,0,0,0.00,0.00,27.47,
14.092,119.93939366611713,96.03043051403883,5.0,-8.0,2.0,4,3,3,0,0,0,0,0.00,0.00,28.45,
14.106,118.29293936661172,97.06504305140388,2.0,-16.0,-2.0,4,3,3,0,0,1,0,0.00,0.00,29.53,
14.119,119.15429393666118,96.17850430514038,2.0,-15.0,0.0,4,4,3,1,0,1,0,0.00,0.00,30.90,
14.134,117.53942939366611,100.68885043051404,4.0,-17.0,0.0,4,4,3,1,0,1,0,0.00,0.00,34.53,
14.148,116.8919429393666,102.86788504305142,3.0,-15.0,-3.0,4,4,4,1,0,1,0,0.00,0.00,36.98,
14.161,116.11619429393666,102.94178850430514,3.0,-8.0,-13.0,4,4,4,1,0,1,0,0.00,0.00,39.24,
14.176,115.97561942939365,102.24717885043052,0.0,-13.0,-13.0,4,4,4,1,0,1,0,0.00,0.00,41.01,
14.19,116.74456194293937,101.30471788504305,0.0,-13.0,-9.0,4,4,4,1,0,1,0,0.00,0.00,42.97,
14.204,117.00145619429394,100.80547178850429,1.0,-15.0,-6.0,4,4,4,1,0,1,0,0.00,0.00,43.16,
14.219,116.8471456194294,100.31454717885043,4.0,-16.0,-7.0,4,4,4,1,0,2,0,0.00,0.00,42.97,
14.233,116.60671456194294,100.02245471788504,7.0,-15.0,-14.0,4,4,4,1,0,2,0,0.00,0.00,42.77,
14.247,116.2226714561943,99.3002454717885,5.0,-7.0,-6.0,4,4,4,1,0,2,0,0.00,0.00,43.26,
14.261,116.67926714561943,99.17402454717885,6.0,-9.0,-12.0,4,4,4,1,0,2,0,0.00,0.00,43.56,
14.275,116.71592671456195,99.25140245471789,5.0,-10.0,-10.0,4,4,4,1,0,2,0,0.00,0.00,43.65,
14.289,116.5485926714562,99.5201402454718,3.0,-10.0,-9.0,4,4,4,1,0,2,0,0.00,0.00,43.65,
14.304,116.66685926714564,99.44801402454718,3.0,-6.0,-8.0,4,4,4,1,0,2,0,0.00,0.00,43.46,
14.318,116.58868592671456,99.47680140245473,2.0,-8.0,-6.0,4,4,4,1,0,2,0,0.00,0.00,43.07,
14.331,116.53586859267146,99.45268014024548,1.0,-8.0,-6.0,4,4,4,1,0,3,1,0.00,0.00,42.67,
14.346,116.34158685926715,99.53126801402456,0.0,-7.0,-6.0,4,4,4,1,0,3,1,0.00,0.00,41.50,
14.36,116.2141586859267,99.60212680140245,0.0,-6.0,-6.0,4,4,4,1,0,3,1,0.00,0.00,40.91,
14.373,116.13841586859266,99.53721268014024,0.0,-5.0,-7.0,4,4,4,1,0,3,1,0.00,0.00,40.22,
14.388,115.88784158685927,99.42272126801402,1.0,-7.0,-7.0,4,4,4,1,0,3,1,0.00,0.00,39.34,
14.402,115.53878415868593,99.44727212680141,-1.0,0.0,0.0,4,4,4,1,0,3,1,0.00,0.00,37.18,
14.415,115.4048784158686,99.36872721268014,0.0,-5.0,-5.0,4,5,4,1,0,3,1,0.00,0.00,36.00,
14.43,115.20248784158686,99.55887272126802,2.0,-8.0,-5.0,4,5,4,1,0,3,1,0.00,0.00,34.83,
14.444,115.30824878415868,99.6138872721268,2.0,-4.0,-4.0,4,5,4,1,0,3,1,0.00,0.00,33.55,
14.458,115.60682487841588,99.43938872721269,1.0,-8.0,-7.0,4,5,4,1,0,3,1,0.00,0.00,30.90,
14.472,115.47468248784159,99.53893887272126,1.0,-4.0,-2.0,4,5,4,1,0,3,1,0.00,0.00,29.63,
14.486,115.34446824878415,99.53989388727214,0.0,-6.0,-5.0,4,5,4,1,0,3,1,0.00,0.00,28.55,
14.5,115.09744682487842,99.56698938872721,0.0,-4.0,-5.0,4,5,4,1,0,3,1,0.00,0.00,26.88,
14.515,114.97374468248783,99.64169893887272,0.0,-3.0,-5.0,4,5,4,1,0,3,1,0.00,0.00,26.29,
14.528,115.06937446824878,99.80216989388727,0.0,-2.0,-4.0,3,5,4,1,0,3,1,0.00,0.00,25.70,
14.542,114.94393744682489,100.01621698938872,0.0,-2.0,0.0,4,5,4,1,0,3,1,0.00,0.00,25.11,
14.557,114.91339374468248,100.19062169893886,-1.0,0.0,0.0,4,5,4,1,0,3,1,0.00,0.00,24.23,
14.571,115.00033937446824,100.2170621698939,-2.0,0.0,0.0,4,5,4,1,0,3,1,0.00,0.00,23.84,
14.585,115.09903393744682,100.16570621698939,-2.0,-1.0,0.0,4,5,4,1,0,3,1,0.00,0.00,23.54,
14.599,115.08190339374468,100.21457062169894,-2.0,-2.0,0.0,4,5,4,1,0,3,1,0.00,0.00,23.15,
14.613,115.07119033937447,100.12045706216989,-2.0,-4.0,-1.0,4,5,4,1,0,3,1,0.00,0.00,22.27,
14.627,115.04311903393744,100.075045706217,-2.0,-4.0,-1.0,4,5,4,1,0,3,1,0.00,0.00,21.97,
14.642,114.99531190339374,100.01650457062169,-2.0,-3.0,0.0,4,5,4,1,0,3,1,0.00,0.00,21.58,
14.656,114.90053119033936,99.95665045706217,-1.0,-2.0,-1.0,4,5,4,1,0,3,1,0.00,0.00,20.99,
14.669,114.71105311903393,99.88766504570621,-2.0,0.0,-1.0,4,5,4,1,0,3,1,0.00,0.00,20.80,
14.684,114.71910531190339,99.94376650457062,-2.0,-1.0,-1.0,4,5,4,1,0,3,1,0.00,0.00,20.70,
14.698,114.79191053119033,99.92237665045705,-2.0,-1.0,-1.0,4,5,4,1,0,3,1,0.00,0.00,20.70,
14.712,114.64619105311903,99.90223766504572,-2.0,-2.0,-1.0,4,5,4,1,0,3,1,0.00,0.00,20.60,
14.727,114.6136191053119,99.94522376650457,-2.0,-1.0,-1.0,4,5,4,1,0,3,1,0.00,0.00,20.40,
14.74,114.5473619105312,100.16552237665046,-3.0,-2.0,-1.0,4,5,4,1,0,3,1,0.00,0.00,20.31,
14.754,114.58573619105312,99.99855223766504,-3.0,0.0,-2.0,4,5,4,1,0,3,1,0.00,0.00,20.31,
14.769,114.6975736191053,99.9458552237665,-2.0,0.0,-2.0,4,5,4,1,0,3,1,0.00,0.00,20.31,
14.783,114.71775736191053,99.97658552237665,-1.0,-1.0,0.0,4,5,4,1,0,3,1,0.00,0.00,20.21,
14.797,114.65677573619105,100.02465855223767,-2.0,-1.0,-1.0,4,5,4,1,0,3,1,0.00,0.00,20.21,
14.812,114.6686775736191,100.08346585522376,-2.0,0.0,0.0,4,5,4,1,0,3,1,0.00,0.00,20.11,
14.825,114.71486775736192,100.09834658552238,-2.0,0.0,0.0,4,5,4,1,0,3,1,0.00,0.00,20.11,
14.839,114.57548677573618,100.07283465855224,-2.0,0.0,0.0,4,5,4,1,0,3,1,0.00,0.00,20.01,
14.854,114.53454867757361,100.10628346585523,-3.0,0.0,0.0,4,5,4,1,0,3,1,0.00,0.00,19.91,
14.868,114.55745486775736,100.07362834658552,-4.0,1.0,0.0,4,5,4,1,0,3,1,0.00,0.00,20.31,
14.881,114.56874548677573,100.02536283465855,-4.0,1.0,0.0,4,5,4,1,0,2,1,0.00,0.00,20.50,
14.896,114.68687454867758,100.01153628346586,-4.0,1.0,0.0,4,5,4,1,0,2,1,0.00,0.00,20.80,
14.91,114.59068745486775,99.92915362834658,-3.0,2.0,-1.0,4,5,4,1,0,2,1,0.00,0.00,20.99,
14.923,114.46406874548678,99.92091536283465,-4.0,3.0,-1.0,4,5,4,1,0,2,1,0.00,0.00,21.68,
14.938,114.56840687454867,99.86609153628346,-4.0,5.0,1.0,4,5,4,1,0,3,1,0.00,0.00,22.07,
14.952,114.71384068745488,99.86960915362835,-3.0,5.0,1.0,4,5,4,1,0,2,1,0.00,0.00,22.56,
14.965,115.08838406874548,99.86096091536282,-3.0,1.0,0.0,4,5,4,1,0,2,1,0.00,0.00,22.86,
14.98,115.14383840687455,99.77009609153629,-4.0,2.0,0.0,4,5,4,1,0,2,1,0.00,0.00,22.96,
14.993,115.22138384068747,99.78800960915363,-3.0,0.0,0.0,4,5,4,1,0,2,0,0.00,0.00,22.96,
15.007,115.37313838406874,99.78980096091537,-3.0,0.0,0.0,4,5,4,1,0,2,0,0.00,0.00,23.05,
15.022,115.32531383840687,99.75398009609154,-3.0,0.0,0.0,4,5,4,1,0,2,0,0.00,0.00,22.96,
15.035,115.08653138384068,99.82239800960915,-3.0,0.0,-2.0,4,5,4,1,0,2,0,0.00,0.00,22.76,
15.049,114.96365313838406,99.92823980096091,-4.0,1.0,0.0,4,5,4,1,0,2,0,0.00,0.00,22.66,
15.064,114.9423653138384,99.89382398009609,-4.0,1.0,1.0,4,5,4,1,0,2,0,0.00,0.00,22.76,
15.077,114.90423653138384,99.8093823980096,-4.0,3.0,1.0,4,5,4,1,0,2,0,0.00,0.00,22.76,
15.091,115.10742365313838,99.64793823980096,-2.0,5.0,2.0,4,5,4,1,0,2,0,0.00,0.00,22.96,
15.105,115.25374236531383,99.6137938239801,-2.0,4.0,0.0,4,5,4,1,0,2,0,0.00,0.00,23.35,
15.119,115.43937423653138,99.61937938239801,-3.0,3.0,0.0,4,5,4,1,0,2,0,0.00,0.00,23.64,
15.133,115.77293742365313,99.5749379382398,-3.0,0.0,0.0,4,5,4,1,0,2,0,0.00,0.00,24.13,
15.147,115.82429374236531,99.57949379382399,-2.0,-2.0,-2.0,4,5,4,1,0,2,0,0.00,0.00,24.13,
15.161,115.62242937423652,99.6519493793824,-2.0,-3.0,-1.0,4,5,4,1,0,2,0,0.00,0.00,24.03,
15.175,115.48524293742365,99.66819493793824,-3.0,0.0,0.0,4,5,4,1,0,2,0,0.00,0.00,23.94,
15.188,115.38152429374237,99.64281949379382,-2.0,0.0,0.0,4,5,4,1,0,2,0,0.00,0.00,23.74,
15.203,115.40715242937424,99.5502819493794,-2.0,2.0,1.0,4,5,4,1,0,2,0,0.00,0.00,23.64,
15.217,115.49071524293743,99.52302819493794,-2.0,1.0,0.0,4,5,4,1,0,2,0,0.00,0.00,23.64,
15.23,115.45407152429374,99.5563028194938,-2.0,0.0,0.0,4,5,4,1,0,2,0,0.00,0.00,23.94,
15.245,115.63940715242937,99.4876302819494,-2.0,0.0,0.0,4,5,4,1,0,2,0,0.00,0.00,24.33,
15.259,115.76594071524293,99.45376302819494,-1.0,1.0,0.0,4,5,4,1,0,2,0,0.00,0.00,24.62,
15.272,115.8595940715243,99.4233763028195,-1.0,0.0,-1.0,4,5,4,1,0,2,0,0.00,0.00,24.82,
15.287,115.86895940715243,99.40233763028195,-1.0,-2.0,-2.0,4,5,4,1,0,2,0,0.00,0.00,24.82,
15.301,115.75289594071523,99.4452337630282,-2.0,-3.0,-2.0,4,5,4,1,0,2,0,0.00,0.00,24.62,
15.314,115.62428959407153,99.47652337630282,-2.0,-1.0,-1.0,4,5,4,1,0,2,0,0.00,0.00,24.52,
15.329,115.52142895940716,99.5066523376303,-1.0,0.0,0.0,4,5,4,1,0,2,0,0.00,0.00,24.43,
15.343,115.40314289594072,99.54566523376303,-2.0,0.0,0.0,4,5,4,1,0,2,0,0.00,0.00,24.33,
15.356,115.36431428959406,99.5675665233763,-2.0,0.0,0.0,4,5,4,1,0,2,0,0.00,0.00,23.94,
15.371,115.3874314289594,99.46175665233764,-2.0,0.0,0.0,4,5,4,1,0,2,0,0.00,0.00,23.94,
15.385,115.40774314289594,99.50517566523378,-2.0,0.0,0.0,4,5,4,1,0,1,0,0.00,0.00,23.84,
15.398,115.5267743142896,99.54551756652337,-1.0,0.0,0.0,4,5,4,1,0,1,0,0.00,0.00,23.84,
15.413,115.53867743142897,99.54055175665235,-2.0,-1.0,-1.0,4,5,4,1,0,1,0,0.00,0.00,23.74,
15.427,115.54886774314289,99.52205517566523,-2.0,-2.0,-1.0,4,5,4,1,0,1,0,0.00,0.00,23.64,
15.44,115.52288677431429,99.49320551756652,-2.0,0.0,-1.0,4,5,4,1,0,1,0,0.00,0.00,23.64,
15.455,115.45728867743142,99.49932055175665,-2.0,0.0,0.0,4,5,4,1,0,1,0,0.00,0.00,23.35,
15.469,115.54972886774314,99.58993205517567,-3.0,3.0,0.0,4,4,4,1,0,1,0,0.00,0.00,23.15,
15.482,115.68497288677432,99.68899320551756,-4.0,4.0,1.0,4,4,4,1,0,1,0,0.00,0.00,22.86,
15.497,115.75249728867745,99.74389932055176,-5.0,1.0,5.0,4,4,4,1,0,1,0,0.00,0.00,22.46,
15.511,115.75924972886776,99.60538993205517,-3.0,2.0,0.0,4,4,4,1,0,1,0,0.00,0.00,21.68,
15.524,115.73292497288678,99.51953899320553,-2.0,-1.0,-1.0,4,4,4,1,0,1,0,0.00,0.00,21.39,
15.539,115.78429249728869,99.58295389932056,-2.0,-1.0,0.0,4,4,4,1,0,1,0,0.00,0.00,21.09,
15.553,115.78942924972888,99.63429538993205,-3.0,0.0,2.0,4,4,4,1,0,1,0,0.00,0.00,20.90,
15.566,115.78094292497289,99.54042953899321,-3.0,0.0,0.0,4,4,4,1,0,1,0,0.00,0.00,20.21,
15.581,115.7620942924973,99.51304295389933,-3.0,1.0,0.0,4,4,4,1,0,1,0,0.00,0.00,19.82,
15.594,115.83220942924973,99.61830429538993,-4.0,2.0,1.0,4,4,4,1,0,1,0,0.00,0.00,19.33,
15.608,115.71322094292498,99.05283042953899,-4.0,2.0,2.0,4,4,4,1,0,1,0,0.00,0.00,18.84,
15.623,115.7463220942925,98.9242830429539,-3.0,1.0,1.0,4,4,4,1,0,1,0,0.00,0.00,17.85,
15.636,115.64163220942925,99.01042830429539,-3.0,0.0,0.0,4,4,4,1,0,1,0,0.00,0.00,17.46,
15.65,115.58616322094292,99.10004283042953,-3.0,2.0,2.0,4,4,4,1,0,1,0,0.00,0.00,17.27,
15.665,115.6886163220943,99.10000428304295,-3.0,4.0,2.0,4,4,4,1,0,1,0,0.00,0.00,17.07,
15.678,115.77086163220943,99.14500042830431,-3.0,4.0,3.0,4,4,3,1,0,1,0,0.00,0.00,16.97,
15.692,115.90508616322094,99.04150004283044,-4.0,-1.0,-1.0,4,4,3,1,0,1,0,0.00,0.00,16.87,
15.707,116.1435086163221,98.95015000428305,-4.0,4.0,1.0,4,4,3,1,0,1,0,0.00,0.00,16.78,
15.72,116.3023508616322,98.8960150004283,-5.0,2.0,1.0,4,4,3,1,0,1,0,0.00,0.00,16.68,
15.734,116.21023508616321,98.73760150004283,-4.0,0.0,0.0,4,4,3,1,0,1,0,0.00,0.00,15.99,
15.748,116.11102350861631,98.71276015000427,-3.0,0.0,0.0,4,4,3,1,0,1,0,0.00,0.00,15.89,
15.762,116.08310235086162,98.63827601500043,-2.0,3.0,4.0,4,4,3,1,0,1,0,0.00,0.00,15.79,
15.776,116.45831023508617,98.40582760150005,0.0,2.0,5.0,4,4,3,1,0,1,0,0.00,0.00,15.70,
15.79,116.72983102350862,98.40958276015,-2.0,5.0,2.0,4,4,3,1,0,1,0,0.00,0.00,15.89,
15.804,118.39498310235085,97.617958276015,-2.0,12.0,7.0,4,4,3,1,0,1,0,0.00,0.00,15.99,
15.817,118.36349831023509,97.4757958276015,-3.0,1.0,-2.0,4,4,3,1,0,1,0,0.00,0.00,15.99,
15.832,118.02734983102351,97.58757958276016,-3.0,5.0,4.0,4,4,3,1,0,1,0,0.00,0.00,15.99,
15.846,117.71473498310236,97.43675795827602,0.0,6.0,0.0,4,4,3,1,0,0,0,0.00,0.00,16.09,
15.859,117.47647349831023,97.68267579582759,-1.0,2.0,-2.0,4,4,3,1,0,0,0,0.00,0.00,16.19,
15.874,117.38064734983104,97.77926757958276,-2.0,2.0,1.0,4,4,3,1,0,0,0,0.00,0.00,16.58,
15.887,117.39806473498311,97.90592675795827,-2.0,3.0,2.0,4,4,3,1,0,0,0,0.00,0.00,16.87,
15.901,117.4088064734983,97.99959267579582,-2.0,2.0,2.0,4,4,3,1,0,0,0,0.00,0.00,17.17,
15.915,117.31088064734982,98.06295926757957,-2.0,2.0,0.0,4,4,3,1,0,0,0,0.00,0.00,17.36,
15.929,117.37308806473497,98.33029592675796,-3.0,3.0,0.0,4,4,3,1,0,1,0,0.00,0.00,17.46,
15.942,121.80730880647349,95.4140295926758,3.0,17.0,-2.0,4,4,3,1,0,1,0,0.00,0.00,17.56,
15.956,122.41273088064735,94.85240295926758,-1.0,-3.0,-8.0,4,4,3,1,0,1,0,0.00,0.00,17.17,
15.971,121.52827308806474,95.40824029592676,-2.0,7.0,3.0,4,4,3,1,0,1,0,0.00,0.00,17.27,
15.984,120.86382730880648,95.84182402959267,-2.0,1.0,0.0,4,4,3,1,0,1,0,0.00,0.00,17.36,
15.998,120.32938273088064,96.13718240295927,-2.0,1.0,0.0,4,4,3,1,0,1,0,0.00,0.00,17.36,
16.013,119.92493827308806,96.40071824029593,-2.0,0.0,0.0,4,4,3,1,0,1,0,0.00,0.00,17.56,
16.026,119.5694938273088,96.67907182402959,-2.0,0.0,0.0,4,4,3,1,0,1,0,0.00,0.00,17.66,
16.04,119.17394938273088,96.95890718240295,-2.0,1.0,0.0,4,4,3,1,0,1,0,0.00,0.00,17.85,
16.055,118.9363949382731,97.23889071824028,-2.0,1.0,0.0,4,4,3,1,0,1,0,0.00,0.00,17.95,
16.068,118.7326394938273,97.24888907182404,-3.0,0.0,0.0,4,4,3,1,0,1,0,0.00,0.00,18.05,
16.082,118.79326394938273,97.4298889071824,-2.0,0.0,-1.0,4,4,3,1,0,1,0,0.00,0.00,18.25,
16.096,118.59232639493827,97.62798889071824,-3.0,1.0,-1.0,4,4,3,1,0,1,0,0.00,0.00,18.25,
16.11,118.31123263949382,97.73779888907183,-2.0,0.0,-1.0,4,4,3,1,0,1,0,0.00,0.00,17.95,
16.124,118.09412326394937,97.7847798889072,-3.0,1.0,1.0,4,4,3,1,0,1,0,0.00,0.00,17.85,
16.138,118.00041232639494,97.92447798889071,-3.0,3.0,-1.0,4,4,3,1,0,1,0,0.00,0.00,17.76,
16.152,117.95504123263949,97.67744779888908,-3.0,5.0,-3.0,4,4,3,1,0,1,0,0.00,0.00,17.66,
16.166,117.97750412326394,97.9587447798889,-5.0,4.0,3.0,4,4,3,1,0,0,0,0.00,0.00,17.07,
16.18,117.9707504123264,98.01387447798889,-6.0,4.0,2.0,4,4,3,0,0,0,0,0.00,0.00,16.68,
16.194,117.83507504123263,97.7133874477989,-3.0,3.0,2.0,4,4,3,0,0,0,0,0.00,0.00,16.28,
16.207,117.92050750412328,97.69233874477989,0.0,1.0,-1.0,4,4,3,1,0,0,0,0.00,0.00,15.89,
16.222,117.88405075041233,97.86123387447799,0.0,0.0,1.0,4,4,3,1,0,0,0,0.00,0.00,15.79,
16.235,117.76340507504123,97.9051233874478,-1.0,1.0,1.0,4,4,3,1,0,0,0,0.00,0.00,15.89,
16.248,117.67034050750412,97.99951233874478,0.0,1.0,2.0,4,4,3,1,0,0,0,0.00,0.00,16.09,
16.263,117.67003405075042,98.08995123387447,-1.0,3.0,3.0,4,4,3,1,0,0,0,0.00,0.00,16.09,
16.276,117.76000340507504,98.18899512338746,-1.0,3.0,3.0,4,4,3,1,0,0,0,0.00,0.00,16.58,
16.29,117.6880003405075,98.13589951233874,-1.0,3.0,2.0,4,4,3,1,0,0,0,0.00,0.00,16.68,
16.304,117.62680003405075,98.18458995123387,-2.0,3.0,3.0,4,4,3,1,0,0,0,0.00,0.00,16.68,
16.318,117.70168000340506,98.0634589951234,-2.0,4.0,4.0,4,4,3,1,0,0,0,0.00,0.00,16.78,
16.331,117.8711680003405,98.03334589951234,-2.0,2.0,0.0,4,4,3,1,0,0,0,0.00,0.00,16.87,
16.346,117.88811680003404,98.03033458995124,-1.0,2.0,0.0,4,4,3,1,0,0,0,0.00,0.00,16.97,
16.359,117.8808116800034,98.06603345899511,-2.0,0.0,-1.0,4,4,3,1,0,0,0,0.00,0.00,17.17,
16.373,117.99708116800034,98.10560334589951,-2.0,2.0,2.0,4,4,3,1,0,0,0,0.00,0.00,17.27,
16.388,118.06270811680002,98.09156033458996,-2.0,1.0,1.0,4,4,3,1,0,0,0,0.00,0.00,17.46,
16.401,118.17727081167999,98.09915603345898,-2.0,2.0,2.0,4,4,3,1,0,0,0,0.00,0.00,17.56,
16.415,118.305727081168,98.0549156033459,-2.0,2.0,-1.0,4,4,3,1,0,0,0,0.00,0.00,17.66,
16.859,118.93057270811681,97.45649156033458,-4.0,0.0,0.0,4,3,3,0,0,0,0,0.00,0.00,14.42,
16.873,118.97505727081169,97.28864915603344,-3.0,0.0,0.0,4,3,3,0,0,0,0,0.00,0.00,14.22,
16.886,118.98850572708116,97.26286491560334,-2.0,0.0,0.0,4,3,3,0,0,0,0,0.00,0.00,13.93,
16.901,118.98085057270812,97.24228649156032,-2.0,0.0,0.0,4,3,3,0,0,0,0,0.00,0.00,13.73,
16.914,119.07908505727082,97.17722864915604,-2.0,1.0,-1.0,4,3,3,0,0,0,0,0.00,0.00,13.73,
16.928,119.06190850572709,97.1527228649156,-1.0,0.0,-2.0,4,3,3,0,0,0,0,0.00,0.00,13.73,
16.942,119.10519085057271,97.19527228649156,-2.0,0.0,-2.0,4,3,3,0,0,0,0,0.00,0.00,13.73,
16.956,119.11851908505729,97.20852722864915,-3.0,0.0,-1.0,4,3,3,0,0,0,0,0.00,0.00,13.73,
16.969,119.12885190850572,97.1468527228649,-3.0,0.0,0.0,4,3,3,0,0,0,0,0.00,0.00,13.73,
16.984,119.07588519085057,97.12268527228649,-2.0,0.0,-1.0,4,3,3,0,0,0,0,0.00,0.00,13.83,
16.998,119.07958851908505,97.15626852722865,-2.0,-1.0,-1.0,4,3,3,0,0,0,0,0.00,0.00,13.83,
17.011,119.0709588519085,97.15962685272287,-2.0,-2.0,-1.0,4,3,3,0,0,0,0,0.00,0.00,13.73,
17.026,119.03409588519085,97.18696268527229,-1.0,-2.0,0.0,4,3,3,0,0,0,0,0.00,0.00,13.73,
17.039,118.94940958851909,97.27969626852723,-1.0,-2.0,0.0,4,3,3,0,0,0,0,0.00,0.00,13.73,
17.053,118.7519409588519,97.27096962685272,-1.0,-3.0,1.0,4,3,3,0,0,0,0,0.00,0.00,14.13,
17.068,118.70519409588519,97.25209696268527,-1.0,-3.0,1.0,4,3,3,0,0,0,0,0.00,0.00,14.42,
17.081,118.66451940958851,97.25020969626853,-1.0,-1.0,0.0,4,3,3,0,0,0,0,0.00,0.00,14.72,
17.095,118.75945194095885,97.30402096962686,-1.0,0.0,-4.0,4,3,3,0,0,0,0,0.00,0.00,15.30,
17.108,118.80494519409588,97.37240209696267,-1.0,-1.0,-2.0,4,3,3,0,0,0,0,0.00,0.00,16.28,
17.123,118.89049451940959,97.33424020969626,-1.0,-1.0,0.0,4,3,3,0,0,0,0,0.00,0.00,16.58,
17.137,118.93504945194096,97.36642402096963,-1.0,0.0,-1.0,4,3,3,0,0,0,0,0.00,0.00,16.87,
17.15,118.9485049451941,97.39664240209697,-1.0,0.0,0.0,4,3,3,0,0,0,0,0.00,0.00,17.27,
17.165,119.0578504945194,97.38166424020969,-2.0,-1.0,-1.0,4,3,3,0,0,0,0,0.00,0.00,17.66,
17.178,118.91578504945194,97.38916642402097,-2.0,-1.0,-2.0,4,3,3,0,0,0,0,0.00,0.00,17.76,
17.192,118.85657850494519,97.44391664240209,-2.0,0.0,-2.0,4,3,3,0,0,0,0,0.00,0.00,17.95,
17.207,118.79665785049451,97.49439166424021,-2.0,0.0,0.0,4,3,3,0,0,0,0,0.00,0.00,18.05,
17.22,118.87166578504946,97.50843916642401,-3.0,0.0,2.0,4,3,3,0,0,0,0,0.00,0.00,18.25,
17.234,118.95116657850494,97.3838439166424,-3.0,0.0,1.0,4,4,3,0,0,0,0,0.00,0.00,18.15,
17.248,119.0221166578505,97.30838439166423,-2.0,-2.0,0.0,4,4,3,0,0,0,0,0.00,0.00,18.15,
17.262,119.01121166578505,97.30083843916641,-2.0,-2.0,0.0,4,4,3,0,0,0,0,0.00,0.00,18.05,
17.275,118.97412116657851,97.25508384391665,-2.0,-1.0,0.0,4,4,3,0,0,0,0,0.00,0.00,17.76,
17.29,118.81741211665785,97.21450838439165,-2.0,-1.0,0.0,4,4,3,0,0,0,0,0.00,0.00,17.66,
17.304,118.77474121166578,97.21045083843916,-2.0,-1.0,0.0,4,4,3,0,0,0,0,0.00,0.00,17.46,
17.317,118.84247412116657,97.21004508384391,-1.0,-1.0,0.0,4,4,3,0,0,0,0,0.00,0.00,17.36,
17.332,118.85824741211665,97.1020045083844,-1.0,0.0,-6.0,4,4,3,0,0,0,0,0.00,0.00,17.27,
17.345,118.85082474121167,97.37020045083845,-1.0,0.0,-4.0,4,4,3,0,0,0,0,0.00,0.00,17.17,
17.359,118.77808247412116,97.37902004508383,-2.0,-1.0,-2.0,4,4,3,0,0,0,0,0.00,0.00,17.07,
17.374,118.68080824741212,97.35290200450838,-2.0,0.0,-1.0,4,4,3,0,0,0,0,0.00,0.00,17.27,
17.387,118.68908082474121,97.32329020045083,-2.0,0.0,0.0,4,4,3,0,0,0,0,0.00,0.00,17.46,
17.401,118.74390808247412,97.27532902004508,-2.0,-1.0,0.0,4,4,3,0,0,0,0,0.00,0.00,17.46,
17.415,118.75839080824741,97.22553290200452,-1.0,-2.0,0.0,4,4,3,0,0,0,0,0.00,0.00,17.66,
17.429,118.72383908082473,97.18455329020045,-1.0,-3.0,0.0,4,4,3,0,0,0,0,0.00,0.00,17.66,
17.442,118.69338390808247,97.23445532902004,-1.0,-2.0,0.0,4,4,3,1,0,0,0,0.00,0.00,17.85,
17.457,118.60033839080825,97.32944553290201,-1.0,-2.0,1.0,4,4,3,1,0,0,0,0.00,0.00,17.95,
17.471,118.55503383908082,97.27594455329019,-1.0,-1.0,0.0,4,4,3,1,0,0,0,0.00,0.00,18.15,
17.484,118.5595033839081,97.26159445532902,-1.0,-1.0,-1.0,4,4,3,1,0,0,0,0.00,0.00,18.34,
17.499,118.5689503383908,97.3141594455329,-1.0,-2.0,-2.0,4,4,3,1,0,0,0,0.00,0.00,18.84,
17.513,118.53389503383909,97.40941594455329,-1.0,-2.0,-2.0,4,4,3,1,0,0,0,0.00,0.00,19.03,
17.526,118.45838950338391,97.33794159445532,-1.0,-1.0,-1.0,4,4,3,1,0,0,0,0.00,0.00,19.23,
17.541,118.4418389503384,97.33079415944553,0.0,-1.0,-2.0,4,4,3,1,0,0,0,0.00,0.00,19.52,
17.555,118.44018389503384,97.37507941594455,-1.0,0.0,-1.0,4,4,3,1,0,0,0,0.00,0.00,19.91,
17.568,118.50301838950338,97.35250794159445,-1.0,0.0,-1.0,4,4,3,1,0,0,0,0.00,0.00,20.21,
17.583,118.44630183895033,97.40425079415944,-1.0,-1.0,-2.0,4,4,3,1,0,0,0,0.00,0.00,20.31,
17.596,118.41363018389504,97.42742507941595,-1.0,0.0,-1.0,4,4,3,1,0,0,0,0.00,0.00,20.40,
17.61,118.4193630183895,97.4297425079416,-2.0,0.0,-1.0,4,4,3,1,0,0,0,0.00,0.00,20.50,
17.625,118.41093630183894,97.40297425079417,-1.0,0.0,-1.0,4,4,3,1,0,0,0,0.00,0.00,20.50,
17.638,118.4370936301839,97.36429742507941,0.0,-2.0,-1.0,4,4,3,1,0,0,0,0.00,0.00,20.40,
17.652,118.45770936301838,97.34242974250795,0.0,-4.0,-2.0,4,4,3,1,0,0,0,0.00,0.00,20.50,
17.666,118.36077093630183,97.41224297425079,0.0,-4.0,-2.0,4,4,3,1,0,0,0,0.00,0.00,20.80,
17.68,118.27007709363019,97.41922429742507,0.0,-4.0,-3.0,4,4,3,1,0,0,0,0.00,0.00,20.90,
17.693,118.13500770936302,97.4649224297425,0.0,-2.0,-2.0,4,4,3,1,0,0,0,0.00,0.00,21.09,
17.708,118.13950077093631,97.53249224297426,-1.0,-2.0,-1.0,5,4,3,1,0,0,0,0.00,0.00,21.29,
17.722,118.13095007709362,97.55724922429742,0.0,-2.0,-2.0,5,4,4,1,0,1,0,0.00,0.00,21.58,
17.736,118.13909500770937,97.60472492242974,-1.0,-2.0,-1.0,5,4,4,1,0,1,0,0.00,0.00,21.78,
17.75,118.12190950077094,97.65447249224297,-1.0,-2.0,-1.0,5,4,4,1,0,1,0,0.00,0.00,21.97,
17.764,118.0391909500771,97.6234472492243,0.0,-4.0,-2.0,5,4,4,1,0,1,0,0.00,0.00,22.27,
17.778,117.9589190950077,97.65634472492243,0.0,-4.0,-3.0,5,4,4,1,0,1,0,0.00,0.00,22.46,
17.793,117.89689190950077,97.65963447249224,0.0,-3.0,-2.0,5,4,4,1,0,1,0,0.00,0.00,22.76,
17.806,117.88168919095007,97.73196344724921,0.0,-3.0,-2.0,5,4,4,1,0,1,0,0.00,0.00,23.15,
17.82,117.934168919095,97.81119634472492,0.0,-3.0,-2.0,5,4,4,1,0,1,0,0.00,0.00,23.64,
17.835,117.90341689190952,97.8641196344725,-1.0,-3.0,-2.0,5,4,4,1,0,1,0,0.00,0.00,23.94,
17.849,117.90034168919097,97.86941196344726,-1.0,-3.0,-2.0,5,4,4,1,0,1,0,0.00,0.00,24.23,
17.862,117.8010341689191,97.95094119634473,-1.0,-3.0,-2.0,5,4,4,1,0,1,0,0.00,0.00,24.43,
17.876,117.78210341689191,97.99509411963447,-1.0,-2.0,-1.0,5,4,4,1,0,1,0,0.00,0.00,24.72,
17.891,117.6722103416892,98.02650941196345,-1.0,-2.0,-1.0,5,4,4,1,0,1,0,0.00,0.00,24.82,
17.905,117.65222103416892,98.00265094119635,-2.0,-2.0,-2.0,5,4,4,1,0,1,0,0.00,0.00,24.92,
17.918,117.6682221034169,98.05426509411964,-2.0,-2.0,-1.0,5,4,4,1,0,1,0,0.00,0.00,25.02,
17.933,117.62482221034169,98.05942650941196,-1.0,-1.0,-1.0,5,4,4,1,0,1,0,0.00,0.00,24.92,
17.947,117.55748222103416,98.1049426509412,-1.0,-1.0,0.0,5,4,4,1,0,1,0,0.00,0.00,24.92,
17.961,117.54174822210342,98.04649426509413,-2.0,-1.0,-1.0,5,4,4,1,0,1,0,0.00,0.00,24.92,
17.976,117.54917482221035,98.04064942650942,-2.0,-2.0,-2.0,5,4,4,1,0,1,0,0.00,0.00,24.62,
17.989,117.46891748222103,98.11206494265095,-2.0,-2.0,-1.0,5,4,4,1,0,1,0,0.00,0.00,24.62,
18.003,117.4788917482221,98.1462064942651,-2.0,0.0,0.0,5,4,4,1,0,1,0,0.00,0.00,24.52,
18.018,117.4618891748222,98.22162064942651,-2.0,0.0,0.0,5,4,4,1,0,1,0,0.00,0.00,24.33,
18.031,117.42418891748221,98.23816206494264,-2.0,0.0,-1.0,5,4,4,1,0,1,0,0.00,0.00,24.13,
18.045,117.36641889174821,98.23981620649425,-2.0,0.0,0.0,5,4,4,1,0,1,0,0.00,0.00,23.94,
18.06,117.41464188917482,98.21298162064942,-2.0,0.0,0.0,5,4,4,1,0,1,0,0.00,0.00,23.74,
18.073,117.49146418891748,98.17429816206494,-2.0,0.0,-1.0,5,4,4,1,0,1,0,0.00,0.00,23.45,
18.087,117.49914641889174,98.1524298162065,-2.0,-1.0,-1.0,5,4,4,1,0,1,0,0.00,0.00,23.15,
18.102,117.51791464188918,98.15024298162066,-2.0,-2.0,-1.0,5,4,4,1,0,1,0,0.00,0.00,22.96,
18.116,117.51079146418891,98.15902429816205,-2.0,0.0,0.0,5,4,4,1,0,1,0,0.00,0.00,22.76,
18.129,117.47407914641889,98.16890242981621,-2.0,0.0,0.0,5,4,4,1,0,1,0,0.00,0.00,22.56,
18.144,117.47940791464188,98.18789024298161,-2.0,0.0,-1.0,5,4,4,1,0,1,0,0.00,0.00,22.27,
18.158,117.49794079146419,98.20778902429815,-2.0,-1.0,0.0,5,4,4,1,0,1,0,0.00,0.00,21.97,
18.171,117.50879407914641,98.18277890242982,-3.0,0.0,0.0,4,4,4,1,0,1,0,0.00,0.00,21.78,
18.186,117.49187940791464,98.15327789024299,-3.0,0.0,0.0,4,4,4,1,0,1,0,0.00,0.00,21.58,
18.199,117.54418794079146,98.1953277890243,-3.0,1.0,0.0,4,4,4,1,0,1,0,0.00,0.00,20.90,
18.213,117.62141879407915,98.20853277890242,-5.0,3.0,0.0,4,4,3,1,0,1,0,0.00,0.00,20.40,
18.227,117.63814187940791,98.12885327789024,-5.0,3.0,0.0,4,4,3,1,0,0,0,0.00,0.00,19.82,
18.241,117.6218141879408,98.07588532778901,-5.0,3.0,0.0,4,4,3,1,0,0,0,0.00,0.00,19.03,
18.254,117.56618141879407,97.9715885327789,-4.0,3.0,1.0,4,4,3,1,0,0,0,0.00,0.00,17.27,
18.269,117.6236181418794,97.6281588532779,-2.0,0.0,0.0,4,4,3,1,0,0,0,0.00,0.00,16.48,
18.282,117.65636181418795,97.64781588532779,-1.0,0.0,-2.0,4,4,3,1,0,0,0,0.00,0.00,15.99,
18.296,117.65963618141879,97.73078158853278,-2.0,0.0,1.0,4,4,3,1,0,0,0,0.00,0.00,15.60,
18.311,117.69596361814189,97.66707815885329,-2.0,0.0,0.0,4,4,3,1,0,0,0,0.00,0.00,15.30,
18.324,117.74459636181419,97.66970781588533,-3.0,0.0,0.0,4,4,3,0,0,0,0,0.00,0.00,14.91,
18.338,117.74945963618143,97.66097078158853,-3.0,0.0,0.0,4,4,3,0,0,0,0,0.00,0.00,14.72,
18.352,117.70494596361814,97.61509707815885,-2.0,1.0,0.0,4,4,3,0,0,0,0,0.00,0.00,14.42,
18.366,117.72749459636182,97.57450970781588,-3.0,1.0,0.0,4,4,3,0,0,0,0,0.00,0.00,14.03,
18.379,117.78374945963618,97.5704509707816,-2.0,0.0,0.0,4,4,3,0,0,0,0,0.00,0.00,13.83,
18.394,117.87937494596362,97.54304509707816,-2.0,0.0,-2.0,4,4,3,0,0,0,0,0.00,0.00,13.64,
18.407,117.87993749459636,97.57630450970782,-2.0,-2.0,-1.0,4,4,3,0,0,0,0,0.00,0.00,13.64,
18.421,117.87099374945964,97.56163045097078,-2.0,-3.0,-2.0,4,4,3,0,0,0,0,0.00,0.00,13.64,
18.436,117.78009937494596,97.61416304509709,-2.0,-1.0,0.0,4,4,3,0,0,0,0,0.00,0.00,13.64,
18.449,117.6990099374946,97.65541630450971,-2.0,0.0,-1.0,4,4,3,0,0,0,0,0.00,0.00,13.64,
18.463,117.72690099374947,97.65954163045097,-2.0,1.0,-1.0,4,4,3,0,0,0,0,0.00,0.00,13.64,
18.477,117.70269009937495,97.6599541630451,-2.0,0.0,-1.0,4,4,3,0,0,0,0,0.00,0.00,13.73,
18.491,117.6912690099375,97.7319954163045,-3.0,-1.0,-2.0,4,4,3,0,0,0,0,0.00,0.00,13.64,
18.505,117.68112690099375,97.77519954163046,-3.0,0.0,0.0,4,4,3,0,0,0,0,0.00,0.00,13.73,
18.519,117.75211269009938,97.77051995416303,-2.0,3.0,0.0,4,4,3,0,0,0,0,0.00,0.00,13.73,
18.533,117.90321126900993,97.70705199541631,-3.0,3.0,0.0,4,4,3,0,0,0,0,0.00,0.00,13.83,
18.546,118.05332112690098,97.61070519954163,-3.0,1.0,0.0,4,4,3,0,0,0,0,0.00,0.00,13.73,
18.561,118.1043321126901,97.59207051995416,-3.0,-2.0,-1.0,4,4,3,0,0,0,0,0.00,0.00,13.64,
18.574,117.992433211269,97.57220705199542,-2.0,-1.0,0.0,4,4,3,0,0,0,0,0.00,0.00,13.34,
18.588,117.93624332112691,97.54322070519954,-2.0,1.0,1.0,4,4,3,0,0,0,0,0.00,0.00,13.15,
18.603,117.86762433211268,97.54932207051995,-2.0,2.0,0.0,4,4,3,0,0,0,0,0.00,0.00,13.05,
18.616,117.77076243321127,97.549932207052,-2.0,1.0,0.0,4,4,3,0,0,0,0,0.00,0.00,12.95,
18.63,117.81507624332112,97.5589932207052,-2.0,2.0,0.0,4,4,3,0,0,0,0,0.00,0.00,13.05,
18.643,117.91850762433212,97.54189932207052,-2.0,2.0,1.0,4,4,3,0,0,0,0,0.00,0.00,13.15,
18.658,118.06385076243322,97.47718993220705,-2.0,2.0,0.0,4,4,3,0,0,0,0,0.00,0.00,13.34,
18.671,118.30338507624332,97.40771899322071,-1.0,-1.0,-1.0,4,4,3,0,0,0,0,0.00,0.00,13.44,
18.685,118.23733850762434,97.45477189932207,-2.0,-3.0,-2.0,4,4,3,0,0,0,0,0.00,0.00,13.54,
18.7,118.14073385076243,97.4594771899322,-2.0,-2.0,-1.0,4,4,3,0,0,0,0,0.00,0.00,13.83,
18.713,118.04107338507625,97.46894771899322,-1.0,0.0,0.0,4,4,3,0,0,0,0,0.00,0.00,14.03,
18.727,118.01310733850762,97.50589477189932,-2.0,0.0,-1.0,4,4,3,0,0,0,0,0.00,0.00,14.03,
18.741,118.01931073385076,97.47358947718993,-1.0,0.0,-1.0,4,4,3,0,0,0,0,0.00,0.00,14.22,
18.755,118.06493107338507,97.506358947719,-1.0,0.0,0.0,4,4,3,0,0,0,0,0.00,0.00,14.32,
18.768,118.09649310733849,97.52763589477189,-2.0,0.0,0.0,4,4,3,0,0,0,0,0.00,0.00,14.52,
18.783,118.21664931073386,97.52076358947718,-2.0,0.0,0.0,4,4,3,0,0,0,0,0.00,0.00,14.62,
18.796,118.23766493107338,97.43007635894772,-2.0,0.0,-1.0,4,4,3,0,0,0,0,0.00,0.00,14.91,
18.81,118.15876649310735,97.51100763589477,-2.0,0.0,-2.0,4,4,3,1,0,0,0,0.00,0.00,15.01,
18.824,118.01587664931074,97.51010076358948,-2.0,0.0,-1.0,4,4,3,1,0,0,0,0.00,0.00,15.30,
18.838,118.06458766493107,97.52801007635895,-2.0,1.0,-2.0,4,4,3,1,0,0,0,0.00,0.00,15.50,
18.852,118.11445876649312,97.4758010076359,-2.0,0.0,-2.0,4,4,3,1,0,0,0,0.00,0.00,15.79,
18.866,118.19144587664931,97.39858010076358,-2.0,-1.0,-2.0,4,4,3,1,0,0,0,0.00,0.00,15.89,
18.88,118.19014458766492,97.46285801007636,-1.0,-1.0,-1.0,4,4,3,1,0,0,0,0.00,0.00,15.79,
18.894,118.1990144587665,97.53228580100763,-2.0,0.0,0.0,4,4,3,1,0,0,0,0.00,0.00,15.89,
18.908,118.08290144587664,97.53022858010075,-2.0,0.0,0.0,4,4,3,1,0,0,0,0.00,0.00,15.79,
18.922,118.00829014458766,97.54802285801007,-2.0,0.0,-1.0,4,4,3,1,0,0,0,0.00,0.00,15.79,
18.935,117.98282901445876,97.55880228580101,-2.0,0.0,0.0,4,4,3,1,0,0,0,0.00,0.00,15.79,
18.95,118.07028290144588,97.5778802285801,-2.0,0.0,1.0,4,4,3,1,0,0,0,0.00,0.00,15.99,
18.963,118.15102829014458,97.58878802285801,-2.0,0.0,0.0,4,4,3,1,0,0,0,0.00,0.00,15.99,
18.977,118.23110282901445,97.5178788022858,-2.0,0.0,0.0,4,4,3,1,0,0,0,0.00,0.00,16.09,
18.991,118.18511028290145,97.50178788022858,-2.0,-1.0,0.0,4,4,3,1,0,0,0,0.00,0.00,16.09,
19.005,118.13551102829014,97.55417878802285,-2.0,-1.0,0.0,4,4,3,1,0,0,0,0.00,0.00,16.09,
19.018,118.130551102829,97.52341787880229,-2.0,0.0,0.0,4,4,3,1,0,0,0,0.00,0.00,16.09,
19.033,118.13905511028291,97.52934178788023,-2.0,0.0,0.0,4,4,3,1,0,0,0,0.00,0.00,16.09,
19.046,118.14890551102829,97.55693417878803,-2.0,0.0,0.0,4,4,3,1,0,0,0,0.00,0.00,16.19,
19.06,118.11389055110283,97.4876934178788,-2.0,0.0,0.0,4,4,3,1,0,0,0,0.00,0.00,16.19,
19.074,118.08338905511029,97.47176934178788,-2.0,0.0,0.0,4,4,3,1,0,0,0,0.00,0.00,16.28,
19.088,118.06233890551103,97.54217693417878,-2.0,0.0,0.0,4,4,3,1,0,0,0,0.00,0.00,16.38,
19.101,118.0872338905511,97.51321769341787,-2.0,0.0,0.0,4,4,3,1,0,0,0,0.00,0.00,16.38,
19.116,118.11672338905511,97.46532176934178,-1.0,0.0,0.0,4,4,3,1,0,0,0,0.00,0.00,16.48,
19.129,118.1286723389055,97.46953217693418,-2.0,0.0,0.0,4,4,3,1,0,0,0,0.00,0.00,16.58,
19.143,118.15686723389054,97.45195321769341,-2.0,0.0,0.0,4,4,3,1,0,0,0,0.00,0.00,16.68,
19.156,118.11468672338906,97.43219532176936,-1.0,0.0,0.0,4,4,3,1,0,0,0,0.00,0.00,16.78,
19.171,118.2004686723389,97.52921953217694,-2.0,0.0,0.0,4,4,3,1,0,0,0,0.00,0.00,16.87,
19.184,118.20904686723388,97.5839219532177,-2.0,0.0,0.0,4,4,3,1,0,0,0,0.00,0.00,16.97,
19.198,118.17390468672339,97.57139219532178,-1.0,0.0,-1.0,4,4,3,1,0,0,0,0.00,0.00,17.27,
19.213,118.07139046867235,97.56113921953218,-1.0,0.0,-2.0,4,4,3,1,0,0,0,0.00,0.00,17.46,
19.226,118.05213904686724,97.59611392195322,-2.0,0.0,0.0,4,4,3,1,0,0,0,0.00,0.00,17.66,
19.24,118.00521390468673,97.57261139219533,-2.0,0.0,0.0,4,4,3,1,0,0,0,0.00,0.00,17.95,
19.254,118.09052139046867,97.49826113921952,-2.0,0.0,0.0,4,4,3,1,0,0,0,0.00,0.00,18.15,
19.268,118.15305213904686,97.43682611392197,-2.0,-1.0,-1.0,4,4,3,1,0,0,0,0.00,0.00,18.25,
19.282,118.17730521390469,97.3946826113922,-2.0,-1.0,-1.0,4,4,3,1,0,0,0,0.00,0.00,18.25,
19.297,118.16173052139047,97.49846826113922,-1.0,-1.0,0.0,4,4,3,1,0,0,0,0.00,0.00,18.15,
19.31,118.12417305213906,97.48184682611392,-2.0,0.0,0.0,4,4,3,1,0,0,0,0.00,0.00,18.25,
19.324,118.15641730521389,97.4711846826114,-2.0,-1.0,0.0,4,4,3,1,0,0,0,0.00,0.00,18.15,
19.339,118.13264173052139,97.47011846826113,-2.0,0.0,0.0,4,4,3,1,0,0,0,0.00,0.00,18.05,
19.352,118.18426417305213,97.47001184682611,-2.0,0.0,0.0,4,4,3,1,0,0,0,0.00,0.00,18.15,
19.366,118.14442641730521,97.4970011846826,-2.0,0.0,0.0,4,4,3,1,0,0,0,0.00,0.00,18.15,
19.38,118.20344264173052,97.52670011846826,-2.0,0.0,0.0,4,4,3,1,0,0,0,0.00,0.00,18.25,
19.394,118.20934426417304,97.55667001184682,-2.0,-1.0,-1.0,4,4,3,1,0,0,0,0.00,0.00,18.44,
19.407,118.25493442641731,97.53266700118468,-1.0,0.0,0.0,4,4,3,1,0,0,0,0.00,0.00,18.34,
19.856,118.20549344264174,97.50326670011847,-2.0,-1.0,-1.0,4,4,4,1,0,0,0,0.00,0.00,21.09,
19.869,118.16454934426416,97.50932667001184,-2.0,0.0,0.0,5,4,4,1,0,1,0,0.00,0.00,21.09,
19.884,118.23245493442641,97.53693266700118,-2.0,0.0,0.0,4,4,4,1,0,1,0,0.00,0.00,21.19,
19.898,118.23024549344265,97.62069326670012,-2.0,0.0,0.0,5,4,4,1,0,1,0,0.00,0.00,21.19,
19.911,118.13102454934427,97.59306932667002,-1.0,-1.0,-1.0,5,4,4,1,0,0,0,0.00,0.00,21.09,
19.926,118.08510245493443,97.65330693266701,-2.0,-1.0,-1.0,5,4,4,1,0,1,0,0.00,0.00,21.09,
19.94,118.08951024549344,97.6593306932667,-2.0,0.0,0.0,5,4,4,1,0,1,0,0.00,0.00,20.99,
19.954,118.12595102454934,97.64193306932667,-1.0,0.0,0.0,5,4,4,1,0,1,0,0.00,0.00,20.99,
19.968,118.14759510245494,97.69419330693268,-1.0,-1.0,-1.0,5,4,4,1,0,1,0,0.00,0.00,20.99,
19.982,118.0957595102455,97.71741933069328,-2.0,-1.0,-1.0,5,4,4,1,0,1,0,0.00,0.00,20.99,
19.996,118.06357595102455,97.73774193306932,-2.0,-1.0,-1.0,5,4,4,1,0,1,0,0.00,0.00,20.90,
20.009,118.00635759510246,97.69477419330694,-2.0,0.0,0.0,5,4,4,1,0,1,0,0.00,0.00,20.90,
20.024,117.99163575951025,97.6724774193307,-2.0,0.0,0.0,5,4,4,1,0,1,0,0.00,0.00,20.80,
20.038,118.06216357595102,97.69724774193307,-2.0,0.0,0.0,5,4,4,1,0,1,0,0.00,0.00,20.80,
20.051,118.10521635759511,97.7357247741933,-2.0,0.0,0.0,4,4,4,1,0,1,0,0.00,0.00,20.80,
20.066,118.14552163575952,97.76657247741932,-2.0,-2.0,-2.0,4,4,4,1,0,1,0,0.00,0.00,20.60,
20.08,118.10455216357595,97.76965724774192,-2.0,-2.0,-1.0,4,4,4,1,0,1,0,0.00,0.00,20.70,
20.094,118.0824552163576,97.7879657247742,-2.0,0.0,0.0,4,4,4,1,0,1,0,0.00,0.00,20.70,
20.108,118.10724552163576,97.80779657247743,-1.0,0.0,0.0,4,4,4,1,0,1,0,0.00,0.00,20.80,
20.122,118.15472455216357,97.78277965724774,-2.0,0.0,-1.0,4,4,4,1,0,1,0,0.00,0.00,20.70,
20.135,118.03347245521636,97.69927796572478,-2.0,-2.0,-2.0,4,4,4,1,0,1,0,0.00,0.00,20.70,
20.15,118.01234724552164,97.70892779657247,-2.0,-1.0,-1.0,4,4,4,1,0,1,0,0.00,0.00,20.70,
20.164,117.96523472455216,97.74589277965725,-2.0,0.0,0.0,4,4,4,1,0,1,0,0.00,0.00,20.70,
20.178,117.97852347245521,97.74958927796573,-2.0,0.0,0.0,4,4,4,1,0,1,0,0.00,0.00,20.70,
20.192,117.94385234724552,97.74995892779658,-2.0,-1.0,-1.0,5,4,4,1,0,1,0,0.00,0.00,20.70,
20.206,117.85038523472456,97.78599589277967,-2.0,-2.0,-1.0,4,4,4,1,0,1,0,0.00,0.00,20.70,
20.22,117.82303852347245,97.78059958927797,-2.0,-1.0,0.0,4,4,4,1,0,1,0,0.00,0.00,20.70,
20.235,117.81130385234725,97.78905995892781,-2.0,0.0,0.0,4,4,4,1,0,1,0,0.00,0.00,20.60,
20.248,117.78313038523473,97.7629059958928,-2.0,0.0,0.0,4,4,4,1,0,1,0,0.00,0.00,20.60,
20.262,117.87931303852346,97.78729059958928,-1.0,0.0,0.0,4,4,4,1,0,1,0,0.00,0.00,20.50,
20.276,117.87993130385235,97.78972905995894,-1.0,-1.0,-1.0,4,4,4,1,0,1,0,0.00,0.00,20.60,
20.29,117.89799313038525,97.8169729059959,-1.0,-1.0,-1.0,4,4,4,1,0,1,0,0.00,0.00,20.70,
20.304,117.80979931303852,97.8376972905996,-1.0,-1.0,0.0,4,4,4,1,0,1,0,0.00,0.00,20.70,
20.319,117.79197993130386,97.89376972905997,-2.0,0.0,0.0,4,4,4,1,0,1,0,0.00,0.00,20.90,
20.332,117.75419799313039,97.89937697290601,-2.0,1.0,0.0,4,4,4,1,0,1,0,0.00,0.00,20.99,
20.346,117.75041979931305,97.9089376972906,-2.0,0.0,0.0,5,4,4,1,0,1,0,0.00,0.00,20.99,
20.361,117.80404197993131,97.87389376972907,-2.0,0.0,0.0,4,4,4,1,0,1,0,0.00,0.00,20.99,
20.374,117.84540419799313,97.8343893769729,-2.0,0.0,0.0,5,4,4,1,0,1,0,0.00,0.00,21.09,
20.388,117.78654041979932,97.8124389376973,-1.0,0.0,0.0,5,4,4,1,0,1,0,0.00,0.00,21.19,
20.402,117.74465404197993,97.80124389376972,-1.0,0.0,0.0,5,4,4,1,0,1,0,0.00,0.00,21.19,
20.416,117.79446540419798,97.85412438937696,-2.0,0.0,-1.0,5,4,4,1,0,1,0,0.00,0.00,21.19,
20.43,117.78144654041981,97.9134124389377,-2.0,0.0,-1.0,5,4,4,1,0,1,0,0.00,0.00,21.19,
20.444,117.78014465404199,97.94634124389377,-2.0,0.0,-1.0,5,4,4,1,0,1,0,0.00,0.00,21.29,
20.458,117.83401446540421,97.96763412438938,-2.0,0.0,0.0,5,4,4,1,0,1,0,0.00,0.00,21.29,
20.472,117.83040144654042,97.96976341243894,-2.0,0.0,0.0,5,4,4,1,0,1,0,0.00,0.00,21.29,
20.486,117.81204014465405,97.96097634124389,-2.0,0.0,-1.0,5,4,4,1,0,1,0,0.00,0.00,21.19,
20.5,117.8552040144654,97.91509763412438,-2.0,0.0,0.0,5,4,4,1,0,1,0,0.00,0.00,21.29,
20.514,117.90452040144653,97.94650976341244,-2.0,0.0,0.0,5,4,4,1,0,1,0,0.00,0.00,21.39,
20.528,117.95445204014464,97.95865097634125,-2.0,0.0,0.0,5,4,4,1,0,1,0,0.00,0.00,21.39,
20.542,117.92344520401446,97.95086509763412,-2.0,0.0,0.0,5,4,4,1,0,1,0,0.00,0.00,21.48,
20.555,117.87534452040146,97.8870865097634,-2.0,0.0,0.0,5,4,4,1,0,1,0,0.00,0.00,21.39,
20.57,117.87053445204016,97.86270865097634,-2.0,0.0,0.0,5,4,4,1,0,1,0,0.00,0.00,21.39,
20.584,117.96005344520401,97.86027086509763,-2.0,0.0,0.0,5,4,4,1,0,1,0,0.00,0.00,21.39,
20.597,117.9780053445204,97.82402708650976,-2.0,0.0,0.0,5,4,4,1,0,1,0,0.00,0.00,21.39,
20.612,118.00680053445204,97.81140270865099,-2.0,0.0,0.0,5,4,4,1,0,1,0,0.00,0.00,21.29,
20.625,117.9466800534452,97.7561402708651,-2.0,-1.0,-1.0,5,4,4,1,0,1,0,0.00,0.00,21.39,
20.639,117.94966800534452,97.75961402708651,-2.0,0.0,0.0,5,4,4,1,0,1,0,0.00,0.00,21.39,
20.654,117.94996680053445,97.69696140270865,-2.0,0.0,0.0,5,4,4,1,0,1,0,0.00,0.00,21.29,
20.668,117.99499668005345,97.74469614027088,-2.0,0.0,0.0,5,4,4,1,0,1,0,0.00,0.00,21.29,
20.681,117.94549966800534,97.73146961402709,-2.0,0.0,0.0,5,4,4,1,0,1,0,0.00,0.00,21.29,
20.696,117.96754996680053,97.78414696140271,-2.0,0.0,-1.0,5,4,4,1,0,1,0,0.00,0.00,21.19,
20.709,118.00575499668005,97.77141469614027,-2.0,0.0,0.0,5,4,4,1,0,1,0,0.00,0.00,21.19,
20.723,118.018575499668,97.78814146961403,-2.0,0.0,-1.0,5,4,4,1,0,1,0,0.00,0.00,21.19,
20.738,118.0558575499668,97.75381414696142,-1.0,0.0,0.0,5,4,4,1,0,1,0,0.00,0.00,21.19,
20.751,118.00558575499667,97.74138141469614,-2.0,-1.0,-1.0,5,4,4,1,0,1,0,0.00,0.00,21.19,
20.765,117.98255857549967,97.7671381414696,-2.0,0.0,0.0,5,4,4,1,0,1,0,0.00,0.00,21.29,
20.78,117.99825585754996,97.68871381414696,-1.0,0.0,0.0,5,4,4,1,0,1,0,0.00,0.00,21.29,
20.793,117.98182558575499,97.7168713814147,-2.0,-1.0,-1.0,5,4,4,1,0,1,0,0.00,0.00,21.29,
20.807,117.97118255857549,97.74668713814148,-1.0,0.0,0.0,5,4,4,1,0,1,0,0.00,0.00,21.39,
20.822,118.01511825585754,97.75866871381416,-2.0,-1.0,-1.0,5,4,4,1,0,1,0,0.00,0.00,21.48,
20.836,117.99251182558575,97.82286687138141,-2.0,0.0,0.0,5,4,4,1,0,1,0,0.00,0.00,21.58,
20.849,118.00825118255858,97.82028668713814,-2.0,0.0,0.0,5,4,4,1,0,1,0,0.00,0.00,21.68,
20.864,117.97382511825586,97.79302866871382,-2.0,-1.0,-1.0,5,4,4,1,0,1,0,0.00,0.00,21.78,
20.878,117.96138251182559,97.79930286687137,-2.0,-1.0,-1.0,5,4,4,1,0,1,0,0.00,0.00,21.78,
20.891,117.92413825118255,97.79093028668714,-2.0,0.0,-1.0,5,4,4,1,0,1,0,0.00,0.00,21.78,
20.905,117.92041382511826,97.7720930286687,-2.0,0.0,0.0,5,4,4,1,0,1,0,0.00,0.00,444.79,
20.92,117.96504138251183,97.81520930286686,-1.0,0.0,0.0,5,4,4,1,0,1,0,0.00,0.00,0.00,
20.933,118.04150413825118,97.85552093028669,-2.0,0.0,-1.0,5,4,4,1,0,1,0,0.00,0.00,21.97,
20.947,118.02215041382512,97.82355209302867,-2.0,-1.0,0.0,5,4,4,1,0,1,0,0.00,0.00,21.97,
20.962,118.01121504138251,97.80235520930286,-1.0,0.0,-1.0,5,4,4,1,0,1,0,0.00,0.00,21.88,
20.975,118.01012150413825,97.80023552093027,-2.0,0.0,0.0,5,4,4,1,0,1,0,0.00,0.00,21.97,
20.989,118.11801215041382,97.76402355209304,-1.0,0.0,0.0,5,4,4,1,0,1,0,0.00,0.00,21.97,
21.004,118.12880121504138,97.7244023552093,-1.0,0.0,0.0,5,4,4,1,0,1,0,0.00,0.00,22.17,
21.017,118.15688012150413,97.78344023552094,-2.0,-2.0,-1.0,5,4,4,1,0,1,0,0.00,0.00,22.27,
21.031,118.09668801215042,97.7803440235521,-2.0,-1.0,0.0,5,4,4,1,0,1,0,0.00,0.00,22.37,
21.046,118.06366880121504,97.78903440235521,-1.0,-1.0,0.0,5,4,4,1,0,1,0,0.00,0.00,22.37,
21.059,118.0153668801215,97.79890344023552,-1.0,0.0,0.0,5,4,4,1,0,1,0,0.00,0.00,22.46,
21.073,118.00153668801215,97.82689034402355,-1.0,0.0,0.0,5,4,4,1,0,1,0,0.00,0.00,22.46,
21.088,117.99115366880122,97.88368903440235,-1.0,-1.0,-1.0,5,4,4,1,0,1,0,0.00,0.00,22.66,
21.101,117.96311536688012,97.89836890344024,-1.0,-1.0,-1.0,5,4,4,1,0,1,0,0.00,0.00,22.76,
21.115,117.97831153668801,97.90883689034402,-1.0,0.0,-1.0,5,4,4,1,0,1,0,0.00,0.00,22.86,
21.13,117.9438311536688,97.8918836890344,-2.0,0.0,0.0,5,4,4,1,0,1,0,0.00,0.00,23.05,
21.144,117.95838311536687,97.89018836890344,-2.0,-1.0,-1.0,5,4,4,1,0,1,0,0.00,0.00,23.05,
21.157,117.89683831153668,97.91701883689035,-1.0,-1.0,-1.0,5,4,4,1,0,1,0,0.00,0.00,23.15,
21.172,117.85468383115366,97.89270188368903,-2.0,-1.0,0.0,5,4,4,1,0,1,0,0.00,0.00,23.05,
21.186,117.85046838311536,97.89927018836892,-1.0,0.0,0.0,5,4,4,1,0,1,0,0.00,0.00,23.25,
21.199,117.88604683831153,97.89092701883689,-1.0,0.0,0.0,5,4,4,1,0,1,0,0.00,0.00,23.35,
21.214,117.88960468383115,97.8990927018837,-1.0,-1.0,-1.0,5,4,4,1,0,1,0,0.00,0.00,23.45,
21.228,117.88096046838311,97.91790927018837,-2.0,-1.0,-1.0,5,4,4,1,0,1,0,0.00,0.00,23.45,
21.242,117.8260960468383,97.93779092701884,-2.0,-2.0,-1.0,5,4,4,1,0,1,0,0.00,0.00,23.45,
21.256,117.82960960468382,97.98477909270188,-1.0,0.0,-1.0,5,4,4,1,0,1,0,0.00,0.00,23.45,
21.27,117.75796096046838,97.98047790927019,-1.0,0.0,0.0,5,4,4,1,0,1,0,0.00,0.00,23.45,
21.284,117.74179609604683,98.00704779092702,-2.0,-1.0,-1.0,5,4,4,1,0,1,0,0.00,0.00,23.64,
21.299,117.73117960960468,97.9827047790927,-2.0,0.0,0.0,5,4,4,1,0,1,0,0.00,0.00,23.64,
21.312,117.64911796096047,97.98927047790927,-2.0,0.0,0.0,5,4,4,1,0,1,0,0.00,0.00,23.54,
21.326,117.74891179609605,97.95392704779093,-2.0,0.0,0.0,5,4,4,1,0,1,0,0.00,0.00,23.64,
21.34,117.80389117960961,97.94139270477909,-1.0,0.0,0.0,5,4,4,1,0,1,0,0.00,0.00,23.64,
21.354,117.82738911796096,97.93113927047793,-2.0,0.0,0.0,5,4,4,1,0,1,0,0.00,0.00,23.64,
21.368,117.82973891179608,97.94811392704779,-2.0,-1.0,-1.0,5,4,4,1,0,1,0,0.00,0.00,23.74,
21.382,117.76697389117962,97.94981139270477,-2.0,-1.0,-1.0,5,4,4,1,0,1,0,0.00,0.00,23.74,
21.396,117.72469738911796,97.96798113927048,-2.0,0.0,0.0,5,4,4,1,0,1,0,0.00,0.00,23.84,
21.41,117.76546973891179,97.88879811392704,-1.0,0.0,0.0,5,4,4,1,0,1,0,0.00,0.00,23.94,
21.424,117.76054697389118,97.8808798113927,-1.0,0.0,0.0,5,4,4,1,0,1,0,0.00,0.00,24.03,
21.438,117.85005469738911,97.88008798113927,-1.0,0.0,0.0,5,4,4,1,0,1,0,0.00,0.00,24.03,
21.452,117.8050054697389,97.93400879811392,-2.0,-1.0,-1.0,5,4,4,1,0,1,0,0.00,0.00,24.43,
21.466,117.71950054697388,97.95740087981139,-2.0,-1.0,-1.0,5,4,4,1,0,1,0,0.00,0.00,24.62,
21.48,117.73795005469738,97.95974008798115,-2.0,0.0,-1.0,5,4,4,1,0,1,0,0.00,0.00,24.72,
21.494,117.76679500546973,97.95097400879811,-2.0,0.0,0.0,5,4,4,1,0,1,0,0.00,0.00,24.92,
21.509,117.76967950054697,98.00409740087981,-2.0,-1.0,-1.0,5,4,4,1,0,1,0,0.00,0.00,25.02,
21.522,117.7249679500547,98.05440974008798,-2.0,-2.0,-1.0,5,4,4,1,0,1,0,0.00,0.00,25.11,
21.536,117.64849679500547,98.02344097400879,-2.0,0.0,-1.0,5,4,4,1,0,1,0,0.00,0.00,25.11,
21.551,117.64084967950055,97.97534409740088,-2.0,0.0,0.0,5,4,4,1,0,1,0,0.00,0.00,25.21,
21.564,117.71208496795006,97.97953440974008,-2.0,0.0,0.0,5,4,4,1,0,1,0,0.00,0.00,25.31,
21.578,117.77320849679501,97.93495344097403,-2.0,0.0,-1.0,5,4,4,1,0,1,0,0.00,0.00,25.51,
21.593,117.7613208496795,97.9754953440974,-2.0,-1.0,-2.0,5,4,4,1,0,1,0,0.00,0.00,25.51,
21.607,117.74213208496795,98.04254953440974,-2.0,-1.0,-2.0,5,4,4,1,0,1,0,0.00,0.00,25.70,
21.62,117.7312132084968,98.06725495344097,-2.0,0.0,-1.0,5,4,4,1,0,1,0,0.00,0.00,25.80,
21.635,117.77512132084969,98.0517254953441,-2.0,0.0,-1.0,5,4,4,1,0,1,0,0.00,0.00,25.90,
21.649,117.77951213208497,98.03217254953441,-2.0,0.0,0.0,5,4,4,1,0,1,0,0.00,0.00,26.09,
21.662,117.7799512132085,98.01221725495344,-2.0,0.0,-1.0,5,4,4,1,0,1,0,0.00,0.00,26.19,
21.677,117.73499512132085,97.99222172549534,-2.0,0.0,0.0,5,4,4,1,0,1,0,0.00,0.00,26.29,
21.691,117.75749951213209,98.02622217254954,-2.0,0.0,0.0,5,4,4,1,0,1,0,0.00,0.00,26.39,
21.704,117.7417499512132,98.02962221725495,-2.0,0.0,-1.0,5,4,4,1,0,1,0,0.00,0.00,26.49,
21.719,117.74917499512132,97.9939622217255,-2.0,0.0,0.0,5,4,4,1,0,1,0,0.00,0.00,26.49,
21.733,117.73191749951214,97.98139622217255,-2.0,0.0,-1.0,5,4,4,1,0,1,0,0.00,0.00,26.49,
21.746,117.7391917499512,97.91713962221725,-1.0,0.0,-1.0,5,4,4,1,0,1,0,0.00,0.00,26.49,
21.761,117.76691917499511,97.97371396222172,-1.0,0.0,-1.0,5,4,4,1,0,1,0,0.00,0.00,26.59,
21.775,117.8416919174995,97.96137139622218,-1.0,-1.0,-1.0,5,4,4,1,0,1,0,0.00,0.00,26.59,
21.789,117.84916919174995,97.96913713962222,-1.0,-1.0,-1.0,5,4,4,1,0,1,0,0.00,0.00,26.78,
21.803,117.80491691917499,98.00591371396223,-2.0,-1.0,-1.0,5,4,4,1,0,1,0,0.00,0.00,26.78,
21.817,117.7374916919175,98.01859137139623,-1.0,-1.0,-1.0,5,4,4,1,0,1,0,0.00,0.00,26.88,
21.831,117.68574916919175,98.01085913713962,-2.0,-1.0,-1.0,5,4,4,1,0,1,0,0.00,0.00,26.88,
21.846,117.61757491691918,97.92908591371396,-1.0,-1.0,0.0,5,4,4,1,0,1,0,0.00,0.00,26.98,
21.859,117.57475749169191,98.0199085913714,-1.0,-1.0,-1.0,5,4,4,1,0,1,0,0.00,0.00,26.98,
21.873,117.56147574916919,98.06499085913713,-2.0,0.0,0.0,5,4,4,1,0,1,0,0.00,0.00,26.68,
21.888,117.56014757491693,98.07849908591372,-2.0,0.0,0.0,5,4,4,1,0,1,0,0.00,0.00,26.78,
21.901,117.59601475749169,98.02584990859137,-2.0,0.0,0.0,5,4,4,1,0,1,0,0.00,0.00,26.78,
21.915,117.63560147574917,98.02058499085913,-1.0,-1.0,-1.0,5,4,4,1,0,1,0,0.00,0.00,26.68,
21.929,117.66656014757493,98.01105849908592,-1.0,-1.0,-2.0,5,4,4,1,0,1,0,0.00,0.00,26.68,
21.944,117.64265601475749,98.0821058499086,-1.0,-2.0,-1.0,5,4,4,1,0,1,0,0.00,0.00,26.68,
21.957,117.62226560147575,98.12521058499085,-1.0,-1.0,-1.0,5,4,4,1,0,1,0,0.00,0.00,26.88,
21.971,117.58422656014757,98.1205210584991,-1.0,0.0,0.0,5,4,4,1,0,1,0,0.00,0.00,26.98,
21.986,117.64342265601476,98.13805210584991,-2.0,-1.0,-1.0,5,4,4,1,0,1,0,0.00,0.00,26.98,
22.0,117.62234226560147,98.148805210585,-1.0,-1.0,-1.0,5,4,4,1,0,1,0,0.00,0.00,26.98,
22.013,117.55723422656014,98.15888052105849,-1.0,-1.0,-2.0,5,4,4,1,0,1,0,0.00,0.00,26.98,
22.028,117.45172342265602,98.16888805210586,-1.0,0.0,0.0,5,4,4,1,0,1,0,0.00,0.00,27.08,
22.042,117.43217234226562,98.20588880521058,-1.0,0.0,0.0,5,4,4,1,0,1,0,0.00,0.00,27.17,
22.055,117.46621723422656,98.24558888052105,-1.0,0.0,0.0,5,4,4,1,0,1,0,0.00,0.00,27.37,
22.07,117.56862172342265,98.23155888805212,-1.0,-1.0,-1.0,5,4,4,1,0,1,0,0.00,0.00,27.57,
22.084,117.55186217234227,98.22115588880521,-1.0,-1.0,-2.0,5,4,4,1,0,1,0,0.00,0.00,27.66,
22.098,117.52318621723423,98.23811558888052,-1.0,-1.0,-1.0,5,4,4,1,0,1,0,0.00,0.00,27.66,
22.112,117.50231862172342,98.20381155888806,-1.0,-1.0,-1.0,5,4,4,1,0,1,0,0.00,0.00,27.76,
22.126,117.49123186217234,98.2183811558888,-1.0,-2.0,-2.0,5,4,4,1,0,1,0,0.00,0.00,27.86,
22.14,117.51712318621723,98.22883811558889,-1.0,-3.0,-3.0,5,4,4,1,0,1,0,0.00,0.00,28.15,
22.155,117.47471231862173,98.27488381155888,-1.0,-4.0,-3.0,5,4,4,1,0,1,0,0.00,0.00,28.35,
22.169,117.38047123186217,98.31548838115589,-1.0,-3.0,-3.0,5,4,4,1,0,1,0,0.00,0.00,28.35,
22.182,117.25404712318621,98.3735488381156,-2.0,-1.0,-1.0,5,4,4,1,0,1,0,0.00,0.00,28.25,
22.197,117.25940471231863,98.46035488381156,-2.0,-1.0,-1.0,5,4,4,1,0,1,0,0.00,0.00,27.96,
22.211,117.33194047123187,98.45103548838117,-3.0,-1.0,-2.0,5,4,4,1,0,1,0,0.00,0.00,27.86,
22.225,117.32119404712319,98.43210354883811,-2.0,-2.0,-3.0,5,4,4,1,0,1,0,0.00,0.00,27.66,
22.24,117.23011940471233,98.38521035488381,-2.0,-2.0,-3.0,5,4,4,1,0,1,0,0.00,0.00,26.98,
22.253,117.14001194047123,98.38052103548839,-2.0,-2.0,-2.0,5,4,4,1,0,1,0,0.00,0.00,26.78,
22.267,117.14000119404712,98.31705210354883,-2.0,-2.0,-2.0,5,4,4,1,0,1,0,0.00,0.00,26.39,
22.282,117.1760001194047,98.34670521035488,-2.0,-2.0,-3.0,5,4,4,1,0,1,0,0.00,0.00,26.19,
22.296,117.05360001194047,98.28667052103549,-2.0,-3.0,-3.0,5,4,4,1,0,1,0,0.00,0.00,25.80,
22.31,117.02336000119405,98.28066705210355,-2.0,-2.0,-4.0,5,4,4,1,0,1,0,0.00,0.00,25.51,
22.324,116.9753360001194,98.24406670521034,-2.0,-2.0,-3.0,5,4,4,1,0,1,0,0.00,0.00,25.11,
22.338,116.90753360001194,98.15940667052104,-2.0,-2.0,-2.0,5,4,4,1,0,1,0,0.00,0.00,24.43,
22.352,116.8917533600012,98.2049406670521,-2.0,-2.0,-2.0,5,4,4,1,0,1,0,0.00,0.00,24.23,
22.367,116.87217533600013,98.22749406670522,-2.0,-2.0,-4.0,4,4,4,1,0,1,0,0.00,0.00,23.84,
22.38,116.94221753360002,98.42774940667053,-2.0,-3.0,0.0,5,4,4,1,0,1,0,0.00,0.00,23.45,
22.394,116.87722175336,98.47477494066706,-1.0,-3.0,-4.0,4,4,4,1,0,1,0,0.00,0.00,22.86,
22.409,116.807722175336,98.6144774940667,-2.0,-3.0,-3.0,4,4,4,1,0,1,0,0.00,0.00,22.56,
22.423,116.7287722175336,98.53844774940667,-1.0,-1.0,-3.0,4,4,4,1,0,1,0,0.00,0.00,22.27,
22.437,116.65787722175337,98.45884477494067,-2.0,-1.0,-2.0,4,4,4,1,0,1,0,0.00,0.00,21.88,
22.451,116.67778772217535,98.26188447749406,-2.0,-1.0,0.0,4,4,4,1,0,1,0,0.00,0.00,21.09,
22.465,116.74277877221753,98.3231884477494,-2.0,-1.0,-2.0,4,4,4,1,0,1,0,0.00,0.00,20.80,
22.479,116.74027787722176,98.24831884477493,-2.0,-2.0,-3.0,4,4,4,1,0,1,0,0.00,0.00,20.40,
22.494,116.71302778772217,98.33983188447749,-2.0,-2.0,-1.0,4,4,4,1,0,1,0,0.00,0.00,19.62,
22.507,116.69230277877222,98.41198318844775,-2.0,-2.0,-3.0,4,4,4,1,0,1,0,0.00,0.00,19.42,
22.521,116.74423027787722,98.39219831884478,-2.0,-1.0,0.0,4,4,4,1,0,1,0,0.00,0.00,19.23,
22.536,116.64142302778772,98.31821983188448,-2.0,-1.0,-4.0,4,4,4,1,0,1,0,0.00,0.00,19.03,
