time,pitch,roll,gyrx,gyry,gyrz,f1,f2,f3,f4,f5,f6,f7,g1,g2,g3
0.399,64.04,66.06,10.2,-3.74,10.64,0.0,0.0,0.0,0.0,0.0,0.0,0.0,0.0,1.86,0.49,
0.422,73.256,75.294,5.71,-3.86,9.47,0.0,0.0,0.0,0.0,0.0,0.0,0.0,0.0,1.67,0.49,
0.446,81.5126,83.6604,-1.98,-1.65,7.69,0.0,0.0,0.0,0.0,0.0,0.0,0.0,0.0,1.67,0.49,
0.471,88.64725999999999,90.90504,-8.05,-0.31,4.02,0.0,0.0,0.0,0.0,0.0,0.0,0.0,0.0,1.67,0.39,
0.494,94.841726,97.038504,-13.69,-0.92,-0.78,0.0,0.0,0.0,0.0,0.0,0.0,0.0,0.0,1.67,0.49,
0.518,100.3571726,102.49385039999999,-16.9,2.09,-5.26,0.0,0.0,0.0,0.0,0.0,0.0,0.0,0.0,1.57,0.49,
0.542,105.25571726,107.40438504,-13.85,-2.3,-8.47,0.0,0.0,0.0,0.0,0.0,0.0,0.0,0.0,1.57,0.59,
0.566,109.543571726,111.774438504,-8.07,0.34,-3.82,0.0,0.0,0.0,0.0,0.0,0.0,0.0,0.0,1.67,0.59,
0.589,113.2303571726,115.6854438504,-1.44,2.98,4.3,0.0,0.0,0.0,0.0,0.0,0.0,0.0,0.0,2.26,0.59,
0.613,116.22703571726001,118.86654438504,1.62,-2.08,7.56,0.0,0.0,0.0,0.0,0.0,0.0,0.0,0.0,3.83,0.69,
0.637,118.86670357172599,121.37165443850401,-0.48,-7.82,6.21,0.0,0.0,0.0,0.0,0.0,0.0,0.0,0.0,4.41,0.69,
0.661,120.7956703571726,123.35016544385039,-4.31,-6.81,2.31,0.0,0.0,0.0,0.0,0.0,0.0,0.0,0.0,4.71,0.69,
0.685,122.02356703571726,125.01501654438505,-5.7,0.43,-1.73,0.0,0.0,0.0,0.0,0.0,0.0,0.0,0.0,4.51,0.59,
0.709,123.28035670357173,126.3335016544385,-3.25,1.86,-2.27,0.0,0.0,0.0,0.0,0.0,0.0,0.0,0.0,4.61,0.69,
0.733,124.75603567035716,127.49135016544385,-4.63,-0.74,2.35,0.0,0.0,0.0,0.0,0.0,0.0,0.0,0.0,5.89,0.69,
0.757,126.07360356703572,128.6151350165444,-9.05,-2.15,-1.95,0.0,0.0,0.0,0.0,0.0,0.0,0.0,0.0,6.87,0.88,
0.781,126.95236035670357,129.52851350165443,-9.69,-1.36,-3.82,0.0,0.0,0.0,0.0,0.0,0.0,0.0,0.0,6.57,0.88,
0.804,127.70623603567036,130.33985135016545,-5.09,-0.73,-3.78,0.0,0.0,0.0,0.0,0.0,0.0,0.0,0.0,6.77,0.78,
0.829,128.51062360356704,131.27598513501655,-0.46,3.6,1.09,0.0,0.0,0.0,0.0,0.0,0.0,0.0,0.0,10.59,0.78,
0.852,129.05006236035672,131.96359851350167,2.61,0.66,0.72,0.0,0.0,0.0,0.0,0.0,0.0,0.0,0.0,12.26,0.78,
0.876,129.54500623603568,132.36535985135015,-0.18,-3.03,2.54,0.0,0.0,0.0,0.0,0.0,0.0,0.0,0.0,11.77,0.88,
0.901,129.81950062360357,132.57653598513502,-2.7,-3.21,1.73,0.0,0.0,0.0,0.0,0.0,0.0,0.0,0.0,11.28,0.78,
0.924,129.80195006236036,132.6066535985135,-2.69,-3.39,-3.49,0.0,0.0,0.0,0.0,0.0,0.0,0.0,0.0,10.79,0.78,
0.949,129.72819500623604,132.65466535985135,-2.59,4.05,-2.82,0.0,0.0,0.0,0.0,0.0,0.0,0.0,0.0,10.69,0.78,
0.972,129.8918195006236,132.88446653598513,-3.32,5.5,0.89,0.0,0.0,0.0,0.0,0.0,0.0,0.0,0.0,11.48,0.78,
0.997,130.28618195006237,133.2944466535985,-5.27,0.81,0.87,0.0,0.0,0.0,0.0,0.0,0.0,0.0,0.0,10.79,0.88,
1.02,130.72161819500624,133.61444466535985,-4.9,-6.54,-2.53,0.0,0.0,0.0,0.0,0.0,0.0,0.0,0.0,10.5,0.98,
1.044,130.82816181950062,133.835444466536,-2.39,-8.04,-2.91,0.0,0.0,0.0,0.0,0.0,0.0,0.0,0.0,10.2,0.98,
1.069,131.09981618195005,134.01954444665358,-0.34,-5.04,0.23,0.0,0.0,0.0,0.0,0.0,0.0,0.0,0.0,10.01,0.78,
1.092,131.297981618195,134.03795444466536,1.91,-0.71,6.02,0.0,0.0,0.0,0.0,0.0,0.0,0.0,0.0,10.89,0.98,
1.117,131.1827981618195,134.01279544446652,-0.74,-0.1,4.16,0.0,0.0,0.0,0.0,0.0,0.0,0.0,0.0,10.79,0.88,
1.14,131.25227981618195,133.99227954444666,-4.34,1.5,0.24,0.0,0.0,0.0,0.0,0.0,0.0,0.0,0.0,10.89,0.88,
1.165,131.16922798161818,134.08022795444467,-5.82,-0.15,-1.11,0.0,0.0,0.0,0.0,0.0,0.0,0.0,0.0,11.48,0.69,
1.188,131.4219227981618,134.36802279544446,-4.99,-6.79,-7.31,0.0,0.0,0.0,0.0,0.0,0.0,0.0,0.0,11.87,0.39,
1.213,131.6901922798162,134.46880227954443,-2.08,-4.76,-3.76,0.0,0.0,0.0,0.0,0.0,0.0,0.0,0.0,12.07,0.29,
1.236,132.02301922798162,134.60488022795445,-1.52,-5.46,1.74,0.0,0.0,0.0,0.0,0.0,0.0,0.0,0.0,11.97,0.39,
1.261,132.19130192279817,134.49248802279544,-4.01,0.4,6.43,0.0,0.0,0.0,0.0,0.0,0.0,0.0,0.0,11.58,0.49,
1.285,132.01013019227983,134.41824880227955,-5.37,0.34,3.89,0.0,0.0,0.0,0.0,0.0,0.0,0.0,0.0,10.99,0.59,
1.308,131.875013019228,134.34782488022796,-4.78,2.97,-0.57,0.0,0.0,0.0,0.0,0.0,0.0,0.0,0.0,11.48,0.59,
1.333,131.8345013019228,134.30478248802282,-4.05,1.76,-1.17,0.0,0.0,0.0,0.0,0.0,0.0,0.0,0.0,12.36,0.59,
1.356,132.03745013019227,134.40847824880228,-5.42,-1.76,-1.93,0.0,0.0,0.0,0.0,0.0,0.0,0.0,0.0,12.16,0.29,
1.381,131.96774501301923,134.3018478248802,-8.18,-2.89,-1.18,0.0,0.0,0.0,0.0,0.0,0.0,0.0,0.0,10.4,0.59,
1.404,131.87977450130194,134.33618478248803,-6.97,-0.78,-0.73,0.0,0.0,0.0,0.0,0.0,0.0,0.0,0.0,10.1,0.78,
1.429,131.7449774501302,134.3396184782488,-4.06,1.63,2.27,0.0,0.0,0.0,0.0,0.0,0.0,0.0,0.0,11.58,0.69,
1.453,131.92049774501302,134.5019618478249,-2.94,-0.68,2.79,0.0,0.0,0.0,0.0,0.0,0.0,0.0,0.0,14.22,0.69,
1.477,132.0280497745013,134.5721961847825,-3.99,-2.21,0.99,0.0,0.0,0.0,0.0,0.0,0.0,0.0,0.0,13.73,0.78,
1.501,131.77780497745013,134.46221961847823,-5.04,-1.59,0.07,0.0,0.0,0.0,0.0,0.0,0.0,0.0,0.0,13.64,0.88,
1.525,131.59078049774502,134.43322196184783,-5.18,-0.08,-1.02,0.0,0.0,0.0,0.0,0.0,0.0,0.0,0.0,13.83,0.88,
1.549,131.6260780497745,134.5563221961848,-4.65,-0.62,1.0,0.0,0.0,0.0,0.0,0.0,0.0,0.0,0.0,13.64,0.88,
1.573,131.66560780497744,134.63163221961847,-2.65,1.17,1.07,0.0,0.0,0.0,0.0,0.0,0.0,0.0,0.0,14.22,0.88,
1.597,131.84056078049775,134.57616322196185,0.73,-2.21,-2.03,0.0,0.0,0.0,0.0,0.0,0.0,0.0,0.0,13.73,0.88,
1.62,132.03805607804978,134.48061632219617,1.34,-7.03,-0.66,0.0,0.0,0.0,0.0,0.0,0.0,0.0,0.0,14.22,0.78,
1.645,131.89580560780496,134.1740616322196,-3.85,-0.14,6.47,0.0,0.0,0.0,0.0,0.0,0.0,0.0,0.0,13.44,0.88,
1.669,131.7645805607805,133.88240616322196,-7.81,4.01,5.73,0.0,0.0,0.0,0.0,0.0,0.0,0.0,0.0,12.75,0.98,
1.693,131.75145805607804,133.70024061632222,-6.47,0.4,0.04,0.0,0.0,0.0,0.0,0.0,0.0,0.0,0.0,12.36,0.78,
1.717,131.8941458056078,133.5020240616322,-4.99,-6.15,-5.44,0.0,0.0,0.0,0.0,0.0,0.0,0.0,0.0,11.77,0.88,
1.741,132.09741458056078,133.29320240616323,-7.73,-7.11,-3.08,0.0,0.0,0.0,0.0,0.0,0.0,0.0,0.0,11.58,0.88,
1.765,132.41474145805608,133.18232024061632,-12.34,-4.4,3.47,0.0,0.0,0.0,0.0,0.0,0.0,0.0,0.0,12.36,0.78,
1.789,132.68047414580562,132.84723202406164,-13.87,2.25,10.36,0.0,0.0,0.0,0.0,0.0,0.0,0.0,0.0,13.44,0.49,
1.813,133.20204741458056,131.94072320240616,-8.83,5.34,11.74,0.0,0.0,0.0,0.0,0.0,0.0,0.0,0.0,13.54,0.29,
1.838,134.10020474145804,130.4820723202406,-4.85,-2.04,12.61,0.0,0.0,0.0,0.0,0.0,0.0,0.0,0.0,12.07,0.29,
1.861,134.33402047414583,129.27420723202405,-15.08,-3.97,15.34,0.0,0.0,0.0,0.0,0.0,0.0,0.0,0.1,11.97,0.49,
1.886,134.2044020474146,127.2994207232024,-25.37,0.07,20.29,0.0,0.0,0.0,0.0,0.0,0.0,0.0,0.0,11.18,0.59,
1.909,134.12844020474148,124.45594207232024,-31.93,-2.69,27.19,0.0,0.0,0.0,0.0,0.0,0.0,0.0,0.0,11.28,0.78,
1.934,134.30084402047413,121.09359420723202,-43.22,-14.08,22.55,0.0,0.0,0.0,0.0,0.0,0.0,0.0,0.0,11.38,0.59,
1.957,133.9220844020474,118.0213594207232,-61.14,-14.49,22.7,0.0,0.0,0.0,0.0,0.0,0.0,0.0,0.0,10.99,0.59,
1.982,133.44320844020473,115.8691359420723,-76.34,-9.6,22.45,0.0,0.0,0.0,0.0,0.0,0.0,0.0,0.0,11.09,0.69,
2.007,132.77432084402045,114.36691359420723,-89.99,4.82,35.62,0.0,0.0,0.0,0.0,0.0,0.0,0.0,0.0,11.38,0.78,
2.03,132.31143208440204,113.14569135942072,-96.31,18.09,40.63,0.0,0.0,0.0,0.0,0.0,0.0,0.0,0.0,12.65,0.78,
2.055,132.3011432084402,112.41156913594206,-94.47,26.62,37.96,0.0,0.0,0.0,0.0,0.0,0.0,0.0,0.0,13.83,0.78,
2.078,132.53411432084403,112.35615691359419,-84.31,19.4,36.58,0.0,0.0,0.0,0.0,0.0,0.0,0.0,0.0,12.16,0.88,
2.103,132.5124114320844,112.45861569135941,-72.55,4.3,37.62,0.0,0.0,0.0,0.0,0.0,0.0,0.0,0.0,12.26,0.88,
2.126,132.51924114320846,111.82086156913594,-60.58,-5.24,38.87,0.0,0.0,0.0,0.0,0.0,0.0,0.0,0.0,9.91,0.69,
2.151,131.84492411432086,110.3170861569136,-52.43,-19.36,35.24,0.0,0.0,0.0,0.0,0.0,0.0,0.0,0.0,7.46,0.78,
2.176,131.34549241143208,108.10570861569136,-47.34,-26.37,27.89,0.0,0.0,0.0,0.0,0.0,0.0,0.0,0.0,2.06,0.88,
2.199,130.9895492411432,106.71457086156914,-46.12,-46.33,14.12,0.0,0.0,0.0,0.0,0.0,0.0,0.0,0.0,1.37,0.59,
2.224,130.5309549241143,105.43245708615692,-47.86,-33.08,28.85,0.0,0.0,0.0,0.0,0.0,0.0,0.0,0.0,1.47,0.78,
2.248,130.03509549241141,105.06124570861569,-51.16,-22.98,41.97,0.0,0.0,0.0,0.0,0.0,0.0,0.0,0.0,1.57,0.98,
2.272,129.19350954924113,104.76312457086158,-43.44,-13.21,49.4,0.0,0.0,0.0,0.0,0.0,0.0,0.0,0.0,3.34,1.37,
2.296,127.74135095492412,103.78831245708616,-40.62,-5.37,49.01,0.0,0.0,0.0,0.0,0.0,0.0,0.0,0.0,11.67,0.0,
2.32,126.48913509549241,102.95283124570861,-44.72,-12.4,40.7,0.0,0.0,0.0,0.0,0.0,0.0,0.0,0.0,11.28,1.67,
2.344,125.39191350954923,102.61728312457086,-46.61,-20.66,26.24,0.0,0.0,0.0,0.0,0.0,0.0,0.0,0.0,9.03,0.39,
2.369,124.67019135095492,102.8447283124571,-42.43,-13.4,20.12,0.0,0.0,0.0,0.0,0.0,0.0,0.0,0.0,26.59,3.43,
2.393,123.99501913509549,103.2274728312457,-21.18,-26.52,18.25,0.0,0.0,0.0,0.0,0.0,0.0,0.0,0.0,15.89,2.84,
2.417,123.03650191350957,104.09374728312457,-11.59,-24.34,19.82,0.0,0.0,0.0,0.0,0.0,0.0,0.0,0.0,10.4,1.86,
2.442,121.99565019135095,104.86437472831246,5.15,-19.73,15.24,0.0,0.0,0.0,0.0,0.0,0.0,0.0,0.0,8.63,2.26,
2.465,120.55056501913509,106.98443747283125,19.14,-41.76,-17.26,0.0,0.0,0.0,0.0,0.0,0.0,0.0,0.0,7.95,8.93,
2.49,120.13605650191352,107.82644374728312,14.91,-27.67,-14.81,0.0,0.0,0.0,0.0,0.0,0.0,0.0,0.0,7.36,35.9,
2.514,119.69860565019135,107.99164437472831,4.93,-14.27,7.19,0.0,0.0,0.0,0.0,0.0,0.0,0.0,0.0,8.83,6.08,
2.538,118.97986056501914,106.41516443747282,10.6,3.64,19.32,0.0,0.0,0.0,0.0,0.0,0.0,0.0,0.0,4.81,0.0,
2.562,117.90898605650192,103.03551644374728,14.7,-14.75,12.02,0.0,0.0,0.0,0.0,0.0,0.0,0.0,0.0,5.59,0.0,
2.586,116.86589860565019,100.57355164437472,-1.24,-31.7,-24.88,0.0,0.0,0.0,0.0,0.0,0.0,0.0,0.0,3.53,21.48,
2.611,116.27558986056502,98.86935516443748,-12.95,-38.5,-35.2,0.0,0.0,0.0,0.0,0.0,0.0,0.0,0.0,2.65,7.55,
2.634,117.17055898605649,98.48293551644375,-15.79,-22.78,-37.35,0.0,0.0,0.0,0.0,0.0,0.0,0.0,0.1,3.43,2.75,
2.659,121.65205589860565,100.98229355164437,-6.35,44.98,-5.73,1.0,0.0,0.0,0.0,0.0,0.0,0.0,0.0,3.83,0.69,
2.683,123.96320558986056,100.85422935516443,12.33,-18.44,-3.94,2.0,0.0,0.0,0.0,0.0,0.0,0.0,0.0,5.59,0.0,
2.707,122.39432055898605,99.62642293551644,-1.82,-18.85,-24.89,2.0,0.0,0.0,0.0,0.0,0.0,0.0,0.0,6.67,0.0,
2.732,120.02343205589861,98.74764229355165,-0.56,-2.73,-4.34,2.0,0.0,0.0,0.0,0.0,0.0,0.0,0.0,7.46,2.26,
2.756,118.73334320558986,98.14676422935517,-1.14,16.58,14.09,2.0,0.0,0.0,0.0,0.0,0.0,0.0,0.0,6.08,0.88,
2.78,119.36933432055898,97.77167642293553,-5.49,12.31,16.64,2.0,0.0,0.0,0.0,0.0,0.0,0.0,0.0,5.89,0.0,
2.804,120.5129334320559,97.09516764229355,-7.56,1.49,3.77,2.0,0.0,0.0,0.0,0.0,0.0,0.0,0.0,5.79,0.0,
2.828,120.81629334320559,96.65851676422935,-4.34,-6.02,-4.78,2.0,0.0,0.0,0.0,0.0,0.0,0.0,0.0,6.67,0.0,
2.852,120.99962933432055,97.03785167642293,-2.25,1.58,9.25,3.0,0.0,0.0,0.0,1.0,0.0,0.0,0.0,7.65,0.0,
2.876,121.04496293343205,96.3017851676423,4.54,4.09,14.44,3.0,0.0,0.0,0.0,0.0,0.0,0.0,0.0,7.55,0.0,
2.9,121.03149629334321,94.99517851676423,4.5,0.79,4.23,3.0,0.0,0.0,0.0,0.0,0.0,0.0,0.0,11.09,0.0,
2.924,121.04814962933432,94.84651785167641,-0.98,-4.68,-6.44,4.0,0.0,0.0,1.0,0.0,0.0,0.0,0.0,10.4,0.0,
2.949,120.28481496293344,94.95765178516764,-6.89,-2.34,0.44,5.0,0.0,0.0,1.0,0.0,1.0,0.0,0.0,11.09,0.0,
2.973,119.53348149629335,94.97776517851676,-10.52,1.56,8.05,5.0,1.0,0.0,1.0,1.0,1.0,0.0,0.0,12.56,0.0,
2.997,119.93534814962933,94.84477651785167,-6.18,9.85,16.61,5.0,1.0,0.0,1.0,1.0,1.0,0.0,0.0,13.73,0.0,
3.021,120.42553481496293,94.55247765178517,-7.95,2.23,10.06,5.0,0.0,0.0,1.0,1.0,1.0,0.0,0.0,14.32,0.0,
3.045,120.96955348149629,94.50524776517851,-6.45,-6.62,3.98,5.0,0.0,0.0,1.0,1.0,1.0,0.0,0.0,15.3,0.0,
3.069,120.81695534814962,93.68152477651786,-5.78,-10.37,1.11,5.0,0.0,0.0,1.0,1.0,1.0,0.0,0.0,16.48,0.0,
3.094,120.19869553481496,93.6801524776518,-6.47,-7.18,4.27,4.0,0.0,0.0,1.0,1.0,1.0,0.0,0.0,14.91,0.0,
3.118,120.1548695534815,93.74301524776519,-7.6,-3.6,2.28,3.0,0.0,0.0,0.0,1.0,1.0,0.0,0.0,14.13,0.2,
3.142,120.42048695534815,94.25330152477652,-4.9,-10.11,0.1,3.0,0.0,0.0,0.0,1.0,1.0,0.0,0.0,9.61,5.79,
3.167,120.58204869553481,94.48433015247767,-0.82,-2.92,-2.73,2.0,0.0,0.0,0.0,1.0,1.0,0.0,0.0,9.71,11.28,
3.19,120.85920486955348,94.66943301524776,2.27,-0.32,3.29,3.0,0.0,0.0,0.0,1.0,1.0,0.0,0.0,9.91,8.83,
3.215,120.68892048695535,94.03094330152477,6.47,7.56,10.64,3.0,0.0,0.0,0.0,1.0,1.0,0.0,0.0,10.69,3.63,
3.238,120.44689204869553,93.01309433015248,4.72,3.17,4.25,3.0,0.0,0.0,0.0,1.0,1.0,0.0,0.0,10.4,1.08,
3.263,120.20668920486956,91.74130943301525,-0.34,6.38,0.31,3.0,0.0,0.0,0.0,1.0,1.0,0.0,0.0,11.48,2.16,
3.287,120.22766892048696,91.83013094330153,0.98,-8.93,-8.72,3.0,0.0,0.0,0.0,1.0,1.0,0.0,0.0,10.3,0.0,
3.311,119.8787668920487,91.67701309433015,-2.61,-0.02,-1.5,3.0,0.0,0.0,0.0,1.0,1.0,0.0,0.0,11.48,0.0,
3.336,120.04187668920487,91.94970130943302,-2.47,1.1,2.47,3.0,0.0,0.0,0.0,1.0,1.0,0.0,0.0,10.1,0.0,
3.359,120.13018766892048,92.0489701309433,-1.58,-0.86,0.11,3.0,0.0,0.0,0.0,1.0,1.0,0.0,0.0,7.85,0.0,
3.384,119.93201876689204,92.12189701309433,0.55,0.93,-1.55,3.0,0.0,0.0,0.0,1.0,1.0,0.0,0.0,7.55,0.0,
3.407,120.0472018766892,92.48018970130943,1.36,1.09,-0.29,3.0,0.0,0.0,0.0,1.0,1.0,0.0,0.0,10.1,0.0,
3.432,119.91472018766893,92.51601897013094,0.1,-0.72,2.24,3.0,0.0,0.0,0.0,1.0,0.0,0.0,0.0,9.52,0.0,
3.456,120.15347201876689,92.81660189701309,-1.33,-2.39,0.99,3.0,0.0,0.0,0.0,1.0,0.0,0.0,0.0,9.61,0.2,
3.48,120.23134720187667,92.9816601897013,-2.02,-4.18,0.39,4.0,0.0,0.0,0.0,1.0,0.0,0.0,94.86,10.99,0.0,
3.504,120.19413472018768,92.99816601897012,-2.92,-4.55,0.88,4.0,0.0,0.0,0.0,1.0,0.0,0.0,0.0,11.58,0.0,
3.528,120.10941347201877,92.95481660189701,-1.6,-2.79,1.04,4.0,0.0,0.0,1.0,1.0,0.0,0.0,0.0,11.18,0.88,
3.552,120.08294134720188,92.9504816601897,-0.47,-0.81,0.08,4.0,0.0,0.0,1.0,1.0,0.0,0.0,0.0,10.2,0.0,
3.576,120.25129413472018,93.27404816601897,-0.72,-1.5,0.39,4.0,0.0,0.0,1.0,1.0,0.0,0.0,0.0,10.4,0.0,
3.601,119.98012941347201,93.2254048166019,-0.2,-0.87,2.2,4.0,0.0,0.0,1.0,1.0,0.0,0.0,0.0,10.99,0.0,
3.624,120.0160129413472,93.23854048166018,0.34,0.4,2.69,4.0,0.0,0.0,1.0,1.0,0.0,0.0,0.0,14.42,0.1,
3.649,119.92960129413471,93.23085404816602,-0.85,1.19,0.7,4.0,0.0,0.0,1.0,1.0,0.0,0.0,0.0,14.72,0.59,
3.673,120.02896012941346,93.3830854048166,-1.04,2.65,0.18,5.0,0.0,0.0,1.0,1.0,0.0,0.0,0.0,15.3,0.29,
3.697,120.23689601294136,93.53330854048166,-1.4,2.95,0.62,5.0,0.0,0.0,1.0,1.0,0.0,0.0,0.0,15.89,0.0,
3.721,120.36568960129414,93.53933085404817,-1.14,0.57,2.2,5.0,0.0,0.0,1.0,1.0,0.0,0.0,0.0,15.7,0.0,
3.745,120.44156896012942,93.57593308540481,-1.5,0.38,0.73,5.0,0.0,0.0,1.0,1.0,0.0,0.0,0.0,15.4,0.0,
3.769,120.57515689601294,93.71459330854049,-2.49,-2.47,0.06,5.0,0.0,0.0,1.0,1.0,0.0,0.0,0.0,15.3,0.0,
3.793,120.5885156896013,93.83645933085405,-3.15,-2.56,-0.14,5.0,0.0,0.0,1.0,1.0,0.0,0.0,0.0,15.21,0.0,
3.818,120.48185156896012,93.8216459330854,-2.85,-3.5,0.36,5.0,0.0,0.0,1.0,1.0,0.0,0.0,0.0,14.62,0.0,
3.842,120.54318515689602,93.91016459330854,-2.44,-1.02,0.08,5.0,0.0,0.0,1.0,1.0,0.0,0.0,0.0,14.32,0.0,
3.866,120.63931851568961,93.92801645933086,-2.33,-1.52,-0.31,5.0,0.0,0.0,1.0,1.0,0.0,0.0,0.0,14.22,0.0,
3.891,120.62193185156896,93.91180164593308,-2.64,0.19,0.82,5.0,1.0,0.0,1.0,1.0,0.0,0.0,0.0,14.13,0.0,
3.914,120.5571931851569,93.88318016459331,-2.83,-0.32,1.3,5.0,1.0,0.0,1.0,1.0,0.0,0.0,0.0,14.13,0.0,
3.939,120.62271931851568,93.83531801645933,-2.89,-1.19,0.92,5.0,0.0,0.0,1.0,1.0,0.0,0.0,0.0,14.13,0.0,
3.962,120.58427193185157,93.82153180164593,-2.92,-1.26,0.63,5.0,1.0,0.0,1.0,1.0,0.0,0.0,0.0,14.13,0.0,
3.987,120.58942719318516,93.8831531801646,-3.2,-1.94,0.46,5.0,1.0,0.0,1.0,1.0,0.0,0.0,0.0,14.13,0.2,
4.012,120.6529427193185,93.88031531801646,-3.18,-1.55,0.2,5.0,0.0,0.0,1.0,1.0,0.0,0.0,0.0,14.22,0.0,
4.035,120.65029427193186,93.83503153180165,-3.09,-1.92,-0.22,5.0,0.0,0.0,1.0,1.0,0.0,0.0,0.0,14.32,0.0,
4.06,120.65002942719319,93.87550315318016,-2.94,-2.25,-0.13,5.0,1.0,0.0,1.0,1.0,0.0,0.0,0.0,14.32,0.0,
4.084,120.55100294271932,93.85255031531801,-2.68,0.66,0.66,5.0,1.0,0.0,1.0,1.0,0.0,0.0,0.0,14.42,0.39,
4.108,120.62210029427192,93.8592550315318,-2.91,-0.53,0.42,5.0,1.0,0.0,1.0,1.0,0.0,0.0,0.0,13.73,0.39,
4.132,120.73721002942719,93.89592550315318,-3.31,-1.78,-0.32,5.0,1.0,0.0,1.0,1.0,0.0,0.0,0.0,15.5,0.2,
4.156,120.68572100294273,93.83659255031532,-2.91,-1.37,0.05,5.0,1.0,0.0,1.0,1.0,0.0,0.0,0.0,16.09,0.1,
4.18,120.66257210029427,93.81265925503153,-2.69,-1.69,0.23,5.0,0.0,0.0,1.0,1.0,0.0,0.0,0.0,16.28,0.29,
4.205,120.64225721002943,93.85526592550315,-2.61,0.18,0.45,5.0,0.0,0.0,1.0,1.0,0.0,0.0,0.0,17.46,0.0,
4.229,120.71222572100294,93.87752659255031,-3.14,-0.82,0.37,5.0,1.0,0.0,1.0,1.0,0.0,0.0,0.0,17.46,0.0,
4.253,120.75522257210031,93.90675265925503,-3.07,-2.57,-0.31,5.0,0.0,0.0,1.0,1.0,0.0,0.0,0.0,17.17,0.0,
4.277,120.74152225721002,93.9456752659255,-3.1,-2.7,-0.05,5.0,0.0,0.0,1.0,1.0,0.0,0.0,0.0,17.17,0.0,
4.301,120.677152225721,94.00356752659256,-3.05,-3.4,0.63,5.0,0.0,0.0,1.0,1.0,0.0,0.0,0.0,17.95,0.0,
4.326,120.5357152225721,93.96435675265924,-2.26,-1.07,0.27,5.0,0.0,0.0,1.0,1.0,0.0,0.0,0.0,17.27,0.1,
4.349,120.5485715222572,94.01443567526591,-2.17,-1.44,0.44,5.0,0.0,0.0,1.0,1.0,0.0,0.0,0.0,16.97,0.0,
4.374,120.35185715222572,93.91144356752659,-2.35,0.99,2.17,5.0,0.0,0.0,1.0,1.0,0.0,0.0,0.0,17.46,0.0,
4.399,120.45818571522257,93.90114435675267,-3.23,-1.43,0.66,5.0,0.0,0.0,1.0,1.0,0.0,0.0,0.0,16.19,0.0,
4.422,120.50481857152226,93.92711443567526,-3.67,-1.86,-0.21,5.0,0.0,0.0,1.0,1.0,0.0,0.0,0.0,15.89,0.0,
4.447,120.50948185715222,94.00171144356753,-3.85,-2.66,-0.26,5.0,0.0,0.0,1.0,1.0,0.0,0.0,0.0,15.5,0.0,
4.471,120.39294818571521,94.00017114435676,-3.5,-2.21,-0.08,5.0,0.0,0.0,1.0,1.0,0.0,0.0,0.0,15.21,0.0,
4.495,120.38129481857152,93.95501711443568,-3.37,-0.84,0.48,5.0,0.0,0.0,1.0,1.0,0.0,0.0,0.0,15.21,0.1,
4.519,120.38912948185715,93.95950171144355,-3.21,-0.88,0.33,5.0,0.0,0.0,1.0,1.0,0.0,0.0,0.0,15.21,0.2,
4.543,120.42591294818573,93.89695017114435,-3.22,-0.59,0.18,5.0,0.0,0.0,1.0,1.0,0.0,0.0,0.0,15.11,0.39,
4.568,120.44759129481857,93.90869501711444,-3.08,-1.5,0.09,5.0,0.0,0.0,1.0,1.0,0.0,0.0,0.0,15.11,0.49,
4.592,120.43175912948186,93.85586950171145,-2.98,-1.69,-0.04,5.0,0.0,0.0,1.0,1.0,0.0,0.0,0.0,15.11,0.49,
4.616,120.45717591294819,93.80558695017115,-3.18,-1.76,-0.05,5.0,0.0,0.0,1.0,1.0,0.0,0.0,0.0,15.11,0.29,
4.64,120.35171759129483,93.73755869501711,-2.95,-0.6,0.15,5.0,0.0,0.0,1.0,1.0,0.0,0.0,0.0,15.11,0.2,
4.665,120.4221717591295,93.76675586950171,-2.91,-0.65,0.45,5.0,0.0,0.0,1.0,1.0,0.0,0.0,0.0,15.21,0.0,
4.688,120.48321717591296,93.81467558695017,-3.19,-0.03,0.19,5.0,0.0,0.0,1.0,1.0,0.0,0.0,0.0,15.21,0.0,
4.713,120.5343217175913,93.82846755869502,-3.24,-1.61,-0.04,5.0,0.0,0.0,1.0,1.0,0.0,0.0,0.0,15.21,0.0,
4.738,120.57543217175913,93.8568467558695,-3.15,-1.17,-0.01,5.0,0.0,0.0,1.0,1.0,0.0,0.0,0.0,15.21,0.1,
4.761,120.49854321717591,93.82368467558695,-2.85,-1.62,0.11,5.0,0.0,0.0,1.0,1.0,0.0,0.0,0.0,15.4,0.29,
4.786,120.5268543217176,93.8743684675587,-2.95,-0.63,0.32,5.0,0.0,0.0,1.0,1.0,0.0,0.0,0.0,15.79,0.1,
4.81,120.56568543217175,93.90643684675587,-2.92,-1.43,-0.11,5.0,0.0,0.0,1.0,1.0,0.0,0.0,0.0,16.68,0.2,
4.834,120.59656854321716,93.95464368467557,-2.85,0.27,0.06,5.0,0.0,0.0,1.0,1.0,0.0,0.0,0.0,14.72,0.2,
4.858,120.63565685432172,93.99546436846757,-2.92,-1.05,0.43,5.0,0.0,0.0,1.0,1.0,0.0,0.0,0.0,14.72,0.29,
4.882,120.60356568543216,93.96354643684674,-3.11,-1.36,-0.11,5.0,0.0,0.0,1.0,1.0,0.0,0.0,0.0,14.72,0.39,
4.907,120.6273565685432,93.91535464368468,-3.07,-1.61,-0.05,5.0,0.0,0.0,1.0,1.0,0.0,0.0,0.0,14.91,0.39,
4.931,120.52173565685432,93.83853546436848,-3.18,-1.07,-0.13,5.0,0.0,0.0,1.0,1.0,0.0,0.0,0.0,16.48,0.29,
4.955,120.60117356568543,93.87585354643684,-3.31,-1.45,0.11,5.0,0.0,0.0,1.0,1.0,0.0,0.0,0.0,15.11,0.39,
4.979,120.69911735656854,93.90658535464368,-3.32,-1.63,-0.34,5.0,0.0,0.0,1.0,1.0,0.0,0.0,0.0,15.3,0.49,
5.004,120.55591173565685,93.81965853546437,-3.18,-1.22,0.18,5.0,0.0,0.0,1.0,1.0,0.0,0.0,0.0,15.6,0.49,
5.027,120.56859117356568,93.81096585354643,-3.12,-1.88,-0.04,5.0,0.0,0.0,1.0,1.0,0.0,0.0,0.0,15.6,0.69,
5.052,120.47985911735657,93.75609658535464,-2.83,-2.09,-0.08,5.0,0.0,0.0,1.0,1.0,0.0,0.0,0.0,15.3,0.69,
5.076,120.52498591173566,93.82260965853547,-2.85,-0.98,0.05,5.0,0.0,0.0,1.0,1.0,0.0,0.0,0.0,15.21,0.2,
5.1,120.52949859117356,93.85626096585355,-2.98,-1.89,-0.24,5.0,0.0,0.0,1.0,1.0,0.0,0.0,0.0,15.11,0.2,
5.125,120.38594985911736,93.82362609658536,-2.79,-1.44,-0.44,5.0,0.0,0.0,1.0,1.0,0.0,0.0,0.0,15.11,0.0,
5.149,120.47959498591173,93.84736260965853,-2.53,-1.92,0.51,5.0,0.0,0.0,1.0,1.0,0.0,0.0,0.0,15.4,0.0,
5.173,120.53395949859117,93.91273626096586,-2.79,-1.6,0.15,5.0,0.0,0.0,1.0,1.0,0.0,0.0,0.0,15.3,0.0,
5.197,120.42239594985911,93.9102736260966,-2.31,0.82,0.4,5.0,0.0,0.0,1.0,1.0,0.0,0.0,0.0,15.6,0.2,
5.222,120.40223959498593,93.95502736260966,-3.24,-0.74,0.48,5.0,0.0,0.0,1.0,1.0,0.0,0.0,0.0,15.89,0.29,
5.245,120.4272239594986,93.92350273626097,-3.45,-0.89,-0.15,5.0,0.0,0.0,1.0,1.0,0.0,0.0,0.0,15.99,0.2,
5.27,120.44772239594985,93.95635027362609,-3.34,-1.21,0.02,5.0,0.0,0.0,1.0,1.0,0.0,0.0,0.0,16.19,0.2,
5.294,120.49477223959498,94.0136350273626,-3.2,-1.68,-0.02,5.0,1.0,0.0,1.0,1.0,0.0,0.0,0.0,16.58,0.29,
5.318,120.4634772239595,93.95636350273627,-3.15,-1.38,-0.08,5.0,1.0,0.0,1.0,1.0,0.0,0.0,0.0,15.99,0.39,
5.343,120.47834772239595,93.94163635027363,-3.01,-1.12,-0.11,5.0,1.0,0.0,1.0,1.0,0.0,0.0,0.0,15.99,0.49,
5.367,120.5338347722396,93.93116363502736,-3.16,-1.36,0.19,5.0,1.0,0.0,1.0,1.0,0.0,0.0,0.0,16.28,0.59,
5.391,120.51238347722396,93.91211636350275,-3.0,-1.34,-0.27,5.0,1.0,0.0,1.0,1.0,0.0,0.0,0.0,16.48,0.69,
5.415,120.56423834772238,93.89221163635028,-3.24,-1.42,-0.1,5.0,1.0,0.0,1.0,1.0,0.0,0.0,0.0,17.85,0.39,
5.44,120.60542383477224,93.89922116363503,-3.1,-1.1,0.13,5.0,1.0,0.0,1.0,1.0,0.0,0.0,0.0,17.27,0.49,
5.464,120.66354238347724,93.8909221163635,-3.11,-1.53,-0.15,5.0,1.0,0.0,1.0,1.0,0.0,0.0,0.0,17.27,0.49,
5.488,120.69635423834774,93.89009221163636,-3.02,-1.07,0.03,5.0,1.0,0.0,1.0,1.0,0.0,0.0,0.0,17.95,0.49,
5.513,120.68163542383478,93.88100922116364,-2.82,-1.15,0.06,5.0,1.0,0.0,1.0,1.0,0.0,0.0,0.0,18.05,0.2,
5.536,120.72516354238348,93.84410092211637,-3.38,-1.73,-0.1,5.0,1.0,0.0,1.0,1.0,0.0,0.0,0.0,16.48,0.1,
5.561,120.63951635423834,93.87641009221164,-3.13,-1.95,-0.04,5.0,1.0,0.0,1.0,1.0,0.0,0.0,0.0,16.19,0.2,
5.585,120.63095163542383,93.88864100922117,-3.15,-0.98,0.4,5.0,1.0,0.0,1.0,1.0,0.0,0.0,0.0,15.89,0.2,
5.609,120.65709516354238,93.81786410092212,-3.11,-1.88,-0.09,5.0,1.0,0.0,1.0,1.0,0.0,0.0,0.0,15.99,0.0,
5.634,120.63270951635423,93.86478641009222,-2.89,-0.35,0.02,5.0,1.0,0.0,1.0,1.0,0.0,0.0,0.0,15.99,0.1,
5.658,120.61227095163542,93.85147864100922,-3.2,-1.46,0.06,5.0,1.0,0.0,1.0,1.0,0.0,0.0,0.0,16.09,0.29,
5.682,120.61922709516355,93.91314786410092,-3.0,-1.1,-0.05,5.0,1.0,0.0,1.0,1.0,0.0,0.0,0.0,16.09,0.49,
5.706,120.68292270951635,93.9013147864101,-2.94,-1.63,-0.09,5.0,1.0,0.0,1.0,1.0,0.0,0.0,0.0,16.28,0.39,
5.731,120.52729227095163,93.84613147864101,-3.09,-0.95,-0.18,5.0,1.0,0.0,1.0,1.0,0.0,0.0,0.0,16.48,0.29,
5.754,120.55672922709516,93.8856131478641,-3.08,-1.29,-0.15,5.0,1.0,0.0,1.0,1.0,0.0,0.0,0.0,16.48,0.39,
5.779,120.59567292270951,93.88956131478642,-3.12,-0.95,0.11,5.0,1.0,0.0,1.0,1.0,0.0,0.0,0.0,16.97,0.39,
5.804,120.61756729227096,93.87195613147864,-3.05,-1.25,-0.03,5.0,1.0,0.0,1.0,1.0,0.0,0.0,0.0,17.76,0.49,
5.827,120.6377567292271,93.91519561314787,-3.13,-1.36,0.01,5.0,1.0,0.0,1.0,1.0,0.0,0.0,0.0,17.17,0.59,
5.852,120.6037756729227,93.90151956131479,-3.05,-1.37,-0.02,5.0,1.0,0.0,1.0,1.0,0.0,0.0,0.0,17.27,0.59,
5.876,120.60037756729226,93.84615195613148,-2.98,-0.98,0.03,5.0,1.0,0.0,1.0,1.0,0.0,0.0,0.0,18.64,0.49,
5.9,120.5730377567292,93.82261519561315,-3.02,-0.86,-0.02,5.0,1.0,0.0,1.0,1.0,0.0,0.0,0.0,18.64,0.49,
5.924,120.67830377567292,93.83826151956131,-2.97,-1.15,-0.1,5.0,1.0,0.0,1.0,1.0,0.0,0.0,0.0,18.44,0.2,
5.949,120.63483037756728,93.80382615195613,-2.88,-1.59,-0.12,5.0,1.0,0.0,1.0,1.0,0.0,0.0,0.0,17.76,0.0,
5.972,120.61248303775673,93.83638261519562,-3.0,-1.96,-0.26,5.0,1.0,0.0,1.0,1.0,0.0,0.0,0.0,17.95,0.0,
5.997,120.63724830377568,93.88463826151957,-3.11,-1.18,-0.01,5.0,1.0,0.0,1.0,1.0,0.0,0.0,0.0,17.66,0.2,
6.022,120.56772483037757,93.89846382615195,-3.2,-1.98,0.03,5.0,1.0,0.0,1.0,1.0,0.0,0.0,0.0,17.27,0.29,
6.045,120.57877248303777,93.95384638261518,-2.95,-0.9,0.15,5.0,1.0,0.0,1.0,1.0,0.0,0.0,0.0,17.07,0.2,
6.07,120.60687724830377,93.96838463826153,-3.16,-2.14,0.11,5.0,1.0,0.0,1.0,1.0,0.0,0.0,0.0,16.87,0.29,
6.094,120.52868772483038,93.88883846382615,-2.97,-1.56,-0.33,5.0,1.0,0.0,1.0,1.0,0.0,0.0,0.0,16.87,0.29,
6.118,120.54786877248304,93.88088384638262,-3.17,-1.69,-0.24,5.0,1.0,0.0,1.0,1.0,0.0,0.0,0.0,16.97,0.39,
6.142,120.52278687724831,93.88008838463827,-2.98,-1.36,0.18,6.0,1.0,0.0,1.0,1.0,0.0,0.0,0.0,17.07,0.59,
6.167,120.49327868772482,93.90700883846384,-2.85,-0.24,-0.02,5.0,1.0,0.0,1.0,1.0,0.0,0.0,0.0,17.27,0.49,
6.191,120.52632786877248,93.91870088384638,-3.16,-1.26,-0.22,5.0,1.0,0.0,1.0,1.0,0.0,0.0,0.0,17.07,0.59,
6.215,120.51163278687724,93.86587008838464,-3.18,-0.99,-0.23,6.0,1.0,0.0,1.0,1.0,0.0,0.0,0.0,17.07,0.49,
6.24,120.56416327868772,93.89658700883847,-3.01,-1.27,0.15,5.0,1.0,0.0,1.0,1.0,0.0,0.0,0.0,16.78,0.49,
6.263,120.56041632786878,93.85465870088385,-3.22,-1.84,-0.25,6.0,1.0,0.0,1.0,1.0,0.0,0.0,0.0,16.87,0.49,
6.288,120.56004163278688,93.83246587008838,-3.13,-1.73,-0.06,5.0,1.0,0.0,1.0,1.0,0.0,0.0,0.0,17.17,0.69,
6.312,120.4430041632787,93.78524658700884,-3.05,-1.47,0.05,6.0,1.0,0.0,1.0,1.0,0.0,0.0,0.0,17.36,0.69,
6.336,120.49430041632787,93.87952465870089,-3.23,-1.69,-0.11,6.0,1.0,0.0,1.0,1.0,0.0,0.0,0.0,17.36,0.59,
6.361,120.49943004163279,93.85295246587009,-2.86,-1.23,-0.09,5.0,1.0,0.0,1.0,1.0,0.0,0.0,0.0,17.27,0.39,
6.385,120.47294300416328,93.85029524658701,-2.95,-0.89,-0.06,5.0,1.0,0.0,1.0,1.0,0.0,0.0,0.0,17.17,0.2,
6.409,120.48829430041633,93.8230295246587,-3.11,-1.71,0.03,5.0,1.0,0.0,1.0,1.0,0.0,0.0,0.0,17.27,0.1,
6.433,120.48982943004164,93.78430295246586,-2.99,-0.67,-0.08,5.0,1.0,0.0,1.0,1.0,0.0,0.0,0.0,17.17,0.1,
6.458,120.50798294300417,93.79843029524659,-2.98,-1.11,0.06,5.0,1.0,0.0,1.0,1.0,0.0,0.0,0.0,17.07,0.1,
6.481,120.53679829430041,93.83584302952465,-3.09,-2.0,-0.4,5.0,1.0,0.0,1.0,1.0,0.0,0.0,0.0,17.07,0.29,
6.506,120.51267982943004,93.83058430295247,-3.08,-1.02,-0.29,5.0,1.0,0.0,1.0,1.0,0.0,0.0,0.0,17.07,0.39,
6.531,120.528267982943,93.86605843029525,-3.25,-1.47,0.19,6.0,1.0,0.0,1.0,1.0,0.0,0.0,0.0,17.17,0.2,
6.554,120.5298267982943,93.84260584302953,-2.91,-1.27,-0.1,5.0,1.0,0.0,1.0,1.0,0.0,0.0,0.0,17.07,0.2,
6.579,120.51198267982943,93.82226058430295,-3.22,-1.91,-0.22,5.0,1.0,0.0,1.0,1.0,0.0,0.0,0.0,17.17,0.49,
6.603,120.50119826798294,93.78422605843029,-3.06,-1.11,-0.05,5.0,1.0,0.0,1.0,1.0,0.0,0.0,0.0,17.66,0.69,
6.627,120.4641198267983,93.74442260584303,-2.89,-1.27,-0.04,5.0,1.0,0.0,1.0,1.0,0.0,0.0,0.0,17.56,0.69,
6.651,120.42441198267983,93.8214422605843,-3.11,-1.59,-0.3,5.0,1.0,0.0,1.0,1.0,0.0,0.0,0.0,17.46,0.78,
6.676,120.43844119826798,93.81114422605843,-3.11,-0.83,-0.23,5.0,1.0,0.0,1.0,1.0,0.0,0.0,0.0,17.56,0.59,
6.7,120.5028441198268,93.80111442260585,-2.88,-1.56,-0.21,5.0,1.0,0.0,1.0,1.0,0.0,0.0,0.0,17.76,0.59,
6.724,120.49128441198268,93.88111144226059,-2.92,-1.85,-0.47,5.0,1.0,0.0,1.0,1.0,0.0,0.0,0.0,17.76,0.69,
6.749,120.36412844119826,93.79011114422606,-2.62,-0.89,0.84,5.0,1.0,0.0,1.0,1.0,0.0,0.0,0.0,18.15,0.69,
6.772,120.36041284411982,93.8350111144226,-2.27,0.59,2.11,5.0,0.0,0.0,1.0,1.0,0.0,0.0,0.0,18.44,0.29,
6.797,120.45904128441198,93.84850111144226,-1.69,0.79,1.89,5.0,0.0,0.0,1.0,1.0,0.0,0.0,0.0,17.76,0.0,
6.821,120.7299041284412,93.71485011114422,-2.73,-1.17,0.2,5.0,0.0,0.0,1.0,1.0,0.0,0.0,0.0,17.17,0.39,
6.845,120.66699041284411,93.69248501111441,-3.12,-1.38,-1.45,5.0,0.0,0.0,1.0,1.0,0.0,0.0,0.0,16.28,0.49,
6.87,120.47169904128441,93.71724850111144,-3.06,-0.14,-0.77,5.0,0.0,0.0,1.0,1.0,0.0,0.0,0.0,15.89,0.29,
6.894,120.47016990412844,93.71972485011113,-2.76,1.6,1.12,5.0,0.0,0.0,1.0,1.0,0.0,0.0,0.0,16.19,0.29,
6.918,120.56901699041285,93.69297248501111,-2.7,2.01,0.19,5.0,0.0,0.0,1.0,1.0,0.0,0.0,0.0,16.58,0.39,
6.942,120.69590169904127,93.78029724850111,-2.9,1.87,-0.44,5.0,0.0,0.0,1.0,1.0,0.0,0.0,0.0,15.11,0.59,
6.966,120.76259016990412,93.86102972485011,-2.56,1.31,0.05,5.0,0.0,0.0,1.0,1.0,0.0,0.0,0.0,15.21,0.39,
6.99,120.8232590169904,93.83310297248501,-2.8,1.05,-0.02,5.0,0.0,0.0,1.0,1.0,0.0,0.0,0.0,15.6,0.69,
7.014,120.85632590169904,93.7673102972485,-2.66,0.95,-1.11,5.0,0.0,0.0,1.0,1.0,0.0,0.0,0.0,15.79,0.69,
7.038,120.8596325901699,93.81473102972485,-2.54,1.34,-1.21,5.0,0.0,0.0,1.0,1.0,0.0,0.0,0.0,15.89,0.59,
7.063,121.012963259017,93.88247310297248,-2.18,2.11,-1.17,5.0,0.0,0.0,1.0,1.0,0.0,0.0,0.0,16.28,0.59,
7.087,121.1542963259017,93.78124731029725,-2.17,2.15,-1.69,5.0,0.0,0.0,1.0,1.0,0.0,0.0,0.0,15.5,0.88,
7.111,121.19542963259016,93.77112473102972,-1.98,3.17,-3.7,5.0,0.0,0.0,0.0,1.0,0.0,0.0,0.0,16.28,0.69,
7.136,121.208542963259,93.90511247310297,-1.24,5.94,-3.24,5.0,0.0,0.0,0.0,0.0,0.0,0.0,0.0,17.27,0.49,
7.159,121.52485429632591,94.15251124731031,-0.34,5.82,-2.95,5.0,0.0,0.0,0.0,0.0,0.0,0.0,0.0,17.85,0.59,
7.184,121.59248542963259,94.29425112473103,1.36,7.5,-6.11,6.0,0.0,0.0,0.0,0.0,0.0,0.0,0.0,19.52,0.88,
7.207,121.69824854296326,94.2274251124731,8.09,13.84,-6.15,5.0,0.0,0.0,0.0,0.0,0.0,0.0,0.0,20.4,1.96,
7.232,122.43782485429632,94.58074251124731,14.76,8.89,-6.73,5.0,0.0,0.0,0.0,0.0,0.0,0.0,0.0,21.97,6.57,
7.257,122.52978248542964,94.97607425112473,9.9,3.87,-2.64,5.0,0.0,0.0,0.0,0.0,0.0,0.0,0.1,24.82,2.26,
7.28,122.38597824854297,95.14160742511248,11.05,7.15,-7.0,5.0,0.0,0.0,0.0,0.0,0.0,0.0,0.39,23.35,0.0,
7.305,122.4885978248543,95.78816074251125,7.56,9.11,-3.45,6.0,0.0,0.0,0.0,0.0,0.0,0.0,0.88,24.43,0.0,
7.328,122.21985978248543,96.02381607425112,2.08,10.4,-2.83,6.0,0.0,0.0,0.0,0.0,1.0,0.0,1.28,28.65,0.0,
7.353,123.11098597824854,96.74938160742511,-16.12,1.49,-1.44,7.0,0.0,0.0,0.0,0.0,1.0,0.0,1.57,29.92,0.0,
7.377,122.97509859782485,96.41693816074252,-18.18,-4.69,-0.22,8.0,0.0,0.0,1.0,0.0,1.0,0.0,1.57,34.43,0.1,
7.401,122.96150985978248,96.16769381607425,-18.53,-7.19,0.39,9.0,1.0,0.0,1.0,1.0,1.0,0.0,1.47,39.24,0.0,
7.426,122.95115098597824,96.04376938160743,-24.72,-11.31,3.05,9.0,1.0,0.0,1.0,1.0,1.0,0.0,1.28,41.69,0.0,
7.45,123.37311509859782,96.29237693816074,-30.37,-17.87,6.07,10.0,1.0,0.0,2.0,1.0,1.0,0.0,0.88,43.65,0.0,
7.475,122.69531150985978,94.61623769381609,-20.98,-22.97,4.99,11.0,2.0,0.0,2.0,1.0,1.0,0.0,0.29,45.13,0.0,
7.499,121.86253115098597,94.1786237693816,-2.54,-8.53,4.24,11.0,2.0,0.0,2.0,1.0,1.0,0.0,0.0,46.99,0.0,
7.523,121.7522531150986,94.24286237693816,1.0,-2.81,5.41,11.0,2.0,0.0,2.0,1.0,1.0,0.0,0.0,46.11,0.0,
7.547,121.95722531150987,94.3662862376938,-4.04,-7.84,4.41,11.0,2.0,0.0,2.0,1.0,1.0,0.0,0.0,44.64,0.0,
7.572,121.94172253115099,94.62162862376938,-10.5,-13.92,4.68,11.0,2.0,0.0,2.0,1.0,1.0,0.0,0.0,43.16,0.2,
7.597,121.9041722531151,94.57516286237694,-10.4,-15.75,7.4,12.0,2.0,0.0,2.0,1.0,2.0,0.0,0.0,41.4,0.0,
7.62,121.25241722531152,94.22851628623769,-4.73,-9.34,5.43,12.0,2.0,0.0,2.0,1.0,2.0,0.0,0.0,39.63,0.0,
7.645,121.28624172253114,94.03185162862377,-2.81,0.89,1.11,12.0,2.0,0.0,3.0,1.0,2.0,0.0,0.0,38.85,0.0,
7.669,121.4696241722531,94.03018516286238,-2.93,-0.91,1.86,12.0,2.0,0.0,3.0,1.0,2.0,0.0,0.0,38.95,0.78,
7.694,121.20896241722532,93.58901851628625,-2.11,-2.22,3.27,12.0,2.0,0.0,2.0,1.0,2.0,0.0,0.0,40.12,0.0,
7.717,121.87589624172254,93.90490185162864,-11.09,-3.15,4.27,12.0,2.0,0.0,3.0,1.0,2.0,0.0,0.0,41.4,0.0,
7.742,121.53758962417226,93.73849018516286,-3.74,-1.79,2.5,12.0,2.0,0.0,3.0,1.0,2.0,0.0,0.0,42.08,0.78,
7.767,121.54875896241722,93.63184901851629,-5.68,-3.14,3.28,0.0,2.0,0.0,3.0,1.0,1.0,0.0,0.0,41.59,1.18,
7.79,121.54087589624173,93.53118490185162,1.71,0.35,1.47,0.0,2.0,0.0,3.0,1.0,1.0,0.0,0.0,41.79,0.0,
7.815,121.43208758962417,93.46711849018516,0.89,2.3,0.84,0.0,2.0,0.0,3.0,1.0,1.0,0.0,0.0,41.99,0.49,
7.838,121.46620875896242,93.46071184901851,-0.47,0.79,2.32,12.0,2.0,0.0,3.0,1.0,1.0,0.0,0.0,42.67,1.08,
7.863,121.81162087589624,93.59507118490184,-9.43,-7.06,4.56,0.0,2.0,0.0,3.0,1.0,1.0,0.0,0.0,42.38,0.39,
7.886,121.71116208758963,93.35650711849019,-11.75,-10.44,5.77,12.0,2.0,0.0,3.0,1.0,1.0,0.0,0.0,42.48,0.78,
7.911,121.59311620875896,93.16165071184902,-1.97,-4.31,3.99,0.0,2.0,0.0,3.0,2.0,1.0,0.0,0.0,42.97,0.0,
7.936,121.3743116208759,93.1241650711849,-0.93,-4.89,5.02,12.0,2.0,0.0,3.0,2.0,1.0,0.0,0.0,43.26,0.1,
7.96,121.19943116208759,93.08441650711849,-5.29,-5.87,4.98,12.0,2.0,0.0,3.0,2.0,1.0,0.0,0.0,43.46,0.49,
7.985,121.08294311620875,92.81944165071185,-9.37,-10.87,6.27,12.0,2.0,0.0,3.0,2.0,1.0,0.0,0.0,44.93,1.37,
8.009,120.66629431162087,92.56794416507118,-8.99,-11.65,5.02,2.0,2.0,0.0,3.0,2.0,1.0,0.0,0.0,46.11,0.98,
8.034,120.68762943116208,92.29979441650711,-8.73,-12.59,3.25,2.0,2.0,0.0,4.0,2.0,1.0,0.0,0.0,48.66,0.0,
8.057,120.32076294311622,92.2999794416507,-10.76,-19.18,6.31,4.0,2.0,0.0,4.0,3.0,2.0,0.0,0.0,50.91,0.0,
8.082,120.03207629431162,91.97599794416506,-11.94,-19.37,5.21,6.0,2.0,0.0,5.0,3.0,2.0,0.0,0.0,52.78,0.0,
8.107,119.49020762943117,91.7275997944165,-11.95,-22.07,7.26,9.0,2.0,0.0,5.0,4.0,2.0,1.0,0.0,53.76,0.29,
8.131,119.06702076294312,91.44175997944166,-12.35,-16.02,1.44,11.0,2.0,0.0,5.0,4.0,2.0,1.0,0.0,50.82,0.0,
8.156,118.6467020762943,91.22417599794416,-9.85,-11.22,1.63,12.0,2.0,0.0,5.0,4.0,2.0,1.0,0.0,51.6,0.0,
8.18,118.41567020762943,90.81541759979442,-8.34,-8.74,0.66,14.0,3.0,0.0,6.0,5.0,2.0,1.0,0.0,52.48,0.0,
8.205,118.26656702076293,90.43254175997944,-7.99,-6.95,0.6,15.0,3.0,0.0,6.0,5.0,2.0,1.0,0.0,51.99,0.39,
8.229,117.9366567020763,90.28625417599794,-4.51,-2.15,0.56,16.0,3.0,0.0,6.0,5.0,2.0,1.0,0.0,52.19,0.0,
8.253,117.81366567020763,90.1456254175998,-3.31,-0.31,1.15,17.0,3.0,0.0,6.0,5.0,2.0,1.0,0.0,50.72,0.0,
8.278,117.91836656702077,89.86156254175998,-0.13,1.37,0.82,16.0,2.0,0.0,5.0,4.0,2.0,1.0,0.0,48.56,0.0,
8.302,117.97383665670208,89.923156254176,3.66,-1.82,0.4,14.0,2.0,0.0,4.0,4.0,2.0,0.0,0.0,44.83,0.29,
8.327,117.85338366567022,89.9923156254176,7.1,-0.46,2.58,10.0,2.0,0.0,4.0,3.0,2.0,0.0,0.0,41.01,1.77,
8.351,117.68833836656702,90.20623156254177,8.27,-0.69,2.24,6.0,2.0,0.0,3.0,2.0,1.0,0.0,0.0,38.95,2.94,
8.375,117.6448338366567,90.47962315625418,4.66,-0.66,2.36,3.0,2.0,0.0,3.0,2.0,1.0,0.0,0.0,35.61,1.77,
8.399,117.66748338366567,90.48896231562541,-1.57,-4.03,1.04,2.0,2.0,0.0,3.0,2.0,1.0,0.0,0.0,33.06,1.57,
8.423,117.58874833836657,90.44489623156254,-3.28,-8.63,0.36,2.0,2.0,0.0,3.0,2.0,1.0,0.0,0.0,31.69,2.65,
8.448,117.40987483383665,90.53048962315626,-4.52,-9.72,0.31,2.0,2.0,0.0,3.0,2.0,1.0,0.0,0.0,30.51,1.57,
8.472,117.14898748338366,90.53004896231563,-3.56,-6.22,0.32,2.0,2.0,0.0,3.0,2.0,1.0,0.0,0.0,29.33,0.39,
8.496,116.92489874833836,90.46700489623156,-3.34,-0.46,1.34,2.0,2.0,0.0,3.0,1.0,1.0,0.0,0.0,28.45,0.0,
8.52,116.95648987483384,90.41570048962315,-2.15,2.26,1.21,1.0,2.0,0.0,3.0,2.0,2.0,0.0,0.0,28.35,0.59,
8.545,117.00464898748339,90.36557004896231,-2.4,-0.18,0.66,1.0,1.0,0.0,3.0,1.0,2.0,0.0,0.0,28.55,0.49,
8.568,116.99146489874833,90.41455700489622,-3.25,-1.95,-0.28,1.0,2.0,0.0,3.0,1.0,2.0,0.0,0.0,30.31,0.49,
8.593,117.00814648987485,90.45545570048962,-4.52,-2.47,0.21,1.0,2.0,0.0,3.0,2.0,2.0,0.0,0.0,29.33,0.59,
8.617,116.84781464898748,90.37854557004897,-2.85,0.99,-0.89,1.0,2.0,0.0,3.0,2.0,2.0,0.0,0.0,27.17,0.78,
8.641,116.82278146489874,90.43385455700489,-1.82,2.44,0.08,2.0,2.0,0.0,3.0,2.0,2.0,0.0,0.0,26.88,0.59,
8.666,116.85627814648987,90.49338545570049,-2.52,5.76,-0.09,2.0,2.0,0.0,3.0,2.0,2.0,0.0,0.0,26.78,0.69,
8.69,116.97662781464898,90.52633854557006,-3.07,7.01,0.65,3.0,2.0,0.0,3.0,2.0,2.0,0.0,0.0,27.57,0.59,
8.714,117.2226627814649,90.511633854557,-3.11,4.54,-0.41,4.0,2.0,0.0,3.0,2.0,2.0,0.0,0.0,28.55,0.49,
8.738,117.3012662781465,90.5461633854557,-3.41,2.45,-1.18,4.0,2.0,0.0,3.0,2.0,2.0,0.0,0.0,29.14,0.29,
8.763,117.42612662781464,90.55861633854558,-3.71,0.89,-0.69,4.0,2.0,0.0,4.0,2.0,2.0,0.0,0.0,29.72,0.2,
8.787,117.40261266278148,90.56886163385454,-5.41,1.53,-0.53,5.0,2.0,0.0,4.0,2.0,2.0,0.0,0.0,30.31,0.29,
8.811,117.55326126627814,90.59688616338545,-5.79,0.65,-0.68,6.0,2.0,0.0,4.0,2.0,2.0,0.0,0.0,31.49,0.0,
8.836,117.51432612662781,90.55468861633855,-7.64,1.48,-2.21,8.0,2.0,0.0,4.0,2.0,2.0,0.0,0.0,33.06,0.0,
8.86,117.68143261266279,90.48746886163386,-7.44,0.38,-1.3,10.0,2.0,0.0,5.0,2.0,2.0,0.0,0.0,35.41,0.0,
8.885,117.78814326126627,90.45374688616339,-8.77,-1.59,-1.11,12.0,2.0,0.0,5.0,3.0,2.0,0.0,0.0,37.77,0.0,
8.908,117.96081432612662,90.38737468861633,-8.8,-1.85,-2.04,13.0,2.0,0.0,5.0,3.0,2.0,0.0,0.0,40.22,0.1,
8.933,117.79808143261266,90.28173746886162,-7.97,-0.98,-2.1,15.0,2.0,0.0,6.0,3.0,2.0,0.0,0.0,42.38,0.1,
8.957,117.80880814326127,90.05517374688617,-5.82,0.2,-1.75,17.0,2.0,0.0,6.0,4.0,2.0,1.0,0.0,43.65,0.0,
8.982,117.92688081432613,90.08651737468861,-4.66,1.08,0.8,19.0,3.0,0.0,7.0,4.0,2.0,1.0,0.0,46.3,0.0,
9.007,117.92968808143263,89.92765173746886,-5.34,1.63,-0.65,19.0,3.0,0.0,7.0,5.0,2.0,1.0,0.0,49.44,0.2,
9.031,117.91196880814326,89.85776517374688,-4.58,1.86,-0.23,20.0,3.0,0.0,7.0,5.0,2.0,1.0,0.0,51.31,0.2,
9.056,118.05419688081432,89.7607765173747,-4.76,-0.66,-0.77,20.0,3.0,0.0,7.0,5.0,2.0,1.0,0.0,53.96,0.1,
9.079,117.98741968808143,89.71507765173746,-4.31,0.79,-0.56,20.0,3.0,0.0,7.0,5.0,2.0,1.0,0.0,55.92,0.29,
9.104,117.94474196880815,89.68350776517374,-2.98,2.89,-0.54,22.0,3.0,0.0,7.0,5.0,2.0,1.0,0.0,57.68,0.29,
9.128,117.92247419688081,89.69835077651737,-3.02,2.86,-0.76,21.0,3.0,0.0,7.0,5.0,2.0,1.0,0.0,57.78,0.39,
9.153,118.03724741968809,89.72683507765174,-4.06,2.6,-0.39,21.0,3.0,0.0,7.0,5.0,2.0,1.0,0.0,57.78,0.0,
9.178,118.07572474196881,89.72968350776517,-3.53,1.36,-0.78,21.0,3.0,0.0,7.0,5.0,2.0,1.0,0.0,58.08,0.0,
9.202,118.14257247419688,89.72096835077652,-3.05,1.28,-0.89,21.0,3.0,0.0,7.0,5.0,2.0,1.0,0.0,58.17,0.0,
9.226,118.2752572474197,89.71109683507764,-2.69,1.09,0.15,21.0,3.0,0.0,7.0,5.0,2.0,1.0,0.0,58.37,0.0,
9.25,118.36052572474196,89.66510968350777,-2.41,1.24,-0.05,21.0,3.0,0.0,7.0,5.0,2.0,1.0,0.0,58.37,0.0,
9.275,118.44105257247419,89.71451096835078,-2.19,0.3,-0.27,21.0,3.0,0.0,7.0,5.0,2.0,1.0,0.0,58.37,0.0,
9.299,118.53010525724743,89.77345109683509,-2.71,-1.05,-0.12,18.0,3.0,0.0,7.0,4.0,2.0,1.0,0.0,58.27,0.0,
9.324,118.65601052572474,89.7973451096835,-2.98,-1.89,-0.01,20.0,3.0,0.0,7.0,4.0,2.0,1.0,0.0,57.88,0.0,
9.349,118.68660105257247,89.79973451096834,-3.37,-2.47,0.05,20.0,3.0,0.0,7.0,4.0,2.0,1.0,0.0,57.29,0.2,
9.372,118.65366010525726,89.79097345109685,-2.97,-2.47,0.31,20.0,3.0,0.0,7.0,4.0,2.0,1.0,0.0,56.31,1.08,
9.397,118.60536601052571,89.79909734510967,-2.29,-2.32,0.68,19.0,3.0,0.0,7.0,4.0,2.0,1.0,0.0,55.13,0.59,
9.421,118.61853660105258,89.81790973451096,-0.98,-0.4,0.62,18.0,3.0,0.0,7.0,4.0,2.0,0.0,0.0,53.66,0.29,
9.446,118.66485366010525,89.8557909734511,-0.22,-0.66,0.69,16.0,2.0,0.0,6.0,4.0,2.0,0.0,0.0,51.89,0.29,
9.47,118.67848536601053,89.86857909734512,-4.08,-2.97,0.92,16.0,2.0,0.0,6.0,3.0,2.0,0.0,0.0,50.03,0.59,
9.495,118.57184853660105,89.84285790973452,-4.1,-3.24,0.11,17.0,3.0,0.0,6.0,3.0,2.0,0.0,0.0,48.66,0.0,
9.519,118.5791848536601,89.90328579097344,-3.66,-3.77,0.84,16.0,3.0,0.0,6.0,3.0,2.0,0.0,0.0,47.77,0.0,
9.543,118.498918485366,89.85532857909733,-3.34,-3.56,0.66,17.0,3.0,0.0,6.0,3.0,2.0,0.0,0.0,47.19,0.1,
9.568,118.5088918485366,89.86853285790974,-3.09,-3.28,0.87,16.0,3.0,0.0,6.0,3.0,2.0,0.0,0.0,46.3,0.29,
9.592,118.48288918485366,89.84285328579098,-2.9,-4.6,0.75,16.0,2.0,0.0,6.0,3.0,2.0,0.0,0.0,45.32,0.1,
9.617,118.56128891848536,89.80428532857908,-2.31,-3.31,0.38,16.0,2.0,0.0,6.0,3.0,2.0,0.0,0.0,44.15,0.1,
9.641,118.56912889184852,89.74642853285789,-0.61,-1.55,0.1,15.0,2.0,0.0,6.0,3.0,2.0,0.0,0.0,43.26,0.2,
9.665,118.57891288918485,89.8036428532858,-2.27,-2.31,0.62,14.0,2.0,0.0,6.0,3.0,2.0,0.0,0.0,42.58,0.39,
9.69,118.52589128891847,89.71936428532857,-3.73,-3.2,0.4,14.0,2.0,0.0,6.0,3.0,2.0,0.0,0.0,42.18,0.49,
9.714,118.36758912889185,89.64793642853286,-4.05,-3.72,0.4,14.0,2.0,0.0,6.0,3.0,2.0,0.0,0.0,41.89,0.39,
9.739,118.32475891288918,89.72179364285329,-3.44,-3.53,0.98,14.0,2.0,0.0,6.0,3.0,2.0,0.0,0.0,41.5,0.29,
9.763,118.16747589128892,89.72017936428533,-2.99,-2.15,-0.31,14.0,2.0,0.0,6.0,3.0,2.0,0.0,0.0,41.1,0.2,
9.788,118.13374758912889,89.74701793642853,-2.73,-0.66,0.28,14.0,2.0,0.0,6.0,3.0,2.0,0.0,0.0,41.01,0.2,
9.811,118.20237475891288,89.72270179364286,-2.99,-1.5,0.4,14.0,2.0,0.0,6.0,3.0,2.0,0.0,0.0,41.2,0.59,
9.836,118.26323747589129,89.72027017936429,-2.8,-2.48,0.58,14.0,2.0,0.0,6.0,3.0,2.0,0.0,0.0,41.89,0.0,
9.861,118.26032374758914,89.75602701793643,-4.29,-3.82,0.37,14.0,2.0,0.0,6.0,3.0,2.0,0.0,0.0,41.99,0.29,
9.885,118.1970323747589,89.80460270179364,-4.31,-5.4,1.21,14.0,2.0,0.0,6.0,3.0,2.0,0.0,0.0,42.08,0.59,
9.91,118.1727032374759,89.83646027017937,-4.45,-5.76,0.93,13.0,2.0,0.0,6.0,3.0,2.0,0.0,0.0,42.08,0.1,
9.934,118.1432703237476,89.82164602701793,-4.12,-7.51,2.18,12.0,2.0,0.0,6.0,3.0,2.0,0.0,0.0,40.61,0.0,
9.958,117.97832703237476,89.65816460270179,-3.81,-7.08,0.39,11.0,2.0,0.0,6.0,3.0,2.0,0.0,0.0,39.63,0.0,
9.982,117.81783270323747,89.65081646027018,-2.84,-6.76,0.92,11.0,2.0,0.0,5.0,3.0,2.0,0.0,0.0,38.75,0.1,
10.007,117.70278327032375,89.60508164602702,-2.05,-5.14,1.06,10.0,2.0,0.0,5.0,3.0,2.0,0.0,0.0,37.96,0.39,
10.032,117.60127832703238,89.5825081646027,-1.48,-3.76,1.82,10.0,2.0,0.0,5.0,3.0,2.0,0.0,0.0,37.57,0.39,
10.056,117.58212783270324,89.57125081646026,-1.86,-3.8,0.78,9.0,2.0,0.0,5.0,3.0,2.0,0.0,0.0,37.57,0.0,
10.081,117.47221278327032,89.55212508164603,-2.99,-3.47,0.61,9.0,2.0,0.0,5.0,3.0,2.0,0.0,0.0,37.47,0.49,
10.105,117.37122127832703,89.4602125081646,-3.33,-2.99,0.71,9.0,2.0,0.0,5.0,3.0,2.0,0.0,0.0,37.77,0.2,
10.129,117.34312212783271,89.52302125081646,-3.37,-3.56,0.68,8.0,2.0,0.0,5.0,3.0,2.0,0.0,0.0,37.18,0.2,
10.153,117.32231221278326,89.49330212508164,-3.16,-2.66,0.18,8.0,2.0,0.0,5.0,3.0,2.0,0.0,0.0,36.89,0.1,
10.178,117.24823122127832,89.54433021250816,-3.07,-2.42,0.27,8.0,2.0,0.0,5.0,3.0,2.0,0.0,0.0,36.59,0.0,
10.203,117.11482312212783,89.51343302125082,-3.33,-1.4,0.33,8.0,2.0,0.0,5.0,3.0,2.0,0.0,0.0,36.3,0.1,
10.227,117.11948231221278,89.5103433021251,-3.26,-0.92,0.27,8.0,2.0,0.0,5.0,3.0,2.0,0.0,0.0,36.0,0.1,
10.252,117.14694823122127,89.51003433021252,-3.25,-2.21,0.58,8.0,2.0,0.0,5.0,3.0,2.0,0.0,0.0,36.0,0.0,
10.275,117.23069482312212,89.47400343302124,-3.07,-2.11,0.15,8.0,2.0,0.0,5.0,3.0,2.0,0.0,0.0,35.81,0.0,
10.3,117.16706948231221,89.53340034330213,-3.25,-3.24,-0.01,8.0,2.0,0.0,5.0,3.0,2.0,0.0,0.0,35.51,0.0,
10.324,117.07970694823122,89.54834003433021,-3.37,-2.5,-0.09,8.0,2.0,0.0,5.0,3.0,2.0,0.0,0.0,35.12,0.2,
10.349,117.01697069482313,89.54083400343303,-3.64,-1.02,0.09,8.0,2.0,0.0,5.0,3.0,2.0,0.0,0.0,34.92,0.59,
10.374,117.0286970694823,89.5490834003433,-3.37,-0.08,0.15,8.0,2.0,0.0,5.0,3.0,2.0,0.0,0.0,34.92,0.59,
10.398,117.05686970694822,89.53190834003433,-3.6,-0.74,0.13,8.0,2.0,0.0,5.0,3.0,2.0,0.0,0.0,35.12,0.2,
10.423,117.04168697069483,89.48519083400345,-3.46,-1.18,-0.35,8.0,2.0,0.0,5.0,3.0,2.0,0.0,0.0,35.22,0.2,
10.447,117.01316869706949,89.44451908340034,-3.34,-1.18,-0.21,8.0,2.0,0.0,5.0,3.0,2.0,0.0,0.0,35.22,0.39,
10.471,116.98331686970695,89.45845190834002,-3.15,-0.82,-0.2,8.0,2.0,0.0,5.0,3.0,2.0,0.0,0.0,35.32,0.69,
10.496,116.97133168697069,89.468845190834,-3.31,-0.43,-0.08,9.0,2.0,0.0,5.0,3.0,2.0,0.0,0.0,35.51,0.0,
10.52,116.98813316869706,89.47888451908341,-3.29,0.04,-0.17,10.0,2.0,0.0,5.0,3.0,2.0,0.0,0.0,35.71,0.0,
10.545,116.9988133168697,89.49788845190834,-2.93,0.79,-0.46,9.0,2.0,0.0,5.0,3.0,2.0,0.0,0.0,36.0,0.2,
10.569,116.98188133168698,89.52678884519082,-3.23,0.56,-0.37,8.0,2.0,0.0,5.0,3.0,2.0,0.0,0.0,36.59,0.2,
10.594,116.9711881331687,89.51167888451909,-3.47,0.34,-0.63,10.0,2.0,0.0,5.0,3.0,2.0,0.0,0.0,37.08,0.0,
10.618,116.96111881331686,89.53716788845192,-3.1,0.7,-0.28,10.0,2.0,0.0,5.0,3.0,2.0,0.0,0.0,37.57,0.0,
10.643,116.98711188133169,89.50371678884518,-3.4,0.24,-0.47,10.0,2.0,0.0,5.0,3.0,2.0,0.0,0.0,38.06,0.2,
10.668,117.03471118813317,89.4643716788845,-3.34,-0.72,-0.38,10.0,2.0,0.0,5.0,3.0,2.0,0.0,0.0,38.65,0.49,
10.692,117.09347111881331,89.43343716788846,-3.19,0.49,-0.92,11.0,2.0,0.0,5.0,3.0,2.0,0.0,0.0,39.04,0.49,
10.716,117.21634711188133,89.47534371678886,-2.76,0.05,-0.5,10.0,2.0,0.0,5.0,3.0,2.0,0.0,0.0,39.63,0.39,
10.74,117.25563471118814,89.5065343716789,-2.92,-0.47,-0.27,10.0,2.0,0.0,5.0,3.0,2.0,0.0,0.0,40.42,0.2,
10.765,117.27756347111881,89.50065343716788,-3.2,-0.89,-0.41,10.0,2.0,0.0,5.0,3.0,2.0,0.0,0.0,41.59,0.2,
10.789,117.31575634711187,89.5090653437168,-3.24,-0.52,-0.37,10.0,2.0,0.0,5.0,3.0,2.0,0.0,0.0,41.3,0.49,
10.815,117.30157563471118,89.50090653437168,-3.24,-1.52,-0.02,11.0,2.0,0.0,5.0,3.0,2.0,0.0,0.0,41.79,0.0,
10.84,117.3271575634711,89.58109065343717,-3.29,-1.11,-0.21,11.0,2.0,0.0,5.0,3.0,2.0,0.0,0.0,41.99,0.0,
10.864,117.3027157563471,89.56210906534372,-3.3,-0.65,-0.13,11.0,2.0,0.0,5.0,3.0,2.0,0.0,0.0,42.08,0.29,
10.889,117.3272715756347,89.52421090653436,-3.29,-0.67,-0.09,11.0,2.0,0.0,5.0,3.0,2.0,0.0,0.0,41.69,0.39,
10.913,117.34772715756347,89.50242109065343,-3.44,-0.85,-0.43,11.0,2.0,0.0,6.0,3.0,2.0,0.0,0.0,41.89,0.2,
10.937,117.33177271575634,89.48224210906535,-3.36,0.11,-0.37,11.0,2.0,0.0,6.0,3.0,2.0,0.0,0.0,42.28,0.0,
10.961,117.35717727157562,89.46222421090653,-3.13,0.24,-0.73,11.0,2.0,0.0,6.0,3.0,2.0,0.0,0.0,42.67,0.1,
10.986,117.40471772715756,89.41522242109065,-3.33,0.61,-0.83,11.0,2.0,0.0,6.0,3.0,2.0,0.0,0.0,43.16,0.39,
11.011,117.40047177271576,89.36552224210907,-3.18,0.68,-0.59,11.0,2.0,0.0,6.0,3.0,2.0,0.0,0.0,43.85,0.59,
11.035,117.42704717727159,89.3875522242109,-2.7,-0.04,-0.37,11.0,2.0,0.0,6.0,3.0,2.0,0.0,0.0,44.64,0.59,
11.06,117.47470471772715,89.4167552224211,-2.86,-0.38,-0.18,11.0,2.0,0.0,6.0,3.0,2.0,0.0,0.0,45.42,0.69,
11.084,117.46147047177271,89.4646755222421,-2.98,-0.25,-0.48,11.0,2.0,0.0,6.0,3.0,2.0,0.0,0.0,45.91,0.29,
11.109,117.50514704717727,89.42446755222421,-2.88,0.34,-0.15,12.0,2.0,0.0,6.0,3.0,2.0,0.0,0.0,46.3,0.2,
11.133,117.54551470471773,89.47444675522243,-2.29,1.04,-0.63,11.0,2.0,0.0,6.0,3.0,2.0,0.0,0.0,46.11,0.0,
11.158,117.55855147047177,89.51544467552225,-2.5,2.1,-0.75,11.0,2.0,0.0,6.0,3.0,2.0,0.0,0.0,46.4,0.0,
11.183,117.62285514704718,89.53754446755224,-2.78,1.51,-0.11,11.0,2.0,0.0,6.0,3.0,2.0,0.0,0.0,46.99,1.18,
11.207,117.67428551470472,89.53075444675522,-2.92,1.36,-0.42,11.0,2.0,0.0,6.0,3.0,2.0,0.0,0.0,47.48,0.0,
11.232,117.73342855147047,89.53007544467552,-2.43,0.71,-0.23,11.0,2.0,0.0,6.0,3.0,2.0,0.0,0.0,48.07,0.0,
11.256,117.79334285514705,89.54800754446755,-2.6,0.22,-0.07,12.0,2.0,0.0,6.0,3.0,2.0,0.0,0.0,48.66,0.0,
11.281,117.90733428551471,89.61280075444675,-2.55,-1.01,0.02,12.0,2.0,0.0,6.0,3.0,2.0,0.0,0.0,49.44,0.1,
11.304,117.98173342855146,89.61028007544468,-3.06,-3.14,0.27,11.0,2.0,0.0,6.0,3.0,2.0,0.0,0.0,49.64,0.29,
11.329,117.96217334285515,89.61002800754447,-3.11,-2.56,0.21,11.0,2.0,0.0,6.0,3.0,2.0,0.0,0.0,49.83,0.49,
11.354,117.93321733428553,89.62800280075444,-2.92,-2.49,0.21,11.0,2.0,0.0,6.0,3.0,2.0,0.0,0.0,49.05,0.69,
11.378,117.88532173342855,89.62080028007544,-2.73,-1.66,0.27,11.0,2.0,0.0,6.0,3.0,2.0,0.0,0.0,47.87,0.49,
11.403,117.90753217334286,89.64708002800754,-2.53,-0.44,0.5,11.0,2.0,0.0,6.0,3.0,2.0,0.0,0.0,47.77,0.49,
11.427,117.96375321733429,89.62270800280075,-2.34,0.7,0.51,11.0,2.0,0.0,6.0,3.0,2.0,0.0,0.0,47.28,0.29,
11.452,117.88837532173342,89.71027080028009,-1.79,1.95,-0.21,11.0,2.0,0.0,5.0,3.0,2.0,0.0,0.0,47.09,0.0,
11.476,117.94383753217335,89.75502708002801,-3.21,1.22,0.29,11.0,2.0,0.0,5.0,3.0,2.0,0.0,0.0,47.28,0.0,
11.501,118.03938375321734,89.75050270800281,-2.98,-0.15,0.3,11.0,2.0,0.0,5.0,3.0,2.0,0.0,0.0,47.87,0.2,
11.525,118.05793837532174,89.76805027080027,-2.92,-0.53,0.56,11.0,2.0,0.0,6.0,3.0,2.0,0.0,0.0,48.17,0.39,
11.549,118.07779383753217,89.75180502708002,-2.82,0.5,0.11,11.0,2.0,0.0,6.0,3.0,2.0,0.0,0.0,48.46,0.49,
11.574,118.04377938375322,89.723180502708,-2.6,2.08,-0.31,12.0,2.0,0.0,6.0,3.0,2.0,0.0,0.0,48.95,0.39,
11.598,118.10337793837533,89.7203180502708,-1.89,2.02,0.78,11.0,2.0,0.0,6.0,3.0,2.0,0.0,0.0,49.83,0.1,
11.623,118.15433779383753,89.64803180502707,-1.76,0.65,0.08,12.0,2.0,0.0,6.0,3.0,2.0,0.0,0.0,51.01,0.0,
11.648,118.24043377938375,89.6048031805027,-1.9,-1.17,1.31,11.0,2.0,0.0,6.0,3.0,1.0,0.0,0.0,52.09,0.29,
11.672,118.32104337793837,89.69048031805028,-2.08,-2.8,2.12,11.0,2.0,0.0,6.0,3.0,1.0,0.0,0.0,52.88,0.69,
11.697,118.14010433779384,89.93304803180503,-1.02,-0.71,4.28,9.0,2.0,0.0,5.0,3.0,1.0,0.0,0.0,53.66,0.59,
11.721,118.03201043377939,89.85830480318049,2.95,-3.86,5.46,5.0,2.0,0.0,5.0,4.0,1.0,0.0,0.0,54.15,0.39,
11.745,117.67020104337794,89.76983048031805,10.91,-8.37,6.55,11.0,1.0,0.0,4.0,3.0,1.0,0.0,0.0,54.45,0.39,
11.769,118.0390201043378,91.8579830480318,24.96,-32.6,0.41,8.0,1.0,0.0,2.0,3.0,0.0,0.0,0.0,51.89,2.55,
11.794,119.42590201043377,94.55979830480317,-0.79,-86.42,42.02,5.0,1.0,0.0,1.0,3.0,1.0,0.0,0.0,44.83,4.32,
11.819,117.09859020104338,94.95597983048032,-80.37,-104.18,69.52,3.0,1.0,0.0,1.0,3.0,1.0,0.0,0.0,29.53,0.0,
11.843,114.26485902010434,96.11159798304803,-130.88,-92.38,56.75,0.0,0.0,0.0,1.0,3.0,1.0,1.0,0.0,18.25,4.91,
11.868,117.69848590201043,97.1631597983048,-115.76,120.99,94.31,0.0,0.0,0.0,0.0,3.0,1.0,1.0,0.0,11.87,30.51,
11.892,119.96784859020104,99.26631597983048,-112.75,116.87,132.72,0.0,0.0,0.0,0.0,1.0,1.0,0.0,0.0,8.73,109.77,
11.917,121.68878485902009,105.30863159798305,-84.4,112.77,103.67,0.0,0.0,0.0,0.0,0.0,1.0,0.0,0.0,0.78,88.49,
11.941,125.361878485902,113.5268631597983,-33.78,49.24,47.73,0.0,0.0,0.0,0.0,0.0,0.0,0.0,0.0,10.2,50.91,
11.966,122.2551878485902,118.61468631597984,23.2,8.41,8.57,0.0,0.0,0.0,0.0,0.0,0.0,0.0,0.0,10.3,18.05,
11.991,118.92051878485901,121.33746863159799,74.5,-7.89,-39.58,0.0,0.0,0.0,0.0,0.0,0.0,0.0,0.1,23.74,12.65,
12.015,117.2100518784859,122.7977468631598,98.69,-2.71,-63.94,0.0,0.0,0.0,0.0,0.0,0.0,0.0,0.1,53.07,5.2,
12.039,108.6330051878486,112.85477468631598,111.11,35.15,-37.59,0.0,0.0,0.0,0.0,0.0,0.0,0.0,0.0,130.67,4.22,
12.063,109.35930051878485,113.8224774686316,120.69,-16.24,-97.36,0.0,0.0,0.0,0.0,0.0,0.0,0.0,0.0,146.56,2.65,
12.088,111.00693005187848,113.45124774686316,106.09,-11.43,-99.45,0.0,0.0,0.0,0.0,0.0,0.0,0.0,0.0,128.22,4.71,
12.112,111.36069300518785,111.55112477468631,91.53,-25.15,-64.94,0.0,0.0,0.0,0.0,0.0,0.0,0.0,0.0,112.81,8.93,
12.137,111.83706930051879,108.94011247746865,76.27,-13.37,-66.12,0.0,0.0,0.0,0.0,0.0,0.0,0.0,0.0,97.81,2.75,
12.162,112.60470693005189,105.83501124774686,58.1,1.59,-60.8,0.0,0.0,0.0,0.0,0.0,0.0,0.0,0.0,99.18,0.0,
12.185,114.17547069300518,102.05050112477468,55.51,5.39,-40.7,0.0,0.0,0.0,0.0,0.0,0.0,0.0,0.0,98.88,0.0,
12.209,116.24954706930052,98.65705011247746,61.23,-3.78,-41.89,0.0,0.0,0.0,0.0,0.0,0.0,0.0,0.0,122.82,0.39,
12.233,117.45595470693006,95.84270501124774,69.87,-18.78,-31.92,0.0,0.0,0.0,0.0,0.0,0.0,0.0,0.0,120.96,2.26,
12.258,118.77359547069301,92.16827050112478,82.69,-20.4,-23.31,0.0,0.0,0.0,0.0,0.0,0.0,0.0,0.0,106.24,1.47,
12.281,119.5353595470693,89.85682705011247,102.91,-31.6,-23.09,0.0,0.0,0.0,0.0,0.0,0.0,0.0,0.0,104.57,0.0,
12.306,119.66553595470693,89.98568270501124,96.81,-34.74,-23.97,0.0,0.0,0.0,0.0,0.0,0.0,0.0,0.0,107.62,2.45,
12.331,120.38055359547069,89.26056827050114,86.41,-23.21,-7.2,0.0,0.0,0.0,0.0,0.0,0.0,0.0,0.0,105.85,1.47,
12.354,120.40705535954706,86.10105682705012,76.87,-14.24,12.21,0.0,0.0,0.0,0.0,0.0,0.0,0.0,0.0,102.81,0.0,
12.379,119.95070553595471,81.69910568270501,44.47,-18.6,-6.32,0.0,0.0,0.0,0.0,0.0,0.0,0.0,0.0,105.26,1.18,
12.403,120.93107055359548,77.76691056827049,-21.45,77.71,35.5,0.0,0.0,0.0,0.0,0.0,0.0,0.0,0.0,101.73,1.57,
12.428,119.71510705535954,85.12269105682705,-66.11,-96.65,-86.07,0.0,0.0,0.0,0.0,0.0,0.0,0.0,0.0,103.0,1.28,
12.451,117.96451070553594,89.26026910568271,-250.14,56.81,50.75,0.0,0.0,0.0,0.0,0.0,0.0,0.0,0.0,106.14,3.63,
12.476,116.6734510705536,85.57002691056827,-250.14,115.94,99.63,3.0,0.0,0.0,0.0,0.0,1.0,0.0,0.0,83.58,0.0,
12.5,117.56134510705536,78.53200269105683,-111.23,31.8,60.5,0.0,2.0,0.0,3.0,0.0,1.0,0.0,0.0,60.82,0.0,
12.525,116.61513451070554,78.62920026910568,-13.13,6.99,45.32,8.0,2.0,0.0,4.0,0.0,2.0,0.0,0.0,46.5,0.0,
12.55,118.99551345107055,80.56492002691057,-24.76,-12.37,3.08,11.0,2.0,0.0,5.0,1.0,2.0,0.0,0.0,46.7,0.0,
12.574,119.80055134510705,81.76649200269107,-32.68,-31.08,-1.21,19.0,2.0,0.0,7.0,2.0,3.0,1.0,0.0,47.58,0.0,
12.599,118.6930551345107,82.39964920026911,-22.98,-16.38,7.46,25.0,3.0,0.0,8.0,3.0,4.0,2.0,0.0,51.11,0.29,
12.623,118.30330551345108,82.94896492002691,-24.49,-5.6,5.55,30.0,4.0,0.0,11.0,4.0,4.0,4.0,0.0,49.44,0.0,
12.648,119.41633055134511,83.6068964920027,-20.4,-6.34,6.89,34.0,4.0,0.0,2.0,4.0,5.0,5.0,0.0,48.76,0.0,
12.673,120.05863305513451,83.67268964920028,-22.85,-13.78,5.82,39.0,5.0,0.0,6.0,5.0,6.0,6.0,0.0,49.15,0.0,
12.697,119.76286330551345,84.15626896492003,-19.01,-11.19,4.77,42.0,6.0,0.0,10.0,5.0,7.0,6.0,0.0,50.52,0.0,
12.723,119.56228633055136,84.546626896492,-16.3,-7.4,4.38,53.0,6.0,0.0,13.0,6.0,8.0,7.0,0.0,49.83,0.0,
12.747,119.38922863305514,84.6216626896492,-12.37,-0.79,6.37,50.0,7.0,0.0,17.0,7.0,8.0,7.0,0.0,51.99,0.0,
12.772,119.4079228633055,84.76416626896493,-6.44,-3.09,4.58,50.0,8.0,0.0,20.0,7.0,8.0,8.0,0.0,55.03,0.0,
12.796,119.35579228633054,84.81441662689649,-3.53,-5.53,0.45,58.0,8.0,0.0,22.0,8.0,8.0,7.0,3.43,59.35,0.0,
12.821,119.19757922863306,85.13444166268965,-0.37,1.45,-2.48,53.0,8.0,0.0,22.0,8.0,6.0,7.0,6.87,64.16,0.0,
12.846,119.38875792286329,85.78744416626897,4.93,4.21,1.72,53.0,8.0,0.0,22.0,8.0,6.0,6.0,8.44,67.69,0.0,
12.87,119.82187579228633,86.26674441662689,9.54,9.29,1.6,50.0,7.0,0.0,20.0,9.0,5.0,5.0,8.83,76.03,0.0,
12.894,120.00918757922864,86.5126744416627,5.94,6.92,0.73,48.0,6.0,0.0,19.0,10.0,4.0,4.0,8.53,88.49,0.0,
12.918,120.44191875792286,86.71726744416627,4.49,9.21,-0.89,53.0,5.0,0.0,15.0,10.0,4.0,4.0,8.44,102.91,0.0,
12.943,120.28719187579227,87.15172674441664,0.96,3.22,1.86,46.0,5.0,0.0,14.0,10.0,4.0,4.0,8.73,114.48,0.0,
12.967,120.55971918757923,87.61817267444167,-3.82,-1.91,5.05,46.0,6.0,0.0,16.0,11.0,4.0,4.0,10.01,126.16,0.0,
12.993,120.91097191875792,87.92581726744416,-9.79,-11.6,4.24,42.0,6.0,0.0,18.0,10.0,4.0,4.0,12.26,127.53,0.0,
13.018,120.81109719187579,88.24458172674441,-11.77,-7.51,5.18,50.0,6.0,0.0,20.0,11.0,4.0,5.0,14.32,128.22,0.0,
13.042,120.78310971918758,87.88045817267445,-14.11,-22.44,17.5,50.0,7.0,0.0,23.0,11.0,5.0,6.0,18.05,125.76,0.0,
13.068,120.84331097191875,87.85304581726744,-9.85,-25.04,10.6,55.0,7.0,0.0,24.0,12.0,6.0,6.0,21.58,121.94,0.0,
13.092,120.59733109719187,87.93130458172675,-11.58,-24.58,17.37,55.0,8.0,0.0,25.0,1.0,6.0,7.0,25.8,119.09,0.0,
13.118,119.69973310971919,87.85813045817267,-13.88,-18.71,22.73,53.0,7.0,0.0,26.0,2.0,7.0,8.0,30.71,115.27,0.0,
13.143,119.53797331097192,87.44581304581727,-17.55,-18.89,20.31,53.0,7.0,0.0,26.0,9.0,8.0,9.0,38.85,110.07,0.0,
13.167,119.0267973310972,86.62158130458174,-18.7,-9.76,19.1,50.0,7.0,0.0,26.0,11.0,8.0,9.0,43.65,105.85,0.0,
13.193,118.72367973310972,86.01715813045817,-19.6,-12.62,19.88,48.0,6.0,0.0,30.0,12.0,8.0,10.0,48.76,102.51,0.0,
13.217,117.95536797331098,85.66871581304581,-18.92,-9.6,18.09,46.0,6.0,0.0,26.0,0.0,9.0,10.0,53.76,102.71,0.0,
13.243,118.1575367973311,85.12087158130458,-21.71,-15.34,18.22,39.0,6.0,0.0,25.0,1.0,9.0,10.0,58.17,104.67,0.0,
13.267,118.16875367973311,84.49908715813046,-25.06,-22.5,11.8,39.0,5.0,0.0,25.0,9.0,9.0,10.0,65.92,102.51,0.0,
13.293,117.81887536797332,84.49990871581304,-30.21,-18.22,17.63,35.0,5.0,0.0,23.0,10.0,10.0,10.0,73.67,97.71,0.0,
13.318,117.01888753679734,83.99599087158131,-26.34,-33.51,12.11,32.0,4.0,0.0,22.0,4.0,10.0,11.0,82.31,91.63,0.0,
13.343,116.38088875367973,83.54959908715813,-30.42,-6.99,25.84,26.0,4.0,0.0,17.0,4.0,11.0,11.0,90.15,86.33,0.0,
13.368,116.26308887536797,82.83895990871582,-39.0,-7.5,25.19,13.0,3.0,0.0,12.0,11.0,11.0,11.0,99.18,83.38,0.0,
13.393,116.0533088875368,81.48989599087159,-41.39,-10.32,22.05,2.0,3.0,0.0,10.0,9.0,11.0,12.0,110.07,78.68,0.0,
13.418,115.16833088875367,80.87798959908716,-45.25,-8.93,20.9,10.0,2.0,0.0,4.0,5.0,12.0,0.0,125.67,65.14,0.0,
13.443,114.48583308887535,80.23179895990872,-47.62,-0.48,20.58,6.0,1.0,0.0,0.0,6.0,1.0,2.0,142.15,91.82,0.0,
13.468,113.54458330888754,79.47417989599087,-55.82,7.84,22.08,1.0,1.0,0.0,9.0,8.0,2.0,3.0,156.27,67.0,3.24,
13.493,112.44245833088874,79.11041798959909,-72.65,14.92,25.15,0.0,0.0,0.0,5.0,10.0,3.0,4.0,170.69,62.39,12.16,
13.517,112.44024583308887,79.02004179895991,-105.53,26.66,33.86,0.0,0.0,0.0,1.0,10.0,4.0,4.0,175.8,89.17,20.5,
13.542,113.77202458330889,79.39800417989599,-127.5,17.1,51.53,0.0,0.0,0.0,0.0,10.0,4.0,4.0,177.66,98.69,10.4,
13.568,114.56220245833089,80.5338004179896,-151.27,34.25,78.56,0.0,0.0,0.0,0.0,7.0,4.0,2.0,171.38,68.28,110.36,
13.592,116.50422024583308,80.77338004179896,-152.68,51.82,121.44,0.0,0.0,0.0,1.0,2.0,1.0,11.0,140.58,17.76,137.83,
13.618,117.14842202458331,77.75533800417989,-167.42,50.0,120.61,0.0,0.0,0.0,3.0,9.0,11.0,9.0,105.07,8.83,116.84,
13.642,119.13884220245833,74.50153380041799,-178.68,45.72,114.53,0.0,0.0,0.0,3.0,6.0,8.0,7.0,52.68,8.63,61.31,
13.667,120.79588422024584,67.4441533800418,-156.91,57.96,132.39,0.0,0.0,0.0,2.0,4.0,6.0,5.0,16.68,5.49,26.59,
13.692,120.6645884220246,65.73041533800418,-163.2,27.74,130.12,0.0,0.0,0.0,0.0,2.0,3.0,3.0,0.0,3.73,42.87,
13.716,119.17545884220246,64.32604153380042,-144.17,96.5,96.76,0.0,0.0,0.0,0.0,0.0,0.0,3.0,0.0,4.61,24.33,
13.741,121.19554588422025,57.138604153380044,-80.46,56.11,61.79,0.0,0.0,0.0,0.0,0.0,0.0,3.0,0.0,5.0,48.36,
13.765,118.89555458842202,54.56586041533801,3.15,-9.02,-19.98,0.0,0.0,0.0,0.0,0.0,0.0,3.0,0.0,2.94,24.13,
13.789,122.3645554588422,51.5995860415338,20.96,-5.92,-53.37,0.0,0.0,0.0,0.0,0.0,0.0,3.0,0.0,0.0,13.93,
13.813,132.5394555458842,74.82895860415337,58.88,-25.76,-53.92,0.0,0.0,0.0,0.0,0.0,0.0,3.0,0.0,0.29,5.3,
13.838,140.81094555458841,94.20689586041534,131.74,-49.53,-71.53,0.0,0.0,0.0,0.0,0.0,0.0,2.0,0.0,7.65,6.77,
13.861,141.56609455545885,100.23968958604154,174.6,-80.82,-51.54,0.0,0.0,0.0,0.0,0.0,0.0,2.0,0.0,5.0,11.28,
13.886,138.1676094555459,101.28396895860416,169.41,-80.02,-45.6,0.0,0.0,0.0,0.0,0.0,0.0,1.0,0.0,6.57,10.89,
13.911,131.5547609455546,97.88739689586042,160.85,-56.36,-70.62,0.0,1.0,0.0,0.0,0.0,0.0,1.0,0.0,10.59,0.0,
13.935,126.23147609455546,92.63373968958604,160.81,-1.98,-88.21,0.0,0.0,0.0,0.0,0.0,0.0,0.0,0.0,18.25,0.0,
13.96,123.11614760945554,88.2563739689586,149.11,19.66,-123.46,0.0,0.0,0.0,0.0,0.0,0.0,0.0,0.0,46.99,0.0,
13.984,122.58861476094555,84.15563739689586,130.24,24.28,-127.64,0.0,0.0,0.0,0.0,0.0,0.0,0.0,0.0,41.59,0.0,
14.009,123.26486147609455,79.70456373968959,105.26,18.73,-99.41,0.0,0.0,0.0,0.0,0.0,0.0,0.0,0.0,28.94,1.77,
14.033,122.77448614760947,75.62345637396896,81.94,19.5,-80.26,0.0,0.0,0.0,0.0,0.0,0.0,0.0,0.0,34.63,1.37,
14.057,122.23944861476095,70.5083456373969,112.16,42.57,-101.05,0.0,0.0,0.0,0.0,0.0,0.0,0.0,0.0,23.15,1.86,
14.082,123.14894486147608,66.67583456373968,124.21,-16.24,-101.79,0.0,0.0,0.0,0.0,0.0,0.0,0.0,0.29,15.5,0.0,
14.106,123.4288944861476,64.40258345637397,98.82,-32.49,-60.23,0.0,0.0,0.0,0.0,0.0,0.0,0.0,0.1,14.91,2.06,
14.131,122.68288944861476,62.5282583456374,57.31,-51.28,-35.85,0.0,0.0,0.0,0.0,0.0,0.0,0.0,0.1,7.06,0.59,
14.155,121.97828894486148,61.18882583456374,32.26,-28.53,-8.37,0.0,0.0,0.0,0.0,0.0,0.0,0.0,0.1,0.1,5.98,
14.179,121.50282889448616,60.253882583456374,22.5,-10.25,5.12,0.0,0.0,0.0,0.0,0.0,0.0,0.0,0.2,4.32,0.0,
14.203,120.67228288944862,59.40438825834564,7.01,-7.73,10.25,0.0,0.0,0.0,0.0,0.0,0.0,0.0,0.2,0.2,0.0,
14.227,119.87822828894487,59.454438825834565,-29.44,-22.89,3.94,0.0,0.0,0.0,0.0,0.0,0.0,0.0,0.0,6.77,2.75,
14.252,119.13282282889448,60.323443882583454,-56.13,-34.33,10.62,0.0,0.0,0.0,0.0,0.0,0.0,0.0,0.0,5.3,0.29,
14.275,117.79828228288945,56.74734438825835,11.54,4.33,35.97,0.0,0.0,0.0,0.0,1.0,0.0,0.0,0.0,3.53,0.0,
14.3,132.10982822828893,40.33373443882583,50.63,-71.56,-53.21,0.0,0.0,0.0,0.0,1.0,0.0,0.0,0.0,11.48,0.0,
14.324,129.26598282282887,48.31337344388258,59.15,-39.98,-31.52,0.0,1.0,0.0,0.0,1.0,0.0,0.0,0.0,5.69,0.0,
14.349,125.02159828228288,54.35833734438826,35.31,13.28,-24.07,3.0,1.0,0.0,1.0,1.0,1.0,0.0,0.0,3.14,0.0,
14.373,122.80615982822829,59.075833734438824,41.02,-5.37,-35.73,5.0,1.0,0.0,1.0,1.0,1.0,0.0,0.0,7.65,0.0,
14.398,121.91861598282281,63.795583373443876,37.14,20.55,-49.34,8.0,1.0,0.0,2.0,2.0,1.0,0.0,0.0,8.83,0.49,
14.423,124.99786159828228,66.14855833734438,-3.75,2.73,-20.16,11.0,1.0,0.0,3.0,2.0,1.0,0.0,0.0,9.42,0.0,
14.446,122.57878615982824,69.69585583373444,0.08,17.98,-12.55,0.0,1.0,0.0,3.0,2.0,1.0,0.0,0.0,12.75,0.0,
14.471,121.20287861598281,72.71458558337345,-1.47,13.66,-2.61,4.0,2.0,0.0,3.0,2.0,1.0,0.0,0.0,15.11,0.0,
14.495,120.48928786159829,75.43745855833734,-0.41,14.66,2.89,5.0,2.0,0.0,4.0,2.0,1.0,0.0,0.0,17.56,0.0,
14.52,120.12092878615982,76.87074585583373,-2.24,6.03,-1.09,8.0,2.0,0.0,4.0,2.0,1.0,0.0,0.0,19.62,0.0,
14.543,119.05809287861598,78.24707458558338,0.56,4.11,-4.65,9.0,2.0,0.0,4.0,2.0,1.0,0.0,0.0,20.5,0.0,
14.568,118.5018092878616,80.01370745855833,-4.74,3.31,0.6,11.0,2.0,0.0,4.0,2.0,1.0,0.0,0.0,22.86,0.0,
14.593,118.14018092878615,81.29737074585584,-7.95,3.21,2.41,13.0,2.0,0.0,5.0,2.0,2.0,0.0,0.0,21.39,0.0,
14.617,117.97801809287861,82.29873707458557,-7.24,4.97,0.36,15.0,2.0,0.0,5.0,3.0,2.0,0.0,0.0,21.68,0.0,
14.641,118.15080180928787,83.33487370745856,-8.85,0.68,0.2,17.0,2.0,0.0,5.0,3.0,2.0,0.0,0.0,23.54,0.0,
14.665,117.88908018092879,84.05948737074586,-7.66,1.35,-1.43,19.0,2.0,0.0,6.0,3.0,2.0,0.0,0.0,25.02,0.0,
14.69,117.66490801809289,84.68094873707459,-8.33,0.41,-0.48,21.0,2.0,0.0,6.0,3.0,2.0,0.0,0.0,26.29,0.0,
14.714,116.96749080180929,84.99509487370746,-8.62,5.05,0.66,23.0,2.0,0.0,6.0,4.0,2.0,0.0,0.0,28.06,0.0,
14.739,117.13174908018092,85.40450948737075,-6.36,1.74,-0.06,25.0,2.0,0.0,7.0,4.0,2.0,0.0,0.0,30.12,0.0,
14.764,117.12117490801809,85.88645094873708,-5.27,-0.44,1.92,26.0,3.0,0.0,7.0,4.0,3.0,0.0,0.0,33.45,0.0,
14.788,117.29111749080181,86.33964509487372,-3.98,0.94,2.26,27.0,3.0,0.0,8.0,4.0,3.0,0.0,0.0,36.1,0.0,
14.812,117.18211174908018,86.42096450948738,-4.21,3.93,-0.18,28.0,3.0,0.0,8.0,5.0,3.0,0.0,0.0,38.36,0.0,
14.836,117.27021117490803,86.63609645094874,-4.03,5.5,-0.33,28.0,3.0,0.0,8.0,5.0,3.0,0.0,0.0,40.02,0.0,
14.861,117.30602111749081,86.91860964509488,-4.32,4.78,-1.28,31.0,3.0,0.0,8.0,5.0,3.0,0.0,0.0,41.5,0.0,
14.885,117.39060211174909,87.08186096450949,-3.21,5.28,-1.15,31.0,3.0,0.0,9.0,5.0,3.0,0.0,0.0,42.87,0.0,
14.91,117.5520602111749,87.28718609645095,-2.63,3.37,-0.92,30.0,3.0,0.0,9.0,5.0,3.0,0.0,0.0,44.54,0.0,
14.935,117.61320602111749,87.4787186096451,-2.65,3.65,-0.77,31.0,3.0,0.0,9.0,5.0,3.0,0.0,0.0,45.71,0.0,
14.959,117.61032060211176,87.66887186096452,-3.87,1.26,-0.83,32.0,3.0,0.0,9.0,5.0,3.0,0.0,0.0,46.89,0.0,
14.984,117.71803206021119,87.76888718609646,-4.15,-0.69,-0.79,32.0,3.0,0.0,9.0,5.0,3.0,0.0,0.0,47.58,0.0,
15.008,117.84580320602112,87.85988871860965,-3.48,-1.28,-0.67,32.0,3.0,0.0,9.0,5.0,3.0,1.0,0.0,47.97,0.0,
15.033,117.9035803206021,87.85998887186096,-3.25,-1.77,-0.85,34.0,3.0,0.0,9.0,5.0,3.0,1.0,0.0,48.17,0.0,
15.057,117.94535803206021,87.89599888718611,-3.63,1.66,-0.13,34.0,3.0,0.0,9.0,5.0,3.0,1.0,0.0,48.27,0.0,
15.082,117.98553580320602,88.00759988871862,-3.85,-0.47,-0.53,34.0,3.0,0.0,10.0,5.0,3.0,1.0,0.0,48.36,0.0,
15.107,118.0345535803206,88.09975998887187,-3.5,-0.34,-0.51,34.0,3.0,0.0,10.0,5.0,3.0,1.0,0.0,48.76,0.0,
15.131,118.02145535803206,88.41497599888719,-2.7,1.58,-2.69,34.0,3.0,0.0,10.0,5.0,3.0,1.0,0.0,49.34,0.0,
15.156,118.1191455358032,88.36549759988871,-2.17,-0.44,-1.71,35.0,3.0,0.0,10.0,5.0,3.0,1.0,0.0,49.54,0.0,
15.18,118.07491455358031,88.44154975998887,-2.76,-1.05,-0.42,35.0,3.0,0.0,10.0,5.0,3.0,1.0,0.0,49.44,0.0,
15.205,118.04349145535804,88.56615497599888,-2.93,-2.49,-0.67,34.0,3.0,0.0,9.0,5.0,3.0,1.0,0.0,48.85,0.0,
15.229,118.1123491455358,88.5426154975999,-2.97,-3.15,-1.11,34.0,3.0,0.0,9.0,5.0,3.0,1.0,0.0,48.36,0.0,
15.254,118.09223491455359,88.52226154975997,-2.32,0.07,-0.66,34.0,3.0,0.0,9.0,5.0,3.0,1.0,0.0,47.68,0.0,
15.279,118.18922349145537,88.511226154976,-2.26,0.08,-1.13,34.0,3.0,0.0,9.0,5.0,3.0,1.0,0.0,47.28,0.0,
15.303,118.21692234914553,88.5191226154976,-1.4,0.56,-0.84,34.0,3.0,0.0,9.0,5.0,3.0,0.0,0.0,47.38,0.0,
15.328,118.25569223491456,88.48391226154976,-1.66,-1.32,-0.89,32.0,3.0,0.0,9.0,5.0,3.0,0.0,0.0,47.28,0.0,
15.352,118.27756922349145,88.48939122615496,-1.4,-0.02,-1.02,32.0,3.0,0.0,8.0,5.0,3.0,0.0,0.0,46.79,0.0,
15.377,118.21675692234913,88.54393912261548,-2.43,0.3,-1.38,32.0,3.0,0.0,8.0,4.0,2.0,0.0,0.0,46.01,0.0,
15.4,118.14767569223491,88.62139391226154,-3.52,-1.07,-0.96,32.0,3.0,0.0,8.0,4.0,2.0,0.0,0.0,45.32,0.0,
15.425,118.20376756922349,88.64713939122616,-3.01,-1.14,-0.48,32.0,3.0,0.0,8.0,4.0,2.0,0.0,0.0,44.83,0.0,
15.451,118.16437675692234,88.64971393912262,-2.31,-2.78,0.22,31.0,3.0,0.0,8.0,4.0,2.0,0.0,0.0,44.34,0.2,
15.474,118.06143767569223,88.65897139391225,-2.15,-2.18,-0.25,31.0,3.0,0.0,8.0,4.0,2.0,0.0,0.0,43.56,0.29,
15.499,118.05114376756923,88.71389713939122,-1.77,0.58,-0.15,31.0,3.0,0.0,8.0,4.0,2.0,0.0,0.0,42.97,0.2,
15.523,118.14011437675693,88.72838971393912,-1.5,0.63,-0.32,30.0,3.0,0.0,7.0,4.0,2.0,0.0,0.0,42.48,0.0,
15.548,118.23901143767569,88.76583897139392,-3.85,-1.5,-1.53,30.0,3.0,0.0,7.0,4.0,2.0,0.0,0.0,41.99,0.1,
15.572,118.28490114376758,88.79658389713939,-3.2,-2.08,-0.43,30.0,3.0,0.0,7.0,4.0,2.0,0.0,0.0,41.89,0.29,
15.597,118.25349011437675,88.83565838971394,-2.73,-2.18,-0.08,31.0,3.0,0.0,8.0,4.0,2.0,0.0,0.0,41.99,0.0,
15.622,118.20534901143768,88.8755658389714,-2.92,0.15,-0.17,30.0,3.0,0.0,8.0,4.0,2.0,0.0,0.0,41.99,0.0,
15.646,118.18253490114377,88.87955658389714,-2.69,1.01,-0.39,30.0,3.0,0.0,8.0,4.0,2.0,0.0,0.0,41.89,0.0,
15.671,118.22525349011438,88.89795565838972,-3.27,0.87,-0.89,30.0,3.0,0.0,8.0,4.0,2.0,0.0,0.0,41.79,0.0,
15.695,118.30152534901143,88.84579556583897,-3.78,1.12,-0.79,30.0,3.0,0.0,8.0,4.0,2.0,0.0,0.0,41.69,0.0,
15.72,118.41715253490115,88.89457955658389,-3.3,0.03,-0.81,30.0,3.0,0.0,8.0,4.0,2.0,0.0,0.0,41.69,0.0,
15.745,118.44671525349011,88.80945795565839,-2.79,0.41,-0.98,30.0,3.0,0.0,8.0,4.0,2.0,0.0,0.0,41.69,0.0,
15.769,118.66567152534901,88.62094579556583,-1.87,1.21,-0.75,30.0,3.0,0.0,7.0,4.0,2.0,0.0,0.0,41.59,0.0,
15.794,118.58856715253489,88.65609457955658,-1.43,2.63,-1.89,30.0,3.0,0.0,7.0,4.0,2.0,0.0,0.0,41.4,0.2,
15.818,118.63485671525348,88.66860945795565,-1.53,3.0,-0.61,30.0,3.0,0.0,7.0,4.0,2.0,0.0,0.0,41.4,0.0,
15.842,118.59448567152535,88.71486094579556,-1.4,5.63,-1.67,30.0,3.0,0.0,7.0,4.0,2.0,0.0,0.0,41.79,0.0,
15.866,118.74344856715253,88.82748609457956,-1.44,5.98,-1.11,30.0,3.0,0.0,7.0,4.0,2.0,0.0,0.0,42.28,0.1,
15.891,118.92934485671526,88.85674860945795,-1.23,5.33,-1.53,30.0,3.0,0.0,7.0,4.0,2.0,0.0,0.0,43.46,0.39,
15.916,119.12793448567153,88.8956748609458,-1.49,3.55,-1.41,30.0,3.0,0.0,7.0,4.0,2.0,0.0,0.0,44.54,0.0,
15.94,119.30979344856715,88.97156748609459,-1.74,1.02,-0.95,30.0,3.0,0.0,7.0,4.0,2.0,0.0,0.0,45.22,0.0,
15.965,119.41797934485672,89.07815674860947,-1.38,-1.01,-1.0,30.0,3.0,0.0,7.0,4.0,2.0,0.0,0.0,45.91,0.0,
15.989,119.34779793448567,89.13381567486094,-1.26,-0.59,-1.16,30.0,3.0,0.0,7.0,4.0,2.0,0.0,0.0,46.01,0.1,
16.014,119.39477979344858,89.17538156748611,-0.98,0.31,-0.76,28.0,3.0,0.0,7.0,4.0,2.0,0.0,0.0,46.21,0.29,
16.038,119.53447797934486,89.25153815674861,-1.11,-0.35,-0.4,28.0,3.0,0.0,7.0,3.0,2.0,0.0,0.0,46.5,0.1,
16.063,119.66544779793449,89.30415381567487,-1.37,-2.45,-0.6,28.0,3.0,0.0,6.0,3.0,2.0,0.0,0.0,46.4,0.49,
16.088,119.57054477979345,89.29141538156749,-1.01,-3.72,-0.82,27.0,3.0,0.0,6.0,3.0,2.0,0.0,0.0,46.11,1.57,
16.112,119.30005447797934,89.16414153815676,-2.18,-6.6,-1.32,27.0,3.0,0.0,6.0,3.0,2.0,0.0,0.0,45.42,2.84,
16.137,119.23700544779794,89.25041415381568,-2.09,-4.64,-0.08,27.0,3.0,0.0,6.0,3.0,2.0,0.0,0.0,44.73,2.26,
16.161,119.2757005447798,89.34904141538158,-2.21,-5.2,1.13,27.0,3.0,0.0,6.0,3.0,2.0,0.0,0.0,44.24,2.16,
16.186,119.19857005447798,89.36790414153816,-2.32,-2.18,-0.3,27.0,3.0,0.0,6.0,3.0,2.0,0.0,0.0,43.85,2.26,
16.21,119.2268570054478,89.43279041415381,-2.2,-1.24,-0.14,27.0,3.0,0.0,6.0,3.0,2.0,0.0,0.0,43.26,1.18,
16.235,119.25668570054478,89.52927904141539,-2.36,-2.26,-0.09,27.0,3.0,0.0,6.0,3.0,2.0,0.0,0.0,43.07,0.59,
16.26,119.58366857005447,89.46692790414153,-1.23,-3.09,-0.27,26.0,2.0,0.0,5.0,3.0,2.0,0.0,0.0,42.67,0.2,
16.284,119.53536685700544,89.59569279041415,-0.86,-1.05,-0.49,26.0,2.0,0.0,5.0,3.0,1.0,0.0,0.0,42.18,0.59,
16.309,119.44053668570055,89.65356927904142,-0.74,-2.12,-0.21,26.0,2.0,0.0,5.0,2.0,1.0,0.0,0.0,41.59,0.98,
16.333,119.27805366857005,89.83035692790413,-1.86,-1.33,0.29,25.0,2.0,0.0,5.0,2.0,1.0,0.0,0.0,40.91,0.78,
16.358,119.288805366857,89.79403569279042,-4.1,-1.58,-0.26,25.0,2.0,0.0,5.0,2.0,1.0,0.0,0.0,40.12,0.39,
16.381,119.3078805366857,89.74540356927903,-3.76,-1.71,-0.37,25.0,2.0,0.0,5.0,2.0,1.0,0.0,0.0,39.83,0.0,
16.406,119.39078805366857,89.7405403569279,-2.31,-0.88,-0.43,25.0,2.0,0.0,5.0,3.0,1.0,0.0,0.0,39.93,0.1,
16.431,119.29107880536685,89.7850540356928,-1.66,-0.86,-0.11,25.0,2.0,0.0,5.0,2.0,1.0,0.0,0.0,40.02,0.29,
16.455,119.24510788053668,89.79850540356927,-1.44,-0.6,-0.47,24.0,2.0,0.0,5.0,2.0,1.0,0.0,0.0,39.93,0.69,
16.48,119.22251078805367,89.85385054035692,-1.89,-0.87,-0.45,24.0,2.0,0.0,5.0,2.0,1.0,0.0,0.0,39.73,0.39,
16.504,119.27425107880536,89.8953850540357,-1.92,-0.73,-0.4,23.0,2.0,0.0,5.0,2.0,1.0,0.0,0.0,39.44,0.59,
16.529,119.29742510788054,89.87253850540358,-1.2,-3.31,-0.01,23.0,2.0,0.0,5.0,2.0,1.0,0.0,0.0,38.46,0.59,
16.553,119.27274251078805,90.03225385054036,-0.41,-3.23,-0.31,21.0,2.0,0.0,4.0,2.0,1.0,0.0,0.0,37.28,0.29,
16.577,119.2432742510788,90.15622538505404,0.06,-3.5,0.41,19.0,2.0,0.0,4.0,2.0,1.0,0.0,0.0,35.61,0.59,
16.602,119.27632742510788,90.2136225385054,-1.64,-4.37,0.57,18.0,2.0,0.0,4.0,2.0,1.0,0.0,0.0,33.94,1.37,
16.626,119.19863274251078,90.13836225385054,-2.23,-5.34,0.55,17.0,2.0,0.0,4.0,2.0,1.0,0.0,0.0,32.67,0.98,
16.651,119.09186327425107,90.22983622538504,-2.06,-4.39,1.31,17.0,2.0,0.0,4.0,2.0,1.0,0.0,0.0,31.59,1.28,
16.674,119.00918632742511,90.30198362253851,-1.73,-2.72,-0.51,14.0,2.0,0.0,3.0,2.0,1.0,0.0,0.0,30.41,1.37,
16.699,119.0459186327425,90.37219836225384,-1.77,-2.14,0.92,15.0,2.0,0.0,3.0,2.0,1.0,0.0,0.0,29.23,1.67,
16.723,118.97759186327426,90.38821983622537,-1.49,-1.45,0.11,14.0,2.0,0.0,3.0,2.0,1.0,0.0,0.0,28.35,1.67,
16.748,119.01575918632741,90.40782198362254,-1.4,-1.53,-0.5,14.0,2.0,0.0,3.0,2.0,1.0,0.0,0.0,27.76,1.08,
16.773,119.03757591863275,90.41878219836225,-1.55,-1.47,-0.15,13.0,2.0,0.0,3.0,2.0,1.0,0.0,0.0,26.78,1.08,
16.797,118.90475759186327,90.38387821983622,-1.19,-0.47,-0.21,11.0,1.0,0.0,3.0,1.0,1.0,0.0,0.0,26.09,1.28,
16.822,118.93647575918634,90.50638782198362,-1.52,-0.93,0.05,11.0,1.0,0.0,3.0,1.0,1.0,0.0,0.0,25.7,1.18,
16.845,118.72364757591863,90.43763878219838,-1.81,-1.47,-0.31,11.0,1.0,0.0,3.0,1.0,1.0,0.0,0.0,25.31,1.18,
16.87,118.62136475759186,90.43976387821984,-1.74,-0.81,-0.57,10.0,1.0,0.0,3.0,1.0,1.0,0.0,0.0,25.11,1.08,
16.894,118.65613647575918,90.51197638782199,-2.5,-1.82,0.11,10.0,1.0,0.0,3.0,1.0,1.0,0.0,0.0,24.82,0.59,
16.919,118.77661364757591,90.5461976387822,-2.37,-0.93,-0.7,10.0,1.0,0.0,3.0,1.0,1.0,0.0,0.0,24.33,0.49,
16.944,118.82466136475759,90.57661976387823,-2.66,-1.45,0.05,10.0,1.0,0.0,3.0,1.0,1.0,0.0,0.0,24.33,0.39,
16.968,118.73946613647576,90.57066197638781,-2.89,-0.28,0.05,10.0,1.0,0.0,3.0,1.0,1.0,0.0,0.0,24.33,0.69,
16.992,118.76694661364758,90.61506619763878,-2.96,-0.66,0.12,10.0,1.0,0.0,3.0,1.0,1.0,0.0,0.0,24.43,0.59,
17.016,118.71569466136475,90.62850661976387,-3.43,0.1,-0.06,10.0,1.0,0.0,3.0,1.0,1.0,0.0,0.0,24.62,0.29,
17.041,118.76456946613648,90.64785066197639,-2.95,0.53,-0.37,11.0,2.0,0.0,3.0,1.0,1.0,0.0,0.0,24.92,0.0,
17.065,118.81445694661365,90.73078506619763,-3.02,0.09,-0.09,11.0,2.0,0.0,3.0,1.0,1.0,0.0,0.0,25.51,0.1,
17.09,118.85544569466137,90.71207850661976,-2.82,0.82,-0.76,10.0,2.0,0.0,3.0,1.0,1.0,0.0,0.0,26.0,0.29,
17.114,118.88654456946614,90.72820785066199,-2.74,-1.05,-0.1,11.0,2.0,0.0,3.0,1.0,1.0,0.0,0.0,26.29,0.49,
17.138,118.83565445694661,90.7748207850662,-3.1,-0.68,-0.23,11.0,2.0,0.0,3.0,1.0,1.0,0.0,0.0,26.49,0.69,
17.163,118.84856544569466,90.84248207850662,-2.8,-0.19,0.41,11.0,2.0,0.0,3.0,1.0,1.0,0.0,0.0,26.39,0.49,
17.187,118.88585654456946,90.86724820785066,-3.01,-0.85,-0.08,11.0,2.0,0.0,3.0,2.0,1.0,0.0,0.0,26.29,0.39,
17.212,118.93458565445695,90.88772482078507,-3.0,-0.46,-0.44,11.0,2.0,0.0,3.0,2.0,1.0,0.0,0.0,26.19,0.2,
17.236,118.9754585654457,90.8807724820785,-2.92,-1.18,0.08,11.0,2.0,0.0,3.0,2.0,1.0,0.0,0.0,26.29,0.0,
17.261,118.99754585654458,90.88007724820785,-3.1,-1.18,-0.17,12.0,2.0,0.0,3.0,2.0,1.0,0.0,0.0,26.39,0.0,
17.286,119.06275458565445,90.88000772482079,-3.23,-1.92,0.27,12.0,2.0,0.0,3.0,2.0,1.0,0.0,0.0,26.29,0.0,
17.309,118.99727545856544,90.88900077248208,-3.37,-2.37,0.31,12.0,2.0,0.0,3.0,2.0,1.0,0.0,0.0,26.09,0.29,
17.334,118.98172754585654,90.86290007724821,-3.83,-2.44,0.47,12.0,2.0,0.0,3.0,2.0,1.0,0.0,0.0,25.9,0.39,
17.358,118.96217275458565,90.86029000772481,-3.69,-3.31,0.72,12.0,2.0,0.0,3.0,2.0,1.0,0.0,0.0,25.6,0.2,
17.383,118.89721727545857,90.80602900077248,-4.13,-2.97,0.73,12.0,2.0,0.0,3.0,2.0,1.0,0.0,0.0,25.21,0.29,
17.406,118.90872172754587,90.70160290007723,-4.19,-2.62,-0.33,12.0,2.0,0.0,3.0,2.0,1.0,0.0,0.0,24.92,0.39,
17.431,118.99087217275459,90.71816029000772,-4.06,-2.98,0.44,12.0,2.0,0.0,4.0,2.0,1.0,0.0,0.0,24.52,0.39,
17.456,118.91808721727546,90.70181602900078,-3.63,-3.37,0.24,12.0,2.0,0.0,4.0,2.0,1.0,0.0,0.0,24.03,0.59,
17.48,118.81180872172754,90.61018160290007,-3.15,-3.4,0.5,12.0,2.0,0.0,3.0,2.0,1.0,0.0,0.0,23.64,0.59,
17.505,118.68418087217275,90.58301816029001,-2.94,-2.06,-0.1,12.0,2.0,0.0,3.0,2.0,1.0,0.0,0.0,23.25,0.49,
17.529,118.65341808721729,90.553301816029,-2.88,-0.99,0.07,12.0,2.0,0.0,3.0,2.0,1.0,0.0,0.0,22.76,0.59,
17.553,118.62334180872173,90.56833018160289,-3.01,-0.46,0.09,12.0,2.0,0.0,3.0,2.0,1.0,0.0,0.0,22.56,0.1,
17.577,118.58433418087216,90.5248330181603,-2.92,-0.69,-0.15,12.0,2.0,0.0,3.0,2.0,1.0,0.0,0.0,22.76,0.0,
17.602,118.59843341808721,90.57448330181603,-3.08,-0.97,0.01,12.0,2.0,0.0,4.0,2.0,1.0,0.0,0.0,23.15,0.0,
17.627,118.63584334180871,90.6514483301816,-3.1,-1.42,-0.04,14.0,2.0,0.0,4.0,2.0,1.0,0.0,0.0,23.54,0.2,
17.651,118.63058433418087,90.65014483301816,-3.08,-1.02,-0.14,12.0,2.0,0.0,4.0,2.0,1.0,0.0,0.0,23.54,0.29,
17.676,118.63005843341809,90.6860144833018,-3.36,-1.47,-0.09,11.0,2.0,0.0,4.0,2.0,1.0,0.0,0.0,23.74,0.39,
17.699,118.64800584334182,90.68960144833017,-3.11,-1.65,0.0,13.0,2.0,0.0,4.0,2.0,1.0,0.0,0.0,23.84,0.1,
17.724,118.65880058433417,90.64496014483302,-3.24,-1.61,0.12,12.0,2.0,0.0,4.0,2.0,1.0,0.0,0.0,23.84,0.2,
17.748,118.63288005843341,90.65849601448329,-3.17,-2.11,0.32,13.0,2.0,0.0,4.0,2.0,1.0,0.0,0.0,23.94,0.39,
17.773,118.60328800584334,90.72284960144833,-4.24,-2.37,0.37,13.0,2.0,0.0,4.0,2.0,1.0,0.0,0.0,24.03,0.49,
17.798,118.60032880058432,90.63028496014483,-5.02,-2.29,0.21,14.0,2.0,0.0,4.0,2.0,1.0,0.0,0.0,24.13,0.69,
17.822,118.58203288005842,90.56702849601449,-3.81,-2.14,0.4,14.0,2.0,0.0,4.0,2.0,1.0,0.0,0.0,24.43,0.0,
17.846,118.52620328800583,90.56070284960146,-3.8,-2.17,0.34,14.0,2.0,0.0,4.0,2.0,1.0,0.0,0.0,24.82,0.0,
17.87,118.49362032880057,90.51507028496015,-3.76,-1.55,0.17,14.0,2.0,0.0,4.0,2.0,1.0,0.0,0.0,25.11,0.2,
17.895,118.46336203288004,90.447507028496,-3.34,-1.76,-0.05,14.0,2.0,0.0,4.0,2.0,1.0,0.0,0.0,25.41,0.0,
17.92,118.46933620328801,90.4587507028496,-3.79,-1.56,-0.15,14.0,2.0,0.0,4.0,2.0,1.0,0.0,0.0,25.51,0.0,
17.944,118.3889336203288,90.53187507028497,-4.45,-2.04,0.11,15.0,2.0,0.0,4.0,2.0,1.0,0.0,0.0,25.51,0.0,
17.968,118.32689336203288,90.5121875070285,-6.4,-1.76,0.09,16.0,2.0,0.0,4.0,2.0,1.0,0.0,0.0,25.9,0.0,
17.992,118.32068933620329,90.40221875070284,-5.05,-1.37,0.01,17.0,2.0,0.0,4.0,2.0,1.0,0.0,0.0,26.49,0.0,
18.017,118.32006893362032,90.39122187507029,-4.27,-1.63,0.31,17.0,2.0,0.0,4.0,2.0,1.0,0.0,0.0,27.17,0.0,
18.041,118.38300689336204,90.35412218750702,-3.56,-0.48,-0.01,17.0,2.0,0.0,4.0,2.0,1.0,0.0,0.0,28.25,0.0,
18.066,118.3623006893362,90.37741221875069,-2.89,-0.43,0.5,17.0,2.0,0.0,4.0,2.0,1.0,0.0,0.0,28.94,0.1,
18.091,118.40523006893362,90.34374122187508,-3.76,-1.18,0.22,18.0,2.0,0.0,4.0,2.0,1.0,0.0,0.0,29.23,0.29,
18.114,118.42752300689337,90.25937412218751,-4.85,-2.19,-0.09,18.0,2.0,0.0,4.0,2.0,1.0,0.0,0.0,29.63,0.59,
18.139,118.39375230068933,90.20593741221876,-5.05,-2.17,-0.11,18.0,2.0,0.0,4.0,2.0,1.0,0.0,0.0,29.92,0.39,
18.163,118.37237523006893,90.17359374122188,-4.56,-1.53,0.09,19.0,2.0,0.0,5.0,2.0,2.0,0.0,0.0,30.12,0.1,
18.188,118.3972375230069,90.14335937412218,-4.06,-0.73,-0.08,19.0,2.0,0.0,5.0,2.0,2.0,0.0,0.0,30.41,0.1,
18.212,118.52572375230069,90.12233593741222,-4.2,-0.95,-0.1,20.0,2.0,0.0,5.0,2.0,2.0,0.0,0.0,30.9,0.2,
18.237,118.50257237523007,90.03023359374122,-3.92,-1.19,-0.19,20.0,2.0,0.0,5.0,2.0,2.0,0.0,0.0,31.49,0.1,
18.262,118.53625723752302,90.08402335937413,-3.23,-1.15,0.18,21.0,2.0,0.0,5.0,2.0,2.0,0.0,0.0,31.98,0.0,
18.286,118.5216257237523,90.08940233593742,-3.08,-0.45,-0.09,21.0,2.0,0.0,5.0,2.0,2.0,0.0,0.0,32.47,0.0,
18.311,118.54716257237521,90.03594023359375,-2.76,-0.6,-0.44,21.0,2.0,0.0,5.0,2.0,2.0,0.0,0.0,32.86,0.0,
18.335,118.53171625723752,90.05759402335937,-2.45,-1.11,-0.48,21.0,2.0,0.0,5.0,2.0,2.0,0.0,0.0,33.16,0.0,
18.36,118.53017162572375,90.08675940233594,-2.56,-0.83,-0.39,21.0,2.0,0.0,5.0,2.0,2.0,0.0,0.0,33.26,0.0,
18.384,118.48501716257238,90.08967594023359,-2.34,-0.47,-0.54,21.0,2.0,0.0,5.0,2.0,2.0,0.0,0.0,33.16,0.0,
18.409,118.42650171625723,90.15296759402337,-2.66,0.02,-0.48,20.0,2.0,0.0,5.0,2.0,2.0,0.0,0.0,33.26,0.0,
18.433,118.42965017162572,90.12329675940234,-2.63,0.0,-0.47,21.0,2.0,0.0,5.0,2.0,2.0,0.0,0.0,33.35,0.0,
18.457,118.50196501716258,90.12932967594024,-2.46,0.01,-0.58,21.0,2.0,0.0,5.0,2.0,2.0,0.0,0.0,33.84,0.69,
18.482,118.50919650171626,90.11193296759403,-2.4,0.62,-0.33,21.0,2.0,0.0,5.0,2.0,2.0,0.0,0.0,34.14,0.98,
18.506,118.58191965017163,90.1191932967594,-1.68,1.11,-0.56,21.0,2.0,0.0,5.0,2.0,1.0,0.0,0.0,34.53,0.98,
18.531,118.70619196501715,90.16491932967594,-1.09,1.21,-0.82,21.0,2.0,0.0,5.0,2.0,1.0,0.0,0.0,35.12,1.18,
18.554,118.79961919650171,90.1694919329676,-0.61,1.66,-0.72,21.0,2.0,0.0,5.0,2.0,1.0,0.0,0.0,35.51,0.98,
18.579,118.82696191965017,90.25994919329675,-1.4,1.2,-0.42,21.0,2.0,0.0,5.0,2.0,1.0,0.0,0.0,35.81,0.98,
18.604,118.91969619196502,90.25099491932968,-1.9,0.37,-0.28,21.0,2.0,0.0,5.0,2.0,1.0,0.0,0.0,36.1,1.18,
18.628,118.8839696191965,90.29509949193296,-2.11,0.76,-0.73,21.0,2.0,0.0,5.0,2.0,1.0,0.0,0.0,36.4,1.28,
18.653,118.93439696191966,90.38950994919331,-2.63,-0.41,-0.4,21.0,2.0,0.0,5.0,2.0,1.0,0.0,0.0,36.79,1.77,
18.677,118.97543969619197,90.44395099491933,-3.31,-0.82,-0.61,21.0,2.0,0.0,5.0,2.0,1.0,0.0,0.0,37.08,1.08,
18.701,118.9435439696192,90.38639509949193,-3.78,0.2,-0.46,21.0,2.0,0.0,5.0,2.0,1.0,0.0,0.0,37.08,0.69,
18.725,119.03035439696193,90.33563950994919,-3.23,-0.63,0.07,22.0,2.0,0.0,5.0,2.0,1.0,0.0,0.0,37.18,0.59,
18.75,119.1110354396962,90.35756395099492,-2.86,-1.27,-0.08,21.0,2.0,0.0,5.0,2.0,1.0,0.0,0.0,37.47,0.78,
18.775,119.04710354396963,90.3327563950995,-3.06,-1.69,-0.15,22.0,2.0,0.0,5.0,2.0,1.0,0.0,0.0,37.47,1.08,
18.799,119.08571035439697,90.41127563950995,-2.81,-1.72,-0.21,21.0,2.0,0.0,5.0,2.0,1.0,0.0,0.0,37.28,0.98,
18.824,119.07157103543969,90.446127563951,-2.57,-1.07,-0.18,21.0,2.0,0.0,5.0,2.0,1.0,0.0,0.0,36.69,1.08,
18.848,119.21415710354397,90.4586127563951,-1.95,-1.33,0.16,21.0,2.0,0.0,5.0,2.0,1.0,0.0,0.0,36.2,0.88,
18.872,119.2914157103544,90.46886127563951,-1.31,-1.55,0.08,20.0,2.0,0.0,5.0,2.0,1.0,0.0,0.0,35.9,0.98,
18.896,119.28114157103545,90.50588612756395,-1.16,-2.74,-0.08,19.0,2.0,0.0,4.0,2.0,1.0,0.0,0.0,35.12,0.59,
18.921,119.32511415710354,90.4915886127564,-1.48,-3.27,-0.21,19.0,2.0,0.0,4.0,2.0,1.0,0.0,0.0,34.04,0.49,
18.946,119.29351141571036,90.51715886127565,-2.28,-2.5,-0.21,18.0,2.0,0.0,4.0,2.0,1.0,0.0,0.0,32.86,0.59,
18.97,119.26335114157104,90.54671588612757,-2.45,-2.95,0.11,17.0,2.0,0.0,4.0,2.0,1.0,0.0,0.0,31.69,0.78,
18.995,119.2243351141571,90.62167158861274,-2.87,-3.01,0.47,17.0,2.0,0.0,4.0,2.0,1.0,0.0,0.0,30.8,0.78,
19.019,119.1664335114157,90.66516715886128,-2.91,-3.02,0.31,17.0,2.0,0.0,4.0,2.0,1.0,0.0,0.0,29.82,0.69,
19.043,119.09764335114158,90.65151671588613,-2.78,-1.75,-0.05,16.0,2.0,0.0,4.0,2.0,1.0,0.0,0.0,29.04,0.59,
19.067,119.05476433511416,90.61415167158862,-3.07,-1.43,0.05,16.0,2.0,0.0,4.0,2.0,1.0,0.0,0.0,28.55,0.49,
19.092,119.05947643351142,90.61941516715886,-2.62,-2.07,0.05,16.0,2.0,0.0,4.0,2.0,1.0,0.0,0.0,28.35,0.69,
19.117,119.06894764335114,90.6199415167159,-2.8,-2.74,0.31,16.0,2.0,0.0,4.0,2.0,1.0,0.0,0.0,28.25,0.98,
19.141,119.00689476433512,90.61099415167159,-2.64,-1.43,-0.08,15.0,2.0,0.0,4.0,2.0,1.0,0.0,0.0,27.86,0.78,
19.166,118.9916894764335,90.65509941516714,-2.69,-1.18,0.24,15.0,2.0,0.0,4.0,2.0,1.0,0.0,0.0,27.57,0.1,
19.189,118.99016894764334,90.66850994151672,-3.24,-1.29,0.37,14.0,2.0,0.0,4.0,2.0,1.0,0.0,0.0,27.27,0.0,
19.214,119.03501689476434,90.64285099415167,-3.08,-1.95,0.18,13.0,2.0,0.0,4.0,2.0,1.0,0.0,0.0,27.17,0.0,
19.238,119.04850168947642,90.66728509941518,-3.05,-1.27,-0.24,14.0,2.0,0.0,4.0,2.0,1.0,0.0,0.0,27.17,0.0,
19.263,119.04085016894766,90.68772850994151,-3.24,-1.6,-0.14,15.0,2.0,0.0,4.0,2.0,1.0,0.0,0.0,26.98,0.0,
19.288,119.03108501689478,90.68977285099415,-3.04,-1.95,0.08,15.0,2.0,0.0,4.0,2.0,1.0,0.0,0.0,26.88,0.0,
19.312,118.97610850168948,90.6899772850994,-3.24,-1.8,0.16,16.0,2.0,0.0,4.0,2.0,1.0,0.0,0.0,26.78,0.0,
19.336,118.91661085016895,90.63599772850993,-3.17,-2.05,0.02,16.0,2.0,0.0,4.0,2.0,1.0,0.0,0.0,26.78,0.0,
19.36,118.9016610850169,90.621599772851,-3.16,-1.54,-0.15,16.0,2.0,0.0,4.0,2.0,1.0,0.0,0.0,26.68,0.0,
19.385,118.85516610850169,90.6291599772851,-2.95,-1.85,0.2,16.0,2.0,0.0,4.0,2.0,1.0,0.0,0.0,26.59,0.0,
19.409,118.85051661085016,90.63891599772852,-3.03,-1.74,-0.18,16.0,2.0,0.0,4.0,2.0,1.0,0.0,0.0,26.59,0.39,
19.434,118.82305166108502,90.62189159977285,-3.03,-2.64,0.18,15.0,2.0,0.0,4.0,2.0,1.0,0.0,0.0,26.39,0.88,
19.459,118.8293051661085,90.64718915997729,-2.98,-2.69,0.29,15.0,2.0,0.0,4.0,2.0,1.0,0.0,0.0,26.19,0.88,
19.482,118.80293051661084,90.62271891599774,-3.31,-2.04,0.02,15.0,2.0,0.0,4.0,2.0,1.0,0.0,0.0,25.9,0.59,
19.507,118.76429305166108,90.60227189159977,-3.17,-1.6,0.03,16.0,2.0,0.0,4.0,2.0,1.0,0.0,0.0,25.6,0.59,
19.531,118.80542930516611,90.61822718915998,-3.18,-1.52,0.1,16.0,2.0,0.0,4.0,2.0,1.0,0.0,0.0,25.6,0.39,
19.556,118.78254293051661,90.619822718916,-3.1,-1.27,0.0,15.0,2.0,0.0,4.0,2.0,1.0,0.0,0.0,25.6,0.59,
19.58,118.77125429305165,90.62898227189159,-2.99,-1.52,0.14,15.0,2.0,0.0,4.0,2.0,1.0,0.0,0.0,25.51,0.1,
19.604,118.73412542930517,90.65689822718915,-2.92,-1.32,0.05,15.0,2.0,0.0,4.0,2.0,1.0,0.0,0.0,25.51,0.0,
19.629,118.69441254293051,90.65068982271892,-3.08,-1.35,0.17,16.0,2.0,0.0,4.0,2.0,1.0,0.0,0.0,25.6,0.0,
19.653,118.69944125429305,90.68606898227188,-3.53,-1.44,0.02,15.0,2.0,0.0,4.0,2.0,1.0,0.0,0.0,25.8,0.1,
19.678,118.6909441254293,90.6536068982272,-4.02,-1.4,0.06,16.0,2.0,0.0,4.0,2.0,1.0,0.0,0.0,26.0,0.0,
19.702,118.69009441254292,90.57836068982272,-3.67,-1.91,0.08,16.0,2.0,0.0,4.0,2.0,1.0,0.0,0.0,26.19,0.0,
19.726,118.69000944125429,90.57983606898227,-3.43,-1.89,0.14,16.0,2.0,0.0,4.0,2.0,1.0,0.0,0.0,26.49,0.0,
19.75,118.72600094412543,90.55298360689824,-3.3,-1.82,0.36,16.0,2.0,0.0,4.0,2.0,1.0,0.0,0.0,26.49,0.1,
19.775,118.71160009441255,90.57729836068982,-2.92,-1.72,0.08,17.0,2.0,0.0,4.0,2.0,1.0,0.0,0.0,26.39,0.2,
19.8,118.70116000944125,90.60672983606898,-3.11,-1.92,0.12,17.0,2.0,0.0,4.0,2.0,1.0,0.0,0.0,26.39,0.29,
19.824,118.71811600094412,90.6096729836069,-3.15,-1.98,0.11,17.0,2.0,0.0,4.0,2.0,1.0,0.0,0.0,26.49,0.29,
19.848,118.7018116000944,90.57396729836069,-3.02,-1.34,0.07,16.0,2.0,0.0,4.0,2.0,1.0,0.0,0.0,26.19,0.2,
19.872,118.62818116000945,90.57039672983606,-2.85,-1.83,0.27,17.0,2.0,0.0,4.0,2.0,1.0,0.0,0.0,26.29,0.39,
19.897,118.59381811600095,90.53403967298361,-3.18,-1.45,-0.1,17.0,2.0,0.0,4.0,2.0,1.0,0.0,0.0,26.29,0.49,
19.921,118.57238181160008,90.57540396729837,-3.26,-1.37,-0.07,17.0,2.0,0.0,4.0,2.0,1.0,0.0,0.0,26.29,0.1,
19.946,118.55223818115999,90.59754039672983,-3.02,-1.53,-0.08,17.0,2.0,0.0,4.0,2.0,1.0,0.0,0.0,26.49,0.2,
19.971,118.523223818116,90.59975403967297,-2.92,-1.89,0.18,17.0,2.0,0.0,4.0,2.0,1.0,0.0,0.0,26.49,0.0,
19.994,118.4753223818116,90.6269754039673,-3.05,-1.9,0.23,17.0,2.0,0.0,4.0,2.0,1.0,0.0,0.0,26.49,0.2,
20.019,118.39853223818116,90.68369754039672,-3.06,-1.69,-0.05,17.0,2.0,0.0,4.0,2.0,1.0,0.0,0.0,26.29,0.0,
20.043,118.39085322381811,90.72536975403968,-2.87,-1.62,0.11,17.0,2.0,0.0,4.0,2.0,1.0,0.0,0.0,26.19,0.39,
20.068,118.40808532238181,90.71153697540396,-2.83,-1.47,-0.13,17.0,2.0,0.0,4.0,2.0,1.0,0.0,0.0,26.09,0.2,
20.092,118.40980853223817,90.71015369754039,-2.97,-2.11,0.06,17.0,2.0,0.0,4.0,2.0,1.0,0.0,0.0,26.0,0.39,
20.117,118.5089808532238,90.66501536975403,-3.5,-1.72,-0.05,17.0,2.0,0.0,4.0,2.0,1.0,0.0,0.0,25.8,0.59,
20.142,118.57289808532238,90.6425015369754,-3.29,-1.34,-0.07,17.0,2.0,0.0,4.0,2.0,1.0,0.0,0.0,25.7,0.39,
20.165,118.52528980853222,90.60425015369754,-3.18,-1.27,0.08,17.0,2.0,0.0,4.0,2.0,1.0,0.0,0.0,25.7,0.39,
20.19,118.54752898085322,90.60042501536975,-3.31,-1.24,0.24,17.0,2.0,0.0,4.0,2.0,1.0,0.0,0.0,25.7,0.39,
20.214,118.56775289808532,90.56404250153697,-3.21,-1.23,-0.19,17.0,2.0,0.0,4.0,2.0,1.0,0.0,0.0,25.8,0.49,
20.239,118.56077528980853,90.56940425015368,-3.18,-0.85,-0.11,17.0,2.0,0.0,4.0,2.0,1.0,0.0,0.0,25.9,0.59,
20.263,118.56007752898086,90.58794042501538,-3.34,-0.69,-0.09,17.0,2.0,0.0,4.0,2.0,1.0,0.0,0.0,26.0,0.39,
20.288,118.54200775289809,90.63479404250154,-3.37,-1.05,0.08,19.0,2.0,0.0,4.0,2.0,1.0,0.0,0.0,26.09,0.29,
20.312,118.54020077528982,90.67547940425015,-3.24,-1.05,-0.11,17.0,2.0,0.0,4.0,2.0,1.0,0.0,0.0,26.29,0.1,
20.336,118.56702007752898,90.63454794042501,-3.45,-0.61,-0.13,20.0,2.0,0.0,4.0,2.0,1.0,0.0,0.0,26.49,0.0,
20.361,118.53370200775291,90.60345479404249,-3.08,-0.82,0.01,17.0,2.0,0.0,4.0,2.0,1.0,0.0,0.0,26.68,0.0,
20.385,118.54837020077528,90.56434547940425,-3.03,-1.18,0.05,17.0,2.0,0.0,4.0,2.0,1.0,0.0,0.0,26.78,0.1,
20.41,118.54083702007753,90.56043454794043,-3.3,-0.9,-0.19,18.0,2.0,0.0,4.0,2.0,1.0,0.0,0.0,26.98,0.2,
20.434,118.52208370200775,90.53304345479404,-3.13,-0.98,-0.11,18.0,2.0,0.0,4.0,2.0,1.0,0.0,0.0,26.98,0.39,
20.459,118.60120837020077,90.51230434547941,-3.24,-0.85,-0.29,18.0,2.0,0.0,4.0,2.0,1.0,0.0,0.0,27.17,0.39,
20.483,118.65412083702007,90.47423043454793,-3.27,-0.5,0.18,18.0,2.0,0.0,4.0,2.0,1.0,0.0,0.0,27.37,0.29,
20.507,118.60541208370199,90.43442304345481,-3.34,-0.44,-0.02,18.0,2.0,0.0,4.0,2.0,1.0,0.0,0.0,27.66,0.2,
20.532,118.6725412083702,90.41244230434548,-3.49,-0.62,-0.13,19.0,2.0,0.0,4.0,2.0,1.0,0.0,0.0,28.06,0.39,
20.556,118.74225412083702,90.44624423043454,-3.36,-1.3,-0.18,19.0,2.0,0.0,4.0,2.0,1.0,0.0,0.0,28.35,0.59,
20.581,118.7132254120837,90.41362442304344,-3.36,-1.54,-0.05,18.0,2.0,0.0,4.0,2.0,1.0,0.0,0.0,28.55,0.78,
20.605,118.68332254120838,90.42836244230436,-3.16,-1.46,0.06,19.0,2.0,0.0,4.0,2.0,1.0,0.0,0.0,28.55,0.78,
20.63,118.65333225412084,90.43883624423043,-2.95,-1.42,-0.2,19.0,2.0,0.0,4.0,2.0,1.0,0.0,0.0,28.65,0.49,
20.654,118.6503332254121,90.46688362442305,-2.89,-1.95,-0.08,19.0,2.0,0.0,4.0,2.0,1.0,0.0,0.0,28.65,0.29,
20.678,118.6320333225412,90.4516883624423,-3.11,-1.63,0.18,19.0,2.0,0.0,4.0,2.0,1.0,0.0,0.0,28.55,0.1,
20.703,118.60320333225411,90.47716883624423,-2.8,-1.58,0.08,19.0,2.0,0.0,4.0,2.0,1.0,0.0,0.0,28.25,0.0,
20.727,118.59132033322541,90.48871688362442,-2.94,-1.63,0.15,19.0,2.0,0.0,4.0,2.0,1.0,0.0,0.0,28.15,0.0,
20.752,118.56313203332255,90.47187168836244,-3.05,-2.09,-0.05,18.0,2.0,0.0,4.0,2.0,1.0,0.0,0.0,27.86,0.1,
20.776,118.50631320333225,90.43418716883626,-2.92,-1.82,0.05,18.0,2.0,0.0,4.0,2.0,1.0,0.0,0.0,27.66,0.1,
20.8,118.54563132033321,90.43041871688364,-2.84,-1.53,0.14,18.0,2.0,0.0,4.0,2.0,1.0,0.0,0.0,27.47,0.0,
20.825,118.59456313203331,90.43004187168837,-2.82,-1.39,0.07,18.0,2.0,0.0,4.0,2.0,1.0,0.0,0.0,27.37,0.0,
20.849,118.61745631320333,90.47500418716884,-2.85,-1.88,0.04,18.0,2.0,0.0,4.0,2.0,1.0,0.0,0.0,27.17,0.49,
20.874,118.59274563132034,90.49750041871688,-2.69,-2.07,-0.11,18.0,2.0,0.0,4.0,2.0,1.0,0.0,0.0,26.98,0.59,
20.898,118.59027456313204,90.49075004187169,-2.85,-1.72,0.05,18.0,2.0,0.0,4.0,2.0,1.0,0.0,0.0,26.68,0.88,
20.923,118.59002745631321,90.48107500418718,-3.09,-1.27,-0.08,18.0,2.0,0.0,4.0,2.0,1.0,0.0,0.0,26.68,0.69,
20.946,118.58100274563131,90.49810750041871,-2.95,-1.66,0.1,18.0,2.0,0.0,4.0,2.0,1.0,0.0,0.0,26.68,0.59,
20.971,118.58910027456314,90.54481075004188,-3.04,-1.1,-0.05,18.0,2.0,0.0,4.0,2.0,1.0,0.0,0.0,26.68,0.1,
20.996,118.4459100274563,90.6034810750042,-3.07,-1.57,0.01,18.0,2.0,0.0,4.0,2.0,1.0,0.0,94.67,26.78,0.78,
21.02,118.44959100274563,90.59134810750042,-3.02,-1.4,-0.06,18.0,2.0,0.0,4.0,2.0,1.0,0.0,0.0,26.88,0.2,
21.045,118.46795910027457,90.59013481075004,-3.02,-1.11,0.12,18.0,2.0,0.0,4.0,2.0,1.0,0.0,0.0,26.88,0.0,
21.069,118.46979591002746,90.57201348107499,-3.03,-1.44,-0.1,18.0,2.0,0.0,4.0,2.0,1.0,0.0,0.0,26.88,0.0,
21.094,118.46997959100275,90.6152013481075,-3.41,-1.52,0.0,18.0,2.0,0.0,4.0,2.0,1.0,0.0,0.0,26.88,0.1,
21.117,118.40699795910028,90.56552013481075,-3.61,-1.36,-0.16,18.0,2.0,0.0,4.0,2.0,1.0,0.0,0.0,26.88,0.2,
21.142,118.40969979591003,90.50655201348107,-3.28,-1.56,-0.15,18.0,2.0,0.0,4.0,2.0,1.0,0.0,0.0,26.88,0.0,
21.167,118.337969979591,90.45565520134811,-3.18,-1.34,0.05,18.0,2.0,0.0,4.0,2.0,1.0,0.0,0.0,26.78,0.0,
21.191,118.4387969979591,90.4685655201348,-3.34,-1.28,0.18,18.0,2.0,0.0,4.0,2.0,1.0,0.0,0.0,26.88,0.1,
21.216,118.43987969979591,90.46085655201348,-3.36,-1.21,0.01,18.0,2.0,0.0,4.0,2.0,1.0,0.0,0.0,26.78,0.49,
21.239,118.48498796997958,90.40608565520137,-3.26,-1.4,0.11,18.0,2.0,0.0,4.0,2.0,1.0,0.0,0.0,26.78,0.59,
21.264,118.55249879699797,90.39160856552013,-3.34,-1.87,-0.11,17.0,2.0,0.0,4.0,2.0,1.0,0.0,0.0,26.98,0.88,
21.288,118.56824987969979,90.41716085655202,-3.37,-1.68,0.13,18.0,2.0,0.0,4.0,2.0,1.0,0.0,0.0,26.98,1.77,
21.313,118.52482498796996,90.4197160856552,-3.19,-1.44,0.04,18.0,2.0,0.0,4.0,2.0,1.0,0.0,0.0,27.08,2.06,
21.338,118.56548249879698,90.42897160856553,-3.12,-1.22,0.15,18.0,2.0,0.0,4.0,2.0,1.0,0.0,0.0,27.17,2.26,
21.362,118.52454824987969,90.43889716085656,-3.17,-1.57,0.05,18.0,2.0,0.0,4.0,2.0,1.0,0.0,0.0,27.27,2.06,
21.386,118.51145482498796,90.43988971608566,-3.27,-1.66,-0.18,19.0,2.0,0.0,4.0,2.0,1.0,0.0,0.0,27.47,2.16,
21.41,118.5011454824988,90.40398897160858,-3.44,-1.65,-0.17,20.0,2.0,0.0,4.0,2.0,1.0,0.0,0.0,27.47,2.35,
21.435,118.51811454824987,90.36439889716085,-3.26,-1.54,-0.14,19.0,2.0,0.0,4.0,2.0,1.0,0.0,0.0,27.47,2.26,
21.459,118.59181145482498,90.35143988971608,-2.98,-1.53,0.21,19.0,2.0,0.0,4.0,2.0,1.0,0.0,0.0,27.57,0.98,
21.484,118.4371811454825,90.23314398897162,-2.87,-0.84,-0.42,19.0,2.0,0.0,4.0,2.0,1.0,0.0,0.0,27.57,0.0,
21.509,118.39471811454825,90.23031439889716,-3.16,-1.53,-0.11,19.0,2.0,0.0,4.0,2.0,1.0,0.0,0.0,27.57,0.88,
21.533,118.39047181145483,90.2660314398897,-3.44,-1.3,0.13,19.0,2.0,0.0,4.0,2.0,1.0,0.0,0.0,27.57,0.78,
21.557,118.42604718114548,90.25160314398897,-3.24,-1.57,0.07,19.0,2.0,0.0,5.0,2.0,1.0,0.0,0.0,27.57,1.08,
21.581,118.42960471811455,90.2141603143989,-3.22,-1.6,-0.11,19.0,2.0,0.0,5.0,2.0,1.0,0.0,0.0,27.76,1.08,
21.606,118.43896047181146,90.15641603143989,-3.33,-1.18,0.07,19.0,2.0,0.0,5.0,2.0,1.0,0.0,0.0,27.86,0.98,
21.63,118.49389604718115,90.20464160314398,-3.21,-1.47,-0.08,19.0,2.0,0.0,5.0,2.0,1.0,0.0,0.0,27.86,0.59,
21.655,118.45438960471812,90.2364641603144,-3.08,-1.59,-0.04,19.0,2.0,0.0,5.0,2.0,1.0,0.0,0.0,27.76,0.39,
21.68,118.47743896047182,90.23964641603143,-2.95,-1.72,0.21,19.0,2.0,0.0,5.0,2.0,1.0,0.0,0.0,27.76,0.39,
21.703,118.52474389604718,90.25796464160315,-2.79,-1.69,-0.3,19.0,2.0,0.0,5.0,2.0,1.0,0.0,0.0,27.96,0.39,
21.728,118.50247438960471,90.2957964641603,-2.89,-1.74,-0.01,19.0,2.0,0.0,5.0,2.0,1.0,0.0,0.0,27.86,0.49,
21.752,118.53624743896047,90.29057964641603,-3.18,-1.52,0.0,19.0,2.0,0.0,5.0,2.0,1.0,0.0,0.0,27.96,0.59,
21.777,118.44062474389605,90.27205796464159,-3.26,-1.77,0.0,19.0,2.0,0.0,5.0,2.0,1.0,0.0,0.0,27.86,0.69,
21.801,118.3770624743896,90.27920579646417,-3.08,-2.12,0.23,19.0,2.0,0.0,5.0,2.0,1.0,0.0,0.0,27.66,0.59,
21.826,118.35270624743896,90.31592057964642,-2.83,-1.8,-0.08,19.0,2.0,0.0,5.0,2.0,1.0,0.0,0.0,27.47,0.59,
21.85,118.3502706247439,90.35559205796464,-2.85,-1.83,-0.1,19.0,2.0,0.0,4.0,2.0,1.0,0.0,0.0,27.27,0.69,
21.874,118.34102706247438,90.36855920579647,-2.71,-1.94,0.15,18.0,2.0,0.0,4.0,2.0,1.0,0.0,0.0,27.08,0.88,
21.899,118.37610270624744,90.39685592057965,-2.93,-2.16,0.21,19.0,2.0,0.0,4.0,2.0,1.0,0.0,0.0,26.88,0.98,
21.923,118.35261027062474,90.41768559205796,-3.05,-2.03,-0.08,18.0,2.0,0.0,4.0,2.0,1.0,0.0,0.0,26.59,0.98,
21.948,118.25126102706247,90.4467685592058,-2.91,-1.65,-0.06,18.0,2.0,0.0,4.0,2.0,1.0,0.0,0.0,26.39,0.88,
21.972,118.28612610270626,90.44967685592059,-2.85,-1.61,0.25,17.0,2.0,0.0,4.0,2.0,1.0,0.0,0.0,26.19,0.59,
21.996,118.30761261027062,90.45896768559206,-3.05,-2.07,0.4,18.0,2.0,0.0,4.0,2.0,1.0,0.0,0.0,26.09,0.29,
22.021,118.31876126102706,90.4688967685592,-3.06,-2.41,0.31,17.0,2.0,0.0,4.0,2.0,1.0,0.0,0.0,25.7,0.2,
22.045,118.3198761261027,90.49688967685591,-3.17,-2.56,0.21,17.0,2.0,0.0,4.0,2.0,1.0,0.0,0.0,25.31,0.2,
22.07,118.22998761261026,90.49968896768559,-3.45,-1.61,-0.07,17.0,2.0,0.0,4.0,2.0,1.0,0.0,0.0,25.02,0.39,
22.094,118.16699876126101,90.48196889676856,-3.33,-1.67,0.19,17.0,2.0,0.0,4.0,2.0,1.0,0.0,0.0,24.72,0.59,
22.119,118.1786998761261,90.47119688967686,-3.02,-1.67,-0.09,17.0,2.0,0.0,4.0,2.0,1.0,0.0,0.0,24.52,0.59,
22.142,118.1888699876126,90.47911968896769,-3.18,-1.37,-0.26,18.0,2.0,0.0,4.0,2.0,1.0,0.0,0.0,24.52,0.39,
22.167,118.17188699876127,90.45291196889677,-2.93,-1.31,0.02,18.0,2.0,0.0,4.0,2.0,1.0,0.0,0.0,24.52,0.29,
