time,pitch,roll,gyrx,gyry,gyrz,f1,f2,f3,f4,f5,f6,f7,g1,g2,g3
0.337,338.49,338.49,0.0,0.0,0.0,0.0,0.0,0.0,0.0,0.0,0.0,0.0,0.1,0.0,0.0,
0.351,335.322,335.322,0.0,0.0,0.0,0.0,0.0,0.0,0.0,0.0,0.0,0.0,0.0,0.0,0.0,
0.363,332.3052,332.3052,0.0,0.0,0.0,0.0,0.0,0.0,0.0,0.0,0.0,0.0,0.0,0.0,0.0,
0.376,329.71752000000004,329.71752000000004,0.0,0.0,0.0,0.0,0.0,0.0,0.0,0.0,0.0,0.0,0.0,0.0,0.0,
0.389,327.505752,327.505752,0.0,0.0,0.0,0.0,0.0,0.0,0.0,0.0,0.0,0.0,0.0,0.0,0.0,
0.401,325.62857520000006,325.62857520000006,0.0,0.0,0.0,0.0,0.0,0.0,0.0,0.0,0.0,0.0,0.0,0.0,0.0,
0.414,324.03685752000007,324.03685752000007,0.0,0.0,0.0,0.0,0.0,0.0,0.0,0.0,0.0,0.0,0.0,0.0,0.0,
0.427,322.680685752,322.680685752,0.0,0.0,0.0,0.0,0.0,0.0,0.0,0.0,0.0,0.0,0.0,0.0,0.0,
0.44,321.5280685752,321.5280685752,0.0,0.0,0.0,0.0,0.0,0.0,0.0,0.0,0.0,0.0,0.1,0.0,0.0,
0.452,320.54880685752,320.54880685752,0.0,0.0,0.0,0.0,0.0,0.0,0.0,0.0,0.0,0.0,0.1,0.0,0.1,
0.465,319.712880685752,319.712880685752,0.0,0.0,0.0,0.0,0.0,0.0,0.0,0.0,0.0,0.0,0.1,0.0,0.0,
0.478,319.0082880685752,319.0082880685752,0.0,0.0,0.0,0.0,0.0,0.0,0.0,0.0,0.0,0.0,0.1,0.0,0.0,
0.491,318.4068288068575,318.4068288068575,0.0,0.0,0.0,0.0,0.0,0.0,0.0,0.0,0.0,0.0,0.1,0.0,0.0,
0.503,317.8966828806857,317.8966828806857,0.0,0.0,0.0,0.0,0.0,0.0,0.0,0.0,0.0,0.0,0.2,0.0,0.0,
0.517,317.4586682880686,317.4586682880686,0.0,0.0,0.0,0.0,0.0,0.0,0.0,0.0,0.0,0.0,0.1,0.0,0.0,
0.529,317.0908668288069,317.0908668288069,0.0,0.0,0.0,0.0,0.0,0.0,0.0,0.0,0.0,0.0,0.1,0.0,0.0,
0.542,316.7750866828807,316.7750866828807,0.0,0.0,0.0,0.0,0.0,0.0,0.0,0.0,0.0,0.0,0.0,0.0,0.0,
0.555,316.5095086682881,316.5095086682881,0.0,0.0,0.0,0.0,0.0,0.0,0.0,0.0,0.0,0.0,0.1,0.0,0.1,
0.567,316.2849508668288,316.2849508668288,0.0,0.0,0.0,0.0,0.0,0.0,0.0,0.0,0.0,0.0,0.1,0.0,0.0,
0.58,316.0914950866829,316.0914950866829,0.0,0.0,0.0,0.0,0.0,0.0,0.0,0.0,0.0,0.0,0.1,0.0,0.0,
0.592,315.9281495086683,315.9281495086683,0.0,0.0,0.0,0.0,0.0,0.0,0.0,0.0,0.0,0.0,0.2,0.0,0.0,
0.606,315.7858149508668,315.7858149508668,0.0,0.0,0.0,0.0,0.0,0.0,0.0,0.0,0.0,0.0,0.1,0.0,0.0,
0.618,315.6725814950867,315.6725814950867,0.0,0.0,0.0,0.0,0.0,0.0,0.0,0.0,0.0,0.0,0.1,0.0,0.0,
0.631,315.5712581495087,315.5712581495087,0.0,0.0,0.0,0.0,0.0,0.0,0.0,0.0,0.0,0.0,0.1,0.0,0.0,
0.644,315.48912581495085,315.48912581495085,0.0,0.0,0.0,0.0,0.0,0.0,0.0,0.0,0.0,0.0,0.1,0.0,0.0,
0.657,315.4089125814951,315.4089125814951,0.0,0.0,0.0,0.0,0.0,0.0,0.0,0.0,0.0,0.0,0.1,0.0,0.0,
0.669,315.34689125814947,315.34689125814947,0.0,0.0,0.0,0.0,0.0,0.0,0.0,0.0,0.0,0.0,0.1,0.0,0.0,
0.681,315.295689125815,315.295689125815,0.0,0.0,0.0,0.0,0.0,0.0,0.0,0.0,0.0,0.0,0.1,0.0,0.0,
0.695,315.25456891258153,315.25456891258153,0.0,0.0,0.0,0.0,0.0,0.0,0.0,0.0,0.0,0.0,0.1,0.0,0.0,
0.707,315.2144568912581,315.2144568912581,0.0,0.0,0.0,0.0,0.0,0.0,0.0,0.0,0.0,0.0,0.2,0.0,0.0,
0.72,315.18344568912585,315.18344568912585,0.0,0.0,0.0,0.0,0.0,0.0,0.0,0.0,0.0,0.0,0.2,0.0,0.0,
0.733,315.1533445689126,315.1533445689126,0.0,0.0,0.0,0.0,0.0,0.0,0.0,0.0,0.0,0.0,0.2,0.0,0.0,
0.746,315.1323344568913,315.1323344568913,0.0,0.0,0.0,0.0,0.0,0.0,0.0,0.0,0.0,0.0,0.2,0.0,0.0,
0.758,315.1122334456892,315.1122334456892,0.0,0.0,0.0,0.0,0.0,0.0,0.0,0.0,0.0,0.0,0.1,0.0,0.0,
0.772,315.0922233445689,315.0922233445689,0.0,0.0,0.0,0.0,0.0,0.0,0.0,0.0,0.0,0.0,0.1,0.0,0.0,
0.784,315.08122233445687,315.08122233445687,0.0,0.0,0.0,0.0,0.0,0.0,0.0,0.0,0.0,0.0,0.1,0.0,0.0,
0.796,315.0711222334457,315.0711222334457,0.0,0.0,0.0,0.0,0.0,0.0,0.0,0.0,0.0,0.0,0.1,0.0,0.0,
0.809,315.0611122233446,315.0611122233446,0.0,0.0,0.0,0.0,0.0,0.0,0.0,0.0,0.0,0.0,0.1,0.0,0.0,
0.823,315.0511112223345,315.0511112223345,0.0,0.0,0.0,0.0,0.0,0.0,0.0,0.0,0.0,0.0,0.1,0.0,0.0,
0.835,315.0411111222335,315.0411111222335,0.0,0.0,0.0,0.0,0.0,0.0,0.0,0.0,0.0,0.0,0.1,0.0,0.0,
0.847,315.04011111222337,315.04011111222337,0.0,0.0,0.0,0.0,0.0,0.0,0.0,0.0,0.0,0.0,0.1,0.0,0.0,
0.861,315.0310111112223,315.0310111112223,0.0,0.0,0.0,0.0,0.0,0.0,0.0,0.0,0.0,0.0,0.1,0.0,0.0,
0.873,315.03010111112224,315.03010111112224,0.0,0.0,0.0,0.0,0.0,0.0,0.0,0.0,0.0,0.0,0.1,0.0,0.1,
0.886,315.0210101111122,315.0210101111122,0.0,0.0,0.0,0.0,0.0,0.0,0.0,0.0,0.0,0.0,0.1,0.0,0.0,
0.899,315.0201010111112,315.0201010111112,0.0,0.0,0.0,0.0,0.0,0.0,0.0,0.0,0.0,0.0,0.1,0.0,0.0,
0.912,315.0200101011111,315.0200101011111,0.0,0.0,0.0,0.0,0.0,0.0,0.0,0.0,0.0,0.0,0.1,0.0,0.0,
0.924,315.0110010101111,315.0110010101111,0.0,0.0,0.0,0.0,0.0,0.0,0.0,0.0,0.0,0.0,0.0,0.0,0.0,
0.936,315.0101001010111,315.0101001010111,0.0,0.0,0.0,0.0,0.0,0.0,0.0,0.0,0.0,0.0,0.0,0.1,0.0,
0.95,315.0100100101011,315.0100100101011,0.0,0.0,0.0,0.0,0.0,0.0,0.0,0.0,0.0,0.0,0.1,0.1,0.0,
0.962,315.0100010010101,315.0100010010101,0.0,0.0,0.0,0.0,0.0,0.0,0.0,0.0,0.0,0.0,0.1,0.1,0.0,
0.975,315.010000100101,315.010000100101,0.0,0.0,0.0,0.0,0.0,0.0,0.0,0.0,0.0,0.0,0.0,0.0,0.0,
0.988,315.0100000100101,315.0100000100101,0.0,0.0,0.0,0.0,0.0,0.0,0.0,0.0,0.0,0.0,0.0,0.0,0.0,
1.001,315.010000001001,315.010000001001,0.0,0.0,0.0,0.0,0.0,0.0,0.0,0.0,0.0,0.0,0.0,0.0,0.0,
1.013,315.0010000001001,315.0010000001001,0.0,0.0,0.0,0.0,0.0,0.0,0.0,0.0,0.0,0.0,0.0,0.0,0.0,
1.027,315.00010000001,315.00010000001,0.0,0.0,0.0,0.0,0.0,0.0,0.0,0.0,0.0,0.0,0.0,0.0,0.0,
1.039,315.000010000001,315.000010000001,0.0,0.0,0.0,0.0,0.0,0.0,0.0,0.0,0.0,0.0,0.1,0.0,0.0,
1.052,315.0000010000001,315.0000010000001,0.0,0.0,0.0,0.0,0.0,0.0,0.0,0.0,0.0,0.0,0.0,0.0,0.0,
1.064,315.0000001,315.0000001,0.0,0.0,0.0,0.0,0.0,0.0,0.0,0.0,0.0,0.0,0.0,0.0,0.0,
1.077,315.00000001,315.00000001,0.0,0.0,0.0,0.0,0.0,0.0,0.0,0.0,0.0,0.0,0.0,0.0,0.0,
1.09,315.000000001,315.000000001,0.0,0.0,0.0,0.0,0.0,0.0,0.0,0.0,0.0,0.0,0.0,0.0,0.0,
1.102,315.0000000001,315.0000000001,0.0,0.0,0.0,0.0,0.0,0.0,0.0,0.0,0.0,0.0,0.1,0.0,0.0,
1.116,315.00000000001,315.00000000001,0.0,0.0,0.0,0.0,0.0,0.0,0.0,0.0,0.0,0.0,0.1,0.0,0.0,
1.128,315.000000000001,315.000000000001,0.0,0.0,0.0,0.0,0.0,0.0,0.0,0.0,0.0,0.0,0.0,0.0,0.0,
1.141,315.0000000000001,315.0000000000001,0.0,0.0,0.0,0.0,0.0,0.0,0.0,0.0,0.0,0.0,0.0,0.0,0.0,
1.154,315.0,315.0,0.0,0.0,0.0,0.0,0.0,0.0,0.0,0.0,0.0,0.0,0.0,0.0,0.0,
1.167,315.0,315.0,0.0,0.0,0.0,0.0,0.0,0.0,0.0,0.0,0.0,0.0,0.0,0.0,0.0,
1.179,315.0,315.0,0.0,0.0,0.0,0.0,0.0,0.0,0.0,0.0,0.0,0.0,0.0,0.0,0.0,
1.191,315.0,315.0,0.0,0.0,0.0,0.0,0.0,0.0,0.0,0.0,0.0,0.0,0.0,0.0,0.0,
1.205,315.0,315.0,0.0,0.0,0.0,0.0,0.0,0.0,0.0,0.0,0.0,0.0,0.0,0.0,0.0,
1.217,315.0,315.0,0.0,0.0,0.0,0.0,0.0,0.0,0.0,0.0,0.0,0.0,0.0,0.0,0.0,
1.23,315.0,315.0,0.0,0.0,0.0,0.0,0.0,0.0,0.0,0.0,0.0,0.0,0.0,0.0,0.0,
1.243,315.0,315.0,0.0,0.0,0.0,0.0,0.0,0.0,0.0,0.0,0.0,0.0,0.1,0.0,0.0,
1.256,315.0,315.0,0.0,0.0,0.0,0.0,0.0,0.0,0.0,0.0,0.0,0.0,0.0,0.0,0.0,
1.268,315.0,315.0,0.0,0.0,0.0,0.0,0.0,0.0,0.0,0.0,0.0,0.0,0.1,0.0,0.0,
1.282,315.0,315.0,0.0,0.0,0.0,0.0,0.0,0.0,0.0,0.0,0.0,0.0,0.0,0.0,0.0,
1.294,315.0,315.0,0.0,0.0,0.0,0.0,0.0,0.0,0.0,0.0,0.0,0.0,0.0,0.0,0.0,
1.307,315.0,315.0,0.0,0.0,0.0,0.0,0.0,0.0,0.0,0.0,0.0,0.0,0.0,0.0,0.0,
1.319,315.0,315.0,0.0,0.0,0.0,0.0,0.0,0.0,0.0,0.0,0.0,0.0,0.0,0.0,0.0,
1.332,315.0,315.0,0.0,0.0,0.0,0.0,0.0,0.0,0.0,0.0,0.0,0.0,0.0,0.0,0.0,
1.345,315.0,315.0,0.0,0.0,0.0,0.0,0.0,0.0,0.0,0.0,0.0,0.0,0.0,0.0,0.0,
1.357,315.0,315.0,0.0,0.0,0.0,0.0,0.0,0.0,0.0,0.0,0.0,0.0,0.0,0.0,0.0,
1.371,315.0,315.0,0.0,0.0,0.0,0.0,0.0,0.0,0.0,0.0,0.0,0.0,0.0,0.0,0.0,
1.383,315.0,315.0,0.0,0.0,0.0,0.0,0.0,0.0,0.0,0.0,0.0,0.0,0.1,0.0,0.0,
1.396,315.0,315.0,0.0,0.0,0.0,0.0,0.0,0.0,0.0,0.0,0.0,0.0,0.0,0.0,0.0,
1.409,315.0,315.0,0.0,0.0,0.0,0.0,0.0,0.0,0.0,0.0,0.0,0.0,0.0,0.0,0.1,
1.422,315.0,315.0,0.0,0.0,0.0,0.0,0.0,0.0,0.0,0.0,0.0,0.0,0.0,0.0,0.1,
1.434,315.0,315.0,0.0,0.0,0.0,0.0,0.0,0.0,0.0,0.0,0.0,0.0,0.1,0.0,0.0,
1.446,315.0,315.0,0.0,0.0,0.0,0.0,0.0,0.0,0.0,0.0,0.0,0.0,0.0,0.0,0.0,
1.46,315.0,315.0,0.0,0.0,0.0,0.0,0.0,0.0,0.0,0.0,0.0,0.0,0.0,0.0,0.1,
1.472,315.0,315.0,0.0,0.0,0.0,0.0,0.0,0.0,0.0,0.0,0.0,0.0,0.0,0.0,0.0,
1.485,315.0,315.0,0.0,0.0,0.0,0.0,0.0,0.0,0.0,0.0,0.0,0.0,0.0,0.0,0.0,
1.498,315.0,315.0,0.0,0.0,0.0,0.0,0.0,0.0,0.0,0.0,0.0,0.0,0.0,0.0,0.0,
1.511,315.0,315.0,0.0,0.0,0.0,0.0,0.0,0.0,0.0,0.0,0.0,0.0,0.0,0.0,0.0,
1.523,315.0,315.0,0.0,0.0,0.0,0.0,0.0,0.0,0.0,0.0,0.0,0.0,0.0,0.0,0.0,
1.537,315.0,315.0,0.0,0.0,0.0,0.0,0.0,0.0,0.0,0.0,0.0,0.0,0.0,0.0,0.0,
1.549,315.0,315.0,0.0,0.0,0.0,0.0,0.0,0.0,0.0,0.0,0.0,0.0,0.0,0.0,0.0,
1.562,315.0,315.0,0.0,0.0,0.0,0.0,0.0,0.0,0.0,0.0,0.0,0.0,0.0,0.0,0.0,
1.574,315.0,315.0,0.0,0.0,0.0,0.0,0.0,0.0,0.0,0.0,0.0,0.0,0.0,0.0,0.0,
1.587,315.0,315.0,0.0,0.0,0.0,0.0,0.0,0.0,0.0,0.0,0.0,0.0,0.0,0.0,0.0,
1.6,315.0,315.0,0.0,0.0,0.0,0.0,0.0,0.0,0.0,0.0,0.0,0.0,0.0,0.0,0.0,
1.612,315.0,315.0,0.0,0.0,0.0,0.0,0.0,0.0,0.0,0.0,0.0,0.0,0.0,0.0,0.0,
1.626,315.0,315.0,0.0,0.0,0.0,0.0,0.0,0.0,0.0,0.0,0.0,0.0,0.0,0.0,0.0,
1.638,315.0,315.0,0.0,0.0,0.0,0.0,0.0,0.0,0.0,0.0,0.0,0.0,0.0,0.0,0.0,
1.651,315.0,315.0,0.0,0.0,0.0,0.0,0.0,0.0,0.0,0.0,0.0,0.0,0.0,0.0,0.0,
1.664,315.0,315.0,0.0,0.0,0.0,0.0,0.0,0.0,0.0,0.0,0.0,0.0,0.0,0.0,0.0,
1.677,315.0,315.0,0.0,0.0,0.0,0.0,0.0,0.0,0.0,0.0,0.0,0.0,0.0,0.0,0.1,
1.689,315.0,315.0,0.0,0.0,0.0,0.0,0.0,0.0,0.0,0.0,0.0,0.0,0.0,0.0,0.0,
1.702,315.0,315.0,0.0,0.0,0.0,0.0,0.0,0.0,0.0,0.0,0.0,0.0,0.0,0.0,0.0,
1.715,315.0,315.0,0.0,0.0,0.0,0.0,0.0,0.0,0.0,0.0,0.0,0.0,0.0,0.0,0.0,
1.727,315.0,315.0,0.0,0.0,0.0,0.0,0.0,0.0,0.0,0.0,0.0,0.0,0.0,0.0,0.1,
1.74,315.0,315.0,0.0,0.0,0.0,0.0,0.0,0.0,0.0,0.0,0.0,0.0,0.0,0.0,0.1,
1.753,315.0,315.0,0.0,0.0,0.0,0.0,0.0,0.0,0.0,0.0,0.0,0.0,0.0,0.0,0.0,
1.766,315.0,315.0,0.0,0.0,0.0,0.0,0.0,0.0,0.0,0.0,0.0,0.0,0.0,0.0,0.0,
1.778,315.0,315.0,0.0,0.0,0.0,0.0,0.0,0.0,0.0,0.0,0.0,0.0,0.0,0.0,0.0,
1.792,315.0,315.0,0.0,0.0,0.0,0.0,0.0,0.0,0.0,0.0,0.0,0.0,0.0,0.0,0.0,
1.804,315.0,315.0,0.0,0.0,0.0,0.0,0.0,0.0,0.0,0.0,0.0,0.0,0.0,0.0,0.0,
1.817,315.0,315.0,0.0,0.0,0.0,0.0,0.0,0.0,0.0,0.0,0.0,0.0,0.0,0.0,0.1,
1.829,315.0,315.0,0.0,0.0,0.0,0.0,0.0,0.0,0.0,0.0,0.0,0.0,0.0,0.0,0.0,
1.842,315.0,315.0,0.0,0.0,0.0,0.0,0.0,0.0,0.0,0.0,0.0,0.0,0.0,0.0,0.0,
1.855,315.0,315.0,0.0,0.0,0.0,0.0,0.0,0.0,0.0,0.0,0.0,0.0,0.0,0.0,0.1,
1.867,315.0,315.0,0.0,0.0,0.0,0.0,0.0,0.0,0.0,0.0,0.0,0.0,0.0,0.0,0.1,
1.881,315.0,315.0,0.0,0.0,0.0,0.0,0.0,0.0,0.0,0.0,0.0,0.0,0.0,0.0,0.0,
1.893,315.0,315.0,0.0,0.0,0.0,0.0,0.0,0.0,0.0,0.0,0.0,0.0,0.0,0.0,0.1,
1.906,315.0,315.0,0.0,0.0,0.0,0.0,0.0,0.0,0.0,0.0,0.0,0.0,0.0,0.0,0.1,
1.918,315.0,315.0,0.0,0.0,0.0,0.0,0.0,0.0,0.0,0.0,0.0,0.0,0.0,0.0,0.0,
1.932,315.0,315.0,0.0,0.0,0.0,0.0,0.0,0.0,0.0,0.0,0.0,0.0,0.0,0.0,0.1,
1.944,315.0,315.0,0.0,0.0,0.0,0.0,0.0,0.0,0.0,0.0,0.0,0.0,0.0,0.0,0.1,
1.957,315.0,315.0,0.0,0.0,0.0,0.0,0.0,0.0,0.0,0.0,0.0,0.0,0.0,0.0,0.0,
1.97,315.0,315.0,0.0,0.0,0.0,0.0,0.0,0.0,0.0,0.0,0.0,0.0,0.0,0.0,0.1,
1.982,315.0,315.0,0.0,0.0,0.0,0.0,0.0,0.0,0.0,0.0,0.0,0.0,0.1,0.0,0.1,
1.995,315.0,315.0,0.0,0.0,0.0,0.0,0.0,0.0,0.0,0.0,0.0,0.0,0.1,0.0,0.0,
2.008,315.0,315.0,0.0,0.0,0.0,0.0,0.0,0.0,0.0,0.0,0.0,0.0,0.0,0.0,0.1,
2.021,315.0,315.0,0.0,0.0,0.0,0.0,0.0,0.0,0.0,0.0,0.0,0.0,0.0,0.0,0.1,
2.033,315.0,315.0,0.0,0.0,0.0,0.0,0.0,0.0,0.0,0.0,0.0,0.0,0.0,0.0,0.1,
2.046,315.0,315.0,0.0,0.0,0.0,0.0,0.0,0.0,0.0,0.0,0.0,0.0,0.0,0.0,0.2,
2.059,315.0,315.0,0.0,0.0,0.0,0.0,0.0,0.0,0.0,0.0,0.0,0.0,0.1,0.0,0.1,
2.072,315.0,315.0,0.0,0.0,0.0,0.0,0.0,0.0,0.0,0.0,0.0,0.0,0.1,0.0,0.1,
2.084,315.0,315.0,0.0,0.0,0.0,0.0,0.0,0.0,0.0,0.0,0.0,0.0,0.1,0.0,0.2,
2.097,315.0,315.0,0.0,0.0,0.0,0.0,0.0,0.0,0.0,0.0,0.0,0.0,0.2,0.0,0.2,
2.11,315.0,315.0,0.0,0.0,0.0,0.0,0.0,0.0,0.0,0.0,0.0,0.0,0.39,0.0,0.29,
2.122,315.0,315.0,0.0,0.0,0.0,0.0,0.0,0.0,0.0,0.0,0.0,0.0,0.39,0.0,0.2,
2.136,315.0,315.0,0.0,0.0,0.0,0.0,0.0,0.0,0.0,0.0,0.0,0.0,0.39,0.0,0.2,
2.148,315.0,315.0,0.0,0.0,0.0,0.0,0.0,0.0,0.0,0.0,0.0,0.0,0.29,0.0,0.1,
2.161,315.0,315.0,0.0,0.0,0.0,0.0,0.0,0.0,0.0,0.0,0.0,0.0,0.39,0.0,0.1,
2.173,315.0,315.0,0.0,0.0,0.0,0.0,0.0,0.0,0.0,0.0,0.0,0.0,0.29,0.0,0.1,
2.187,315.0,315.0,0.0,0.0,0.0,0.0,0.0,0.0,0.0,0.0,0.0,0.0,0.29,0.0,0.2,
2.199,315.0,315.0,0.0,0.0,0.0,0.0,0.0,0.0,0.0,0.0,0.0,0.0,0.39,0.0,0.1,
2.212,315.0,315.0,0.0,0.0,0.0,0.0,0.0,0.0,0.0,0.0,0.0,0.0,0.49,0.0,0.1,
2.225,315.0,315.0,0.0,0.0,0.0,0.0,0.0,0.0,0.0,0.0,0.0,0.0,0.49,0.0,0.1,
2.237,315.0,315.0,0.0,0.0,0.0,0.0,0.0,0.0,0.0,0.0,0.0,0.0,0.49,0.0,0.1,
2.25,315.0,315.0,0.0,0.0,0.0,0.0,0.0,0.0,0.0,0.0,0.0,0.0,0.39,0.0,0.1,
2.263,315.0,315.0,0.0,0.0,0.0,0.0,0.0,0.0,0.0,0.0,0.0,0.0,0.49,0.0,0.1,
2.276,315.0,315.0,0.0,0.0,0.0,0.0,0.0,0.0,0.0,0.0,0.0,0.0,0.49,0.0,0.1,
2.288,315.0,315.0,0.0,0.0,0.0,0.0,0.0,0.0,0.0,0.0,0.0,0.0,0.49,0.0,0.1,
2.301,315.0,315.0,0.0,0.0,0.0,0.0,0.0,0.0,0.0,0.0,0.0,0.0,0.49,0.0,0.1,
2.314,315.0,315.0,0.0,0.0,0.0,0.0,0.0,0.0,0.0,0.0,0.0,0.0,0.49,0.0,0.2,
2.327,315.0,315.0,0.0,0.0,0.0,0.0,0.0,0.0,0.0,0.0,0.0,0.0,0.49,0.0,0.2,
2.339,315.0,315.0,0.0,0.0,0.0,0.0,0.0,0.0,0.0,0.0,0.0,0.0,0.39,0.0,0.1,
2.353,315.0,315.0,0.0,0.0,0.0,0.0,0.0,0.0,0.0,0.0,0.0,0.0,0.39,0.0,0.1,
2.365,315.0,315.0,0.0,0.0,0.0,0.0,0.0,0.0,0.0,0.0,0.0,0.0,0.39,0.0,0.2,
2.377,315.0,315.0,0.0,0.0,0.0,0.0,0.0,0.0,0.0,0.0,0.0,0.0,0.39,0.0,0.2,
2.391,315.0,315.0,0.0,0.0,0.0,0.0,0.0,0.0,0.0,0.0,0.0,0.0,0.39,0.0,0.1,
2.403,315.0,315.0,0.0,0.0,0.0,0.0,0.0,0.0,0.0,0.0,0.0,0.0,0.39,0.0,0.2,
2.416,315.0,315.0,0.0,0.0,0.0,0.0,0.0,0.0,0.0,0.0,0.0,0.0,0.39,0.0,0.2,
2.428,315.0,315.0,0.0,0.0,0.0,0.0,0.0,0.0,0.0,0.0,0.0,0.0,0.39,0.0,0.1,
2.442,315.0,315.0,0.0,0.0,0.0,0.0,0.0,0.0,0.0,0.0,0.0,0.0,0.39,0.0,0.1,
2.454,315.0,315.0,0.0,0.0,0.0,0.0,0.0,0.0,0.0,0.0,0.0,0.0,0.39,0.0,0.1,
2.467,315.0,315.0,0.0,0.0,0.0,0.0,0.0,0.0,0.0,0.0,0.0,0.0,0.39,0.0,0.2,
2.48,315.0,315.0,0.0,0.0,0.0,0.0,0.0,0.0,0.0,0.0,0.0,0.0,0.39,0.0,0.29,
2.492,315.0,315.0,0.0,0.0,0.0,0.0,0.0,0.0,0.0,0.0,0.0,0.0,0.49,0.0,0.29,
2.505,315.0,315.0,0.0,0.0,0.0,0.0,0.0,0.0,0.0,0.0,0.0,0.0,0.49,0.0,0.29,
2.518,315.0,315.0,0.0,0.0,0.0,0.0,0.0,0.0,0.0,0.0,0.0,0.0,0.49,0.0,0.2,
2.531,315.0,315.0,0.0,0.0,0.0,0.0,0.0,0.0,0.0,0.0,0.0,0.0,0.49,0.0,0.29,
2.543,315.0,315.0,0.0,0.0,0.0,0.0,0.0,0.0,0.0,0.0,0.0,0.0,0.39,0.0,0.29,
2.556,315.0,315.0,0.0,0.0,0.0,0.0,0.0,0.0,0.0,0.0,0.0,0.0,0.39,0.0,0.29,
2.569,315.0,315.0,0.0,0.0,0.0,0.0,0.0,0.0,0.0,0.0,0.0,0.0,0.39,0.0,0.29,
2.582,315.0,315.0,0.0,0.0,0.0,0.0,0.0,0.0,0.0,0.0,0.0,0.0,0.39,0.0,0.29,
2.594,315.0,315.0,0.0,0.0,0.0,0.0,0.0,0.0,0.0,0.0,0.0,0.0,0.39,0.0,0.2,
2.608,315.0,315.0,0.0,0.0,0.0,0.0,0.0,0.0,0.0,0.0,0.0,0.0,0.29,0.0,0.2,
2.62,315.0,315.0,0.0,0.0,0.0,0.0,0.0,0.0,0.0,0.0,0.0,0.0,0.29,0.0,0.29,
2.632,315.0,315.0,0.0,0.0,0.0,0.0,0.0,0.0,0.0,0.0,0.0,0.0,0.39,0.0,0.29,
2.646,315.0,315.0,0.0,0.0,0.0,0.0,0.0,0.0,0.0,0.0,0.0,0.0,0.29,0.0,0.29,
2.658,315.0,315.0,0.0,0.0,0.0,0.0,0.0,0.0,0.0,0.0,0.0,0.0,0.2,0.0,0.39,
2.671,315.0,315.0,0.0,0.0,0.0,0.0,0.0,0.0,0.0,0.0,0.0,0.0,0.2,0.0,0.39,
2.683,315.0,315.0,0.0,0.0,0.0,0.0,0.0,0.0,0.0,0.0,0.0,0.0,0.2,0.0,0.39,
2.697,315.0,315.0,0.0,0.0,0.0,0.0,0.0,0.0,0.0,0.0,0.0,0.0,0.2,0.0,0.39,
2.709,315.0,315.0,0.0,0.0,0.0,0.0,0.0,0.0,0.0,0.0,0.0,0.0,0.1,0.0,0.39,
2.722,315.0,315.0,0.0,0.0,0.0,0.0,0.0,0.0,0.0,0.0,0.0,0.0,0.1,0.0,0.29,
2.735,315.0,315.0,0.0,0.0,0.0,0.0,0.0,0.0,0.0,0.0,0.0,0.0,0.1,0.0,0.29,
2.748,315.0,315.0,0.0,0.0,0.0,0.0,0.0,0.0,0.0,0.0,0.0,0.0,0.2,0.0,0.29,
2.76,315.0,315.0,0.0,0.0,0.0,0.0,0.0,0.0,0.0,0.0,0.0,0.0,0.2,0.0,0.49,
2.772,315.0,315.0,0.0,0.0,0.0,0.0,0.0,0.0,0.0,0.0,0.0,0.0,0.29,0.0,0.49,
2.786,315.0,315.0,0.0,0.0,0.0,0.0,0.0,0.0,0.0,0.0,0.0,0.0,1.08,0.0,0.49,
2.798,315.0,315.0,0.0,0.0,0.0,0.0,0.0,0.0,0.0,0.0,0.0,0.0,1.86,0.0,0.49,
2.811,315.0,315.0,0.0,0.0,0.0,0.0,0.0,0.0,0.0,0.0,0.0,0.0,2.26,0.0,0.29,
2.824,315.0,315.0,0.0,0.0,0.0,0.0,0.0,0.0,0.0,0.0,0.0,0.0,3.14,0.0,0.29,
2.837,315.0,315.0,0.0,0.0,0.0,0.0,0.0,0.0,0.0,0.0,0.0,0.0,3.92,0.0,0.2,
2.849,315.0,315.0,0.0,0.0,0.0,0.0,0.0,0.0,0.0,0.0,0.0,0.0,4.61,0.0,0.0,
2.863,315.0,315.0,0.0,0.0,0.0,0.0,0.0,0.0,0.0,0.0,0.0,0.0,5.2,0.0,0.0,
2.875,315.0,315.0,0.0,0.0,0.0,0.0,0.0,0.0,0.0,0.0,0.0,0.0,5.69,0.0,0.0,
2.888,315.0,315.0,0.0,0.0,0.0,0.0,0.0,0.0,0.0,0.0,0.0,0.0,6.08,0.29,0.0,
2.9,315.0,315.0,0.0,0.0,0.0,0.0,0.0,0.0,0.0,0.0,0.0,0.0,6.38,0.69,0.0,
2.914,315.0,315.0,0.0,0.0,0.0,0.0,0.0,0.0,0.0,0.0,0.0,0.0,6.38,0.88,0.0,
2.926,315.0,315.0,0.0,0.0,0.0,0.0,0.0,0.0,0.0,0.0,0.0,0.0,6.28,0.88,0.0,
2.939,315.0,315.0,0.0,0.0,0.0,0.0,0.0,0.0,0.0,0.0,0.0,0.0,6.08,0.69,0.0,
2.952,315.0,315.0,0.0,0.0,0.0,0.0,0.0,0.0,0.0,0.0,0.0,0.0,5.79,0.59,0.0,
2.965,315.0,315.0,0.0,0.0,0.0,0.0,0.0,0.0,0.0,0.0,0.0,0.0,5.79,0.49,0.0,
2.977,315.0,315.0,0.0,0.0,0.0,0.0,1.0,0.0,1.0,1.0,0.0,0.0,5.89,0.49,0.0,
2.991,315.0,315.0,0.0,0.0,0.0,0.0,1.0,0.0,1.0,1.0,0.0,0.0,5.98,0.59,0.0,
3.003,315.0,315.0,0.0,0.0,0.0,0.0,1.0,0.0,1.0,1.0,0.0,0.0,6.38,0.69,0.0,
3.016,315.0,315.0,0.0,0.0,0.0,0.0,1.0,0.0,1.0,1.0,0.0,0.0,6.67,2.65,0.0,
3.028,315.0,315.0,0.0,0.0,0.0,0.0,1.0,0.0,1.0,1.0,0.0,0.0,6.97,4.12,0.0,
3.042,315.0,315.0,0.0,0.0,0.0,0.0,1.0,0.0,1.0,2.0,0.0,0.0,7.36,5.3,0.0,
3.054,315.0,315.0,0.0,0.0,0.0,0.0,1.0,0.0,1.0,2.0,0.0,0.0,7.65,5.69,0.0,
3.067,315.0,315.0,0.0,0.0,0.0,0.0,1.0,0.0,1.0,2.0,0.0,0.0,7.85,5.79,0.0,
3.08,315.0,315.0,0.0,0.0,0.0,0.0,1.0,0.0,1.0,2.0,0.0,0.0,7.95,5.89,0.0,
3.093,315.0,315.0,0.0,0.0,0.0,0.0,1.0,0.0,1.0,2.0,0.0,0.0,8.14,5.89,0.0,
3.105,315.0,315.0,0.0,0.0,0.0,0.0,1.0,0.0,1.0,2.0,0.0,0.0,8.34,6.28,0.0,
3.118,315.0,315.0,0.0,0.0,0.0,0.0,1.0,0.0,1.0,2.0,0.0,0.0,8.53,6.38,0.0,
3.131,315.0,315.0,0.0,0.0,0.0,0.0,1.0,0.0,1.0,2.0,0.0,0.0,8.63,6.47,0.0,
3.143,315.0,315.0,0.0,0.0,0.0,0.0,1.0,0.0,1.0,3.0,0.0,0.0,8.83,6.47,0.0,
3.156,315.0,315.0,0.0,0.0,0.0,0.0,1.0,0.0,1.0,3.0,0.0,0.0,9.03,6.67,0.0,
3.169,315.0,315.0,0.0,0.0,0.0,0.0,1.0,0.0,1.0,3.0,0.0,0.0,9.22,6.67,0.0,
3.182,315.0,315.0,0.0,0.0,0.0,1.0,2.0,0.0,1.0,3.0,0.0,0.0,9.61,6.87,0.0,
3.194,315.0,315.0,0.0,0.0,0.0,1.0,2.0,1.0,1.0,3.0,0.0,0.0,10.1,7.06,0.0,
3.208,315.0,315.0,0.0,0.0,0.0,1.0,2.0,1.0,1.0,3.0,0.0,0.0,10.3,7.26,0.0,
3.22,315.0,315.0,0.0,0.0,0.0,1.0,2.0,1.0,1.0,3.0,0.0,0.0,10.4,7.46,0.0,
3.233,315.0,315.0,0.0,0.0,0.0,1.0,2.0,1.0,1.0,3.0,0.0,0.0,10.4,7.46,0.0,
3.246,315.0,315.0,0.0,0.0,0.0,1.0,2.0,1.0,1.0,3.0,0.0,0.0,10.4,7.46,0.0,
3.259,315.0,315.0,0.0,0.0,0.0,1.0,2.0,1.0,1.0,3.0,0.0,0.0,10.5,7.65,0.0,
3.271,315.0,315.0,0.0,0.0,0.0,1.0,2.0,1.0,1.0,3.0,0.0,0.0,10.5,7.85,0.0,
3.284,315.0,315.0,0.0,0.0,0.0,1.0,2.0,1.0,1.0,3.0,0.0,0.0,10.69,8.04,0.0,
3.297,315.0,315.0,0.0,0.0,0.0,1.0,2.0,1.0,1.0,3.0,0.0,0.0,10.69,8.04,0.0,
3.31,315.0,315.0,0.0,0.0,0.0,1.0,2.0,1.0,1.0,3.0,0.0,0.0,10.79,7.95,0.0,
3.323,315.0,315.0,0.0,0.0,0.0,1.0,2.0,1.0,1.0,3.0,0.0,0.0,10.79,8.04,0.0,
3.336,315.0,315.0,0.0,0.0,0.0,1.0,2.0,1.0,1.0,3.0,0.0,0.0,10.79,8.14,0.0,
3.349,315.0,315.0,0.0,0.0,0.0,1.0,2.0,1.0,1.0,3.0,0.0,0.0,10.79,8.34,0.0,
3.361,315.0,315.0,0.0,0.0,0.0,1.0,2.0,1.0,1.0,3.0,0.0,0.0,10.79,8.34,0.0,
3.375,315.0,315.0,0.0,0.0,0.0,1.0,2.0,1.0,1.0,3.0,0.0,0.0,10.89,8.34,0.0,
3.387,315.0,315.0,0.0,0.0,0.0,1.0,2.0,1.0,1.0,3.0,0.0,0.0,10.79,8.44,0.0,
3.4,315.0,315.0,0.0,0.0,0.0,1.0,2.0,1.0,1.0,3.0,0.0,0.0,10.79,8.63,0.0,
3.412,315.0,315.0,0.0,0.0,0.0,1.0,2.0,1.0,1.0,3.0,0.0,0.0,10.79,8.63,0.0,
3.426,315.0,315.0,0.0,0.0,0.0,1.0,2.0,1.0,1.0,3.0,0.0,0.0,10.79,8.63,0.0,
3.438,315.0,315.0,0.0,0.0,0.0,1.0,2.0,1.0,1.0,3.0,0.0,0.0,10.79,8.63,0.0,
3.451,315.0,315.0,0.0,0.0,0.0,1.0,2.0,1.0,1.0,3.0,0.0,0.0,10.79,8.63,0.0,
3.464,315.0,315.0,0.0,0.0,0.0,1.0,2.0,1.0,1.0,3.0,0.0,0.0,10.79,8.63,0.0,
3.477,315.0,315.0,0.0,0.0,0.0,1.0,2.0,1.0,1.0,3.0,0.0,0.0,10.69,8.44,0.0,
3.489,315.0,315.0,0.0,0.0,0.0,1.0,2.0,1.0,1.0,3.0,0.0,0.0,10.69,8.24,0.0,
3.503,315.0,315.0,0.0,0.0,0.0,1.0,2.0,1.0,1.0,3.0,0.0,0.0,10.79,8.14,0.0,
3.516,315.0,315.0,0.0,0.0,0.0,1.0,2.0,1.0,1.0,3.0,0.0,0.0,10.69,7.95,0.0,
3.528,315.0,315.0,0.0,0.0,0.0,1.0,2.0,1.0,1.0,3.0,0.0,0.0,10.69,7.85,0.0,
3.542,315.0,315.0,0.0,0.0,0.0,1.0,2.0,1.0,1.0,3.0,0.0,0.0,10.69,7.65,0.0,
3.554,315.0,315.0,0.0,0.0,0.0,1.0,2.0,1.0,1.0,3.0,0.0,0.0,10.69,7.65,0.0,
3.567,315.0,315.0,0.0,0.0,0.0,1.0,2.0,1.0,1.0,3.0,0.0,0.0,10.59,7.36,0.0,
3.579,315.0,315.0,0.0,0.0,0.0,1.0,2.0,1.0,1.0,3.0,0.0,0.0,10.5,7.16,0.0,
3.593,315.0,315.0,0.0,0.0,0.0,1.0,2.0,1.0,1.0,3.0,0.0,0.0,10.5,6.97,0.0,
3.605,315.0,315.0,0.0,0.0,0.0,1.0,2.0,1.0,1.0,3.0,0.0,0.0,10.5,6.87,0.0,
3.618,315.0,315.0,0.0,0.0,0.0,1.0,2.0,1.0,1.0,3.0,0.0,0.0,10.4,6.67,0.0,
3.631,315.0,315.0,0.0,0.0,0.0,1.0,2.0,1.0,1.0,3.0,0.0,0.0,10.5,6.57,0.0,
3.644,315.0,315.0,0.0,0.0,0.0,1.0,2.0,1.0,1.0,3.0,0.0,0.0,10.4,6.38,0.0,
3.656,315.0,315.0,0.0,0.0,0.0,1.0,2.0,1.0,1.0,3.0,0.0,0.0,10.2,6.28,0.0,
3.67,315.0,315.0,0.0,0.0,0.0,1.0,2.0,1.0,1.0,3.0,0.0,0.0,10.2,6.18,0.0,
3.682,315.0,315.0,0.0,0.0,0.0,1.0,2.0,1.0,1.0,3.0,0.0,0.0,10.1,6.08,0.0,
3.695,315.0,315.0,0.0,0.0,0.0,1.0,2.0,1.0,1.0,3.0,0.0,0.0,10.1,5.98,0.0,
3.708,315.0,315.0,0.0,0.0,0.0,1.0,2.0,1.0,1.0,3.0,0.0,0.0,10.01,6.08,0.0,
3.721,315.0,315.0,0.0,0.0,0.0,1.0,2.0,1.0,1.0,3.0,0.0,0.0,9.81,6.08,0.0,
3.734,315.0,315.0,0.0,0.0,0.0,1.0,2.0,1.0,1.0,3.0,0.0,0.0,9.61,6.08,0.0,
3.746,315.0,315.0,0.0,0.0,0.0,1.0,2.0,1.0,1.0,3.0,0.0,0.0,9.32,6.28,0.0,
3.759,315.0,315.0,0.0,0.0,0.0,1.0,2.0,1.0,1.0,3.0,0.0,0.0,9.12,6.47,0.0,
3.772,315.0,315.0,0.0,0.0,0.0,0.0,2.0,1.0,1.0,3.0,0.0,0.0,9.12,6.57,0.0,
3.784,315.0,315.0,0.0,0.0,0.0,0.0,2.0,1.0,1.0,3.0,0.0,0.0,9.03,6.67,0.0,
3.798,315.0,315.0,0.0,0.0,0.0,0.0,2.0,0.0,1.0,3.0,0.0,0.0,8.73,6.67,0.0,
3.81,315.0,315.0,0.0,0.0,0.0,0.0,2.0,0.0,1.0,3.0,0.0,0.0,8.63,6.77,0.0,
3.823,315.0,315.0,0.0,0.0,0.0,0.0,2.0,0.0,1.0,3.0,0.0,0.0,8.53,6.87,0.0,
3.835,315.0,315.0,0.0,0.0,0.0,0.0,2.0,0.0,1.0,2.0,0.0,0.0,8.44,6.87,0.0,
3.849,315.0,315.0,0.0,0.0,0.0,0.0,2.0,0.0,1.0,2.0,0.0,0.0,8.24,7.06,0.0,
3.861,315.0,315.0,0.0,0.0,0.0,0.0,2.0,0.0,1.0,2.0,0.0,0.0,8.14,7.16,0.0,
3.874,315.0,315.0,0.0,0.0,0.0,0.0,1.0,0.0,1.0,2.0,0.0,0.0,7.95,7.26,0.0,
3.887,315.0,315.0,0.0,0.0,0.0,0.0,1.0,0.0,1.0,2.0,0.0,0.0,7.85,7.36,0.0,
3.899,315.0,315.0,0.0,0.0,0.0,0.0,1.0,0.0,1.0,2.0,0.0,0.0,7.75,7.55,0.0,
3.912,315.0,315.0,0.0,0.0,0.0,0.0,1.0,0.0,1.0,2.0,0.0,0.0,7.65,7.55,0.0,
3.924,315.0,315.0,0.0,0.0,0.0,0.0,1.0,0.0,1.0,2.0,0.0,0.0,7.55,7.75,0.0,
3.938,315.0,315.0,0.0,0.0,0.0,0.0,1.0,0.0,1.0,2.0,0.0,0.0,7.36,7.85,0.0,
3.95,315.0,315.0,0.0,0.0,0.0,0.0,1.0,0.0,1.0,2.0,0.0,0.0,7.06,8.04,0.0,
3.963,315.0,315.0,0.0,0.0,0.0,0.0,1.0,0.0,1.0,2.0,0.0,0.0,6.97,8.14,0.0,
3.976,315.0,315.0,0.0,0.0,0.0,0.0,1.0,0.0,1.0,2.0,0.0,0.0,6.87,8.24,0.0,
3.989,315.0,315.0,0.0,0.0,0.0,0.0,1.0,0.0,1.0,2.0,0.0,0.0,6.67,8.44,0.0,
4.001,315.0,315.0,0.0,0.0,0.0,0.0,1.0,0.0,1.0,1.0,0.0,0.0,6.57,8.53,0.0,
4.014,315.0,315.0,0.0,0.0,0.0,0.0,1.0,0.0,1.0,1.0,0.0,0.0,6.38,8.73,0.0,
4.027,315.0,315.0,0.0,0.0,0.0,0.0,1.0,0.0,1.0,1.0,0.0,0.0,6.18,8.83,0.0,
4.039,315.0,315.0,0.0,0.0,0.0,0.0,1.0,0.0,1.0,1.0,0.0,0.0,5.98,8.93,0.0,
4.052,315.0,315.0,0.0,0.0,0.0,0.0,1.0,0.0,1.0,1.0,0.0,0.0,5.98,9.12,0.0,
4.065,315.0,315.0,0.0,0.0,0.0,0.0,1.0,0.0,1.0,1.0,0.0,0.0,5.89,9.22,0.0,
4.078,315.0,315.0,0.0,0.0,0.0,0.0,1.0,0.0,1.0,1.0,0.0,0.0,5.69,9.22,0.0,
4.09,315.0,315.0,0.0,0.0,0.0,0.0,1.0,0.0,1.0,1.0,0.0,0.0,5.59,9.22,0.0,
4.103,315.0,315.0,0.0,0.0,0.0,0.0,1.0,0.0,1.0,1.0,0.0,0.0,5.49,9.12,0.0,
4.116,315.0,315.0,0.0,0.0,0.0,0.0,1.0,0.0,1.0,1.0,0.0,0.0,5.49,9.12,0.0,
4.128,315.0,315.0,0.0,0.0,0.0,0.0,1.0,0.0,1.0,1.0,0.0,0.0,5.49,9.03,0.0,
4.142,315.0,315.0,0.0,0.0,0.0,0.0,1.0,0.0,1.0,1.0,0.0,0.0,5.4,8.93,0.0,
4.154,315.0,315.0,0.0,0.0,0.0,0.0,1.0,0.0,1.0,1.0,0.0,0.0,5.3,8.93,0.0,
4.167,315.0,315.0,0.0,0.0,0.0,0.0,1.0,0.0,1.0,1.0,0.0,0.0,5.3,8.83,0.0,
4.179,315.0,315.0,0.0,0.0,0.0,0.0,1.0,0.0,1.0,1.0,0.0,0.0,5.2,8.73,0.0,
4.193,315.0,315.0,0.0,0.0,0.0,0.0,1.0,0.0,1.0,1.0,0.0,0.0,5.2,8.73,0.0,
4.205,315.0,315.0,0.0,0.0,0.0,0.0,1.0,0.0,1.0,1.0,0.0,0.0,5.2,8.63,0.0,
4.218,315.0,315.0,0.0,0.0,0.0,0.0,1.0,0.0,1.0,1.0,0.0,0.0,5.2,8.53,0.0,
4.231,315.0,315.0,0.0,0.0,0.0,0.0,1.0,0.0,1.0,1.0,0.0,0.0,5.2,8.53,0.0,
4.243,315.0,315.0,0.0,0.0,0.0,0.0,1.0,0.0,1.0,1.0,0.0,0.0,5.2,8.34,0.0,
4.256,315.0,315.0,0.0,0.0,0.0,0.0,1.0,0.0,1.0,1.0,0.0,0.0,5.1,8.24,0.0,
4.269,315.0,315.0,0.0,0.0,0.0,0.0,1.0,0.0,1.0,1.0,0.0,0.0,5.1,8.24,0.0,
4.282,315.0,315.0,0.0,0.0,0.0,0.0,1.0,0.0,1.0,1.0,0.0,0.0,5.0,8.14,0.0,
4.294,315.0,315.0,0.0,0.0,0.0,0.0,1.0,0.0,1.0,1.0,0.0,0.0,5.0,8.24,0.0,
4.307,315.0,315.0,0.0,0.0,0.0,0.0,1.0,0.0,1.0,1.0,0.0,0.0,5.0,8.14,0.0,
4.32,315.0,315.0,0.0,0.0,0.0,0.0,1.0,0.0,1.0,1.0,0.0,0.0,5.0,8.14,0.0,
4.333,315.0,315.0,0.0,0.0,0.0,0.0,1.0,0.0,1.0,1.0,0.0,0.0,5.0,8.14,0.0,
4.345,315.0,315.0,0.0,0.0,0.0,0.0,1.0,0.0,1.0,1.0,0.0,0.0,4.91,8.04,0.0,
4.359,315.0,315.0,0.0,0.0,0.0,0.0,1.0,0.0,1.0,1.0,0.0,0.0,4.91,8.04,0.0,
4.371,315.0,315.0,0.0,0.0,0.0,0.0,1.0,0.0,1.0,1.0,0.0,0.0,4.91,7.95,0.0,
4.383,315.0,315.0,0.0,0.0,0.0,0.0,1.0,0.0,1.0,1.0,0.0,0.0,4.91,7.95,0.0,
4.397,315.0,315.0,0.0,0.0,0.0,0.0,1.0,0.0,1.0,1.0,0.0,0.0,4.91,7.95,0.0,
4.409,315.0,315.0,0.0,0.0,0.0,0.0,1.0,0.0,1.0,1.0,0.0,0.0,4.91,7.95,0.0,
4.422,315.0,315.0,0.0,0.0,0.0,0.0,1.0,0.0,1.0,1.0,0.0,0.0,4.91,7.85,0.0,
4.434,315.0,315.0,0.0,0.0,0.0,0.0,1.0,0.0,1.0,1.0,0.0,0.0,4.91,7.75,0.0,
4.448,315.0,315.0,0.0,0.0,0.0,0.0,1.0,0.0,1.0,1.0,0.0,0.0,4.91,7.65,0.0,
4.46,315.0,315.0,0.0,0.0,0.0,0.0,1.0,0.0,1.0,1.0,0.0,0.0,5.0,7.55,0.0,
4.473,315.0,315.0,0.0,0.0,0.0,0.0,1.0,0.0,1.0,1.0,0.0,0.0,5.0,7.55,0.0,
4.486,315.0,315.0,0.0,0.0,0.0,0.0,1.0,0.0,1.0,1.0,0.0,0.0,5.0,7.46,0.0,
4.498,315.0,315.0,0.0,0.0,0.0,0.0,1.0,0.0,1.0,1.0,0.0,0.0,5.1,7.36,0.0,
4.511,315.0,315.0,0.0,0.0,0.0,0.0,1.0,0.0,1.0,1.0,0.0,0.0,5.1,7.36,0.0,
4.524,315.0,315.0,0.0,0.0,0.0,0.0,1.0,0.0,1.0,1.0,0.0,0.0,5.1,7.26,0.0,
4.537,315.0,315.0,0.0,0.0,0.0,0.0,1.0,0.0,1.0,1.0,0.0,0.0,5.2,7.16,0.0,
4.549,315.0,315.0,0.0,0.0,0.0,0.0,1.0,0.0,1.0,1.0,0.0,0.0,5.2,7.06,0.0,
4.562,315.0,315.0,0.0,0.0,0.0,0.0,1.0,0.0,1.0,1.0,0.0,0.0,5.3,6.97,0.0,
4.575,315.0,315.0,0.0,0.0,0.0,0.0,1.0,0.0,1.0,1.0,0.0,0.0,5.3,6.87,0.0,
4.588,315.0,315.0,0.0,0.0,0.0,0.0,1.0,0.0,1.0,1.0,0.0,0.0,5.3,6.77,0.0,
4.6,315.0,315.0,0.0,0.0,0.0,0.0,1.0,0.0,1.0,1.0,0.0,0.0,5.3,6.67,0.0,
4.614,315.0,315.0,0.0,0.0,0.0,0.0,1.0,0.0,1.0,1.0,0.0,0.0,5.3,6.57,0.0,
4.626,315.0,315.0,0.0,0.0,0.0,0.0,1.0,0.0,1.0,1.0,0.0,0.0,5.3,6.47,0.0,
4.638,315.0,315.0,0.0,0.0,0.0,0.0,1.0,0.0,1.0,1.0,0.0,0.0,5.4,6.47,0.0,
4.652,315.0,315.0,0.0,0.0,0.0,0.0,1.0,0.0,1.0,1.0,0.0,0.0,5.49,6.47,0.0,
4.664,315.0,315.0,0.0,0.0,0.0,0.0,1.0,0.0,1.0,1.0,0.0,0.0,5.59,6.47,0.0,
4.677,315.0,315.0,0.0,0.0,0.0,0.0,1.0,0.0,1.0,1.0,0.0,0.0,5.59,6.28,0.0,
4.689,315.0,315.0,0.0,0.0,0.0,0.0,1.0,0.0,1.0,1.0,0.0,0.0,5.59,6.18,0.0,
4.703,315.0,315.0,0.0,0.0,0.0,0.0,1.0,0.0,1.0,1.0,0.0,0.0,5.69,6.08,0.0,
4.715,315.0,315.0,0.0,0.0,0.0,0.0,1.0,0.0,1.0,1.0,0.0,0.0,5.69,5.98,0.0,
4.728,315.0,315.0,0.0,0.0,0.0,0.0,1.0,0.0,1.0,1.0,0.0,0.0,5.89,5.89,0.0,
4.741,315.0,315.0,0.0,0.0,0.0,0.0,1.0,0.0,1.0,1.0,0.0,0.0,5.98,5.89,0.0,
4.754,315.0,315.0,0.0,0.0,0.0,0.0,1.0,0.0,1.0,1.0,0.0,0.0,5.98,5.79,0.0,
4.766,315.0,315.0,0.0,0.0,0.0,0.0,1.0,0.0,1.0,1.0,0.0,0.0,6.08,5.79,0.0,
4.78,315.0,315.0,0.0,0.0,0.0,0.0,1.0,0.0,1.0,1.0,0.0,0.0,6.08,5.79,0.0,
4.792,315.0,315.0,0.0,0.0,0.0,0.0,1.0,0.0,1.0,1.0,0.0,0.0,6.08,5.69,0.0,
4.804,315.0,315.0,0.0,0.0,0.0,0.0,1.0,0.0,1.0,1.0,0.0,0.0,6.18,5.59,0.0,
4.817,315.0,315.0,0.0,0.0,0.0,0.0,1.0,0.0,1.0,2.0,0.0,0.0,6.28,5.49,0.0,
4.83,315.0,315.0,0.0,0.0,0.0,0.0,1.0,0.0,1.0,2.0,0.0,0.0,6.28,5.4,0.0,
4.843,315.0,315.0,0.0,0.0,0.0,0.0,1.0,0.0,1.0,2.0,0.0,0.0,6.28,5.4,0.0,
4.855,315.0,315.0,0.0,0.0,0.0,0.0,1.0,0.0,1.0,2.0,0.0,0.0,6.38,5.3,0.0,
4.869,315.0,315.0,0.0,0.0,0.0,0.0,1.0,0.0,1.0,2.0,0.0,0.0,6.38,5.1,0.0,
4.881,315.0,315.0,0.0,0.0,0.0,0.0,1.0,0.0,1.0,2.0,0.0,0.0,6.47,5.2,0.0,
4.894,315.0,315.0,0.0,0.0,0.0,0.0,1.0,0.0,1.0,2.0,0.0,0.0,6.47,5.2,0.0,
4.907,315.0,315.0,0.0,0.0,0.0,0.0,1.0,0.0,1.0,2.0,0.0,0.0,6.57,5.1,0.0,
4.919,315.0,315.0,0.0,0.0,0.0,0.0,1.0,0.0,1.0,2.0,0.0,0.0,6.67,5.0,0.0,
4.932,315.0,315.0,0.0,0.0,0.0,0.0,1.0,0.0,1.0,2.0,0.0,0.0,6.67,5.0,0.0,
4.944,315.0,315.0,0.0,0.0,0.0,0.0,1.0,0.0,1.0,2.0,0.0,0.0,6.67,5.0,0.0,
4.958,315.0,315.0,0.0,0.0,0.0,0.0,1.0,0.0,1.0,2.0,0.0,0.0,6.77,4.81,0.0,
4.97,315.0,315.0,0.0,0.0,0.0,0.0,1.0,0.0,1.0,2.0,0.0,0.0,6.67,4.81,0.0,
4.983,315.0,315.0,0.0,0.0,0.0,0.0,1.0,0.0,1.0,2.0,0.0,0.0,6.67,4.71,0.0,
4.996,315.0,315.0,0.0,0.0,0.0,0.0,1.0,0.0,1.0,2.0,0.0,0.0,6.67,4.81,0.0,
5.009,315.0,315.0,0.0,0.0,0.0,0.0,1.0,0.0,1.0,2.0,0.0,0.0,6.67,4.81,0.0,
5.021,315.0,315.0,0.0,0.0,0.0,0.0,1.0,0.0,1.0,2.0,0.0,0.0,6.67,4.91,0.0,
5.035,315.0,315.0,0.0,0.0,0.0,1.0,1.0,0.0,1.0,2.0,0.0,0.0,6.57,4.91,0.0,
5.047,315.0,315.0,0.0,0.0,0.0,0.0,1.0,0.0,1.0,2.0,0.0,0.0,6.67,4.91,0.0,
5.059,315.0,315.0,0.0,0.0,0.0,1.0,1.0,0.0,1.0,2.0,0.0,0.0,6.77,5.0,0.0,
5.072,315.0,315.0,0.0,0.0,0.0,1.0,1.0,0.0,1.0,2.0,0.0,0.0,6.77,5.0,0.0,
5.085,315.0,315.0,0.0,0.0,0.0,1.0,1.0,0.0,1.0,2.0,0.0,0.0,6.77,5.1,0.0,
5.098,315.0,315.0,0.0,0.0,0.0,1.0,1.0,0.0,1.0,2.0,0.0,0.0,6.87,5.0,0.0,
5.11,315.0,315.0,0.0,0.0,0.0,1.0,1.0,0.0,1.0,2.0,0.0,0.0,6.87,4.91,0.0,
5.124,315.0,315.0,0.0,0.0,0.0,1.0,1.0,0.0,1.0,2.0,0.0,0.0,6.97,5.0,0.0,
5.136,315.0,315.0,0.0,0.0,0.0,1.0,1.0,0.0,1.0,2.0,0.0,0.0,7.06,4.91,0.0,
5.149,315.0,315.0,0.0,0.0,0.0,1.0,1.0,0.0,1.0,2.0,0.0,0.0,7.06,4.91,0.0,
5.161,315.0,315.0,0.0,0.0,0.0,1.0,1.0,0.0,1.0,2.0,0.0,0.0,7.16,4.81,0.0,
5.175,315.0,315.0,0.0,0.0,0.0,1.0,1.0,0.0,1.0,2.0,0.0,0.0,7.06,4.81,0.0,
5.187,315.0,315.0,0.0,0.0,0.0,1.0,1.0,0.0,1.0,2.0,0.0,0.0,7.06,4.71,0.0,
5.199,315.0,315.0,0.0,0.0,0.0,1.0,1.0,0.0,1.0,2.0,0.0,0.0,7.06,4.61,0.0,
5.213,315.0,315.0,0.0,0.0,0.0,1.0,1.0,0.0,1.0,2.0,0.0,0.0,7.06,4.71,0.0,
5.225,315.0,315.0,0.0,0.0,0.0,1.0,1.0,0.0,1.0,2.0,0.0,0.0,7.16,4.71,0.0,
5.238,315.0,315.0,0.0,0.0,0.0,1.0,1.0,0.0,1.0,2.0,0.0,0.0,7.16,4.71,0.0,
5.251,315.0,315.0,0.0,0.0,0.0,1.0,1.0,0.0,1.0,2.0,0.0,0.0,7.06,4.71,0.0,
5.264,315.0,315.0,0.0,0.0,0.0,1.0,1.0,0.0,1.0,2.0,0.0,0.0,7.06,4.71,0.0,
5.276,315.0,315.0,0.0,0.0,0.0,1.0,1.0,0.0,1.0,2.0,0.0,0.0,7.06,4.71,0.0,
5.289,315.0,315.0,0.0,0.0,0.0,1.0,1.0,0.0,1.0,2.0,0.0,0.0,7.16,4.61,0.0,
5.302,315.0,315.0,0.0,0.0,0.0,1.0,1.0,0.0,1.0,2.0,0.0,0.0,7.26,4.51,0.0,
5.314,315.0,315.0,0.0,0.0,0.0,1.0,1.0,0.0,1.0,2.0,0.0,0.0,7.26,4.41,0.0,
5.327,315.0,315.0,0.0,0.0,0.0,1.0,1.0,0.0,1.0,2.0,0.0,0.0,7.36,4.41,0.0,
5.34,315.0,315.0,0.0,0.0,0.0,1.0,1.0,0.0,1.0,2.0,0.0,0.0,7.36,4.41,0.0,
5.353,315.0,315.0,0.0,0.0,0.0,1.0,1.0,0.0,1.0,2.0,0.0,0.0,7.36,4.41,0.0,
5.365,315.0,315.0,0.0,0.0,0.0,1.0,1.0,0.0,1.0,2.0,0.0,0.0,7.36,4.41,0.0,
5.379,315.0,315.0,0.0,0.0,0.0,1.0,1.0,0.0,1.0,2.0,0.0,0.0,7.36,4.32,0.0,
5.391,315.0,315.0,0.0,0.0,0.0,1.0,1.0,0.0,1.0,2.0,0.0,0.0,7.36,4.32,0.0,
5.404,315.0,315.0,0.0,0.0,0.0,1.0,1.0,0.0,1.0,2.0,0.0,0.0,7.46,4.32,0.0,
5.416,315.0,315.0,0.0,0.0,0.0,1.0,1.0,0.0,1.0,2.0,0.0,0.0,7.55,4.32,0.0,
5.43,315.0,315.0,0.0,0.0,0.0,1.0,1.0,0.0,1.0,2.0,0.0,0.0,7.65,4.32,0.0,
5.442,315.0,315.0,0.0,0.0,0.0,1.0,1.0,0.0,1.0,2.0,0.0,0.0,7.65,4.32,0.0,
5.454,315.0,315.0,0.0,0.0,0.0,1.0,1.0,0.0,1.0,2.0,0.0,0.0,7.75,4.22,0.0,
5.468,315.0,315.0,0.0,0.0,0.0,1.0,1.0,0.0,1.0,2.0,0.0,0.0,7.75,4.32,0.0,
5.48,315.0,315.0,0.0,0.0,0.0,1.0,1.0,0.0,1.0,2.0,0.0,0.0,7.85,4.22,0.0,
5.493,315.0,315.0,0.0,0.0,0.0,1.0,1.0,0.0,1.0,2.0,0.0,0.0,7.85,4.32,0.0,
5.506,315.0,315.0,0.0,0.0,0.0,1.0,1.0,0.0,1.0,2.0,0.0,0.0,8.04,4.32,0.0,
5.519,315.0,315.0,0.0,0.0,0.0,1.0,1.0,0.0,1.0,2.0,0.0,0.0,8.04,4.32,0.0,
5.531,315.0,315.0,0.0,0.0,0.0,1.0,1.0,0.0,1.0,2.0,0.0,0.0,8.14,4.32,0.0,
5.544,315.0,315.0,0.0,0.0,0.0,1.0,1.0,0.0,1.0,2.0,0.0,0.0,8.24,4.41,0.0,
5.557,315.0,315.0,0.0,0.0,0.0,1.0,1.0,0.0,1.0,2.0,0.0,0.0,8.34,4.32,0.0,
5.57,315.0,315.0,0.0,0.0,0.0,1.0,1.0,0.0,1.0,2.0,0.0,0.0,8.44,4.32,0.0,
5.582,315.0,315.0,0.0,0.0,0.0,1.0,1.0,0.0,1.0,2.0,0.0,0.0,8.53,4.22,0.0,
5.595,315.0,315.0,0.0,0.0,0.0,1.0,1.0,0.0,1.0,2.0,0.0,0.0,8.63,4.32,0.0,
5.608,315.0,315.0,0.0,0.0,0.0,1.0,1.0,0.0,1.0,2.0,0.0,0.0,8.73,4.41,0.0,
5.62,315.0,315.0,0.0,0.0,0.0,1.0,1.0,0.0,1.0,2.0,0.0,0.0,8.83,4.41,0.0,
5.634,315.0,315.0,0.0,0.0,0.0,1.0,1.0,0.0,1.0,2.0,0.0,0.0,8.83,4.41,0.0,
5.646,315.0,315.0,0.0,0.0,0.0,1.0,1.0,0.0,1.0,2.0,0.0,0.0,8.93,4.32,0.0,
5.659,315.0,315.0,0.0,0.0,0.0,1.0,1.0,0.0,1.0,2.0,0.0,0.0,9.03,4.41,0.0,
5.671,315.0,315.0,0.0,0.0,0.0,1.0,1.0,1.0,1.0,2.0,0.0,0.0,9.12,4.41,0.0,
5.685,315.0,315.0,0.0,0.0,0.0,1.0,1.0,1.0,1.0,2.0,0.0,0.0,9.22,4.51,0.0,
5.697,315.0,315.0,0.0,0.0,0.0,1.0,1.0,0.0,1.0,2.0,0.0,0.0,9.22,4.51,0.0,
5.709,315.0,315.0,0.0,0.0,0.0,1.0,1.0,1.0,1.0,2.0,0.0,0.0,9.32,4.61,0.0,
5.723,315.0,315.0,0.0,0.0,0.0,1.0,1.0,1.0,1.0,2.0,0.0,0.0,9.42,4.61,0.0,
5.735,315.0,315.0,0.0,0.0,0.0,1.0,1.0,1.0,1.0,2.0,0.0,0.0,9.42,4.71,0.0,
5.748,315.0,315.0,0.0,0.0,0.0,1.0,1.0,1.0,1.0,2.0,0.0,0.0,9.52,4.81,0.0,
5.761,315.0,315.0,0.0,0.0,0.0,1.0,1.0,1.0,1.0,2.0,0.0,0.0,9.52,5.0,0.0,
5.774,315.0,315.0,0.0,0.0,0.0,1.0,1.0,1.0,1.0,2.0,0.0,0.0,9.42,5.0,0.0,
5.786,315.0,315.0,0.0,0.0,0.0,1.0,2.0,1.0,1.0,2.0,0.0,0.0,9.52,5.1,0.0,
5.799,315.0,315.0,0.0,0.0,0.0,1.0,1.0,1.0,1.0,2.0,0.0,0.0,9.81,5.3,0.0,
5.812,315.0,315.0,0.0,0.0,0.0,1.0,1.0,1.0,1.0,2.0,0.0,0.0,9.91,5.69,0.0,
5.825,315.0,315.0,0.0,0.0,0.0,1.0,1.0,1.0,1.0,2.0,0.0,0.0,10.1,5.69,0.0,
5.837,315.0,315.0,0.0,0.0,0.0,1.0,2.0,1.0,1.0,2.0,0.0,0.0,10.2,5.79,0.0,
5.851,315.0,315.0,0.0,0.0,0.0,1.0,2.0,1.0,1.0,2.0,0.0,0.0,10.4,5.89,0.0,
5.863,315.0,315.0,0.0,0.0,0.0,1.0,2.0,1.0,1.0,2.0,0.0,0.0,10.5,5.98,0.0,
5.876,315.0,315.0,0.0,0.0,0.0,1.0,2.0,1.0,1.0,2.0,0.0,0.0,10.59,6.08,0.0,
5.889,315.0,315.0,0.0,0.0,0.0,1.0,2.0,1.0,1.0,2.0,0.0,0.0,10.99,6.28,0.0,
5.902,315.0,315.0,0.0,0.0,0.0,1.0,2.0,1.0,1.0,3.0,0.0,0.0,11.09,6.28,0.0,
5.914,315.0,315.0,0.0,0.0,0.0,1.0,2.0,1.0,1.0,3.0,0.0,0.0,11.18,6.38,0.0,
5.927,315.0,315.0,0.0,0.0,0.0,1.0,2.0,1.0,1.0,3.0,0.0,0.0,11.28,6.47,0.0,
5.94,315.0,315.0,0.0,0.0,0.0,1.0,2.0,1.0,1.0,3.0,0.0,0.0,11.38,6.47,0.0,
5.953,315.0,315.0,0.0,0.0,0.0,1.0,2.0,1.0,1.0,3.0,0.0,0.0,11.28,6.57,0.0,
5.965,315.0,315.0,0.0,0.0,0.0,1.0,2.0,1.0,1.0,3.0,0.0,0.0,11.38,6.57,0.0,
5.979,315.0,315.0,0.0,0.0,0.0,1.0,2.0,1.0,1.0,3.0,0.0,0.0,11.38,6.57,0.0,
5.991,315.0,315.0,0.0,0.0,0.0,1.0,2.0,1.0,1.0,3.0,0.0,0.0,11.28,6.67,0.0,
6.004,315.0,315.0,0.0,0.0,0.0,1.0,2.0,1.0,1.0,3.0,0.0,0.0,11.18,6.77,0.0,
6.018,315.0,315.0,0.0,0.0,0.0,1.0,2.0,1.0,1.0,3.0,0.0,0.0,10.99,6.97,0.0,
6.03,315.0,315.0,0.0,0.0,0.0,1.0,2.0,1.0,1.0,2.0,0.0,0.0,10.79,7.06,0.0,
6.043,315.0,315.0,0.0,0.0,0.0,1.0,2.0,1.0,1.0,2.0,0.0,0.0,10.59,7.26,0.0,
6.055,315.0,315.0,0.0,0.0,0.0,1.0,2.0,1.0,1.0,2.0,0.0,0.0,10.4,7.65,0.0,
6.069,315.0,315.0,0.0,0.0,0.0,1.0,2.0,1.0,1.0,2.0,0.0,0.0,9.81,7.85,0.0,
6.081,315.0,315.0,0.0,0.0,0.0,1.0,2.0,1.0,1.0,2.0,0.0,0.0,9.61,8.14,0.0,
6.094,315.0,315.0,0.0,0.0,0.0,1.0,2.0,1.0,1.0,2.0,0.0,0.0,9.32,8.34,0.0,
6.107,315.0,315.0,0.0,0.0,0.0,1.0,2.0,1.0,1.0,2.0,0.0,0.0,9.03,8.63,0.0,
6.119,315.0,315.0,0.0,0.0,0.0,1.0,2.0,1.0,1.0,2.0,0.0,0.0,8.83,8.73,0.0,
6.132,315.0,315.0,0.0,0.0,0.0,1.0,2.0,1.0,1.0,2.0,0.0,0.0,8.63,8.93,0.0,
6.145,315.0,315.0,0.0,0.0,0.0,1.0,2.0,1.0,1.0,2.0,0.0,0.0,8.53,9.22,0.0,
6.158,315.0,315.0,0.0,0.0,0.0,1.0,2.0,1.0,1.0,2.0,0.0,0.0,8.34,9.22,0.0,
6.17,315.0,315.0,0.0,0.0,0.0,1.0,2.0,1.0,1.0,2.0,0.0,0.0,8.04,9.42,0.0,
6.183,315.0,315.0,0.0,0.0,0.0,1.0,1.0,1.0,1.0,2.0,0.0,0.0,7.95,9.52,0.0,
6.196,315.0,315.0,0.0,0.0,0.0,1.0,1.0,1.0,1.0,2.0,0.0,0.0,7.85,9.52,0.0,
6.209,315.0,315.0,0.0,0.0,0.0,1.0,1.0,1.0,1.0,2.0,0.0,0.0,7.75,9.61,0.0,
6.221,315.0,315.0,0.0,0.0,0.0,1.0,1.0,1.0,1.0,2.0,0.0,0.0,7.65,9.81,0.0,
6.235,315.0,315.0,0.0,0.0,0.0,1.0,1.0,1.0,1.0,2.0,0.0,0.0,7.46,10.01,0.0,
6.247,315.0,315.0,0.0,0.0,0.0,1.0,1.0,1.0,1.0,2.0,0.0,0.0,7.26,10.3,0.0,
6.26,315.0,315.0,0.0,0.0,0.0,1.0,1.0,1.0,1.0,2.0,0.0,0.0,7.06,10.5,0.0,
6.273,315.0,315.0,0.0,0.0,0.0,1.0,1.0,1.0,1.0,2.0,0.0,0.0,6.97,10.59,0.0,
6.286,315.0,315.0,0.0,0.0,0.0,1.0,1.0,1.0,1.0,2.0,0.0,0.0,6.77,10.79,0.0,
6.298,315.0,315.0,0.0,0.0,0.0,1.0,1.0,1.0,1.0,2.0,0.0,0.0,6.77,10.89,0.0,
6.311,315.0,315.0,0.0,0.0,0.0,1.0,1.0,1.0,1.0,2.0,0.0,0.0,6.67,11.09,0.0,
6.324,315.0,315.0,0.0,0.0,0.0,1.0,1.0,1.0,1.0,2.0,0.0,0.0,6.57,11.18,0.0,
6.337,315.0,315.0,0.0,0.0,0.0,1.0,1.0,1.0,1.0,2.0,0.0,0.0,6.47,11.28,0.0,
6.349,315.0,315.0,0.0,0.0,0.0,1.0,1.0,1.0,1.0,2.0,0.0,0.0,6.38,11.28,0.0,
6.363,315.0,315.0,0.0,0.0,0.0,1.0,1.0,1.0,1.0,2.0,0.0,0.0,6.18,11.38,0.0,
6.375,315.0,315.0,0.0,0.0,0.0,1.0,1.0,1.0,1.0,2.0,0.0,0.0,6.08,11.48,0.0,
6.388,315.0,315.0,0.0,0.0,0.0,1.0,1.0,1.0,1.0,2.0,0.0,0.0,6.08,11.67,0.0,
6.401,315.0,315.0,0.0,0.0,0.0,1.0,1.0,1.0,1.0,2.0,0.0,0.0,5.98,11.87,0.0,
6.414,315.0,315.0,0.0,0.0,0.0,1.0,1.0,1.0,1.0,2.0,0.0,0.0,5.89,11.87,0.0,
6.426,315.0,315.0,0.0,0.0,0.0,1.0,1.0,0.0,1.0,2.0,0.0,0.0,5.89,11.77,0.0,
6.439,315.0,315.0,0.0,0.0,0.0,1.0,1.0,0.0,1.0,2.0,0.0,0.0,5.89,11.58,0.0,
6.453,315.0,315.0,0.0,0.0,0.0,1.0,1.0,0.0,1.0,2.0,0.0,0.0,5.79,11.48,0.0,
6.465,315.0,315.0,0.0,0.0,0.0,1.0,1.0,0.0,1.0,2.0,0.0,0.0,5.89,11.18,0.0,
6.478,315.0,315.0,0.0,0.0,0.0,1.0,1.0,0.0,1.0,2.0,0.0,0.0,5.79,11.09,0.0,
6.491,315.0,315.0,0.0,0.0,0.0,1.0,1.0,0.0,1.0,2.0,0.0,0.0,5.89,10.89,0.0,
6.504,315.0,315.0,0.0,0.0,0.0,1.0,1.0,0.0,1.0,2.0,0.0,0.0,5.79,10.89,0.0,
6.516,315.0,315.0,0.0,0.0,0.0,1.0,1.0,0.0,1.0,2.0,0.0,0.0,5.79,10.79,0.0,
6.53,315.0,315.0,0.0,0.0,0.0,1.0,1.0,0.0,1.0,2.0,0.0,0.0,5.69,10.69,0.0,
6.542,315.0,315.0,0.0,0.0,0.0,1.0,1.0,0.0,1.0,2.0,0.0,0.0,5.79,10.5,0.0,
6.555,315.0,315.0,0.0,0.0,0.0,0.0,1.0,0.0,1.0,2.0,0.0,0.0,5.79,10.4,0.0,
6.567,315.0,315.0,0.0,0.0,0.0,0.0,1.0,0.0,1.0,2.0,0.0,0.0,5.69,10.3,0.0,
6.581,315.0,315.0,0.0,0.0,0.0,0.0,1.0,0.0,1.0,2.0,0.0,0.0,5.59,10.4,0.0,
6.593,315.0,315.0,0.0,0.0,0.0,0.0,1.0,0.0,1.0,2.0,0.0,0.0,5.49,10.4,0.0,
6.606,315.0,315.0,0.0,0.0,0.0,0.0,1.0,0.0,1.0,2.0,0.0,0.0,5.49,10.4,0.0,
6.619,315.0,315.0,0.0,0.0,0.0,0.0,1.0,0.0,1.0,2.0,0.0,0.0,5.49,10.5,0.0,
6.632,315.0,315.0,0.0,0.0,0.0,0.0,1.0,0.0,1.0,1.0,0.0,0.0,5.3,10.69,0.0,
6.645,315.0,315.0,0.0,0.0,0.0,0.0,1.0,0.0,1.0,2.0,0.0,0.0,5.2,10.89,0.0,
6.658,315.0,315.0,0.0,0.0,0.0,0.0,1.0,0.0,1.0,1.0,0.0,0.0,5.1,11.09,0.0,
6.671,315.0,315.0,0.0,0.0,0.0,0.0,1.0,0.0,1.0,1.0,0.0,0.0,4.91,11.38,0.0,
6.683,315.0,315.0,0.0,0.0,0.0,0.0,1.0,0.0,1.0,1.0,0.0,0.0,4.81,11.67,0.0,
6.696,315.0,315.0,0.0,0.0,0.0,0.0,1.0,0.0,1.0,1.0,0.0,0.0,4.61,12.07,0.0,
6.709,315.0,315.0,0.0,0.0,0.0,0.0,1.0,0.0,1.0,1.0,0.0,0.0,4.41,12.36,0.0,
6.722,315.0,315.0,0.0,0.0,0.0,0.0,1.0,0.0,1.0,1.0,0.0,0.0,4.22,13.05,0.0,
6.734,315.0,315.0,0.0,0.0,0.0,0.0,1.0,0.0,1.0,1.0,0.0,0.0,4.02,13.44,0.0,
6.748,315.0,315.0,0.0,0.0,0.0,0.0,1.0,0.0,1.0,1.0,0.0,0.0,4.02,13.64,0.0,
6.76,315.0,315.0,0.0,0.0,0.0,0.0,1.0,0.0,1.0,1.0,0.0,0.0,3.92,13.73,0.0,
6.773,315.0,315.0,0.0,0.0,0.0,0.0,1.0,0.0,0.0,1.0,0.0,0.0,3.83,13.83,0.0,
6.786,315.0,315.0,0.0,0.0,0.0,0.0,1.0,0.0,0.0,1.0,0.0,0.0,3.73,13.83,0.0,
6.799,315.0,315.0,0.0,0.0,0.0,0.0,1.0,0.0,0.0,1.0,0.0,0.0,3.73,13.83,0.0,
6.811,315.0,315.0,0.0,0.0,0.0,0.0,1.0,0.0,0.0,1.0,0.0,0.0,3.83,13.93,0.0,
6.824,315.0,315.0,0.0,0.0,0.0,0.0,1.0,0.0,0.0,1.0,0.0,0.0,3.73,13.93,0.0,
6.838,315.0,315.0,0.0,0.0,0.0,0.0,1.0,0.0,0.0,1.0,0.0,0.0,3.83,13.93,0.0,
6.85,315.0,315.0,0.0,0.0,0.0,0.0,1.0,0.0,0.0,1.0,0.0,0.0,3.83,13.83,0.0,
6.863,315.0,315.0,0.0,0.0,0.0,0.0,1.0,0.0,0.0,1.0,0.0,0.0,3.73,13.73,0.0,
6.876,315.0,315.0,0.0,0.0,0.0,0.0,1.0,0.0,0.0,1.0,0.0,0.0,3.63,13.64,0.0,
6.889,315.0,315.0,0.0,0.0,0.0,0.0,1.0,0.0,0.0,1.0,0.0,0.0,3.73,13.54,0.0,
6.901,315.0,315.0,0.0,0.0,0.0,0.0,1.0,0.0,0.0,1.0,0.0,0.0,3.83,13.54,0.0,
6.915,315.0,315.0,0.0,0.0,0.0,0.0,1.0,0.0,0.0,1.0,0.0,0.0,3.73,13.54,0.0,
6.927,315.0,315.0,0.0,0.0,0.0,0.0,1.0,0.0,0.0,1.0,0.0,0.0,3.73,13.54,0.0,
6.94,315.0,315.0,0.0,0.0,0.0,0.0,1.0,0.0,0.0,1.0,0.0,0.0,3.63,13.64,0.0,
6.952,315.0,315.0,0.0,0.0,0.0,0.0,1.0,0.0,0.0,1.0,0.0,0.0,3.73,13.73,0.0,
6.966,315.0,315.0,0.0,0.0,0.0,0.0,1.0,0.0,0.0,1.0,0.0,0.0,3.53,14.03,0.0,
6.978,315.0,315.0,0.0,0.0,0.0,0.0,1.0,0.0,0.0,1.0,0.0,0.0,3.43,14.22,0.0,
6.991,315.0,315.0,0.0,0.0,0.0,0.0,1.0,0.0,0.0,1.0,0.0,0.0,3.34,14.52,0.0,
7.004,315.0,315.0,0.0,0.0,0.0,0.0,1.0,0.0,0.0,1.0,0.0,0.0,3.24,14.81,0.0,
7.017,315.0,315.0,0.0,0.0,0.0,0.0,1.0,0.0,0.0,1.0,0.0,0.0,3.04,15.11,0.0,
7.029,315.0,315.0,0.0,0.0,0.0,0.0,1.0,0.0,0.0,1.0,0.0,0.0,3.04,15.5,0.0,
7.043,315.0,315.0,0.0,0.0,0.0,0.0,1.0,0.0,0.0,1.0,0.0,0.0,2.94,15.99,0.0,
7.055,315.0,315.0,0.0,0.0,0.0,0.0,1.0,0.0,0.0,1.0,0.0,0.0,2.84,16.09,0.0,
7.068,315.0,315.0,0.0,0.0,0.0,0.0,1.0,0.0,0.0,1.0,0.0,0.0,2.84,16.19,0.0,
7.081,315.0,315.0,0.0,0.0,0.0,0.0,1.0,0.0,0.0,1.0,0.0,0.0,2.84,16.19,0.0,
7.094,315.0,315.0,0.0,0.0,0.0,0.0,1.0,0.0,0.0,1.0,0.0,0.0,2.84,16.19,0.0,
7.107,315.0,315.0,0.0,0.0,0.0,0.0,1.0,0.0,0.0,1.0,0.0,0.0,2.94,16.19,0.0,
7.119,315.0,315.0,0.0,0.0,0.0,0.0,1.0,0.0,0.0,1.0,0.0,0.0,2.94,16.09,0.0,
7.133,315.0,315.0,0.0,0.0,0.0,0.0,1.0,0.0,0.0,1.0,0.0,0.0,3.04,15.99,0.0,
7.145,315.0,315.0,0.0,0.0,0.0,0.0,1.0,0.0,0.0,1.0,0.0,0.0,3.04,15.89,0.0,
7.158,315.0,315.0,0.0,0.0,0.0,0.0,1.0,0.0,0.0,1.0,0.0,0.0,3.14,15.79,0.0,
7.171,315.0,315.0,0.0,0.0,0.0,0.0,1.0,0.0,0.0,1.0,0.0,0.0,3.24,15.6,0.0,
7.184,315.0,315.0,0.0,0.0,0.0,0.0,1.0,0.0,0.0,1.0,0.0,0.0,3.24,15.5,0.0,
7.196,315.0,315.0,0.0,0.0,0.0,0.0,1.0,0.0,0.0,1.0,0.0,0.0,3.43,15.3,0.0,
7.209,315.0,315.0,0.0,0.0,0.0,0.0,1.0,0.0,0.0,1.0,0.0,0.0,3.53,15.01,0.0,
7.222,315.0,315.0,0.0,0.0,0.0,0.0,1.0,0.0,0.0,1.0,0.0,0.0,3.63,14.72,0.0,
7.235,315.0,315.0,0.0,0.0,0.0,0.0,1.0,0.0,0.0,1.0,0.0,0.0,3.63,14.62,0.0,
7.247,315.0,315.0,0.0,0.0,0.0,0.0,1.0,0.0,0.0,1.0,0.0,0.0,3.73,14.62,0.0,
7.261,315.0,315.0,0.0,0.0,0.0,0.0,1.0,0.0,0.0,1.0,0.0,0.0,3.73,14.62,0.0,
7.274,315.0,315.0,0.0,0.0,0.0,0.0,1.0,0.0,0.0,1.0,0.0,0.0,3.73,14.62,0.0,
7.286,315.0,315.0,0.0,0.0,0.0,0.0,1.0,0.0,0.0,1.0,0.0,0.0,3.83,14.72,0.0,
7.3,315.0,315.0,0.0,0.0,0.0,0.0,1.0,0.0,0.0,1.0,0.0,0.0,3.83,14.91,0.0,
7.312,315.0,315.0,0.0,0.0,0.0,0.0,1.0,0.0,0.0,1.0,0.0,0.0,3.73,15.01,0.0,
7.325,315.0,315.0,0.0,0.0,0.0,0.0,1.0,0.0,0.0,1.0,0.0,0.0,3.73,15.11,0.0,
7.337,315.0,315.0,0.0,0.0,0.0,0.0,1.0,0.0,0.0,1.0,0.0,0.0,3.73,15.11,0.0,
7.351,315.0,315.0,0.0,0.0,0.0,0.0,1.0,0.0,0.0,1.0,0.0,0.0,3.73,15.11,0.0,
7.363,315.0,315.0,0.0,0.0,0.0,0.0,1.0,0.0,0.0,1.0,0.0,0.0,3.73,15.21,0.0,
7.376,315.0,315.0,0.0,0.0,0.0,0.0,1.0,0.0,0.0,1.0,0.0,0.0,3.63,15.5,0.0,
7.389,315.0,315.0,0.0,0.0,0.0,0.0,1.0,0.0,0.0,1.0,0.0,0.0,3.63,15.6,0.0,
7.402,315.0,315.0,0.0,0.0,0.0,0.0,1.0,0.0,0.0,1.0,0.0,0.0,3.53,15.7,0.0,
7.414,315.0,315.0,0.0,0.0,0.0,0.0,1.0,0.0,0.0,1.0,0.0,0.0,3.53,15.79,0.0,
7.428,315.0,315.0,0.0,0.0,0.0,0.0,1.0,0.0,0.0,1.0,0.0,0.0,3.53,15.89,0.0,
7.441,315.0,315.0,0.0,0.0,0.0,0.0,1.0,0.0,0.0,1.0,0.0,0.0,3.53,15.89,0.0,
7.453,315.0,315.0,0.0,0.0,0.0,0.0,1.0,0.0,0.0,1.0,0.0,0.0,3.43,15.89,0.0,
7.467,315.0,315.0,0.0,0.0,0.0,0.0,1.0,0.0,0.0,1.0,0.0,0.0,3.53,15.79,0.0,
7.479,315.0,315.0,0.0,0.0,0.0,0.0,1.0,0.0,0.0,1.0,0.0,0.0,3.53,15.7,0.0,
7.492,315.0,315.0,0.0,0.0,0.0,0.0,1.0,0.0,0.0,1.0,0.0,0.0,3.53,15.7,0.0,
7.504,315.0,315.0,0.0,0.0,0.0,0.0,1.0,0.0,0.0,1.0,0.0,0.0,3.43,15.7,0.0,
7.518,315.0,315.0,0.0,0.0,0.0,0.0,1.0,0.0,0.0,1.0,0.0,0.0,3.43,15.7,0.0,
7.53,315.0,315.0,0.0,0.0,0.0,0.0,1.0,0.0,0.0,1.0,0.0,0.0,3.43,15.7,0.0,
7.543,315.0,315.0,0.0,0.0,0.0,0.0,1.0,0.0,0.0,1.0,0.0,0.0,3.43,15.79,0.0,
7.556,315.0,315.0,0.0,0.0,0.0,0.0,1.0,0.0,0.0,1.0,0.0,0.0,3.34,15.79,0.0,
7.569,315.0,315.0,0.0,0.0,0.0,0.0,1.0,0.0,0.0,1.0,0.0,0.0,3.34,15.7,0.0,
7.581,315.0,315.0,0.0,0.0,0.0,0.0,1.0,0.0,0.0,1.0,0.0,0.0,3.24,15.6,0.0,
7.595,315.0,315.0,0.0,0.0,0.0,0.0,1.0,0.0,0.0,1.0,0.0,0.0,3.24,15.7,0.0,
7.607,315.0,315.0,0.0,0.0,0.0,0.0,1.0,0.0,0.0,1.0,0.0,0.0,3.14,15.7,0.0,
7.62,315.0,315.0,0.0,0.0,0.0,0.0,1.0,0.0,0.0,1.0,0.0,0.0,3.14,15.7,0.0,
7.633,315.0,315.0,0.0,0.0,0.0,0.0,1.0,0.0,0.0,1.0,0.0,0.0,3.14,15.79,0.0,
7.646,315.0,315.0,0.0,0.0,0.0,0.0,1.0,0.0,0.0,1.0,0.0,0.0,3.14,15.79,0.0,
7.659,315.0,315.0,0.0,0.0,0.0,0.0,1.0,0.0,0.0,1.0,0.0,0.0,3.04,15.79,0.0,
7.671,315.0,315.0,0.0,0.0,0.0,0.0,1.0,0.0,0.0,1.0,0.0,0.0,2.94,15.79,0.0,
7.685,315.0,315.0,0.0,0.0,0.0,0.0,1.0,0.0,0.0,1.0,0.0,0.0,2.94,15.79,0.0,
7.697,315.0,315.0,0.0,0.0,0.0,0.0,1.0,0.0,0.0,1.0,0.0,0.0,2.94,15.89,0.0,
7.71,315.0,315.0,0.0,0.0,0.0,0.0,1.0,0.0,0.0,1.0,0.0,0.0,2.84,15.89,0.0,
7.723,315.0,315.0,0.0,0.0,0.0,0.0,1.0,0.0,0.0,1.0,0.0,0.0,2.84,15.99,0.0,
7.736,315.0,315.0,0.0,0.0,0.0,0.0,1.0,0.0,0.0,1.0,0.0,0.0,2.65,15.99,0.0,
7.748,315.0,315.0,0.0,0.0,0.0,0.0,1.0,0.0,0.0,1.0,0.0,0.0,2.65,15.99,0.0,
7.761,315.0,315.0,0.0,0.0,0.0,0.0,1.0,0.0,0.0,1.0,0.0,0.0,2.65,15.99,0.0,
7.774,315.0,315.0,0.0,0.0,0.0,0.0,1.0,0.0,0.0,1.0,0.0,0.0,2.55,16.19,0.0,
7.787,315.0,315.0,0.0,0.0,0.0,0.0,1.0,0.0,0.0,1.0,0.0,0.0,2.65,16.09,0.0,
7.799,315.0,315.0,0.0,0.0,0.0,0.0,1.0,0.0,0.0,1.0,0.0,0.0,2.65,16.19,0.0,
7.813,315.0,315.0,0.0,0.0,0.0,0.0,0.0,0.0,0.0,1.0,0.0,0.0,2.55,16.28,0.0,
7.826,315.0,315.0,0.0,0.0,0.0,0.0,0.0,0.0,0.0,0.0,0.0,0.0,2.55,16.28,0.0,
7.838,315.0,315.0,0.0,0.0,0.0,0.0,0.0,0.0,0.0,0.0,0.0,0.0,2.45,16.38,0.0,
7.852,315.0,315.0,0.0,0.0,0.0,0.0,0.0,0.0,0.0,0.0,0.0,0.0,2.45,16.48,0.0,
7.864,315.0,315.0,0.0,0.0,0.0,0.0,0.0,0.0,0.0,0.0,0.0,0.0,2.35,16.48,0.0,
7.877,315.0,315.0,0.0,0.0,0.0,0.0,0.0,0.0,0.0,0.0,0.0,0.0,2.35,16.48,0.0,
7.889,315.0,315.0,0.0,0.0,0.0,0.0,0.0,0.0,0.0,0.0,0.0,0.0,2.35,16.48,0.0,
7.903,315.0,315.0,0.0,0.0,0.0,0.0,0.0,0.0,0.0,0.0,0.0,0.0,2.35,16.48,0.0,
7.915,315.0,315.0,0.0,0.0,0.0,0.0,0.0,0.0,0.0,0.0,0.0,0.0,2.35,16.58,0.0,
7.928,315.0,315.0,0.0,0.0,0.0,0.0,0.0,0.0,0.0,1.0,0.0,0.0,2.35,16.68,0.0,
7.941,315.0,315.0,0.0,0.0,0.0,0.0,0.0,0.0,0.0,1.0,0.0,0.0,2.35,16.68,0.0,
7.954,315.0,315.0,0.0,0.0,0.0,0.0,0.0,0.0,0.0,0.0,0.0,0.0,2.35,16.78,0.0,
7.966,315.0,315.0,0.0,0.0,0.0,0.0,0.0,0.0,0.0,0.0,0.0,0.0,2.35,16.78,0.0,
7.98,315.0,315.0,0.0,0.0,0.0,0.0,0.0,0.0,0.0,1.0,0.0,0.0,2.26,16.78,0.0,
7.992,315.0,315.0,0.0,0.0,0.0,0.0,0.0,0.0,0.0,1.0,0.0,0.0,2.35,16.78,0.0,
8.005,315.0,315.0,0.0,0.0,0.0,0.0,0.0,0.0,0.0,0.0,0.0,0.0,2.35,16.78,0.0,
8.018,315.0,315.0,0.0,0.0,0.0,0.0,0.0,0.0,0.0,0.0,0.0,0.0,2.35,16.78,0.0,
8.031,315.0,315.0,0.0,0.0,0.0,0.0,0.0,0.0,0.0,0.0,0.0,0.0,2.35,16.78,0.0,
8.044,315.0,315.0,0.0,0.0,0.0,0.0,0.0,0.0,0.0,0.0,0.0,0.0,2.35,16.78,0.0,
8.056,315.0,315.0,0.0,0.0,0.0,0.0,0.0,0.0,0.0,0.0,0.0,0.0,2.45,16.78,0.0,
8.07,315.0,315.0,0.0,0.0,0.0,0.0,0.0,0.0,0.0,0.0,0.0,0.0,2.35,16.68,0.0,
8.082,315.0,315.0,0.0,0.0,0.0,0.0,0.0,0.0,0.0,1.0,0.0,0.0,2.26,16.68,0.0,
8.095,315.0,315.0,0.0,0.0,0.0,0.0,0.0,0.0,0.0,1.0,0.0,0.0,2.35,16.78,0.0,
8.108,315.0,315.0,0.0,0.0,0.0,0.0,0.0,0.0,0.0,1.0,0.0,0.0,2.35,16.87,0.0,
8.121,315.0,315.0,0.0,0.0,0.0,0.0,0.0,0.0,0.0,0.0,0.0,0.0,2.35,16.87,0.0,
8.133,315.0,315.0,0.0,0.0,0.0,0.0,0.0,0.0,0.0,0.0,0.0,0.0,2.35,16.97,0.0,
8.146,315.0,315.0,0.0,0.0,0.0,0.0,0.0,0.0,0.0,0.0,0.0,0.0,2.26,16.97,0.0,
8.159,315.0,315.0,0.0,0.0,0.0,0.0,0.0,0.0,0.0,0.0,0.0,0.0,2.26,16.97,0.0,
8.172,315.0,315.0,0.0,0.0,0.0,0.0,0.0,0.0,0.0,0.0,0.0,0.0,2.35,16.97,0.0,
8.184,315.0,315.0,0.0,0.0,0.0,0.0,0.0,0.0,0.0,0.0,0.0,0.0,2.26,17.07,0.0,
8.198,315.0,315.0,0.0,0.0,0.0,0.0,1.0,0.0,0.0,0.0,0.0,0.0,2.26,16.97,0.0,
8.211,315.0,315.0,0.0,0.0,0.0,0.0,1.0,0.0,0.0,0.0,0.0,0.0,2.26,16.87,0.0,
8.223,315.0,315.0,0.0,0.0,0.0,0.0,1.0,0.0,0.0,1.0,0.0,0.0,2.26,16.87,0.0,
8.237,315.0,315.0,0.0,0.0,0.0,0.0,1.0,0.0,0.0,1.0,0.0,0.0,2.26,16.97,0.0,
8.249,315.0,315.0,0.0,0.0,0.0,0.0,1.0,0.0,0.0,1.0,0.0,0.0,2.26,16.87,0.0,
8.262,315.0,315.0,0.0,0.0,0.0,0.0,1.0,0.0,0.0,0.0,0.0,0.0,2.26,16.87,0.0,
8.274,315.0,315.0,0.0,0.0,0.0,0.0,1.0,0.0,0.0,0.0,0.0,0.0,2.16,16.87,0.0,
8.288,315.0,315.0,0.0,0.0,0.0,0.0,1.0,0.0,0.0,0.0,0.0,0.0,2.26,16.87,0.0,
8.3,315.0,315.0,0.0,0.0,0.0,0.0,1.0,0.0,0.0,0.0,0.0,0.0,2.26,16.87,0.0,
8.313,315.0,315.0,0.0,0.0,0.0,0.0,1.0,0.0,0.0,0.0,0.0,0.0,2.26,16.78,0.0,
8.326,315.0,315.0,0.0,0.0,0.0,0.0,1.0,0.0,0.0,0.0,0.0,0.0,2.35,16.78,0.0,
8.339,315.0,315.0,0.0,0.0,0.0,0.0,1.0,0.0,0.0,0.0,0.0,0.0,2.26,16.87,0.0,
8.351,315.0,315.0,0.0,0.0,0.0,0.0,1.0,0.0,0.0,0.0,0.0,0.0,2.26,16.78,0.0,
8.365,315.0,315.0,0.0,0.0,0.0,0.0,1.0,0.0,0.0,0.0,0.0,0.0,2.26,16.78,0.0,
8.377,315.0,315.0,0.0,0.0,0.0,0.0,1.0,0.0,0.0,0.0,0.0,0.0,2.26,16.78,0.0,
8.39,315.0,315.0,0.0,0.0,0.0,0.0,1.0,0.0,0.0,0.0,0.0,0.0,2.26,16.78,0.0,
8.403,315.0,315.0,0.0,0.0,0.0,0.0,1.0,0.0,0.0,0.0,0.0,0.0,2.26,16.78,0.0,
8.416,315.0,315.0,0.0,0.0,0.0,0.0,1.0,0.0,0.0,0.0,0.0,0.0,2.26,16.78,0.0,
8.429,315.0,315.0,0.0,0.0,0.0,0.0,1.0,0.0,0.0,0.0,0.0,0.0,2.26,16.78,0.0,
8.441,315.0,315.0,0.0,0.0,0.0,0.0,1.0,0.0,0.0,0.0,0.0,0.0,2.35,16.78,0.0,
8.455,315.0,315.0,0.0,0.0,0.0,0.0,1.0,0.0,0.0,0.0,0.0,0.0,2.35,16.87,0.0,
8.467,315.0,315.0,0.0,0.0,0.0,0.0,1.0,0.0,0.0,0.0,0.0,0.0,2.35,16.87,0.0,
8.48,315.0,315.0,0.0,0.0,0.0,0.0,1.0,0.0,0.0,0.0,0.0,0.0,2.26,16.87,0.0,
8.493,315.0,315.0,0.0,0.0,0.0,0.0,1.0,0.0,0.0,0.0,0.0,0.0,2.26,16.78,0.0,
8.506,315.0,315.0,0.0,0.0,0.0,0.0,1.0,0.0,0.0,0.0,0.0,0.0,2.35,16.78,0.0,
8.518,315.0,315.0,0.0,0.0,0.0,0.0,1.0,0.0,0.0,0.0,0.0,0.0,2.35,16.87,0.0,
8.531,315.0,315.0,0.0,0.0,0.0,0.0,1.0,0.0,0.0,1.0,0.0,0.0,2.35,16.87,0.0,
8.544,315.0,315.0,0.0,0.0,0.0,0.0,1.0,0.0,0.0,1.0,0.0,0.0,2.35,16.87,0.0,
8.557,315.0,315.0,0.0,0.0,0.0,0.0,1.0,0.0,0.0,1.0,0.0,0.0,2.35,16.87,0.0,
8.57,315.0,315.0,0.0,0.0,0.0,0.0,1.0,0.0,0.0,1.0,0.0,0.0,2.35,16.78,0.0,
8.583,315.0,315.0,0.0,0.0,0.0,0.0,1.0,0.0,0.0,1.0,0.0,0.0,2.35,16.78,0.0,
8.596,315.0,315.0,0.0,0.0,0.0,0.0,1.0,0.0,0.0,1.0,0.0,0.0,2.35,16.78,0.0,
8.608,315.0,315.0,0.0,0.0,0.0,0.0,1.0,0.0,0.0,1.0,0.0,0.0,2.35,16.78,0.0,
8.622,315.0,315.0,0.0,0.0,0.0,0.0,1.0,0.0,0.0,1.0,0.0,0.0,2.26,16.78,0.0,
8.634,315.0,315.0,0.0,0.0,0.0,0.0,1.0,0.0,0.0,1.0,0.0,0.0,2.35,16.78,0.0,
8.647,315.0,315.0,0.0,0.0,0.0,0.0,1.0,0.0,0.0,1.0,0.0,0.0,2.26,16.68,0.0,
8.659,315.0,315.0,0.0,0.0,0.0,0.0,1.0,0.0,0.0,1.0,0.0,0.0,2.26,16.68,0.0,
8.673,315.0,315.0,0.0,0.0,0.0,0.0,1.0,0.0,0.0,0.0,0.0,0.0,2.26,16.48,0.0,
8.685,315.0,315.0,0.0,0.0,0.0,0.0,0.0,0.0,0.0,0.0,0.0,0.0,2.26,16.38,0.0,
8.698,315.0,315.0,0.0,0.0,0.0,0.0,0.0,0.0,0.0,0.0,0.0,0.0,2.16,16.28,0.0,
8.711,315.0,315.0,0.0,0.0,0.0,0.0,0.0,0.0,0.0,0.0,0.0,0.0,2.06,16.28,0.0,
8.724,315.0,315.0,0.0,0.0,0.0,0.0,0.0,0.0,0.0,0.0,0.0,0.0,2.06,16.28,0.0,
8.736,315.0,315.0,0.0,0.0,0.0,0.0,0.0,0.0,0.0,0.0,0.0,0.0,2.06,16.28,0.0,
8.75,315.0,315.0,0.0,0.0,0.0,0.0,0.0,0.0,0.0,0.0,0.0,0.0,1.96,16.38,0.0,
8.763,315.0,315.0,0.0,0.0,0.0,0.0,0.0,0.0,0.0,0.0,0.0,0.0,1.77,16.48,0.0,
8.775,315.0,315.0,0.0,0.0,0.0,0.0,0.0,0.0,0.0,0.0,0.0,0.0,1.67,16.58,0.0,
8.788,315.0,315.0,0.0,0.0,0.0,0.0,0.0,0.0,0.0,0.0,0.0,0.0,1.67,16.68,0.0,
8.801,315.0,315.0,0.0,0.0,0.0,0.0,0.0,0.0,0.0,0.0,0.0,0.0,1.57,16.78,0.0,
8.814,315.0,315.0,0.0,0.0,0.0,0.0,0.0,0.0,0.0,0.0,0.0,0.0,1.57,16.87,0.0,
8.826,315.0,315.0,0.0,0.0,0.0,0.0,0.0,0.0,0.0,0.0,0.0,0.0,1.57,16.97,0.0,
8.84,315.0,315.0,0.0,0.0,0.0,0.0,0.0,0.0,0.0,0.0,0.0,0.0,1.47,17.17,0.0,
8.852,315.0,315.0,0.0,0.0,0.0,0.0,0.0,0.0,0.0,0.0,0.0,0.0,1.37,17.17,0.0,
8.865,315.0,315.0,0.0,0.0,0.0,0.0,0.0,0.0,0.0,0.0,0.0,0.0,1.37,17.36,0.0,
8.878,315.0,315.0,0.0,0.0,0.0,0.0,0.0,0.0,0.0,0.0,0.0,0.0,1.37,17.46,0.0,
8.891,315.0,315.0,0.0,0.0,0.0,0.0,0.0,0.0,0.0,0.0,0.0,0.0,1.28,17.56,0.0,
8.903,315.0,315.0,0.0,0.0,0.0,0.0,0.0,0.0,0.0,0.0,0.0,0.0,1.28,17.66,0.0,
8.916,315.0,315.0,0.0,0.0,0.0,0.0,0.0,0.0,0.0,0.0,0.0,0.0,1.28,17.76,0.0,
8.929,315.0,315.0,0.0,0.0,0.0,0.0,0.0,0.0,0.0,0.0,0.0,0.0,1.28,17.66,0.0,
8.942,315.0,315.0,0.0,0.0,0.0,0.0,0.0,0.0,0.0,0.0,0.0,0.0,1.28,17.56,0.0,
8.955,315.0,315.0,0.0,0.0,0.0,0.0,0.0,0.0,0.0,0.0,0.0,0.0,1.18,17.56,0.0,
8.968,315.0,315.0,0.0,0.0,0.0,0.0,0.0,0.0,0.0,0.0,0.0,0.0,1.18,17.56,0.0,
8.98,315.0,315.0,0.0,0.0,0.0,0.0,0.0,0.0,0.0,0.0,0.0,0.0,1.08,17.66,0.0,
8.993,315.0,315.0,0.0,0.0,0.0,0.0,0.0,0.0,0.0,0.0,0.0,0.0,0.98,17.76,0.0,
9.007,315.0,315.0,0.0,0.0,0.0,0.0,0.0,0.0,0.0,0.0,0.0,0.0,0.98,18.25,0.0,
9.019,315.0,315.0,0.0,0.0,0.0,0.0,0.0,0.0,0.0,0.0,0.0,0.0,0.88,18.54,0.0,
9.032,315.0,315.0,0.0,0.0,0.0,0.0,0.0,0.0,0.0,0.0,0.0,0.0,0.88,18.93,0.0,
9.044,315.0,315.0,0.0,0.0,0.0,0.0,0.0,0.0,0.0,0.0,0.0,0.0,0.69,19.42,0.0,
9.058,315.0,315.0,0.0,0.0,0.0,0.0,0.0,0.0,0.0,0.0,0.0,0.0,0.78,19.91,0.0,
9.07,315.0,315.0,0.0,0.0,0.0,0.0,0.0,0.0,0.0,0.0,0.0,0.0,0.69,20.5,0.0,
9.083,315.0,315.0,0.0,0.0,0.0,0.0,0.0,0.0,0.0,0.0,0.0,0.0,0.59,21.78,0.0,
9.096,315.0,315.0,0.0,0.0,0.0,0.0,0.0,0.0,0.0,0.0,0.0,0.0,0.39,22.56,0.0,
9.109,315.0,315.0,0.0,0.0,0.0,0.0,0.0,0.0,0.0,0.0,0.0,0.0,0.39,23.64,0.0,
9.121,315.0,315.0,0.0,0.0,0.0,0.0,0.0,0.0,0.0,0.0,0.0,0.0,0.2,24.92,0.0,
9.135,315.0,315.0,0.0,0.0,0.0,0.0,0.0,0.0,0.0,0.0,0.0,0.0,0.0,26.39,0.0,
9.147,315.0,315.0,0.0,0.0,0.0,0.0,0.0,0.0,0.0,0.0,0.0,0.0,0.0,27.96,0.0,
9.16,315.0,315.0,0.0,0.0,0.0,0.0,0.0,0.0,0.0,0.0,0.0,0.0,0.0,29.63,0.0,
9.172,315.0,315.0,0.0,0.0,0.0,0.0,0.0,0.0,0.0,0.0,0.0,0.0,0.0,33.45,0.0,
9.186,315.0,315.0,0.0,0.0,0.0,0.0,0.0,0.0,0.0,0.0,0.0,0.0,0.0,35.9,0.0,
9.198,315.0,315.0,0.0,0.0,0.0,0.0,0.0,0.0,0.0,0.0,0.0,0.0,0.0,38.16,0.0,
9.211,315.0,315.0,0.0,0.0,0.0,0.0,0.0,0.0,0.0,0.0,0.0,0.0,0.0,40.42,0.0,
9.224,315.0,315.0,0.0,0.0,0.0,0.0,0.0,0.0,0.0,0.0,0.0,0.0,0.0,42.67,0.0,
9.237,315.0,315.0,0.0,0.0,0.0,0.0,0.0,0.0,0.0,0.0,0.0,0.0,0.0,44.83,0.0,
9.249,315.0,315.0,0.0,0.0,0.0,0.0,0.0,0.0,0.0,0.0,0.0,0.0,0.0,49.25,0.0,
9.263,315.0,315.0,0.0,0.0,0.0,0.0,0.0,0.0,0.0,0.0,0.0,0.0,0.0,51.01,0.0,
9.275,315.0,315.0,0.0,0.0,0.0,0.0,0.0,0.0,0.0,0.0,0.0,0.0,0.0,52.68,0.0,
9.288,315.0,315.0,0.0,0.0,0.0,0.0,0.0,0.0,0.0,0.0,0.0,0.0,0.0,54.05,0.0,
9.302,315.0,315.0,0.0,0.0,0.0,0.0,0.0,0.0,0.0,0.0,0.0,0.0,0.0,55.52,0.0,
9.314,315.0,315.0,0.0,0.0,0.0,0.0,0.0,0.0,0.0,0.0,0.0,0.0,0.0,56.8,0.0,
9.327,315.0,315.0,0.0,0.0,0.0,0.0,0.0,0.0,0.0,0.0,0.0,0.0,0.0,58.37,0.0,
9.339,315.0,315.0,0.0,0.0,0.0,0.0,0.0,0.0,0.0,0.0,0.0,0.0,0.0,62.59,0.0,
9.353,315.0,315.0,0.0,0.0,0.0,0.0,0.0,0.0,0.0,0.0,0.0,0.0,0.0,64.55,0.0,
9.365,315.0,315.0,0.0,0.0,0.0,0.0,0.0,0.0,0.0,0.0,0.0,0.0,0.0,66.71,0.0,
9.378,315.0,315.0,0.0,0.0,0.0,1.0,0.0,0.0,0.0,0.0,0.0,0.0,0.0,69.06,0.0,
9.391,315.0,315.0,0.0,0.0,0.0,1.0,0.0,0.0,0.0,0.0,0.0,0.0,0.0,72.1,0.0,
9.404,315.0,315.0,0.0,0.0,0.0,1.0,0.0,0.0,0.0,0.0,0.0,0.0,0.0,75.73,0.0,
9.417,315.0,315.0,0.0,0.0,0.0,1.0,1.0,0.0,0.0,0.0,0.0,0.0,0.1,83.38,0.0,
9.43,315.0,315.0,0.0,0.0,0.0,2.0,1.0,0.0,0.0,0.0,0.0,0.0,0.2,87.31,0.0,
9.443,315.0,315.0,0.0,0.0,0.0,2.0,1.0,0.0,0.0,0.0,0.0,0.0,0.2,90.74,0.0,
9.455,315.0,315.0,0.0,0.0,0.0,3.0,1.0,0.0,0.0,0.0,0.0,0.0,0.2,93.59,0.0,
9.468,315.0,315.0,0.0,0.0,0.0,3.0,1.0,0.0,0.0,0.0,0.0,0.0,0.2,96.14,0.0,
9.481,315.0,315.0,0.0,0.0,0.0,3.0,1.0,1.0,0.0,0.0,0.0,0.0,0.1,98.3,0.0,
9.494,315.0,315.0,0.0,0.0,0.0,3.0,1.0,1.0,0.0,0.0,0.0,0.0,0.0,101.44,0.0,
9.507,315.0,315.0,0.0,0.0,0.0,3.0,2.0,1.0,0.0,0.0,0.0,0.0,0.0,102.51,0.0,
9.52,315.0,315.0,0.0,0.0,0.0,3.0,2.0,1.0,0.0,0.0,0.0,0.0,0.0,103.3,0.0,
9.533,315.0,315.0,0.0,0.0,0.0,3.0,2.0,1.0,0.0,0.0,0.0,0.0,0.0,103.99,0.0,
9.545,315.0,315.0,0.0,0.0,0.0,3.0,2.0,1.0,0.0,0.0,0.0,0.0,0.0,104.48,0.0,
9.559,315.0,315.0,0.0,0.0,0.0,3.0,2.0,1.0,0.0,0.0,0.0,0.0,0.0,104.87,0.0,
9.572,315.0,315.0,0.0,0.0,0.0,3.0,2.0,1.0,0.0,0.0,0.0,0.0,0.0,104.28,0.0,
9.584,315.0,315.0,0.0,0.0,0.0,4.0,2.0,1.0,0.0,0.0,0.0,0.0,0.0,103.0,0.0,
9.597,315.0,315.0,0.0,0.0,0.0,4.0,2.0,1.0,0.0,1.0,0.0,0.0,0.0,100.85,0.0,
9.611,315.0,315.0,0.0,0.0,0.0,4.0,2.0,1.0,0.0,1.0,0.0,0.0,0.1,98.0,0.0,
9.623,315.0,315.0,0.0,0.0,0.0,4.0,2.0,1.0,1.0,1.0,0.0,0.0,0.59,95.16,0.0,
9.636,315.0,315.0,0.0,0.0,0.0,4.0,2.0,1.0,1.0,1.0,0.0,0.0,0.98,92.41,0.0,
9.649,315.0,315.0,0.0,0.0,0.0,4.0,2.0,1.0,1.0,2.0,0.0,0.0,1.57,87.01,0.0,
9.662,315.0,315.0,0.0,0.0,0.0,4.0,2.0,1.0,1.0,2.0,0.0,0.0,2.06,84.46,0.0,
9.674,315.0,315.0,0.0,0.0,0.0,4.0,2.0,1.0,1.0,2.0,0.0,0.0,2.55,82.31,0.0,
9.688,315.0,315.0,0.0,0.0,0.0,4.0,2.0,1.0,1.0,2.0,0.0,0.0,3.24,80.25,0.0,
9.7,315.0,315.0,0.0,0.0,0.0,4.0,2.0,1.0,1.0,2.0,0.0,0.0,3.43,78.48,0.0,
9.713,315.0,315.0,0.0,0.0,0.0,4.0,2.0,1.0,1.0,2.0,0.0,0.0,3.63,76.52,0.0,
9.726,315.0,315.0,0.0,0.0,0.0,4.0,2.0,1.0,1.0,2.0,0.0,0.0,3.73,74.46,0.0,
9.739,315.0,315.0,0.0,0.0,0.0,4.0,2.0,1.0,1.0,3.0,0.0,0.0,4.02,69.95,0.0,
9.752,315.0,315.0,0.0,0.0,0.0,4.0,2.0,1.0,1.0,3.0,0.0,0.0,4.32,67.3,0.0,
9.764,315.0,315.0,0.0,0.0,0.0,4.0,2.0,1.0,1.0,3.0,0.0,0.0,4.61,64.55,0.0,
9.778,315.0,315.0,0.0,0.0,0.0,4.0,2.0,1.0,1.0,3.0,0.0,0.0,5.59,61.02,0.0,
9.79,315.0,315.0,0.0,0.0,0.0,4.0,2.0,1.0,1.0,3.0,1.0,0.0,6.28,57.29,0.0,
9.803,315.0,315.0,0.0,0.0,0.0,4.0,2.0,1.0,1.0,4.0,1.0,0.0,6.87,53.76,0.0,
9.816,315.0,315.0,0.0,0.0,0.0,4.0,2.0,1.0,1.0,4.0,1.0,0.0,7.26,48.36,0.0,
9.829,315.0,315.0,0.0,0.0,0.0,4.0,2.0,1.0,1.0,4.0,0.0,0.0,7.65,46.21,0.0,
9.841,315.0,315.0,0.0,0.0,0.0,4.0,2.0,1.0,1.0,4.0,0.0,0.0,7.85,44.34,0.0,
9.854,315.0,315.0,0.0,0.0,0.0,4.0,2.0,1.0,1.0,4.0,0.0,0.0,8.04,42.58,0.0,
9.867,315.0,315.0,0.0,0.0,0.0,3.0,2.0,1.0,1.0,4.0,0.0,0.0,8.14,40.91,0.0,
9.88,315.0,315.0,0.0,0.0,0.0,3.0,2.0,1.0,1.0,4.0,0.0,0.0,8.24,39.14,0.0,
9.893,315.0,315.0,0.0,0.0,0.0,3.0,2.0,1.0,1.0,4.0,0.0,0.0,8.24,36.1,0.0,
9.906,315.0,315.0,0.0,0.0,0.0,3.0,2.0,1.0,1.0,4.0,0.0,0.0,8.14,34.53,0.0,
9.919,315.0,315.0,0.0,0.0,0.0,3.0,2.0,1.0,1.0,4.0,0.0,0.0,8.14,32.86,0.0,
9.931,315.0,315.0,0.0,0.0,0.0,3.0,2.0,1.0,1.0,4.0,0.0,0.0,8.04,31.49,0.0,
9.945,315.0,315.0,0.0,0.0,0.0,2.0,2.0,1.0,1.0,4.0,0.0,0.0,7.85,30.31,0.0,
9.957,315.0,315.0,0.0,0.0,0.0,2.0,2.0,1.0,1.0,4.0,0.0,0.0,7.65,29.43,0.0,
9.97,315.0,315.0,0.0,0.0,0.0,2.0,2.0,1.0,1.0,4.0,0.0,0.0,7.46,28.55,0.0,
9.982,315.0,315.0,0.0,0.0,0.0,2.0,2.0,1.0,1.0,4.0,0.0,0.0,7.36,26.59,0.0,
9.996,315.0,315.0,0.0,0.0,0.0,2.0,2.0,1.0,1.0,4.0,0.0,0.0,7.36,25.41,0.0,
10.008,315.0,315.0,0.0,0.0,0.0,2.0,2.0,1.0,1.0,4.0,0.0,0.0,7.46,24.13,0.0,
10.021,315.0,315.0,0.0,0.0,0.0,2.0,2.0,1.0,1.0,4.0,0.0,0.0,7.55,23.05,0.0,
10.035,315.0,315.0,0.0,0.0,0.0,2.0,2.0,1.0,1.0,4.0,0.0,0.0,7.55,22.27,0.0,
10.047,315.0,315.0,0.0,0.0,0.0,2.0,2.0,1.0,1.0,4.0,0.0,0.0,7.65,22.07,0.0,
10.06,315.0,315.0,0.0,0.0,0.0,2.0,2.0,1.0,1.0,4.0,0.0,0.0,7.95,21.88,0.0,
10.073,315.0,315.0,0.0,0.0,0.0,2.0,2.0,1.0,1.0,4.0,0.0,0.0,8.14,21.58,0.0,
10.086,315.0,315.0,0.0,0.0,0.0,3.0,2.0,1.0,1.0,4.0,0.0,0.0,8.44,21.19,0.0,
10.099,315.0,315.0,0.0,0.0,0.0,3.0,2.0,1.0,1.0,4.0,0.0,0.0,8.63,20.6,0.0,
10.112,315.0,315.0,0.0,0.0,0.0,3.0,2.0,1.0,2.0,5.0,1.0,0.0,8.93,19.91,0.0,
10.125,315.0,315.0,0.0,0.0,0.0,3.0,2.0,1.0,2.0,5.0,1.0,1.0,9.32,19.03,0.0,
10.138,315.0,315.0,0.0,0.0,0.0,3.0,3.0,2.0,2.0,6.0,1.0,1.0,10.59,18.05,0.0,
10.15,315.0,315.0,0.0,0.0,0.0,3.0,3.0,2.0,2.0,6.0,1.0,1.0,11.09,17.85,0.0,
10.164,315.0,315.0,0.0,0.0,0.0,4.0,3.0,2.0,2.0,6.0,1.0,1.0,11.77,17.66,0.0,
10.177,315.0,315.0,0.0,0.0,0.0,4.0,3.0,2.0,2.0,7.0,1.0,1.0,12.36,17.07,0.0,
10.189,315.0,315.0,0.0,0.0,0.0,4.0,3.0,2.0,2.0,7.0,1.0,1.0,13.05,16.58,0.0,
10.203,315.0,315.0,0.0,0.0,0.0,4.0,3.0,2.0,2.0,7.0,1.0,1.0,13.73,16.19,0.0,
10.216,315.0,315.0,0.0,0.0,0.0,4.0,3.0,2.0,2.0,7.0,1.0,1.0,14.42,16.09,0.0,
10.228,315.0,315.0,0.0,0.0,0.0,4.0,3.0,2.0,2.0,8.0,1.0,1.0,15.7,15.89,0.0,
10.242,315.0,315.0,0.0,0.0,0.0,4.0,3.0,2.0,2.0,8.0,1.0,1.0,16.28,15.5,0.0,
10.255,315.0,315.0,0.0,0.0,0.0,4.0,4.0,2.0,2.0,8.0,1.0,1.0,16.78,15.3,0.0,
10.268,315.0,315.0,0.0,0.0,0.0,4.0,4.0,2.0,2.0,8.0,2.0,1.0,17.27,15.21,0.0,
10.28,315.0,315.0,0.0,0.0,0.0,4.0,4.0,2.0,2.0,8.0,2.0,1.0,17.66,15.3,0.0,
10.294,315.0,315.0,0.0,0.0,0.0,4.0,4.0,2.0,2.0,8.0,2.0,1.0,17.85,15.21,0.0,
10.307,315.0,315.0,0.0,0.0,0.0,4.0,4.0,2.0,2.0,8.0,2.0,1.0,964.62,15.3,0.0,
10.33,315.0,315.0,0.0,0.0,0.0,4.0,4.0,2.0,2.0,8.0,2.0,1.0,18.15,15.79,0.0,
10.342,315.0,315.0,0.0,0.0,0.0,4.0,4.0,2.0,2.0,8.0,2.0,1.0,18.25,16.09,0.0,
10.355,315.0,315.0,0.0,0.0,0.0,4.0,4.0,2.0,2.0,8.0,1.0,1.0,18.25,16.58,0.0,
10.368,315.0,315.0,0.0,0.0,0.0,4.0,4.0,2.0,2.0,8.0,1.0,1.0,18.15,17.17,0.0,
10.381,315.0,315.0,0.0,0.0,0.0,4.0,4.0,2.0,2.0,8.0,1.0,1.0,18.05,18.44,0.0,
10.394,315.0,315.0,0.0,0.0,0.0,4.0,4.0,2.0,2.0,8.0,1.0,1.0,17.76,19.13,0.0,
10.407,315.0,315.0,0.0,0.0,0.0,4.0,3.0,2.0,2.0,7.0,1.0,1.0,17.46,20.01,0.0,
10.42,315.0,315.0,0.0,0.0,0.0,4.0,3.0,2.0,2.0,7.0,1.0,1.0,16.78,21.09,0.0,
10.433,315.0,315.0,0.0,0.0,0.0,4.0,3.0,2.0,2.0,7.0,1.0,1.0,16.48,22.27,0.0,
10.446,315.0,315.0,0.0,0.0,0.0,4.0,3.0,2.0,2.0,7.0,1.0,1.0,16.19,23.45,0.0,
10.459,315.0,315.0,0.0,0.0,0.0,4.0,3.0,2.0,2.0,7.0,1.0,1.0,15.89,25.9,0.0,
10.472,315.0,315.0,0.0,0.0,0.0,4.0,3.0,2.0,2.0,7.0,1.0,1.0,15.7,27.17,0.0,
10.485,315.0,315.0,0.0,0.0,0.0,4.0,3.0,2.0,2.0,7.0,1.0,1.0,15.6,28.35,0.0,
10.499,315.0,315.0,0.0,0.0,0.0,4.0,3.0,2.0,2.0,7.0,1.0,1.0,15.6,29.53,0.0,
10.511,315.0,315.0,0.0,0.0,0.0,4.0,3.0,2.0,2.0,7.0,1.0,1.0,15.6,30.61,0.0,
10.524,315.0,315.0,0.0,0.0,0.0,4.0,3.0,2.0,2.0,7.0,1.0,1.0,15.7,31.59,0.0,
10.537,315.0,315.0,0.0,0.0,0.0,4.0,3.0,2.0,2.0,7.0,1.0,1.0,15.6,33.26,0.0,
10.55,315.0,315.0,0.0,0.0,0.0,4.0,3.0,2.0,2.0,7.0,1.0,1.0,15.7,34.14,0.0,
10.563,315.0,315.0,0.0,0.0,0.0,4.0,3.0,2.0,2.0,7.0,1.0,1.0,15.6,34.92,0.0,
10.576,315.0,315.0,0.0,0.0,0.0,4.0,3.0,2.0,2.0,7.0,1.0,1.0,15.6,35.71,0.0,
10.589,315.0,315.0,0.0,0.0,0.0,4.0,3.0,2.0,2.0,7.0,1.0,1.0,15.4,36.4,0.0,
10.602,315.0,315.0,0.0,0.0,0.0,4.0,3.0,2.0,2.0,7.0,1.0,1.0,15.4,37.08,0.0,
10.615,315.0,315.0,0.0,0.0,0.0,4.0,3.0,2.0,2.0,7.0,1.0,1.0,15.3,37.96,0.0,
10.629,315.0,315.0,0.0,0.0,0.0,4.0,3.0,2.0,2.0,7.0,1.0,1.0,15.3,38.46,0.0,
10.641,315.0,315.0,0.0,0.0,0.0,4.0,3.0,2.0,2.0,7.0,1.0,1.0,15.3,38.85,0.0,
10.654,315.0,315.0,0.0,0.0,0.0,4.0,3.0,2.0,2.0,7.0,1.0,1.0,15.3,39.14,0.0,
10.668,315.0,315.0,0.0,0.0,0.0,4.0,3.0,2.0,2.0,7.0,1.0,1.0,15.21,39.34,0.0,
10.68,315.0,315.0,0.0,0.0,0.0,4.0,3.0,2.0,2.0,7.0,1.0,1.0,14.91,39.53,0.0,
10.693,315.0,315.0,0.0,0.0,0.0,4.0,3.0,2.0,2.0,6.0,1.0,1.0,14.72,39.63,0.0,
10.706,315.0,315.0,0.0,0.0,0.0,4.0,3.0,2.0,2.0,6.0,1.0,1.0,14.52,39.63,0.0,
10.719,315.0,315.0,0.0,0.0,0.0,4.0,3.0,2.0,2.0,6.0,1.0,1.0,14.42,39.73,0.0,
10.732,315.0,315.0,0.0,0.0,0.0,4.0,3.0,2.0,2.0,6.0,1.0,1.0,14.22,39.73,0.0,
10.745,315.0,315.0,0.0,0.0,0.0,4.0,3.0,2.0,2.0,6.0,1.0,1.0,14.13,39.63,0.0,
10.759,315.0,315.0,0.0,0.0,0.0,4.0,3.0,2.0,2.0,6.0,1.0,1.0,14.03,39.04,0.0,
10.771,315.0,315.0,0.0,0.0,0.0,4.0,3.0,2.0,2.0,6.0,1.0,1.0,14.13,38.55,0.0,
10.784,315.0,315.0,0.0,0.0,0.0,4.0,3.0,2.0,2.0,6.0,1.0,1.0,14.22,37.96,0.0,
10.798,315.0,315.0,0.0,0.0,0.0,4.0,3.0,2.0,2.0,6.0,1.0,1.0,14.42,37.47,0.0,
10.81,315.0,315.0,0.0,0.0,0.0,4.0,3.0,2.0,2.0,6.0,1.0,1.0,14.42,36.98,0.0,
10.823,315.0,315.0,0.0,0.0,0.0,4.0,3.0,2.0,2.0,6.0,1.0,1.0,14.42,36.59,0.0,
10.836,315.0,315.0,0.0,0.0,0.0,4.0,3.0,2.0,2.0,6.0,1.0,1.0,14.52,35.9,0.0,
10.849,315.0,315.0,0.0,0.0,0.0,4.0,3.0,2.0,2.0,6.0,1.0,1.0,14.52,35.41,0.0,
10.862,315.0,315.0,0.0,0.0,0.0,4.0,3.0,2.0,2.0,6.0,1.0,1.0,14.52,34.83,0.0,
10.875,315.0,315.0,0.0,0.0,0.0,4.0,3.0,2.0,2.0,6.0,1.0,1.0,14.52,34.24,0.0,
10.889,315.0,315.0,0.0,0.0,0.0,4.0,3.0,2.0,2.0,6.0,1.0,1.0,14.42,33.65,0.0,
10.901,315.0,315.0,0.0,0.0,0.0,4.0,3.0,2.0,2.0,6.0,1.0,1.0,14.32,32.96,0.0,
10.914,315.0,315.0,0.0,0.0,0.0,4.0,3.0,2.0,2.0,6.0,1.0,1.0,14.22,32.08,0.0,
10.928,315.0,315.0,0.0,0.0,0.0,4.0,3.0,2.0,2.0,6.0,1.0,1.0,13.93,31.88,0.0,
10.94,315.0,315.0,0.0,0.0,0.0,4.0,3.0,2.0,2.0,6.0,1.0,1.0,13.83,31.78,0.0,
10.953,315.0,315.0,0.0,0.0,0.0,4.0,3.0,2.0,2.0,6.0,1.0,1.0,13.83,31.49,0.0,
10.967,315.0,315.0,0.0,0.0,0.0,4.0,3.0,2.0,2.0,6.0,1.0,1.0,13.83,31.0,0.0,
10.979,315.0,315.0,0.0,0.0,0.0,4.0,3.0,2.0,2.0,6.0,1.0,1.0,13.93,30.41,0.0,
10.992,315.0,315.0,0.0,0.0,0.0,4.0,3.0,2.0,2.0,6.0,1.0,1.0,13.93,29.14,0.0,
11.005,315.0,315.0,0.0,0.0,0.0,4.0,3.0,2.0,2.0,6.0,1.0,1.0,13.93,28.65,0.0,
11.019,315.0,315.0,0.0,0.0,0.0,4.0,3.0,2.0,2.0,6.0,1.0,1.0,13.93,28.25,0.0,
11.031,315.0,315.0,0.0,0.0,0.0,4.0,3.0,2.0,2.0,6.0,1.0,1.0,13.93,27.76,0.0,
11.044,315.0,315.0,0.0,0.0,0.0,4.0,3.0,2.0,2.0,6.0,1.0,1.0,13.93,27.37,0.0,
11.058,315.0,315.0,0.0,0.0,0.0,4.0,3.0,2.0,2.0,6.0,1.0,1.0,13.83,27.08,0.0,
11.07,315.0,315.0,0.0,0.0,0.0,4.0,3.0,2.0,2.0,6.0,1.0,1.0,13.83,27.08,0.0,
11.083,315.0,315.0,0.0,0.0,0.0,4.0,3.0,2.0,2.0,6.0,1.0,1.0,13.83,26.98,0.0,
11.097,315.0,315.0,0.0,0.0,0.0,4.0,3.0,2.0,2.0,6.0,1.0,1.0,13.93,26.59,0.0,
11.109,315.0,315.0,0.0,0.0,0.0,4.0,3.0,2.0,2.0,6.0,1.0,1.0,14.03,26.0,0.0,
11.122,315.0,315.0,0.0,0.0,0.0,4.0,3.0,2.0,2.0,6.0,1.0,1.0,14.03,25.31,0.0,
11.136,315.0,315.0,0.0,0.0,0.0,4.0,3.0,2.0,2.0,6.0,1.0,1.0,14.13,23.45,0.0,
11.149,315.0,315.0,0.0,0.0,0.0,4.0,3.0,2.0,2.0,6.0,1.0,1.0,14.22,22.66,0.0,
11.161,315.0,315.0,0.0,0.0,0.0,4.0,3.0,2.0,2.0,6.0,1.0,1.0,14.32,22.07,0.0,
11.174,315.0,315.0,0.0,0.0,0.0,4.0,3.0,2.0,2.0,6.0,1.0,1.0,14.42,21.58,0.0,
11.188,315.0,315.0,0.0,0.0,0.0,4.0,3.0,2.0,2.0,6.0,1.0,1.0,14.62,21.19,0.0,
11.2,315.0,315.0,0.0,0.0,0.0,4.0,3.0,2.0,2.0,6.0,1.0,1.0,14.62,20.8,0.0,
11.213,315.0,315.0,0.0,0.0,0.0,4.0,3.0,2.0,2.0,6.0,1.0,1.0,14.62,19.72,0.0,
11.227,315.0,315.0,0.0,0.0,0.0,4.0,3.0,2.0,2.0,6.0,1.0,1.0,14.72,19.33,0.0,
11.239,315.0,315.0,0.0,0.0,0.0,4.0,3.0,2.0,2.0,6.0,1.0,1.0,14.81,18.74,0.0,
11.252,315.0,315.0,0.0,0.0,0.0,4.0,3.0,2.0,2.0,6.0,1.0,1.0,14.91,18.25,0.0,
11.266,315.0,315.0,0.0,0.0,0.0,4.0,3.0,2.0,2.0,6.0,1.0,1.0,15.11,17.85,0.0,
11.279,315.0,315.0,0.0,0.0,0.0,4.0,3.0,2.0,2.0,6.0,1.0,1.0,15.11,17.46,0.0,
11.291,315.0,315.0,0.0,0.0,0.0,4.0,3.0,2.0,2.0,6.0,1.0,1.0,15.21,16.87,0.0,
11.304,315.0,315.0,0.0,0.0,0.0,4.0,3.0,2.0,2.0,6.0,1.0,1.0,15.11,16.68,0.0,
11.318,315.0,315.0,0.0,0.0,0.0,4.0,3.0,2.0,2.0,6.0,1.0,1.0,15.11,16.48,0.0,
11.33,315.0,315.0,0.0,0.0,0.0,4.0,3.0,2.0,2.0,6.0,1.0,1.0,15.11,16.28,0.0,
11.343,315.0,315.0,0.0,0.0,0.0,4.0,3.0,2.0,2.0,6.0,1.0,1.0,15.11,16.09,0.0,
11.357,315.0,315.0,0.0,0.0,0.0,4.0,3.0,2.0,2.0,6.0,1.0,1.0,15.01,15.99,0.0,
11.369,315.0,315.0,0.0,0.0,0.0,4.0,3.0,2.0,2.0,6.0,1.0,1.0,15.01,15.3,0.0,
11.382,315.0,315.0,0.0,0.0,0.0,4.0,3.0,2.0,2.0,6.0,1.0,1.0,15.11,15.01,0.0,
11.396,315.0,315.0,0.0,0.0,0.0,4.0,3.0,2.0,2.0,6.0,1.0,1.0,15.11,14.72,0.0,
11.409,315.0,315.0,0.0,0.0,0.0,4.0,3.0,2.0,2.0,6.0,1.0,1.0,15.01,14.42,0.0,
11.421,315.0,315.0,0.0,0.0,0.0,3.0,3.0,2.0,2.0,6.0,1.0,1.0,14.81,14.13,0.0,
11.435,315.0,315.0,0.0,0.0,0.0,3.0,3.0,2.0,2.0,6.0,1.0,1.0,14.81,13.93,0.0,
11.448,315.0,315.0,0.0,0.0,0.0,3.0,3.0,2.0,2.0,6.0,1.0,1.0,14.81,14.03,0.0,
11.46,315.0,315.0,0.0,0.0,0.0,3.0,3.0,2.0,2.0,6.0,1.0,1.0,14.62,14.13,0.0,
11.473,315.0,315.0,0.0,0.0,0.0,3.0,3.0,2.0,2.0,6.0,1.0,1.0,14.62,14.22,0.0,
11.487,315.0,315.0,0.0,0.0,0.0,3.0,3.0,2.0,2.0,6.0,1.0,1.0,14.72,14.42,0.0,
11.499,315.0,315.0,0.0,0.0,0.0,3.0,3.0,2.0,2.0,6.0,1.0,1.0,14.72,14.72,0.0,
11.512,315.0,315.0,0.0,0.0,0.0,3.0,3.0,2.0,2.0,5.0,1.0,1.0,14.72,15.3,0.0,
11.526,315.0,315.0,0.0,0.0,0.0,3.0,3.0,2.0,2.0,5.0,1.0,1.0,14.62,15.5,0.0,
11.539,315.0,315.0,0.0,0.0,0.0,3.0,3.0,2.0,2.0,5.0,1.0,1.0,14.52,15.7,0.0,
11.551,315.0,315.0,0.0,0.0,0.0,3.0,3.0,2.0,2.0,5.0,1.0,1.0,14.42,15.7,0.0,
11.565,315.0,315.0,0.0,0.0,0.0,3.0,3.0,2.0,2.0,5.0,1.0,1.0,14.22,15.6,0.0,
11.578,315.0,315.0,0.0,0.0,0.0,3.0,3.0,2.0,2.0,5.0,1.0,1.0,14.13,15.6,0.0,
11.59,315.0,315.0,0.0,0.0,0.0,3.0,3.0,2.0,2.0,5.0,1.0,1.0,14.03,15.4,0.0,
11.603,315.0,315.0,0.0,0.0,0.0,3.0,3.0,2.0,2.0,5.0,1.0,1.0,13.73,15.3,0.0,
11.617,315.0,315.0,0.0,0.0,0.0,3.0,3.0,2.0,2.0,5.0,1.0,1.0,13.64,15.21,0.0,
11.629,315.0,315.0,0.0,0.0,0.0,3.0,3.0,2.0,2.0,5.0,1.0,1.0,13.54,15.11,0.0,
11.642,315.0,315.0,0.0,0.0,0.0,3.0,3.0,2.0,2.0,5.0,1.0,1.0,13.44,15.01,0.0,
11.656,315.0,315.0,0.0,0.0,0.0,3.0,3.0,2.0,2.0,5.0,1.0,1.0,13.34,15.01,0.0,
11.669,315.0,315.0,0.0,0.0,0.0,3.0,3.0,1.0,2.0,4.0,1.0,1.0,13.24,15.21,0.0,
11.681,315.0,315.0,0.0,0.0,0.0,3.0,3.0,1.0,2.0,4.0,1.0,1.0,13.05,15.21,0.0,
11.695,315.0,315.0,0.0,0.0,0.0,3.0,3.0,1.0,2.0,4.0,1.0,1.0,12.75,15.21,0.0,
11.708,315.0,315.0,0.0,0.0,0.0,3.0,3.0,1.0,2.0,4.0,1.0,1.0,12.56,15.4,0.0,
11.72,315.0,315.0,0.0,0.0,0.0,3.0,3.0,1.0,2.0,4.0,1.0,0.0,12.36,15.79,0.0,
11.734,315.0,315.0,0.0,0.0,0.0,3.0,2.0,1.0,2.0,4.0,1.0,0.0,12.16,15.99,0.0,
11.747,315.0,315.0,0.0,0.0,0.0,3.0,2.0,1.0,2.0,4.0,1.0,0.0,12.07,16.19,0.0,
11.759,315.0,315.0,0.0,0.0,0.0,3.0,2.0,1.0,2.0,4.0,1.0,0.0,11.77,16.19,0.0,
11.772,315.0,315.0,0.0,0.0,0.0,3.0,2.0,1.0,2.0,4.0,0.0,0.0,11.38,16.19,0.0,
11.786,315.0,315.0,0.0,0.0,0.0,2.0,2.0,1.0,2.0,4.0,0.0,0.0,11.28,16.09,0.0,
11.799,315.0,315.0,0.0,0.0,0.0,2.0,2.0,1.0,2.0,3.0,0.0,0.0,11.09,15.79,0.0,
11.811,315.0,315.0,0.0,0.0,0.0,2.0,2.0,1.0,2.0,3.0,0.0,0.0,10.89,14.62,0.0,
11.825,315.0,315.0,0.0,0.0,0.0,2.0,2.0,1.0,2.0,3.0,0.0,0.0,10.69,13.93,0.0,
11.838,315.0,315.0,0.0,0.0,0.0,2.0,2.0,1.0,2.0,3.0,0.0,0.0,10.69,13.34,0.0,
11.85,315.0,315.0,0.0,0.0,0.0,2.0,2.0,1.0,2.0,3.0,0.0,0.0,10.59,12.85,0.0,
11.864,315.0,315.0,0.0,0.0,0.0,2.0,2.0,1.0,2.0,3.0,0.0,0.0,10.59,12.56,0.0,
11.877,315.0,315.0,0.0,0.0,0.0,2.0,2.0,1.0,2.0,3.0,0.0,0.0,10.69,12.56,0.0,
11.889,315.0,315.0,0.0,0.0,0.0,2.0,2.0,1.0,2.0,4.0,0.0,0.0,10.69,12.16,0.0,
11.902,315.0,315.0,0.0,0.0,0.0,2.0,2.0,1.0,2.0,4.0,0.0,0.0,10.89,11.67,0.0,
11.916,315.0,315.0,0.0,0.0,0.0,2.0,2.0,1.0,2.0,4.0,1.0,0.0,11.18,10.89,0.0,
11.929,315.0,315.0,0.0,0.0,0.0,2.0,2.0,1.0,2.0,4.0,1.0,0.0,11.48,10.01,0.0,
11.941,315.0,315.0,0.0,0.0,0.0,2.0,2.0,1.0,2.0,4.0,1.0,0.0,12.07,9.12,0.0,
11.955,315.0,315.0,0.0,0.0,0.0,2.0,2.0,1.0,2.0,4.0,1.0,1.0,12.36,8.24,0.0,
11.967,315.0,315.0,0.0,0.0,0.0,2.0,2.0,1.0,2.0,4.0,1.0,1.0,12.65,6.18,0.0,
11.98,315.0,315.0,0.0,0.0,0.0,2.0,2.0,1.0,2.0,4.0,1.0,1.0,13.05,5.0,0.0,
11.994,315.0,315.0,0.0,0.0,0.0,2.0,2.0,1.0,2.0,4.0,1.0,1.0,13.34,3.92,0.0,
12.006,315.0,315.0,0.0,0.0,0.0,1.0,2.0,1.0,2.0,4.0,1.0,1.0,13.73,2.94,0.0,
12.019,315.0,315.0,0.0,0.0,0.0,1.0,2.0,1.0,2.0,4.0,1.0,1.0,14.03,2.06,0.0,
12.033,315.0,315.0,0.0,0.0,0.0,1.0,2.0,1.0,2.0,4.0,1.0,1.0,14.42,1.28,0.0,
12.045,315.0,315.0,0.0,0.0,0.0,1.0,2.0,1.0,2.0,4.0,1.0,1.0,14.62,0.2,0.0,
12.058,315.0,315.0,0.0,0.0,0.0,1.0,2.0,1.0,2.0,4.0,1.0,1.0,14.72,0.0,0.0,
12.07,315.0,315.0,0.0,0.0,0.0,1.0,2.0,1.0,2.0,4.0,1.0,1.0,14.72,0.0,0.0,
12.084,315.0,315.0,0.0,0.0,0.0,1.0,2.0,1.0,2.0,4.0,1.0,1.0,14.72,0.0,0.0,
12.097,315.0,315.0,0.0,0.0,0.0,1.0,2.0,1.0,2.0,4.0,1.0,1.0,14.62,0.0,0.0,
12.109,315.0,315.0,0.0,0.0,0.0,1.0,2.0,1.0,2.0,4.0,1.0,1.0,14.62,0.0,0.0,
12.123,315.0,315.0,0.0,0.0,0.0,2.0,2.0,1.0,2.0,4.0,1.0,1.0,14.81,0.39,0.0,
12.135,315.0,315.0,0.0,0.0,0.0,2.0,2.0,1.0,2.0,5.0,1.0,1.0,14.91,0.88,0.0,
12.148,315.0,315.0,0.0,0.0,0.0,2.0,2.0,1.0,2.0,5.0,1.0,1.0,15.11,1.37,0.0,
12.162,315.0,315.0,0.0,0.0,0.0,2.0,2.0,1.0,2.0,5.0,1.0,1.0,15.21,1.86,0.0,
12.174,315.0,315.0,0.0,0.0,0.0,2.0,2.0,1.0,2.0,5.0,1.0,1.0,15.4,2.35,0.0,
12.187,315.0,315.0,0.0,0.0,0.0,2.0,2.0,1.0,2.0,5.0,1.0,1.0,15.5,2.94,0.0,
12.2,315.0,315.0,0.0,0.0,0.0,2.0,2.0,1.0,2.0,5.0,1.0,1.0,15.7,4.32,0.0,
12.213,315.0,315.0,0.0,0.0,0.0,2.0,2.0,1.0,2.0,5.0,1.0,1.0,15.89,4.91,0.0,
12.226,315.0,315.0,0.0,0.0,0.0,3.0,2.0,1.0,2.0,5.0,1.0,1.0,15.99,5.59,0.0,
12.238,315.0,315.0,0.0,0.0,0.0,3.0,2.0,1.0,2.0,5.0,1.0,1.0,15.99,6.28,0.0,
12.252,315.0,315.0,0.0,0.0,0.0,3.0,2.0,1.0,2.0,5.0,1.0,1.0,16.09,6.97,0.0,
12.265,315.0,315.0,0.0,0.0,0.0,3.0,2.0,1.0,2.0,5.0,1.0,1.0,16.09,7.65,0.0,
12.277,315.0,315.0,0.0,0.0,0.0,3.0,2.0,1.0,2.0,5.0,1.0,1.0,16.19,9.12,0.0,
12.291,315.0,315.0,0.0,0.0,0.0,3.0,2.0,1.0,3.0,5.0,1.0,1.0,16.38,9.91,0.0,
12.304,315.0,315.0,0.0,0.0,0.0,3.0,2.0,1.0,3.0,5.0,1.0,1.0,16.78,10.59,0.0,
12.316,315.0,315.0,0.0,0.0,0.0,3.0,2.0,1.0,3.0,5.0,1.0,1.0,17.07,11.38,0.0,
12.329,315.0,315.0,0.0,0.0,0.0,3.0,2.0,1.0,3.0,5.0,2.0,1.0,17.17,12.26,0.0,
12.343,315.0,315.0,0.0,0.0,0.0,3.0,3.0,1.0,3.0,5.0,2.0,1.0,17.46,12.95,0.0,
12.355,315.0,315.0,0.0,0.0,0.0,3.0,3.0,1.0,3.0,5.0,2.0,1.0,17.66,14.13,0.0,
12.368,315.0,315.0,0.0,0.0,0.0,3.0,3.0,1.0,3.0,5.0,2.0,1.0,17.85,14.52,0.0,
12.382,315.0,315.0,0.0,0.0,0.0,3.0,3.0,1.0,3.0,5.0,2.0,1.0,18.25,14.91,0.0,
12.394,315.0,315.0,0.0,0.0,0.0,4.0,3.0,1.0,3.0,5.0,2.0,1.0,18.44,15.3,0.0,
12.407,315.0,315.0,0.0,0.0,0.0,4.0,3.0,1.0,3.0,5.0,2.0,1.0,18.64,15.6,0.0,
12.421,315.0,315.0,0.0,0.0,0.0,4.0,3.0,2.0,3.0,5.0,2.0,1.0,18.74,15.99,0.0,
12.433,315.0,315.0,0.0,0.0,0.0,4.0,3.0,2.0,3.0,5.0,2.0,1.0,18.93,16.78,0.0,
12.446,315.0,315.0,0.0,0.0,0.0,4.0,3.0,2.0,3.0,6.0,2.0,1.0,19.03,17.17,0.0,
12.46,315.0,315.0,0.0,0.0,0.0,4.0,3.0,2.0,3.0,6.0,2.0,1.0,19.13,17.46,0.0,
12.473,315.0,315.0,0.0,0.0,0.0,4.0,3.0,2.0,3.0,6.0,2.0,1.0,19.91,17.76,0.0,
12.485,315.0,315.0,0.0,0.0,0.0,4.0,3.0,2.0,3.0,6.0,2.0,1.0,20.21,17.85,0.0,
12.498,315.0,315.0,0.0,0.0,0.0,4.0,3.0,2.0,3.0,6.0,2.0,1.0,20.6,17.95,0.0,
12.512,315.0,315.0,0.0,0.0,0.0,4.0,3.0,2.0,3.0,6.0,2.0,1.0,20.99,18.05,0.0,
12.524,315.0,315.0,0.0,0.0,0.0,4.0,3.0,2.0,3.0,6.0,2.0,1.0,21.39,18.15,0.0,
12.537,315.0,315.0,0.0,0.0,0.0,4.0,3.0,2.0,3.0,6.0,2.0,2.0,21.78,18.15,0.0,
12.551,315.0,315.0,0.0,0.0,0.0,4.0,3.0,2.0,3.0,6.0,2.0,2.0,22.56,18.15,0.0,
12.563,315.0,315.0,0.0,0.0,0.0,4.0,3.0,2.0,3.0,6.0,2.0,2.0,22.86,17.95,0.0,
12.576,315.0,315.0,0.0,0.0,0.0,4.0,3.0,2.0,3.0,6.0,2.0,2.0,23.15,17.76,0.0,
12.59,315.0,315.0,0.0,0.0,0.0,4.0,3.0,2.0,3.0,6.0,2.0,2.0,23.35,17.46,0.0,
12.603,315.0,315.0,0.0,0.0,0.0,4.0,3.0,2.0,3.0,7.0,2.0,2.0,23.45,17.46,0.0,
12.615,315.0,315.0,0.0,0.0,0.0,4.0,3.0,2.0,3.0,7.0,2.0,2.0,23.64,17.56,0.0,
12.628,315.0,315.0,0.0,0.0,0.0,4.0,3.0,2.0,3.0,7.0,2.0,2.0,23.64,17.76,0.0,
12.642,315.0,315.0,0.0,0.0,0.0,4.0,3.0,2.0,3.0,7.0,2.0,2.0,23.64,17.85,0.0,
12.654,315.0,315.0,0.0,0.0,0.0,4.0,3.0,2.0,3.0,7.0,2.0,2.0,23.54,18.15,0.0,
12.667,315.0,315.0,0.0,0.0,0.0,4.0,3.0,2.0,3.0,6.0,2.0,2.0,23.35,18.64,0.0,
12.681,315.0,315.0,0.0,0.0,0.0,4.0,3.0,2.0,3.0,6.0,2.0,2.0,23.15,19.03,0.0,
12.694,315.0,315.0,0.0,0.0,0.0,4.0,3.0,2.0,3.0,6.0,2.0,2.0,22.96,19.23,0.0,
12.706,315.0,315.0,0.0,0.0,0.0,4.0,3.0,2.0,3.0,7.0,2.0,2.0,22.86,19.62,0.0,
12.72,315.0,315.0,0.0,0.0,0.0,4.0,3.0,2.0,3.0,6.0,2.0,2.0,22.96,20.01,0.0,
12.733,315.0,315.0,0.0,0.0,0.0,4.0,3.0,2.0,3.0,6.0,2.0,2.0,23.05,20.7,0.0,
12.745,315.0,315.0,0.0,0.0,0.0,4.0,3.0,2.0,3.0,7.0,2.0,2.0,23.15,20.9,0.0,
12.759,315.0,315.0,0.0,0.0,0.0,4.0,4.0,2.0,3.0,7.0,2.0,2.0,23.35,20.99,0.0,
12.772,315.0,315.0,0.0,0.0,0.0,4.0,4.0,2.0,3.0,7.0,2.0,2.0,23.64,20.99,0.0,
12.784,315.0,315.0,0.0,0.0,0.0,4.0,4.0,2.0,3.0,7.0,2.0,2.0,23.84,20.9,0.0,
12.797,315.0,315.0,0.0,0.0,0.0,4.0,4.0,2.0,3.0,7.0,2.0,2.0,24.03,20.8,0.0,
12.811,315.0,315.0,0.0,0.0,0.0,4.0,4.0,2.0,3.0,7.0,2.0,2.0,24.43,20.7,0.0,
12.824,315.0,315.0,0.0,0.0,0.0,4.0,4.0,2.0,3.0,7.0,2.0,2.0,24.62,20.9,0.0,
12.836,315.0,315.0,0.0,0.0,0.0,4.0,4.0,2.0,3.0,7.0,2.0,2.0,24.82,20.99,0.0,
12.85,315.0,315.0,0.0,0.0,0.0,4.0,4.0,2.0,3.0,7.0,2.0,2.0,25.02,20.9,0.0,
12.863,315.0,315.0,0.0,0.0,0.0,4.0,4.0,2.0,3.0,7.0,2.0,2.0,25.11,20.8,0.0,
12.875,315.0,315.0,0.0,0.0,0.0,4.0,4.0,2.0,3.0,7.0,2.0,2.0,25.11,20.8,0.0,
12.889,315.0,315.0,0.0,0.0,0.0,4.0,4.0,2.0,3.0,7.0,2.0,2.0,24.82,20.99,0.0,
12.902,315.0,315.0,0.0,0.0,0.0,4.0,4.0,2.0,3.0,7.0,2.0,2.0,24.72,21.19,0.0,
12.914,315.0,315.0,0.0,0.0,0.0,4.0,4.0,2.0,3.0,7.0,2.0,2.0,24.62,21.39,0.0,
12.928,315.0,315.0,0.0,0.0,0.0,4.0,4.0,2.0,3.0,7.0,2.0,2.0,24.33,21.48,0.0,
12.941,315.0,315.0,0.0,0.0,0.0,4.0,4.0,2.0,3.0,7.0,2.0,2.0,24.03,21.29,0.0,
12.954,315.0,315.0,0.0,0.0,0.0,4.0,4.0,2.0,3.0,7.0,2.0,2.0,23.74,21.09,0.0,
12.966,315.0,315.0,0.0,0.0,0.0,4.0,3.0,2.0,3.0,7.0,2.0,2.0,23.35,20.99,0.0,
12.98,315.0,315.0,0.0,0.0,0.0,4.0,3.0,2.0,3.0,6.0,2.0,1.0,22.07,21.48,0.0,
12.993,315.0,315.0,0.0,0.0,0.0,4.0,3.0,2.0,3.0,6.0,2.0,1.0,21.19,22.76,0.0,
13.005,315.0,315.0,0.0,0.0,0.0,4.0,3.0,2.0,3.0,6.0,2.0,1.0,20.01,24.52,0.0,
13.019,315.0,315.0,0.0,0.0,0.0,4.0,3.0,2.0,3.0,6.0,2.0,1.0,19.33,26.39,0.0,
13.032,315.0,315.0,0.0,0.0,0.0,4.0,3.0,2.0,3.0,6.0,2.0,1.0,19.13,27.76,0.0,
13.044,315.0,315.0,0.0,0.0,0.0,4.0,3.0,2.0,3.0,6.0,2.0,1.0,19.03,28.65,0.0,
13.058,315.0,315.0,0.0,0.0,0.0,4.0,3.0,2.0,3.0,6.0,2.0,1.0,19.33,28.25,0.0,
13.071,315.0,315.0,0.0,0.0,0.0,4.0,3.0,2.0,3.0,6.0,2.0,1.0,19.42,27.66,0.0,
13.084,315.0,315.0,0.0,0.0,0.0,4.0,3.0,2.0,3.0,6.0,2.0,1.0,19.23,26.98,0.0,
13.096,315.0,315.0,0.0,0.0,0.0,4.0,3.0,2.0,3.0,6.0,2.0,1.0,18.64,26.49,0.0,
13.11,315.0,315.0,0.0,0.0,0.0,4.0,3.0,2.0,3.0,6.0,1.0,1.0,17.76,26.29,0.0,
13.123,315.0,315.0,0.0,0.0,0.0,4.0,3.0,2.0,3.0,5.0,1.0,1.0,16.68,26.88,0.0,
13.135,315.0,315.0,0.0,0.0,0.0,4.0,3.0,1.0,2.0,5.0,1.0,1.0,15.5,28.06,0.0,
13.149,315.0,315.0,0.0,0.0,0.0,3.0,2.0,1.0,2.0,4.0,1.0,0.0,12.75,29.53,0.0,
13.162,315.0,315.0,0.0,0.0,0.0,3.0,2.0,1.0,2.0,3.0,1.0,0.0,11.18,31.49,0.0,
13.174,315.0,315.0,0.0,0.0,0.0,3.0,2.0,1.0,2.0,2.0,0.0,0.0,9.61,33.84,0.0,
13.188,315.0,315.0,0.0,0.0,0.0,3.0,1.0,1.0,1.0,2.0,0.0,0.0,7.95,39.24,0.0,
13.201,315.0,315.0,0.0,0.0,0.0,3.0,1.0,1.0,1.0,1.0,0.0,0.0,6.47,41.89,0.0,
13.213,315.0,315.0,0.0,0.0,0.0,2.0,1.0,1.0,1.0,1.0,0.0,0.0,5.3,44.54,0.0,
13.227,315.0,315.0,0.0,0.0,0.0,2.0,1.0,1.0,1.0,1.0,0.0,0.0,4.32,47.38,0.0,
13.239,315.0,315.0,0.0,0.0,0.0,2.0,1.0,1.0,1.0,1.0,0.0,0.0,3.34,50.42,0.0,
13.252,315.0,315.0,0.0,0.0,0.0,3.0,1.0,1.0,1.0,1.0,0.0,0.0,3.14,53.76,0.0,
13.265,315.0,315.0,0.0,0.0,0.0,3.0,1.0,1.0,1.0,1.0,0.0,0.0,3.14,60.92,0.0,
13.278,315.0,315.0,0.0,0.0,0.0,3.0,2.0,1.0,1.0,1.0,0.0,0.0,3.04,64.84,0.0,
13.291,315.0,315.0,0.0,0.0,0.0,3.0,2.0,1.0,1.0,1.0,0.0,0.0,3.14,68.77,0.0,
13.303,315.0,315.0,0.0,0.0,0.0,3.0,2.0,1.0,1.0,2.0,0.0,0.0,3.63,72.99,0.0,
13.317,315.0,315.0,0.0,0.0,0.0,3.0,2.0,1.0,1.0,2.0,0.0,0.0,5.69,77.5,0.0,
13.33,315.0,315.0,0.0,0.0,0.0,4.0,2.0,2.0,1.0,3.0,0.0,0.0,6.97,82.5,0.0,
13.342,315.0,315.0,0.0,0.0,0.0,4.0,2.0,2.0,1.0,3.0,0.0,0.0,8.34,94.37,0.0,
13.356,315.0,315.0,0.0,0.0,0.0,4.0,3.0,2.0,1.0,3.0,0.0,0.0,9.71,100.26,0.0,
13.369,315.0,315.0,0.0,0.0,0.0,5.0,3.0,2.0,2.0,4.0,0.0,0.0,11.18,105.26,0.0,
13.382,315.0,315.0,0.0,0.0,0.0,5.0,4.0,2.0,2.0,5.0,0.0,0.0,12.75,109.97,0.0,
13.394,315.0,315.0,0.0,0.0,0.0,5.0,4.0,3.0,2.0,6.0,0.0,0.0,14.52,114.58,0.0,
13.408,315.0,315.0,0.0,0.0,0.0,6.0,4.0,3.0,2.0,7.0,1.0,1.0,19.91,119.68,0.0,
13.421,315.0,315.0,0.0,0.0,0.0,6.0,5.0,3.0,2.0,7.0,0.0,1.0,23.54,129.39,0.0,
13.434,315.0,315.0,0.0,0.0,0.0,6.0,5.0,3.0,2.0,8.0,1.0,1.0,27.66,132.34,0.0,
13.447,315.0,315.0,0.0,0.0,0.0,5.0,6.0,3.0,2.0,8.0,1.0,1.0,31.78,133.71,0.0,
13.46,315.0,315.0,0.0,0.0,0.0,6.0,6.0,3.0,2.0,9.0,1.0,2.0,35.71,133.02,0.0,
13.473,315.0,315.0,0.0,0.0,0.0,5.0,6.0,3.0,2.0,9.0,1.0,2.0,39.14,130.28,0.0,
13.487,315.0,315.0,0.0,0.0,0.0,6.0,6.0,4.0,2.0,10.0,1.0,2.0,44.24,126.06,0.0,
13.5,315.0,315.0,0.0,0.0,0.0,6.0,7.0,4.0,2.0,10.0,1.0,2.0,46.11,115.27,0.0,
13.513,315.0,315.0,0.0,0.0,0.0,6.0,7.0,4.0,2.0,10.0,1.0,2.0,47.68,108.99,0.0,
13.526,315.0,315.0,0.0,0.0,0.0,6.0,7.0,4.0,2.0,10.0,1.0,2.0,49.05,102.51,0.0,
13.539,315.0,315.0,0.0,0.0,0.0,6.0,7.0,4.0,2.0,11.0,1.0,2.0,50.23,95.84,0.0,
13.552,315.0,315.0,0.0,0.0,0.0,6.0,7.0,4.0,2.0,11.0,1.0,2.0,51.31,89.17,0.0,
13.565,315.0,315.0,0.0,0.0,0.0,6.0,7.0,4.0,2.0,11.0,1.0,3.0,53.07,75.93,0.0,
13.579,315.0,315.0,0.0,0.0,0.0,6.0,7.0,4.0,2.0,11.0,1.0,3.0,53.96,69.65,0.0,
13.591,315.0,315.0,0.0,0.0,0.0,6.0,8.0,4.0,2.0,12.0,2.0,3.0,54.94,64.06,0.0,
13.604,315.0,315.0,0.0,0.0,0.0,6.0,8.0,4.0,2.0,12.0,2.0,3.0,55.92,59.15,0.0,
13.618,315.0,315.0,0.0,0.0,0.0,6.0,8.0,4.0,3.0,0.0,2.0,3.0,57.09,54.64,0.0,
13.631,315.0,315.0,0.0,0.0,0.0,7.0,8.0,4.0,3.0,1.0,2.0,3.0,58.47,50.23,0.0,
13.643,315.0,315.0,0.0,0.0,0.0,6.0,8.0,4.0,3.0,1.0,3.0,3.0,61.61,40.81,0.0,
13.657,315.0,315.0,0.0,0.0,0.0,7.0,8.0,4.0,3.0,2.0,3.0,4.0,63.08,36.2,0.0,
13.67,315.0,315.0,0.0,0.0,0.0,7.0,8.0,4.0,3.0,2.0,3.0,4.0,64.84,31.98,0.0,
13.682,315.0,315.0,0.0,0.0,0.0,5.0,8.0,4.0,4.0,3.0,3.0,4.0,66.51,28.15,0.0,
13.696,315.0,315.0,0.0,0.0,0.0,6.0,9.0,4.0,4.0,3.0,3.0,4.0,68.18,25.02,0.0,
13.709,315.0,315.0,0.0,0.0,0.0,6.0,9.0,4.0,4.0,4.0,3.0,4.0,70.04,20.01,0.0,
13.722,315.0,315.0,0.0,0.0,0.0,6.0,9.0,4.0,4.0,4.0,4.0,4.0,71.91,18.15,0.0,
13.734,315.0,315.0,0.0,0.0,0.0,6.0,9.0,4.0,4.0,5.0,4.0,4.0,75.83,16.38,0.0,
13.748,315.0,315.0,0.0,0.0,0.0,6.0,9.0,4.0,4.0,5.0,4.0,4.0,77.7,14.91,0.0,
13.761,315.0,315.0,0.0,0.0,0.0,5.0,9.0,4.0,5.0,6.0,5.0,5.0,79.46,13.44,0.0,
13.773,315.0,315.0,0.0,0.0,0.0,6.0,9.0,4.0,5.0,6.0,5.0,5.0,81.03,11.77,0.0,
13.787,315.0,315.0,0.0,0.0,0.0,6.0,9.0,4.0,5.0,6.0,5.0,5.0,82.4,8.34,0.0,
13.8,315.0,315.0,0.0,0.0,0.0,5.0,9.0,4.0,5.0,7.0,5.0,5.0,83.68,6.97,0.0,
13.812,315.0,315.0,0.0,0.0,0.0,5.0,9.0,4.0,5.0,8.0,5.0,5.0,84.95,5.59,0.0,
13.826,315.0,315.0,0.0,0.0,0.0,5.0,9.0,4.0,5.0,8.0,5.0,5.0,87.6,4.51,0.0,
13.839,315.0,315.0,0.0,0.0,0.0,5.0,9.0,4.0,5.0,8.0,5.0,5.0,88.88,3.53,0.0,
13.851,315.0,315.0,0.0,0.0,0.0,5.0,9.0,4.0,5.0,8.0,5.0,6.0,90.15,2.75,0.0,
13.864,315.0,315.0,0.0,0.0,0.0,4.0,9.0,4.0,5.0,9.0,6.0,6.0,91.53,1.08,0.0,
13.877,315.0,315.0,0.0,0.0,0.0,3.0,9.0,4.0,6.0,10.0,6.0,6.0,92.7,0.2,0.0,
13.89,315.0,315.0,0.0,0.0,0.0,3.0,9.0,4.0,6.0,9.0,6.0,6.0,93.88,0.0,0.49,
13.903,315.0,315.0,0.0,0.0,0.0,3.0,9.0,4.0,6.0,10.0,6.0,6.0,95.84,0.0,0.88,
13.916,315.0,315.0,0.0,0.0,0.0,3.0,9.0,3.0,6.0,11.0,6.0,7.0,97.02,0.0,1.18,
13.929,315.0,315.0,0.0,0.0,0.0,2.0,8.0,3.0,6.0,11.0,7.0,7.0,98.2,0.0,1.47,
13.942,315.0,315.0,0.0,0.0,0.0,0.0,8.0,2.0,6.0,11.0,7.0,7.0,99.57,0.0,1.47,
13.956,315.0,315.0,0.0,0.0,0.0,0.0,7.0,1.0,7.0,12.0,7.0,7.0,100.94,0.0,1.57,
13.968,315.0,315.0,0.0,0.0,0.0,0.0,6.0,0.0,7.0,13.0,8.0,7.0,102.02,0.0,1.47,
13.981,315.0,315.0,0.0,0.0,0.0,0.0,4.0,0.0,7.0,14.0,8.0,8.0,102.81,0.0,1.47,
13.995,315.0,315.0,0.0,0.0,0.0,0.0,4.0,0.0,7.0,14.0,8.0,8.0,103.2,0.0,1.77,
14.007,315.0,315.0,0.0,0.0,0.0,0.0,2.0,0.0,7.0,14.0,9.0,8.0,102.71,0.0,1.57,
14.02,315.0,315.0,0.0,0.0,0.0,0.0,2.0,0.0,7.0,14.0,9.0,8.0,101.73,0.0,1.28,
14.033,315.0,315.0,0.0,0.0,0.0,0.0,1.0,0.0,7.0,15.0,9.0,8.0,100.06,0.0,1.37,
14.047,315.0,315.0,0.0,0.0,0.0,0.0,0.0,0.0,8.0,15.0,9.0,8.0,97.9,0.0,1.57,
14.059,315.0,315.0,0.0,0.0,0.0,0.0,0.0,0.0,8.0,15.0,9.0,8.0,95.35,0.0,1.37,
14.072,315.0,315.0,0.0,0.0,0.0,0.0,0.0,0.0,8.0,15.0,9.0,8.0,89.86,0.0,0.78,
14.086,315.0,315.0,0.0,0.0,0.0,0.0,0.0,0.0,7.0,14.0,9.0,8.0,87.21,0.0,0.49,
14.098,315.0,315.0,0.0,0.0,0.0,0.0,0.0,0.0,7.0,11.0,8.0,8.0,84.37,0.0,0.29,
14.111,315.0,315.0,0.0,0.0,0.0,0.0,0.0,0.0,6.0,10.0,8.0,7.0,81.42,0.0,0.2,
14.125,315.0,315.0,0.0,0.0,0.0,0.0,0.0,0.0,5.0,8.0,7.0,7.0,78.87,0.0,0.2,
14.137,315.0,315.0,0.0,0.0,0.0,0.0,0.0,0.0,4.0,5.0,6.0,7.0,76.62,0.0,0.29,
14.15,315.0,315.0,0.0,0.0,0.0,0.0,0.0,0.0,3.0,12.0,4.0,6.0,74.36,0.0,0.49,
14.163,315.0,315.0,0.0,0.0,0.0,0.0,0.0,0.0,1.0,10.0,2.0,5.0,60.72,0.0,0.69,
14.177,315.0,315.0,0.0,0.0,0.0,0.0,0.0,0.0,0.0,10.0,2.0,4.0,47.09,0.0,0.69,
14.189,315.0,315.0,0.0,0.0,0.0,0.0,0.0,0.0,0.0,10.0,2.0,3.0,32.96,0.0,0.69,
14.202,315.0,315.0,0.0,0.0,0.0,0.0,0.0,0.0,0.0,8.0,2.0,2.0,20.8,0.0,0.49,
14.215,315.0,315.0,0.0,0.0,0.0,0.0,0.0,0.0,0.0,7.0,2.0,0.0,11.77,0.0,0.2,
14.228,315.0,315.0,0.0,0.0,0.0,0.0,0.0,0.0,0.0,1.0,2.0,0.0,5.0,0.0,0.0,
14.24,315.0,315.0,0.0,0.0,0.0,0.0,0.0,0.0,0.0,1.0,2.0,0.0,0.59,0.0,0.1,
14.254,315.0,315.0,0.0,0.0,0.0,0.0,0.0,0.0,0.0,1.0,2.0,0.0,0.0,0.98,0.0,
14.266,315.0,315.0,0.0,0.0,0.0,0.0,0.0,0.0,0.0,1.0,2.0,0.0,0.0,2.06,0.1,
14.279,315.0,315.0,0.0,0.0,0.0,0.0,0.0,0.0,0.0,1.0,2.0,0.0,0.0,1.86,0.2,
14.291,315.0,315.0,0.0,0.0,0.0,0.0,0.0,0.0,0.0,1.0,2.0,0.0,0.0,1.47,0.1,
14.305,315.0,315.0,0.0,0.0,0.0,0.0,0.0,0.0,0.0,1.0,2.0,0.0,0.0,1.18,0.29,
14.318,315.0,315.0,0.0,0.0,0.0,0.0,0.0,0.0,0.0,1.0,2.0,0.0,0.0,0.88,0.29,
14.33,315.0,315.0,0.0,0.0,0.0,0.0,0.0,0.0,0.0,1.0,2.0,0.0,0.2,0.59,0.29,
14.344,315.0,315.0,0.0,0.0,0.0,0.0,0.0,0.0,0.0,1.0,2.0,0.0,0.49,0.49,0.2,
14.356,315.0,315.0,0.0,0.0,0.0,0.0,0.0,0.0,0.0,1.0,2.0,0.0,0.49,0.49,0.2,
14.369,315.0,315.0,0.0,0.0,0.0,0.0,0.0,0.0,0.0,1.0,2.0,0.0,0.59,0.49,0.2,
14.382,315.0,315.0,0.0,0.0,0.0,0.0,0.0,0.0,0.0,188.0,2.0,0.0,0.49,0.59,0.1,
14.395,315.0,315.0,0.0,0.0,0.0,0.0,0.0,0.0,0.0,188.0,2.0,0.0,0.39,0.59,0.1,
14.408,315.0,315.0,0.0,0.0,0.0,0.0,0.0,0.0,0.0,188.0,2.0,0.0,0.29,0.59,0.2,
14.42,315.0,315.0,0.0,0.0,0.0,0.0,0.0,0.0,0.0,188.0,2.0,0.0,0.29,0.49,0.1,
14.434,315.0,315.0,0.0,0.0,0.0,0.0,0.0,0.0,0.0,188.0,2.0,0.0,0.49,0.49,0.2,
14.447,315.0,315.0,0.0,0.0,0.0,0.0,0.0,0.0,0.0,188.0,2.0,0.0,0.59,0.59,0.2,
14.459,315.0,315.0,0.0,0.0,0.0,0.0,0.0,0.0,0.0,188.0,2.0,0.0,0.69,0.39,0.2,
14.473,315.0,315.0,0.0,0.0,0.0,0.0,0.0,0.0,0.0,188.0,2.0,0.0,0.69,0.39,0.2,
14.486,315.0,315.0,0.0,0.0,0.0,0.0,0.0,0.0,0.0,188.0,2.0,0.0,0.59,0.39,0.1,
14.498,315.0,315.0,0.0,0.0,0.0,0.0,0.0,0.0,0.0,188.0,2.0,0.0,0.59,0.49,0.2,
14.512,315.0,315.0,0.0,0.0,0.0,0.0,0.0,0.0,0.0,188.0,2.0,0.0,0.59,0.49,0.2,
14.525,315.0,315.0,0.0,0.0,0.0,0.0,0.0,0.0,0.0,188.0,2.0,0.0,0.59,0.49,0.1,
14.538,315.0,315.0,0.0,0.0,0.0,0.0,0.0,0.0,0.0,188.0,2.0,0.0,0.49,0.49,0.0,
14.551,315.0,315.0,0.0,0.0,0.0,0.0,0.0,0.0,0.0,188.0,2.0,0.0,0.59,0.49,0.0,
14.564,315.0,315.0,0.0,0.0,0.0,0.0,0.0,0.0,0.0,188.0,2.0,0.0,0.59,0.49,0.0,
14.577,315.0,315.0,0.0,0.0,0.0,0.0,0.0,0.0,0.0,188.0,2.0,0.0,0.69,0.39,0.0,
14.589,315.0,315.0,0.0,0.0,0.0,0.0,0.0,0.0,0.0,188.0,2.0,0.0,0.88,0.29,0.0,
14.603,315.0,315.0,0.0,0.0,0.0,0.0,0.0,0.0,0.0,188.0,2.0,0.0,0.78,0.29,0.0,
14.616,315.0,315.0,0.0,0.0,0.0,0.0,0.0,0.0,0.0,188.0,2.0,0.0,0.78,0.29,0.0,
14.628,315.0,315.0,0.0,0.0,0.0,0.0,0.0,0.0,0.0,188.0,2.0,0.0,0.98,0.2,0.0,
14.642,315.0,315.0,0.0,0.0,0.0,0.0,0.0,0.0,0.0,188.0,2.0,0.0,1.18,0.1,0.0,
14.655,315.0,315.0,0.0,0.0,0.0,0.0,0.0,0.0,0.0,188.0,2.0,0.0,1.28,0.1,0.0,
14.668,315.0,315.0,0.0,0.0,0.0,0.0,0.0,0.0,0.0,188.0,2.0,0.0,1.37,0.0,0.0,
14.681,315.0,315.0,0.0,0.0,0.0,0.0,0.0,0.0,0.0,188.0,2.0,0.0,1.28,0.0,0.0,
14.694,315.0,315.0,0.0,0.0,0.0,0.0,0.0,0.0,0.0,188.0,2.0,0.0,1.37,0.0,0.0,
14.707,315.0,315.0,0.0,0.0,0.0,0.0,0.0,0.0,0.0,188.0,2.0,0.0,1.37,0.0,0.0,
14.72,315.0,315.0,0.0,0.0,0.0,0.0,0.0,0.0,0.0,188.0,2.0,0.0,1.37,0.0,0.0,
14.733,315.0,315.0,0.0,0.0,0.0,0.0,0.0,0.0,0.0,188.0,2.0,0.0,1.57,0.0,0.0,
14.746,315.0,315.0,0.0,0.0,0.0,0.0,0.0,0.0,0.0,188.0,2.0,0.0,1.67,0.0,0.1,
14.758,315.0,315.0,0.0,0.0,0.0,0.0,0.0,0.0,0.0,188.0,2.0,0.0,1.67,0.0,0.1,
14.772,315.0,315.0,0.0,0.0,0.0,0.0,0.0,0.0,0.0,188.0,2.0,0.0,1.77,0.0,0.1,
14.785,315.0,315.0,0.0,0.0,0.0,0.0,0.0,0.0,0.0,188.0,2.0,0.0,1.86,0.0,0.1,
14.798,315.0,315.0,0.0,0.0,0.0,0.0,0.0,0.0,0.0,188.0,2.0,0.0,1.86,0.0,0.2,
14.811,315.0,315.0,0.0,0.0,0.0,0.0,0.0,0.0,0.0,188.0,2.0,0.0,1.86,0.0,0.1,
14.824,315.0,315.0,0.0,0.0,0.0,0.0,0.0,0.0,0.0,188.0,2.0,0.0,1.67,0.59,0.1,
14.837,315.0,315.0,0.0,0.0,0.0,0.0,0.0,0.0,0.0,188.0,2.0,0.0,1.37,1.77,0.2,
14.85,315.0,315.0,0.0,0.0,0.0,0.0,0.0,0.0,0.0,188.0,2.0,0.0,0.98,5.49,0.2,
14.863,315.0,315.0,0.0,0.0,0.0,0.0,0.0,0.0,0.0,188.0,2.0,0.0,1.28,47.68,0.29,
14.876,315.0,315.0,0.0,0.0,0.0,0.0,0.0,0.0,0.0,188.0,2.0,0.0,2.35,94.67,0.29,
14.889,315.0,315.0,0.0,0.0,0.0,0.0,1.0,0.0,0.0,188.0,2.0,0.0,3.34,124.69,0.0,
14.903,315.0,315.0,0.0,0.0,0.0,0.0,1.0,0.0,0.0,188.0,2.0,0.0,4.32,136.46,0.0,
14.916,315.0,315.0,0.0,0.0,0.0,0.0,1.0,0.0,0.0,188.0,2.0,0.0,6.47,140.58,0.0,
14.929,315.0,315.0,0.0,0.0,0.0,1.0,1.0,0.0,0.0,188.0,2.0,0.0,12.65,134.4,0.0,
14.943,315.0,315.0,0.0,0.0,0.0,2.0,2.0,0.0,1.0,188.0,2.0,0.0,14.81,133.71,0.0,
14.956,315.0,315.0,0.0,0.0,0.0,2.0,2.0,0.0,2.0,188.0,2.0,0.0,16.19,139.2,0.0,
14.969,315.0,315.0,0.0,0.0,0.0,2.0,2.0,1.0,2.0,188.0,2.0,0.0,16.68,148.43,0.0,
14.982,315.0,315.0,0.0,0.0,0.0,2.0,2.0,1.0,2.0,188.0,2.0,0.0,16.68,158.04,0.0,
14.995,315.0,315.0,0.0,0.0,0.0,2.0,2.0,1.0,2.0,188.0,2.0,0.0,16.28,169.22,0.0,
15.008,315.0,315.0,0.0,0.0,0.0,2.0,2.0,1.0,3.0,188.0,2.0,0.0,16.09,169.42,0.0,
15.022,315.0,315.0,0.0,0.0,0.0,2.0,2.0,1.0,3.0,188.0,2.0,0.0,16.48,167.85,0.0,
15.035,315.0,315.0,0.0,0.0,0.0,2.0,2.0,1.0,3.0,188.0,2.0,0.0,17.07,164.71,0.0,
15.048,315.0,315.0,0.0,0.0,0.0,2.0,2.0,1.0,4.0,188.0,2.0,0.0,17.76,160.1,3.14,
15.062,315.0,315.0,0.0,0.0,0.0,1.0,2.0,1.0,4.0,188.0,2.0,0.0,18.25,147.74,4.81,
15.075,315.0,315.0,0.0,0.0,0.0,1.0,2.0,1.0,4.0,188.0,2.0,0.0,18.74,140.48,6.18,
15.088,315.0,315.0,0.0,0.0,0.0,1.0,2.0,1.0,4.0,188.0,2.0,0.0,19.13,132.73,7.06,
15.101,315.0,315.0,0.0,0.0,0.0,1.0,2.0,1.0,4.0,188.0,2.0,0.0,19.52,124.39,7.65,
15.115,315.0,315.0,0.0,0.0,0.0,1.0,2.0,1.0,4.0,188.0,2.0,0.0,19.82,115.27,9.32,
15.128,315.0,315.0,0.0,0.0,0.0,1.0,2.0,1.0,4.0,0.0,2.0,0.0,20.21,96.82,10.2,
15.141,315.0,315.0,0.0,0.0,0.0,1.0,2.0,0.0,4.0,0.0,2.0,0.0,20.6,88.0,11.09,
15.155,315.0,315.0,0.0,0.0,0.0,1.0,2.0,1.0,5.0,1.0,2.0,0.0,21.09,79.56,12.26,
15.167,315.0,315.0,0.0,0.0,0.0,1.0,2.0,1.0,5.0,1.0,2.0,0.0,21.48,71.81,13.73,
15.18,315.0,315.0,0.0,0.0,0.0,1.0,2.0,1.0,5.0,2.0,2.0,0.0,22.86,65.04,16.68,
15.194,315.0,315.0,0.0,0.0,0.0,1.0,2.0,1.0,5.0,3.0,2.0,0.0,24.92,59.35,17.85,
15.207,315.0,315.0,0.0,0.0,0.0,2.0,2.0,1.0,6.0,4.0,2.0,0.0,27.17,51.21,18.93,
15.22,315.0,315.0,0.0,0.0,0.0,2.0,2.0,1.0,6.0,5.0,2.0,0.0,29.33,48.07,19.91,
15.233,315.0,315.0,0.0,0.0,0.0,2.0,2.0,1.0,6.0,5.0,3.0,0.0,31.49,45.13,20.8,
15.246,315.0,315.0,0.0,0.0,0.0,2.0,3.0,1.0,6.0,6.0,3.0,0.0,35.32,42.77,21.78,
15.259,315.0,315.0,0.0,0.0,0.0,3.0,3.0,2.0,6.0,6.0,3.0,0.0,36.79,40.71,21.78,
15.272,315.0,315.0,0.0,0.0,0.0,3.0,3.0,2.0,6.0,7.0,3.0,0.0,37.96,39.34,21.29,
15.286,315.0,315.0,0.0,0.0,0.0,3.0,3.0,2.0,6.0,7.0,3.0,0.0,38.95,38.95,20.31,
15.298,315.0,315.0,0.0,0.0,0.0,3.0,3.0,2.0,6.0,8.0,3.0,0.0,39.53,39.93,18.84,
15.311,315.0,315.0,0.0,0.0,0.0,4.0,4.0,2.0,6.0,9.0,3.0,0.0,39.73,41.59,17.07,
15.325,315.0,315.0,0.0,0.0,0.0,4.0,4.0,2.0,6.0,9.0,3.0,0.0,39.73,43.65,13.15,
15.338,315.0,315.0,0.0,0.0,0.0,4.0,4.0,2.0,6.0,9.0,4.0,0.0,39.53,45.62,11.58,
15.351,315.0,315.0,0.0,0.0,0.0,4.0,4.0,2.0,6.0,9.0,4.0,0.0,39.53,47.68,10.2,
15.364,315.0,315.0,0.0,0.0,0.0,4.0,4.0,2.0,6.0,9.0,4.0,0.0,39.73,47.48,9.12,
15.377,315.0,315.0,0.0,0.0,0.0,4.0,4.0,2.0,6.0,10.0,4.0,0.0,40.02,46.5,8.34,
15.39,315.0,315.0,0.0,0.0,0.0,5.0,4.0,2.0,6.0,10.0,4.0,0.0,40.22,45.03,7.85,
15.404,315.0,315.0,0.0,0.0,0.0,5.0,4.0,2.0,6.0,10.0,4.0,0.0,40.91,43.75,7.46,
15.416,315.0,315.0,0.0,0.0,0.0,5.0,5.0,2.0,6.0,11.0,4.0,0.0,41.4,42.97,7.55,
15.429,315.0,315.0,0.0,0.0,0.0,5.0,5.0,3.0,6.0,11.0,4.0,0.0,42.08,42.48,7.55,
15.442,315.0,315.0,0.0,0.0,0.0,5.0,5.0,3.0,7.0,11.0,4.0,1.0,42.67,42.08,7.75,
15.456,315.0,315.0,0.0,0.0,0.0,5.0,5.0,3.0,7.0,11.0,5.0,1.0,43.36,41.3,7.75,
15.468,315.0,315.0,0.0,0.0,0.0,5.0,5.0,3.0,7.0,11.0,5.0,1.0,44.15,40.02,7.95,
15.481,315.0,315.0,0.0,0.0,0.0,5.0,5.0,3.0,7.0,12.0,5.0,1.0,45.32,38.16,7.95,
15.495,315.0,315.0,0.0,0.0,0.0,5.0,5.0,3.0,7.0,12.0,5.0,1.0,45.81,34.04,7.95,
15.508,315.0,315.0,0.0,0.0,0.0,5.0,5.0,3.0,7.0,12.0,5.0,1.0,46.4,31.88,7.95,
15.521,315.0,315.0,0.0,0.0,0.0,5.0,5.0,3.0,7.0,12.0,5.0,1.0,46.79,30.02,7.95,
15.534,315.0,315.0,0.0,0.0,0.0,5.0,5.0,3.0,7.0,0.0,5.0,1.0,47.19,28.45,8.04,
15.547,315.0,315.0,0.0,0.0,0.0,5.0,5.0,3.0,7.0,0.0,5.0,1.0,47.48,27.17,8.34,
15.56,315.0,315.0,0.0,0.0,0.0,6.0,5.0,3.0,7.0,1.0,5.0,1.0,48.07,26.0,8.53,
15.574,315.0,315.0,0.0,0.0,0.0,6.0,5.0,3.0,7.0,1.0,6.0,1.0,48.17,23.25,8.44,
15.586,315.0,315.0,0.0,0.0,0.0,6.0,5.0,3.0,7.0,0.0,6.0,1.0,48.17,22.27,8.24,
15.599,315.0,315.0,0.0,0.0,0.0,6.0,5.0,3.0,7.0,0.0,6.0,1.0,48.17,21.48,8.14,
15.612,315.0,315.0,0.0,0.0,0.0,5.0,5.0,3.0,7.0,0.0,6.0,1.0,48.07,20.6,7.65,
15.625,315.0,315.0,0.0,0.0,0.0,5.0,5.0,3.0,7.0,0.0,6.0,1.0,47.87,19.42,7.16,
15.638,315.0,315.0,0.0,0.0,0.0,5.0,5.0,3.0,7.0,0.0,6.0,1.0,47.58,17.95,6.57,
15.651,315.0,315.0,0.0,0.0,0.0,5.0,5.0,3.0,7.0,1.0,6.0,1.0,46.99,14.52,5.89,
15.664,315.0,315.0,0.0,0.0,0.0,5.0,5.0,3.0,7.0,0.0,6.0,1.0,46.5,12.95,5.3,
15.677,315.0,315.0,0.0,0.0,0.0,4.0,5.0,3.0,7.0,0.0,6.0,1.0,46.01,11.58,4.71,
15.69,315.0,315.0,0.0,0.0,0.0,4.0,5.0,3.0,7.0,0.0,6.0,1.0,45.52,10.4,3.53,
15.703,315.0,315.0,0.0,0.0,0.0,4.0,4.0,2.0,7.0,0.0,6.0,1.0,44.93,9.22,3.04,
15.716,315.0,315.0,0.0,0.0,0.0,4.0,4.0,2.0,7.0,0.0,6.0,1.0,44.24,8.14,2.55,
15.729,315.0,315.0,0.0,0.0,0.0,3.0,4.0,2.0,7.0,12.0,6.0,1.0,43.75,6.08,2.06,
15.741,315.0,315.0,0.0,0.0,0.0,3.0,4.0,2.0,7.0,0.0,6.0,1.0,42.58,5.4,1.86,
15.755,315.0,315.0,0.0,0.0,0.0,3.0,4.0,2.0,7.0,12.0,6.0,1.0,41.89,4.91,1.47,
15.768,315.0,315.0,0.0,0.0,0.0,3.0,4.0,2.0,7.0,12.0,6.0,1.0,41.2,4.61,0.59,
15.78,315.0,315.0,0.0,0.0,0.0,3.0,4.0,2.0,7.0,12.0,5.0,1.0,40.42,4.32,0.2,
15.794,315.0,315.0,0.0,0.0,0.0,3.0,3.0,2.0,7.0,12.0,5.0,1.0,39.73,4.22,0.0,
15.807,315.0,315.0,0.0,0.0,0.0,3.0,3.0,2.0,6.0,11.0,5.0,1.0,38.75,4.32,0.0,
15.82,315.0,315.0,0.0,0.0,0.0,2.0,3.0,2.0,6.0,11.0,5.0,1.0,36.3,4.41,0.0,
15.833,315.0,315.0,0.0,0.0,0.0,2.0,3.0,1.0,6.0,10.0,4.0,0.0,34.83,4.71,0.0,
15.846,315.0,315.0,0.0,0.0,0.0,2.0,3.0,1.0,6.0,10.0,4.0,0.0,33.16,5.1,0.0,
15.859,315.0,315.0,0.0,0.0,0.0,2.0,2.0,1.0,5.0,10.0,4.0,0.0,31.2,5.49,0.0,
15.872,315.0,315.0,0.0,0.0,0.0,2.0,2.0,1.0,5.0,9.0,3.0,0.0,29.23,6.28,0.0,
15.885,315.0,315.0,0.0,0.0,0.0,2.0,2.0,1.0,5.0,9.0,3.0,0.0,27.47,6.47,0.0,
15.898,315.0,315.0,0.0,0.0,0.0,2.0,2.0,1.0,5.0,9.0,3.0,0.0,26.0,6.57,0.0,
15.91,315.0,315.0,0.0,0.0,0.0,1.0,2.0,1.0,4.0,9.0,3.0,0.0,23.45,6.47,0.0,
15.924,315.0,315.0,0.0,0.0,0.0,1.0,2.0,1.0,4.0,8.0,3.0,0.0,22.17,6.47,0.0,
15.936,315.0,315.0,0.0,0.0,0.0,1.0,1.0,1.0,4.0,8.0,3.0,0.0,20.8,6.47,0.0,
15.949,315.0,315.0,0.0,0.0,0.0,1.0,1.0,1.0,4.0,8.0,2.0,0.0,19.52,6.77,0.0,
15.963,315.0,315.0,0.0,0.0,0.0,1.0,1.0,1.0,4.0,8.0,2.0,0.0,18.44,7.06,0.0,
15.975,315.0,315.0,0.0,0.0,0.0,1.0,1.0,1.0,3.0,8.0,2.0,0.0,17.36,7.26,0.0,
15.988,315.0,315.0,0.0,0.0,0.0,1.0,1.0,1.0,3.0,7.0,2.0,0.0,16.58,7.36,0.0,
16.002,315.0,315.0,0.0,0.0,0.0,1.0,1.0,1.0,3.0,7.0,2.0,0.0,15.6,7.36,0.0,
16.014,315.0,315.0,0.0,0.0,0.0,1.0,1.0,1.0,3.0,7.0,2.0,0.0,15.3,7.26,0.0,
16.027,315.0,315.0,0.0,0.0,0.0,1.0,1.0,0.0,3.0,7.0,2.0,0.0,14.91,6.57,0.0,
16.039,315.0,315.0,0.0,0.0,0.0,1.0,1.0,0.0,3.0,7.0,2.0,0.0,14.72,6.28,0.0,
16.053,315.0,315.0,0.0,0.0,0.0,1.0,1.0,0.0,3.0,7.0,2.0,0.0,14.42,6.08,0.0,
16.066,315.0,315.0,0.0,0.0,0.0,1.0,1.0,0.0,3.0,7.0,2.0,0.0,14.03,5.89,0.0,
16.078,315.0,315.0,0.0,0.0,0.0,1.0,1.0,0.0,3.0,7.0,2.0,0.0,13.24,5.69,0.0,
16.092,315.0,315.0,0.0,0.0,0.0,0.0,1.0,0.0,3.0,7.0,2.0,0.0,12.95,5.59,0.0,
16.104,315.0,315.0,0.0,0.0,0.0,0.0,1.0,0.0,3.0,7.0,2.0,0.0,12.65,5.69,0.0,
16.117,315.0,315.0,0.0,0.0,0.0,0.0,1.0,0.0,3.0,7.0,2.0,0.0,12.36,5.79,0.0,
16.131,315.0,315.0,0.0,0.0,0.0,0.0,1.0,0.0,3.0,7.0,2.0,0.0,12.07,5.89,0.0,
16.143,315.0,315.0,0.0,0.0,0.0,0.0,1.0,0.0,3.0,6.0,2.0,0.0,11.77,6.08,0.0,
16.156,315.0,315.0,0.0,0.0,0.0,0.0,1.0,0.0,3.0,6.0,2.0,0.0,11.58,6.18,0.0,
16.169,315.0,315.0,0.0,0.0,0.0,0.0,1.0,0.0,3.0,6.0,2.0,0.0,11.09,6.28,0.0,
16.182,315.0,315.0,0.0,0.0,0.0,0.0,1.0,0.0,3.0,6.0,2.0,0.0,10.99,6.57,0.0,
16.195,315.0,315.0,0.0,0.0,0.0,0.0,1.0,0.0,3.0,6.0,2.0,0.0,10.89,6.57,0.0,
16.207,315.0,315.0,0.0,0.0,0.0,0.0,1.0,0.0,3.0,6.0,2.0,0.0,10.69,6.67,0.0,
16.221,315.0,315.0,0.0,0.0,0.0,0.0,1.0,0.0,3.0,6.0,2.0,0.0,10.5,6.77,0.0,
16.234,315.0,315.0,0.0,0.0,0.0,0.0,1.0,0.0,3.0,6.0,2.0,0.0,10.4,6.67,0.0,
16.246,315.0,315.0,0.0,0.0,0.0,0.0,1.0,0.0,3.0,6.0,2.0,0.0,10.4,6.67,0.0,
16.26,315.0,315.0,0.0,0.0,0.0,0.0,1.0,0.0,3.0,5.0,2.0,0.0,10.3,6.47,0.0,
16.272,315.0,315.0,0.0,0.0,0.0,0.0,1.0,0.0,3.0,5.0,2.0,0.0,10.3,6.18,0.0,
16.285,315.0,315.0,0.0,0.0,0.0,0.0,1.0,0.0,3.0,5.0,2.0,0.0,10.2,6.08,0.0,
16.299,315.0,315.0,0.0,0.0,0.0,0.0,1.0,0.0,3.0,5.0,2.0,0.0,10.1,5.98,0.0,
16.311,315.0,315.0,0.0,0.0,0.0,0.0,1.0,0.0,3.0,5.0,2.0,0.0,10.2,5.89,0.0,
16.324,315.0,315.0,0.0,0.0,0.0,0.0,1.0,0.0,3.0,5.0,1.0,0.0,10.2,5.89,0.0,
16.337,315.0,315.0,0.0,0.0,0.0,0.0,1.0,0.0,3.0,5.0,1.0,0.0,10.3,5.89,0.0,
16.35,315.0,315.0,0.0,0.0,0.0,0.0,1.0,0.0,3.0,5.0,1.0,0.0,10.4,5.79,0.0,
16.363,315.0,315.0,0.0,0.0,0.0,0.0,1.0,0.0,3.0,5.0,1.0,0.0,10.5,5.79,0.0,
16.375,315.0,315.0,0.0,0.0,0.0,0.0,1.0,0.0,3.0,5.0,1.0,0.0,10.5,5.89,0.0,
16.389,315.0,315.0,0.0,0.0,0.0,0.0,1.0,0.0,3.0,5.0,1.0,0.0,10.5,5.89,0.0,
16.402,315.0,315.0,0.0,0.0,0.0,0.0,1.0,0.0,3.0,5.0,1.0,0.0,10.5,5.89,0.0,
16.414,315.0,315.0,0.0,0.0,0.0,0.0,1.0,0.0,3.0,5.0,1.0,0.0,10.5,5.69,0.0,
16.428,315.0,315.0,0.0,0.0,0.0,0.0,1.0,0.0,3.0,5.0,1.0,0.0,10.5,5.49,0.0,
16.441,315.0,315.0,0.0,0.0,0.0,0.0,0.0,0.0,3.0,5.0,1.0,0.0,10.5,5.3,0.0,
16.453,315.0,315.0,0.0,0.0,0.0,0.0,0.0,0.0,3.0,5.0,1.0,0.0,10.5,5.2,0.0,
16.466,315.0,315.0,0.0,0.0,0.0,0.0,0.0,0.0,3.0,5.0,1.0,0.0,10.4,5.0,0.0,
16.479,315.0,315.0,0.0,0.0,0.0,0.0,0.0,0.0,3.0,5.0,1.0,0.0,10.4,4.91,0.0,
16.492,315.0,315.0,0.0,0.0,0.0,0.0,0.0,0.0,3.0,5.0,1.0,0.0,10.4,4.81,0.0,
16.505,315.0,315.0,0.0,0.0,0.0,0.0,0.0,0.0,3.0,5.0,1.0,0.0,10.3,4.71,0.0,
16.518,315.0,315.0,0.0,0.0,0.0,0.0,0.0,0.0,3.0,5.0,1.0,0.0,10.3,4.61,0.0,
16.531,315.0,315.0,0.0,0.0,0.0,0.0,0.0,0.0,3.0,5.0,1.0,0.0,10.2,4.61,0.0,
16.543,315.0,315.0,0.0,0.0,0.0,0.0,1.0,0.0,3.0,5.0,1.0,0.0,10.1,4.61,0.0,
16.557,315.0,315.0,0.0,0.0,0.0,0.0,1.0,0.0,3.0,5.0,1.0,0.0,10.1,4.61,0.0,
16.57,315.0,315.0,0.0,0.0,0.0,0.0,1.0,0.0,3.0,5.0,1.0,0.0,10.2,4.61,0.0,
16.582,315.0,315.0,0.0,0.0,0.0,0.0,1.0,0.0,3.0,5.0,1.0,0.0,10.3,4.61,0.0,
16.595,315.0,315.0,0.0,0.0,0.0,0.0,1.0,0.0,3.0,5.0,1.0,0.0,10.4,4.61,0.0,
16.609,315.0,315.0,0.0,0.0,0.0,0.0,1.0,0.0,3.0,5.0,1.0,0.0,10.5,4.71,0.0,
16.621,315.0,315.0,0.0,0.0,0.0,0.0,1.0,0.0,3.0,5.0,1.0,0.0,10.69,4.61,0.0,
16.634,315.0,315.0,0.0,0.0,0.0,0.0,1.0,0.0,3.0,5.0,1.0,0.0,10.79,4.71,0.0,
16.647,315.0,315.0,0.0,0.0,0.0,0.0,1.0,0.0,3.0,5.0,1.0,0.0,10.89,4.81,0.0,
16.66,315.0,315.0,0.0,0.0,0.0,0.0,1.0,0.0,3.0,5.0,1.0,0.0,10.99,4.81,0.0,
16.673,315.0,315.0,0.0,0.0,0.0,0.0,1.0,0.0,3.0,5.0,1.0,0.0,11.18,4.81,0.0,
16.686,315.0,315.0,0.0,0.0,0.0,0.0,1.0,0.0,3.0,5.0,1.0,0.0,11.18,4.81,0.0,
16.699,315.0,315.0,0.0,0.0,0.0,0.0,1.0,0.0,3.0,5.0,1.0,0.0,11.28,4.91,0.0,
16.711,315.0,315.0,0.0,0.0,0.0,0.0,1.0,0.0,3.0,5.0,1.0,0.0,11.38,5.0,0.0,
16.724,315.0,315.0,0.0,0.0,0.0,0.0,1.0,0.0,3.0,6.0,1.0,0.0,11.48,5.1,0.0,
16.738,315.0,315.0,0.0,0.0,0.0,0.0,1.0,0.0,3.0,6.0,1.0,0.0,11.58,5.4,0.0,
16.75,315.0,315.0,0.0,0.0,0.0,0.0,1.0,0.0,3.0,6.0,1.0,0.0,11.67,5.49,0.0,
16.763,315.0,315.0,0.0,0.0,0.0,0.0,1.0,0.0,3.0,6.0,1.0,0.0,11.77,5.59,0.0,
16.777,315.0,315.0,0.0,0.0,0.0,0.0,1.0,0.0,3.0,6.0,1.0,0.0,11.87,5.69,0.0,
16.789,315.0,315.0,0.0,0.0,0.0,0.0,1.0,0.0,3.0,6.0,1.0,0.0,12.36,5.59,0.0,
16.802,315.0,315.0,0.0,0.0,0.0,0.0,1.0,0.0,3.0,6.0,1.0,0.0,12.56,5.69,0.0,
16.815,315.0,315.0,0.0,0.0,0.0,0.0,1.0,0.0,3.0,6.0,1.0,0.0,12.65,5.79,0.0,
16.828,315.0,315.0,0.0,0.0,0.0,0.0,1.0,0.0,3.0,6.0,1.0,0.0,12.85,5.89,0.0,
16.841,315.0,315.0,0.0,0.0,0.0,0.0,1.0,0.0,3.0,6.0,1.0,0.0,13.05,5.98,0.0,
16.854,315.0,315.0,0.0,0.0,0.0,0.0,1.0,0.0,3.0,6.0,1.0,0.0,13.34,5.98,0.0,
16.867,315.0,315.0,0.0,0.0,0.0,0.0,1.0,0.0,3.0,6.0,1.0,0.0,13.54,5.98,0.0,
16.879,315.0,315.0,0.0,0.0,0.0,0.0,1.0,0.0,3.0,6.0,1.0,0.0,13.73,5.98,0.0,
16.892,315.0,315.0,0.0,0.0,0.0,0.0,1.0,0.0,3.0,6.0,1.0,0.0,14.03,5.89,0.0,
16.906,315.0,315.0,0.0,0.0,0.0,0.0,1.0,0.0,3.0,6.0,1.0,0.0,14.22,5.89,0.0,
16.918,315.0,315.0,0.0,0.0,0.0,0.0,1.0,0.0,3.0,6.0,1.0,0.0,14.32,5.89,0.0,
16.931,315.0,315.0,0.0,0.0,0.0,0.0,1.0,0.0,3.0,6.0,1.0,0.0,14.42,5.79,0.0,
16.945,315.0,315.0,0.0,0.0,0.0,0.0,1.0,0.0,3.0,6.0,1.0,0.0,14.42,5.69,0.0,
16.957,315.0,315.0,0.0,0.0,0.0,0.0,1.0,0.0,3.0,6.0,1.0,0.0,14.62,5.69,0.0,
16.97,315.0,315.0,0.0,0.0,0.0,0.0,1.0,0.0,3.0,6.0,2.0,0.0,14.81,5.49,0.0,
16.983,315.0,315.0,0.0,0.0,0.0,0.0,1.0,0.0,3.0,6.0,2.0,0.0,14.81,5.49,0.0,
16.996,315.0,315.0,0.0,0.0,0.0,0.0,1.0,0.0,3.0,7.0,2.0,0.0,14.81,5.49,0.0,
17.009,315.0,315.0,0.0,0.0,0.0,0.0,1.0,0.0,3.0,7.0,2.0,0.0,14.81,5.49,0.0,
17.021,315.0,315.0,0.0,0.0,0.0,0.0,1.0,0.0,3.0,7.0,2.0,0.0,14.81,5.4,0.0,
17.035,315.0,315.0,0.0,0.0,0.0,0.0,1.0,0.0,3.0,7.0,2.0,0.0,14.72,5.4,0.0,
17.048,315.0,315.0,0.0,0.0,0.0,0.0,1.0,0.0,3.0,7.0,2.0,0.0,14.72,5.4,0.0,
17.06,315.0,315.0,0.0,0.0,0.0,0.0,1.0,0.0,3.0,7.0,2.0,0.0,14.62,5.4,0.0,
17.074,315.0,315.0,0.0,0.0,0.0,0.0,1.0,0.0,3.0,7.0,2.0,0.0,14.62,5.3,0.0,
17.086,315.0,315.0,0.0,0.0,0.0,0.0,1.0,0.0,3.0,7.0,2.0,0.0,14.72,5.1,0.0,
17.099,315.0,315.0,0.0,0.0,0.0,0.0,1.0,0.0,3.0,7.0,2.0,0.0,14.62,5.0,0.0,
17.113,315.0,315.0,0.0,0.0,0.0,0.0,1.0,0.0,4.0,7.0,2.0,0.0,14.62,4.81,0.0,
17.125,315.0,315.0,0.0,0.0,0.0,0.0,1.0,0.0,3.0,7.0,2.0,0.0,14.52,4.51,0.0,
17.138,315.0,315.0,0.0,0.0,0.0,0.0,1.0,0.0,3.0,7.0,2.0,0.0,14.52,4.41,0.0,
17.15,315.0,315.0,0.0,0.0,0.0,0.0,1.0,0.0,3.0,7.0,2.0,0.0,14.42,4.22,0.0,
17.164,315.0,315.0,0.0,0.0,0.0,0.0,1.0,0.0,3.0,7.0,2.0,0.0,14.32,4.12,0.0,
17.177,315.0,315.0,0.0,0.0,0.0,0.0,1.0,0.0,3.0,7.0,2.0,0.0,14.22,4.02,0.0,
17.189,315.0,315.0,0.0,0.0,0.0,0.0,1.0,0.0,3.0,7.0,2.0,0.0,14.03,4.02,0.0,
17.203,315.0,315.0,0.0,0.0,0.0,0.0,1.0,0.0,3.0,7.0,1.0,0.0,13.93,4.02,0.0,
17.216,315.0,315.0,0.0,0.0,0.0,0.0,1.0,0.0,3.0,7.0,1.0,0.0,13.83,3.92,0.0,
17.228,315.0,315.0,0.0,0.0,0.0,0.0,1.0,0.0,3.0,7.0,1.0,0.0,13.54,3.83,0.0,
17.242,315.0,315.0,0.0,0.0,0.0,0.0,1.0,0.0,3.0,7.0,1.0,0.0,13.54,3.92,0.0,
17.254,315.0,315.0,0.0,0.0,0.0,0.0,1.0,0.0,3.0,7.0,1.0,0.0,13.34,3.92,0.0,
17.267,315.0,315.0,0.0,0.0,0.0,0.0,1.0,0.0,3.0,7.0,1.0,0.0,13.24,3.73,0.0,
17.281,315.0,315.0,0.0,0.0,0.0,0.0,1.0,0.0,3.0,7.0,1.0,0.0,13.24,3.63,0.0,
17.293,315.0,315.0,0.0,0.0,0.0,0.0,1.0,0.0,3.0,7.0,1.0,0.0,13.15,3.53,0.0,
17.306,315.0,315.0,0.0,0.0,0.0,0.0,1.0,0.0,3.0,7.0,1.0,0.0,13.05,3.43,0.0,
17.318,315.0,315.0,0.0,0.0,0.0,0.0,1.0,0.0,3.0,7.0,1.0,0.0,12.95,3.53,0.0,
17.332,315.0,315.0,0.0,0.0,0.0,0.0,1.0,0.0,3.0,7.0,1.0,0.0,12.85,3.43,0.0,
17.345,315.0,315.0,0.0,0.0,0.0,0.0,1.0,0.0,3.0,7.0,1.0,0.0,12.85,3.43,0.0,
17.357,315.0,315.0,0.0,0.0,0.0,0.0,1.0,0.0,3.0,7.0,1.0,0.0,12.85,3.43,0.0,
17.371,315.0,315.0,0.0,0.0,0.0,0.0,1.0,0.0,3.0,7.0,1.0,0.0,12.75,3.34,0.0,
17.384,315.0,315.0,0.0,0.0,0.0,0.0,1.0,0.0,3.0,7.0,1.0,0.0,12.75,3.34,0.0,
17.396,315.0,315.0,0.0,0.0,0.0,0.0,1.0,0.0,3.0,7.0,1.0,0.0,12.75,3.34,0.0,
17.41,315.0,315.0,0.0,0.0,0.0,0.0,1.0,0.0,3.0,7.0,1.0,0.0,12.75,3.34,0.0,
17.422,315.0,315.0,0.0,0.0,0.0,0.0,1.0,0.0,3.0,7.0,1.0,0.0,12.75,3.34,0.0,
17.435,315.0,315.0,0.0,0.0,0.0,0.0,1.0,0.0,3.0,7.0,1.0,0.0,12.75,3.24,0.0,
17.448,315.0,315.0,0.0,0.0,0.0,0.0,1.0,0.0,3.0,7.0,1.0,0.0,12.75,3.24,0.0,
17.461,315.0,315.0,0.0,0.0,0.0,0.0,1.0,0.0,3.0,7.0,1.0,0.0,12.75,3.24,0.0,
17.474,315.0,315.0,0.0,0.0,0.0,0.0,1.0,0.0,3.0,7.0,1.0,0.0,12.75,3.04,0.0,
17.486,315.0,315.0,0.0,0.0,0.0,0.0,1.0,0.0,3.0,7.0,1.0,0.0,12.75,3.04,0.0,
17.5,315.0,315.0,0.0,0.0,0.0,0.0,1.0,0.0,3.0,7.0,1.0,0.0,12.65,3.14,0.0,
17.513,315.0,315.0,0.0,0.0,0.0,0.0,1.0,0.0,3.0,7.0,1.0,0.0,12.65,3.04,0.0,
17.525,315.0,315.0,0.0,0.0,0.0,0.0,1.0,0.0,3.0,7.0,1.0,0.0,12.56,2.94,0.0,
17.539,315.0,315.0,0.0,0.0,0.0,0.0,1.0,0.0,3.0,7.0,1.0,0.0,12.56,3.04,0.0,
17.552,315.0,315.0,0.0,0.0,0.0,0.0,1.0,0.0,3.0,7.0,1.0,0.0,12.46,3.04,0.0,
17.564,315.0,315.0,0.0,0.0,0.0,0.0,1.0,0.0,3.0,7.0,1.0,0.0,12.56,3.14,0.0,
17.577,315.0,315.0,0.0,0.0,0.0,0.0,1.0,0.0,3.0,7.0,1.0,0.0,12.46,3.24,0.0,
17.59,315.0,315.0,0.0,0.0,0.0,0.0,1.0,0.0,3.0,8.0,1.0,0.0,12.46,3.34,0.0,
17.603,315.0,315.0,0.0,0.0,0.0,0.0,1.0,0.0,3.0,7.0,1.0,0.0,12.46,3.34,0.0,
17.616,315.0,315.0,0.0,0.0,0.0,0.0,1.0,0.0,3.0,7.0,1.0,0.0,12.56,3.43,0.0,
17.629,315.0,315.0,0.0,0.0,0.0,0.0,1.0,0.0,3.0,7.0,1.0,0.0,12.46,3.43,0.0,
17.642,315.0,315.0,0.0,0.0,0.0,0.0,1.0,0.0,3.0,7.0,1.0,0.0,12.56,3.43,0.0,
17.655,315.0,315.0,0.0,0.0,0.0,0.0,1.0,0.0,3.0,7.0,1.0,0.0,12.56,3.43,0.0,
17.668,315.0,315.0,0.0,0.0,0.0,0.0,1.0,0.0,3.0,7.0,1.0,0.0,12.65,3.53,0.0,
17.681,315.0,315.0,0.0,0.0,0.0,0.0,1.0,0.0,3.0,7.0,1.0,0.0,12.56,3.53,0.0,
17.693,315.0,315.0,0.0,0.0,0.0,0.0,1.0,0.0,3.0,7.0,1.0,0.0,12.56,3.53,0.0,
17.707,315.0,315.0,0.0,0.0,0.0,0.0,1.0,0.0,3.0,7.0,1.0,0.0,12.56,3.53,0.0,
17.72,315.0,315.0,0.0,0.0,0.0,0.0,1.0,0.0,3.0,7.0,1.0,0.0,12.56,3.53,0.0,
17.732,315.0,315.0,0.0,0.0,0.0,0.0,1.0,0.0,3.0,7.0,1.0,0.0,12.56,3.63,0.0,
17.745,315.0,315.0,0.0,0.0,0.0,0.0,1.0,0.0,3.0,7.0,1.0,0.0,12.56,3.63,0.0,
17.758,315.0,315.0,0.0,0.0,0.0,0.0,1.0,0.0,3.0,7.0,1.0,0.0,12.56,3.73,0.0,
17.771,315.0,315.0,0.0,0.0,0.0,0.0,1.0,0.0,3.0,7.0,1.0,0.0,12.56,3.83,0.0,
17.784,315.0,315.0,0.0,0.0,0.0,0.0,1.0,0.0,3.0,7.0,1.0,0.0,12.65,3.73,0.0,
17.797,315.0,315.0,0.0,0.0,0.0,0.0,1.0,0.0,3.0,7.0,1.0,0.0,12.56,3.83,0.0,
17.81,315.0,315.0,0.0,0.0,0.0,0.0,1.0,0.0,3.0,8.0,1.0,0.0,12.65,3.83,0.0,
17.823,315.0,315.0,0.0,0.0,0.0,0.0,1.0,0.0,3.0,7.0,1.0,0.0,12.65,3.83,0.0,
17.836,315.0,315.0,0.0,0.0,0.0,0.0,1.0,0.0,3.0,7.0,1.0,0.0,12.65,3.92,0.0,
17.849,315.0,315.0,0.0,0.0,0.0,1.0,1.0,0.0,3.0,8.0,1.0,0.0,12.75,4.02,0.0,
17.861,315.0,315.0,0.0,0.0,0.0,0.0,1.0,0.0,3.0,7.0,1.0,0.0,12.75,4.02,0.0,
17.874,315.0,315.0,0.0,0.0,0.0,1.0,1.0,0.0,3.0,8.0,1.0,0.0,12.75,4.12,0.0,
17.888,315.0,315.0,0.0,0.0,0.0,1.0,1.0,0.0,3.0,7.0,1.0,0.0,12.75,4.12,0.0,
17.9,315.0,315.0,0.0,0.0,0.0,1.0,1.0,0.0,3.0,8.0,1.0,0.0,12.85,4.12,0.0,
17.913,315.0,315.0,0.0,0.0,0.0,1.0,1.0,0.0,3.0,8.0,1.0,0.0,12.85,4.32,0.0,
17.926,315.0,315.0,0.0,0.0,0.0,1.0,1.0,0.0,3.0,8.0,1.0,0.0,12.95,4.41,0.0,
17.939,315.0,315.0,0.0,0.0,0.0,1.0,1.0,0.0,3.0,8.0,1.0,0.0,13.15,4.32,0.0,
17.952,315.0,315.0,0.0,0.0,0.0,1.0,1.0,0.0,3.0,8.0,1.0,0.0,13.15,4.32,0.0,
17.965,315.0,315.0,0.0,0.0,0.0,1.0,1.0,0.0,3.0,8.0,1.0,0.0,13.24,4.41,0.0,
17.978,315.0,315.0,0.0,0.0,0.0,1.0,1.0,0.0,3.0,8.0,1.0,0.0,13.24,4.51,0.0,
17.991,315.0,315.0,0.0,0.0,0.0,1.0,1.0,0.0,3.0,8.0,1.0,0.0,13.34,4.41,0.0,
18.003,315.0,315.0,0.0,0.0,0.0,1.0,1.0,0.0,3.0,8.0,1.0,0.0,13.34,4.41,0.0,
18.017,315.0,315.0,0.0,0.0,0.0,1.0,1.0,0.0,3.0,8.0,1.0,0.0,13.34,4.41,0.0,
18.029,315.0,315.0,0.0,0.0,0.0,1.0,1.0,0.0,3.0,8.0,1.0,0.0,13.44,4.32,0.0,
18.042,315.0,315.0,0.0,0.0,0.0,1.0,1.0,0.0,3.0,8.0,1.0,0.0,13.34,4.32,0.0,
18.056,315.0,315.0,0.0,0.0,0.0,1.0,1.0,0.0,3.0,8.0,1.0,0.0,13.34,4.32,0.0,
18.068,315.0,315.0,0.0,0.0,0.0,1.0,1.0,0.0,3.0,8.0,1.0,0.0,13.34,4.22,0.0,
18.081,315.0,315.0,0.0,0.0,0.0,1.0,1.0,0.0,3.0,8.0,1.0,0.0,13.34,4.22,0.0,
18.095,315.0,315.0,0.0,0.0,0.0,1.0,1.0,0.0,3.0,8.0,1.0,0.0,13.34,4.22,0.0,
18.107,315.0,315.0,0.0,0.0,0.0,1.0,1.0,0.0,3.0,8.0,1.0,0.0,13.34,4.32,0.0,
18.12,315.0,315.0,0.0,0.0,0.0,1.0,1.0,0.0,3.0,8.0,1.0,0.0,13.44,4.32,0.0,
18.132,315.0,315.0,0.0,0.0,0.0,1.0,1.0,0.0,3.0,8.0,2.0,0.0,13.54,4.32,0.0,
18.146,315.0,315.0,0.0,0.0,0.0,1.0,1.0,0.0,3.0,8.0,2.0,0.0,13.64,4.41,0.0,
18.159,315.0,315.0,0.0,0.0,0.0,1.0,1.0,0.0,3.0,8.0,2.0,0.0,13.54,4.32,0.0,
18.171,315.0,315.0,0.0,0.0,0.0,1.0,1.0,0.0,3.0,8.0,2.0,0.0,13.64,4.22,0.0,
18.185,315.0,315.0,0.0,0.0,0.0,1.0,1.0,0.0,3.0,8.0,2.0,0.0,13.73,4.12,0.0,
18.197,315.0,315.0,0.0,0.0,0.0,1.0,1.0,0.0,3.0,8.0,2.0,0.0,13.73,4.12,0.0,
18.21,315.0,315.0,0.0,0.0,0.0,1.0,1.0,0.0,3.0,8.0,2.0,0.0,13.93,4.12,0.0,
18.224,315.0,315.0,0.0,0.0,0.0,1.0,1.0,0.0,3.0,8.0,2.0,0.0,13.93,4.02,0.0,
18.236,315.0,315.0,0.0,0.0,0.0,1.0,1.0,0.0,3.0,8.0,2.0,0.0,13.93,3.92,0.0,
18.249,315.0,315.0,0.0,0.0,0.0,1.0,1.0,0.0,3.0,8.0,2.0,0.0,13.93,3.92,0.0,
18.263,315.0,315.0,0.0,0.0,0.0,1.0,1.0,0.0,3.0,8.0,2.0,0.0,13.93,3.92,0.0,
18.275,315.0,315.0,0.0,0.0,0.0,1.0,1.0,0.0,3.0,8.0,2.0,0.0,13.93,3.92,0.0,
18.288,315.0,315.0,0.0,0.0,0.0,1.0,1.0,0.0,3.0,8.0,2.0,0.0,14.03,3.83,0.0,
18.3,315.0,315.0,0.0,0.0,0.0,1.0,1.0,0.0,3.0,8.0,2.0,0.0,14.03,3.92,0.0,
18.314,315.0,315.0,0.0,0.0,0.0,1.0,1.0,0.0,3.0,8.0,2.0,0.0,14.13,3.83,0.0,
18.327,315.0,315.0,0.0,0.0,0.0,1.0,1.0,0.0,3.0,8.0,2.0,0.0,14.13,3.83,0.0,
18.339,315.0,315.0,0.0,0.0,0.0,1.0,1.0,0.0,3.0,8.0,2.0,0.0,14.13,3.73,0.0,
18.353,315.0,315.0,0.0,0.0,0.0,1.0,1.0,0.0,3.0,8.0,2.0,0.0,14.13,3.73,0.0,
18.365,315.0,315.0,0.0,0.0,0.0,1.0,1.0,0.0,3.0,8.0,2.0,0.0,14.13,3.73,0.0,
18.378,315.0,315.0,0.0,0.0,0.0,1.0,1.0,0.0,3.0,8.0,2.0,0.0,14.03,3.63,0.0,
18.392,315.0,315.0,0.0,0.0,0.0,1.0,1.0,0.0,3.0,8.0,2.0,0.0,13.93,3.63,0.0,
18.404,315.0,315.0,0.0,0.0,0.0,1.0,1.0,0.0,3.0,8.0,2.0,0.0,13.93,3.63,0.0,
18.417,315.0,315.0,0.0,0.0,0.0,1.0,1.0,0.0,3.0,8.0,2.0,0.0,13.83,3.63,0.0,
18.43,315.0,315.0,0.0,0.0,0.0,1.0,1.0,0.0,3.0,8.0,2.0,0.0,13.83,3.73,0.0,
18.443,315.0,315.0,0.0,0.0,0.0,1.0,1.0,0.0,3.0,8.0,2.0,0.0,13.93,3.73,0.0,
18.456,315.0,315.0,0.0,0.0,0.0,1.0,1.0,0.0,3.0,8.0,2.0,0.0,13.93,3.63,0.0,
18.468,315.0,315.0,0.0,0.0,0.0,1.0,1.0,0.0,3.0,8.0,2.0,0.0,13.93,3.63,0.0,
18.482,315.0,315.0,0.0,0.0,0.0,1.0,1.0,0.0,3.0,8.0,2.0,0.0,14.03,3.63,0.0,
18.495,315.0,315.0,0.0,0.0,0.0,1.0,1.0,0.0,3.0,8.0,2.0,0.0,14.13,3.63,0.0,
18.507,315.0,315.0,0.0,0.0,0.0,1.0,1.0,0.0,3.0,8.0,2.0,0.0,14.03,3.63,0.0,
18.521,315.0,315.0,0.0,0.0,0.0,1.0,1.0,0.0,3.0,8.0,2.0,0.0,13.93,3.63,0.0,
18.533,315.0,315.0,0.0,0.0,0.0,1.0,1.0,0.0,3.0,8.0,2.0,0.0,13.93,3.63,0.0,
18.546,315.0,315.0,0.0,0.0,0.0,1.0,1.0,0.0,3.0,8.0,2.0,0.0,13.93,3.53,0.0,
18.56,315.0,315.0,0.0,0.0,0.0,1.0,1.0,0.0,3.0,8.0,2.0,0.0,13.93,3.53,0.0,
18.572,315.0,315.0,0.0,0.0,0.0,1.0,1.0,0.0,3.0,8.0,2.0,0.0,13.93,3.43,0.0,
18.585,315.0,315.0,0.0,0.0,0.0,1.0,1.0,0.0,3.0,8.0,2.0,0.0,14.03,3.34,0.0,
18.598,315.0,315.0,0.0,0.0,0.0,1.0,1.0,0.0,3.0,8.0,2.0,0.0,13.93,3.34,0.0,
18.611,315.0,315.0,0.0,0.0,0.0,1.0,1.0,0.0,3.0,8.0,2.0,0.0,13.83,3.34,0.0,
18.624,315.0,315.0,0.0,0.0,0.0,1.0,1.0,0.0,3.0,8.0,2.0,0.0,13.93,3.43,0.0,
18.636,315.0,315.0,0.0,0.0,0.0,1.0,1.0,0.0,3.0,8.0,2.0,0.0,13.93,3.53,0.0,
18.65,315.0,315.0,0.0,0.0,0.0,1.0,1.0,0.0,3.0,8.0,2.0,0.0,13.93,3.53,0.0,
18.663,315.0,315.0,0.0,0.0,0.0,1.0,1.0,0.0,3.0,8.0,2.0,0.0,13.93,3.63,0.0,
18.675,315.0,315.0,0.0,0.0,0.0,1.0,1.0,0.0,3.0,8.0,2.0,0.0,13.93,3.73,0.0,
18.689,315.0,315.0,0.0,0.0,0.0,1.0,1.0,0.0,3.0,8.0,2.0,0.0,13.83,3.63,0.0,
18.702,315.0,315.0,0.0,0.0,0.0,1.0,1.0,0.0,3.0,8.0,2.0,0.0,13.83,3.63,0.0,
18.714,315.0,315.0,0.0,0.0,0.0,1.0,1.0,0.0,3.0,8.0,2.0,0.0,13.83,3.63,0.0,
18.727,315.0,315.0,0.0,0.0,0.0,1.0,1.0,0.0,3.0,8.0,2.0,0.0,13.83,3.73,0.0,
18.74,315.0,315.0,0.0,0.0,0.0,1.0,1.0,0.0,3.0,8.0,2.0,0.0,13.83,3.73,0.0,
18.753,315.0,315.0,0.0,0.0,0.0,1.0,1.0,0.0,3.0,8.0,2.0,0.0,13.83,3.73,0.0,
18.766,315.0,315.0,0.0,0.0,0.0,1.0,1.0,0.0,3.0,8.0,2.0,0.0,13.83,3.73,0.0,
18.779,315.0,315.0,0.0,0.0,0.0,1.0,1.0,0.0,3.0,8.0,2.0,0.0,13.93,3.83,0.0,
18.792,315.0,315.0,0.0,0.0,0.0,1.0,1.0,0.0,3.0,8.0,2.0,0.0,13.93,3.92,0.0,
18.804,315.0,315.0,0.0,0.0,0.0,1.0,1.0,0.0,4.0,8.0,2.0,0.0,14.03,3.92,0.0,
18.818,315.0,315.0,0.0,0.0,0.0,1.0,1.0,0.0,4.0,8.0,2.0,0.0,14.03,3.92,0.0,
18.831,315.0,315.0,0.0,0.0,0.0,1.0,1.0,0.0,4.0,8.0,2.0,0.0,14.03,3.92,0.0,
18.843,315.0,315.0,0.0,0.0,0.0,1.0,1.0,0.0,4.0,8.0,2.0,0.0,14.13,3.92,0.0,
18.856,315.0,315.0,0.0,0.0,0.0,1.0,1.0,0.0,4.0,8.0,2.0,0.0,14.03,3.92,0.0,
18.87,315.0,315.0,0.0,0.0,0.0,1.0,1.0,0.0,4.0,8.0,2.0,0.0,14.03,4.02,0.0,
18.882,315.0,315.0,0.0,0.0,0.0,1.0,1.0,0.0,4.0,8.0,2.0,0.0,14.13,4.02,0.0,
18.895,315.0,315.0,0.0,0.0,0.0,1.0,1.0,1.0,4.0,8.0,2.0,0.0,14.13,4.12,0.0,
18.908,315.0,315.0,0.0,0.0,0.0,1.0,1.0,1.0,4.0,8.0,2.0,0.0,14.13,4.12,0.0,
18.921,315.0,315.0,0.0,0.0,0.0,1.0,1.0,1.0,4.0,8.0,2.0,0.0,14.13,4.22,0.0,
18.934,315.0,315.0,0.0,0.0,0.0,1.0,1.0,1.0,4.0,8.0,2.0,0.0,14.22,4.32,0.0,
18.947,315.0,315.0,0.0,0.0,0.0,1.0,1.0,1.0,4.0,8.0,2.0,0.0,14.32,4.32,0.0,
18.96,315.0,315.0,0.0,0.0,0.0,1.0,1.0,1.0,4.0,8.0,2.0,0.0,14.32,4.32,0.0,
18.972,315.0,315.0,0.0,0.0,0.0,1.0,1.0,1.0,4.0,8.0,2.0,0.0,14.32,4.41,0.0,
18.985,315.0,315.0,0.0,0.0,0.0,1.0,1.0,1.0,4.0,8.0,2.0,0.0,14.42,4.41,0.0,
18.999,315.0,315.0,0.0,0.0,0.0,1.0,1.0,1.0,4.0,8.0,2.0,0.0,14.52,4.51,0.0,
19.011,315.0,315.0,0.0,0.0,0.0,1.0,1.0,1.0,4.0,8.0,2.0,0.0,14.42,4.61,0.0,
19.024,315.0,315.0,0.0,0.0,0.0,1.0,1.0,1.0,4.0,8.0,2.0,0.0,14.42,4.61,0.0,
19.038,315.0,315.0,0.0,0.0,0.0,1.0,1.0,1.0,4.0,8.0,2.0,0.0,14.52,4.71,0.0,
19.05,315.0,315.0,0.0,0.0,0.0,1.0,1.0,1.0,4.0,8.0,2.0,0.0,14.42,4.71,0.0,
19.063,315.0,315.0,0.0,0.0,0.0,1.0,1.0,1.0,4.0,8.0,2.0,0.0,14.52,4.81,0.0,
19.076,315.0,315.0,0.0,0.0,0.0,1.0,1.0,1.0,4.0,8.0,2.0,0.0,14.52,4.81,0.0,
19.089,315.0,315.0,0.0,0.0,0.0,1.0,1.0,1.0,4.0,8.0,2.0,0.0,14.62,4.71,0.0,
19.102,315.0,315.0,0.0,0.0,0.0,1.0,1.0,1.0,4.0,8.0,2.0,0.0,14.62,4.71,0.0,
19.115,315.0,315.0,0.0,0.0,0.0,1.0,1.0,1.0,4.0,8.0,2.0,0.0,14.52,4.61,0.0,
19.128,315.0,315.0,0.0,0.0,0.0,1.0,1.0,1.0,4.0,8.0,2.0,0.0,14.62,4.71,0.0,
19.14,315.0,315.0,0.0,0.0,0.0,1.0,1.0,1.0,4.0,8.0,2.0,0.0,14.62,4.71,0.0,
19.153,315.0,315.0,0.0,0.0,0.0,1.0,1.0,1.0,4.0,8.0,2.0,0.0,14.62,4.71,0.0,
19.167,315.0,315.0,0.0,0.0,0.0,1.0,1.0,1.0,4.0,8.0,2.0,0.0,14.62,4.81,0.0,
19.179,315.0,315.0,0.0,0.0,0.0,1.0,1.0,1.0,4.0,8.0,2.0,0.0,14.62,4.81,0.0,
19.192,315.0,315.0,0.0,0.0,0.0,1.0,1.0,1.0,4.0,8.0,2.0,0.0,14.62,4.91,0.0,
19.206,315.0,315.0,0.0,0.0,0.0,1.0,1.0,1.0,4.0,8.0,2.0,0.0,14.72,4.91,0.0,
19.218,315.0,315.0,0.0,0.0,0.0,1.0,1.0,1.0,4.0,8.0,2.0,0.0,14.72,5.0,0.0,
19.231,315.0,315.0,0.0,0.0,0.0,1.0,1.0,1.0,4.0,8.0,2.0,0.0,14.72,5.0,0.0,
19.244,315.0,315.0,0.0,0.0,0.0,1.0,1.0,1.0,4.0,8.0,2.0,0.0,14.81,4.91,0.0,
19.257,315.0,315.0,0.0,0.0,0.0,1.0,1.0,1.0,4.0,8.0,2.0,0.0,14.72,4.81,0.0,
19.27,315.0,315.0,0.0,0.0,0.0,1.0,1.0,1.0,4.0,8.0,2.0,0.0,14.81,4.81,0.0,
19.282,315.0,315.0,0.0,0.0,0.0,1.0,1.0,1.0,4.0,8.0,2.0,0.0,14.81,4.81,0.0,
19.296,315.0,315.0,0.0,0.0,0.0,1.0,1.0,1.0,4.0,9.0,2.0,0.0,14.81,4.81,0.0,
19.309,315.0,315.0,0.0,0.0,0.0,1.0,1.0,1.0,4.0,8.0,2.0,0.0,14.91,4.71,0.0,
19.321,315.0,315.0,0.0,0.0,0.0,1.0,1.0,1.0,4.0,9.0,2.0,0.0,14.91,4.71,0.0,
19.335,315.0,315.0,0.0,0.0,0.0,1.0,1.0,1.0,4.0,9.0,2.0,0.0,14.91,4.61,0.0,
19.347,315.0,315.0,0.0,0.0,0.0,1.0,1.0,1.0,4.0,9.0,2.0,0.0,14.91,4.61,0.0,
19.36,315.0,315.0,0.0,0.0,0.0,1.0,1.0,1.0,4.0,9.0,2.0,0.0,14.91,4.61,0.0,
19.374,315.0,315.0,0.0,0.0,0.0,1.0,1.0,1.0,4.0,8.0,2.0,0.0,14.91,4.71,0.0,
19.386,315.0,315.0,0.0,0.0,0.0,1.0,1.0,1.0,4.0,9.0,2.0,0.0,15.01,4.71,0.0,
19.399,315.0,315.0,0.0,0.0,0.0,1.0,1.0,1.0,4.0,9.0,2.0,0.0,15.01,4.71,0.0,
19.411,315.0,315.0,0.0,0.0,0.0,1.0,1.0,1.0,4.0,9.0,2.0,0.0,15.01,4.51,0.0,
19.425,315.0,315.0,0.0,0.0,0.0,1.0,1.0,1.0,4.0,9.0,2.0,0.0,15.01,4.51,0.0,
19.438,315.0,315.0,0.0,0.0,0.0,1.0,1.0,1.0,4.0,9.0,2.0,0.0,15.11,4.51,0.0,
19.45,315.0,315.0,0.0,0.0,0.0,1.0,1.0,1.0,4.0,9.0,2.0,0.0,15.01,4.51,0.0,
19.464,315.0,315.0,0.0,0.0,0.0,1.0,1.0,1.0,4.0,9.0,2.0,0.0,15.11,4.51,0.0,
19.477,315.0,315.0,0.0,0.0,0.0,1.0,1.0,1.0,4.0,9.0,2.0,0.0,15.01,4.61,0.0,
19.489,315.0,315.0,0.0,0.0,0.0,1.0,1.0,1.0,4.0,9.0,2.0,0.0,15.01,4.51,0.0,
19.503,315.0,315.0,0.0,0.0,0.0,1.0,1.0,1.0,4.0,9.0,2.0,0.0,15.01,4.51,0.0,
19.515,315.0,315.0,0.0,0.0,0.0,1.0,1.0,1.0,4.0,9.0,2.0,0.0,15.01,4.51,0.0,
19.528,315.0,315.0,0.0,0.0,0.0,1.0,1.0,1.0,4.0,9.0,2.0,0.0,15.11,4.61,0.0,
19.542,315.0,315.0,0.0,0.0,0.0,1.0,1.0,1.0,4.0,9.0,2.0,0.0,15.11,4.61,0.0,
19.554,315.0,315.0,0.0,0.0,0.0,1.0,1.0,1.0,4.0,9.0,2.0,0.0,15.11,4.71,0.0,
19.567,315.0,315.0,0.0,0.0,0.0,1.0,1.0,1.0,4.0,9.0,2.0,0.0,15.21,4.81,0.0,
19.579,315.0,315.0,0.0,0.0,0.0,1.0,1.0,1.0,4.0,9.0,2.0,0.0,15.21,4.71,0.0,
19.593,315.0,315.0,0.0,0.0,0.0,1.0,1.0,1.0,4.0,9.0,2.0,0.0,15.21,4.71,0.0,
19.606,315.0,315.0,0.0,0.0,0.0,1.0,1.0,1.0,4.0,9.0,2.0,0.0,15.21,4.81,0.0,
19.618,315.0,315.0,0.0,0.0,0.0,1.0,1.0,1.0,4.0,9.0,2.0,0.0,15.21,4.71,0.0,
19.632,315.0,315.0,0.0,0.0,0.0,1.0,1.0,1.0,4.0,9.0,2.0,0.0,15.11,4.71,0.0,
19.645,315.0,315.0,0.0,0.0,0.0,1.0,1.0,1.0,4.0,9.0,2.0,0.0,15.11,4.61,0.0,
19.657,315.0,315.0,0.0,0.0,0.0,1.0,1.0,1.0,4.0,9.0,2.0,0.0,15.11,4.61,0.0,
19.671,315.0,315.0,0.0,0.0,0.0,1.0,1.0,1.0,4.0,9.0,2.0,0.0,15.21,4.71,0.0,
19.683,315.0,315.0,0.0,0.0,0.0,1.0,1.0,1.0,4.0,9.0,2.0,0.0,15.21,4.71,0.0,
19.696,315.0,315.0,0.0,0.0,0.0,1.0,1.0,1.0,4.0,9.0,2.0,0.0,15.11,4.81,0.0,
19.709,315.0,315.0,0.0,0.0,0.0,1.0,1.0,1.0,4.0,9.0,2.0,0.0,15.11,4.81,0.0,
19.722,315.0,315.0,0.0,0.0,0.0,1.0,1.0,1.0,4.0,9.0,2.0,0.0,15.11,4.91,0.0,
19.735,315.0,315.0,0.0,0.0,0.0,1.0,1.0,1.0,4.0,9.0,2.0,0.0,15.11,5.0,0.0,
19.747,315.0,315.0,0.0,0.0,0.0,1.0,1.0,1.0,4.0,9.0,2.0,0.0,15.11,5.0,0.0,
19.761,315.0,315.0,0.0,0.0,0.0,1.0,1.0,1.0,4.0,9.0,2.0,0.0,15.11,5.0,0.0,
19.774,315.0,315.0,0.0,0.0,0.0,1.0,1.0,1.0,4.0,9.0,2.0,0.0,15.11,5.1,0.0,
19.786,315.0,315.0,0.0,0.0,0.0,1.0,1.0,1.0,4.0,9.0,2.0,0.0,15.01,5.2,0.0,
19.8,315.0,315.0,0.0,0.0,0.0,1.0,1.0,1.0,4.0,9.0,2.0,0.0,15.01,5.2,0.0,
19.813,315.0,315.0,0.0,0.0,0.0,1.0,1.0,1.0,4.0,9.0,2.0,0.0,15.01,5.1,0.0,
19.825,315.0,315.0,0.0,0.0,0.0,1.0,1.0,1.0,4.0,9.0,2.0,0.0,15.01,5.2,0.0,
19.838,315.0,315.0,0.0,0.0,0.0,1.0,1.0,1.0,4.0,9.0,2.0,0.0,15.01,5.3,0.0,
19.851,315.0,315.0,0.0,0.0,0.0,1.0,1.0,1.0,4.0,9.0,2.0,0.0,15.11,5.3,0.0,
19.864,315.0,315.0,0.0,0.0,0.0,1.0,1.0,1.0,4.0,9.0,2.0,0.0,15.01,5.4,0.0,
19.877,315.0,315.0,0.0,0.0,0.0,1.0,2.0,1.0,4.0,9.0,2.0,0.0,15.01,5.49,0.0,
19.89,315.0,315.0,0.0,0.0,0.0,1.0,2.0,1.0,4.0,9.0,2.0,0.0,15.01,5.59,0.0,
19.903,315.0,315.0,0.0,0.0,0.0,1.0,2.0,1.0,4.0,9.0,2.0,0.0,15.01,5.59,0.0,
19.916,315.0,315.0,0.0,0.0,0.0,1.0,2.0,1.0,4.0,9.0,2.0,0.0,15.01,5.69,0.0,
19.929,315.0,315.0,0.0,0.0,0.0,1.0,2.0,1.0,4.0,9.0,2.0,0.0,15.01,5.79,0.0,
19.942,315.0,315.0,0.0,0.0,0.0,1.0,2.0,1.0,4.0,9.0,2.0,0.0,14.91,5.69,0.0,
19.954,315.0,315.0,0.0,0.0,0.0,1.0,2.0,1.0,4.0,9.0,2.0,0.0,14.81,5.79,889.67,
19.968,315.0,315.0,0.0,0.0,0.0,1.0,2.0,1.0,4.0,9.0,2.0,0.0,14.81,5.79,0.0,
19.981,315.0,315.0,0.0,0.0,0.0,1.0,2.0,1.0,4.0,9.0,2.0,0.0,14.81,5.89,0.0,
19.993,315.0,315.0,0.0,0.0,0.0,1.0,2.0,1.0,4.0,9.0,2.0,0.0,14.81,5.89,0.0,
20.006,315.0,315.0,0.0,0.0,0.0,1.0,2.0,1.0,4.0,9.0,2.0,0.0,14.72,5.89,0.0,
20.02,315.0,315.0,0.0,0.0,0.0,1.0,2.0,1.0,4.0,9.0,2.0,0.0,14.72,5.98,0.0,
20.032,315.0,315.0,0.0,0.0,0.0,1.0,2.0,1.0,4.0,9.0,2.0,0.0,14.72,6.08,0.0,
20.045,315.0,315.0,0.0,0.0,0.0,1.0,2.0,1.0,4.0,9.0,2.0,0.0,14.72,6.18,0.0,
20.058,315.0,315.0,0.0,0.0,0.0,1.0,2.0,1.0,4.0,9.0,2.0,0.0,14.62,6.18,0.0,
20.071,315.0,315.0,0.0,0.0,0.0,1.0,2.0,1.0,4.0,9.0,2.0,0.0,14.62,6.28,0.0,
20.084,315.0,315.0,0.0,0.0,0.0,1.0,2.0,1.0,4.0,9.0,2.0,0.0,14.52,6.38,0.0,
20.097,315.0,315.0,0.0,0.0,0.0,1.0,2.0,1.0,4.0,9.0,2.0,0.0,14.52,6.47,0.0,
20.11,315.0,315.0,0.0,0.0,0.0,1.0,2.0,1.0,4.0,9.0,2.0,0.0,14.62,6.47,0.0,
20.123,315.0,315.0,0.0,0.0,0.0,1.0,2.0,1.0,4.0,9.0,2.0,0.0,14.52,6.57,0.0,
20.135,315.0,315.0,0.0,0.0,0.0,1.0,2.0,1.0,4.0,9.0,2.0,0.0,14.42,6.57,0.0,
20.149,315.0,315.0,0.0,0.0,0.0,1.0,2.0,1.0,4.0,9.0,2.0,0.0,14.52,6.57,0.0,
20.161,315.0,315.0,0.0,0.0,0.0,1.0,2.0,1.0,4.0,9.0,2.0,0.0,14.52,6.57,0.0,
20.174,315.0,315.0,0.0,0.0,0.0,1.0,2.0,1.0,4.0,9.0,2.0,0.0,14.42,6.57,0.0,
20.188,315.0,315.0,0.0,0.0,0.0,1.0,2.0,1.0,4.0,8.0,2.0,0.0,14.42,6.57,0.0,
20.2,315.0,315.0,0.0,0.0,0.0,1.0,2.0,1.0,4.0,9.0,2.0,0.0,14.32,6.67,0.0,
20.213,315.0,315.0,0.0,0.0,0.0,1.0,2.0,1.0,4.0,9.0,2.0,0.0,14.32,6.57,0.0,
20.226,315.0,315.0,0.0,0.0,0.0,1.0,2.0,1.0,4.0,9.0,2.0,0.0,14.42,6.77,0.0,
20.239,315.0,315.0,0.0,0.0,0.0,1.0,2.0,1.0,4.0,9.0,2.0,0.0,14.32,6.77,0.0,
20.252,315.0,315.0,0.0,0.0,0.0,1.0,2.0,1.0,4.0,9.0,2.0,0.0,14.32,6.87,0.0,
20.264,315.0,315.0,0.0,0.0,0.0,1.0,2.0,1.0,4.0,9.0,2.0,0.0,14.42,6.97,0.0,
20.278,315.0,315.0,0.0,0.0,0.0,1.0,2.0,1.0,4.0,8.0,2.0,0.0,14.32,7.06,0.0,
20.291,315.0,315.0,0.0,0.0,0.0,1.0,2.0,1.0,4.0,9.0,2.0,0.0,14.42,7.16,0.0,
20.303,315.0,315.0,0.0,0.0,0.0,1.0,2.0,1.0,4.0,9.0,2.0,0.0,14.52,7.26,0.0,
20.317,315.0,315.0,0.0,0.0,0.0,1.0,2.0,1.0,4.0,9.0,2.0,0.0,14.52,7.16,0.0,
20.329,315.0,315.0,0.0,0.0,0.0,1.0,2.0,1.0,4.0,9.0,2.0,0.0,14.52,7.06,0.0,
20.342,315.0,315.0,0.0,0.0,0.0,1.0,2.0,1.0,4.0,9.0,2.0,0.0,14.52,7.16,0.0,
20.356,315.0,315.0,0.0,0.0,0.0,1.0,2.0,1.0,4.0,9.0,2.0,0.0,14.52,7.06,0.0,
20.368,315.0,315.0,0.0,0.0,0.0,1.0,2.0,1.0,4.0,9.0,2.0,0.0,14.62,7.06,0.0,
20.381,315.0,315.0,0.0,0.0,0.0,1.0,2.0,1.0,4.0,9.0,2.0,0.0,14.62,7.06,0.0,
20.395,315.0,315.0,0.0,0.0,0.0,1.0,2.0,1.0,4.0,9.0,2.0,0.0,14.62,7.16,0.0,
20.407,315.0,315.0,0.0,0.0,0.0,1.0,2.0,1.0,4.0,9.0,2.0,0.0,14.62,7.16,0.0,
20.42,315.0,315.0,0.0,0.0,0.0,1.0,2.0,1.0,4.0,9.0,2.0,0.0,14.72,7.26,0.0,
20.432,315.0,315.0,0.0,0.0,0.0,1.0,2.0,1.0,4.0,9.0,2.0,0.0,14.72,7.26,0.0,
20.446,315.0,315.0,0.0,0.0,0.0,1.0,2.0,1.0,4.0,9.0,2.0,0.0,14.72,7.16,0.0,
20.459,315.0,315.0,0.0,0.0,0.0,1.0,2.0,1.0,4.0,9.0,2.0,0.0,14.72,7.06,0.0,
20.471,315.0,315.0,0.0,0.0,0.0,1.0,2.0,1.0,4.0,9.0,2.0,0.0,14.81,7.06,0.0,
20.485,315.0,315.0,0.0,0.0,0.0,1.0,2.0,1.0,4.0,9.0,2.0,0.0,14.72,7.06,0.0,
20.497,315.0,315.0,0.0,0.0,0.0,1.0,2.0,1.0,4.0,9.0,2.0,0.0,14.72,6.97,0.0,
20.51,315.0,315.0,0.0,0.0,0.0,1.0,2.0,1.0,4.0,9.0,2.0,0.0,14.72,6.87,0.0,
20.524,315.0,315.0,0.0,0.0,0.0,1.0,2.0,1.0,4.0,9.0,2.0,0.0,14.81,6.87,0.0,
20.536,315.0,315.0,0.0,0.0,0.0,1.0,2.0,1.0,4.0,9.0,2.0,0.0,14.91,6.87,0.0,
20.549,315.0,315.0,0.0,0.0,0.0,1.0,2.0,1.0,4.0,9.0,2.0,0.0,14.81,6.77,0.0,
20.562,315.0,315.0,0.0,0.0,0.0,1.0,2.0,1.0,4.0,9.0,2.0,0.0,14.81,6.87,0.0,
20.575,315.0,315.0,0.0,0.0,0.0,1.0,2.0,1.0,4.0,9.0,2.0,0.0,14.81,6.77,0.0,
20.588,315.0,315.0,0.0,0.0,0.0,1.0,2.0,1.0,4.0,9.0,2.0,0.0,14.91,6.77,0.0,
20.6,315.0,315.0,0.0,0.0,0.0,1.0,2.0,1.0,4.0,9.0,2.0,0.0,14.81,6.67,0.0,
20.614,315.0,315.0,0.0,0.0,0.0,1.0,2.0,1.0,4.0,9.0,2.0,0.0,14.91,6.77,0.0,
20.627,315.0,315.0,0.0,0.0,0.0,1.0,2.0,1.0,4.0,9.0,2.0,0.0,14.91,6.77,0.0,
20.639,315.0,315.0,0.0,0.0,0.0,1.0,2.0,1.0,4.0,9.0,2.0,0.0,14.91,6.67,0.0,
20.653,315.0,315.0,0.0,0.0,0.0,1.0,2.0,1.0,4.0,9.0,2.0,0.0,15.01,6.67,0.0,
20.665,315.0,315.0,0.0,0.0,0.0,1.0,2.0,1.0,4.0,9.0,2.0,0.0,15.01,6.57,0.0,
20.678,315.0,315.0,0.0,0.0,0.0,1.0,2.0,1.0,4.0,9.0,2.0,0.0,15.11,6.57,0.0,
20.691,315.0,315.0,0.0,0.0,0.0,1.0,2.0,1.0,4.0,9.0,2.0,0.0,15.11,6.47,0.0,
20.704,315.0,315.0,0.0,0.0,0.0,1.0,2.0,1.0,4.0,9.0,2.0,0.0,15.21,6.38,0.0,
20.717,315.0,315.0,0.0,0.0,0.0,1.0,2.0,1.0,4.0,9.0,2.0,0.0,15.11,6.28,0.0,
20.73,315.0,315.0,0.0,0.0,0.0,1.0,2.0,1.0,4.0,9.0,2.0,0.0,15.11,6.28,0.0,
20.743,315.0,315.0,0.0,0.0,0.0,1.0,2.0,1.0,4.0,9.0,2.0,0.0,15.11,6.28,0.0,
20.756,315.0,315.0,0.0,0.0,0.0,1.0,2.0,1.0,4.0,9.0,2.0,0.0,15.11,6.38,0.0,
20.768,315.0,315.0,0.0,0.0,0.0,1.0,2.0,1.0,4.0,9.0,2.0,0.0,15.3,6.38,0.0,
20.782,315.0,315.0,0.0,0.0,0.0,1.0,2.0,1.0,4.0,9.0,2.0,0.0,15.4,6.38,0.0,
20.795,315.0,315.0,0.0,0.0,0.0,1.0,2.0,1.0,4.0,9.0,2.0,0.0,15.4,6.47,0.0,
20.807,315.0,315.0,0.0,0.0,0.0,1.0,2.0,1.0,4.0,9.0,2.0,0.0,15.4,6.67,0.0,
20.82,315.0,315.0,0.0,0.0,0.0,1.0,2.0,1.0,4.0,9.0,2.0,0.0,15.4,6.67,0.0,
20.833,315.0,315.0,0.0,0.0,0.0,1.0,2.0,1.0,4.0,9.0,2.0,0.0,15.5,6.67,0.0,
20.846,315.0,315.0,0.0,0.0,0.0,1.0,2.0,1.0,4.0,9.0,2.0,0.0,15.5,6.57,0.0,
20.859,315.0,315.0,0.0,0.0,0.0,1.0,2.0,1.0,4.0,9.0,2.0,0.0,15.5,6.57,0.0,
20.872,315.0,315.0,0.0,0.0,0.0,1.0,2.0,1.0,4.0,9.0,2.0,0.0,15.5,6.57,0.0,
20.885,315.0,315.0,0.0,0.0,0.0,1.0,2.0,1.0,4.0,9.0,2.0,0.0,15.6,6.47,0.0,
20.898,315.0,315.0,0.0,0.0,0.0,1.0,2.0,1.0,4.0,9.0,2.0,0.0,15.6,6.57,0.0,
20.911,315.0,315.0,0.0,0.0,0.0,1.0,2.0,1.0,4.0,9.0,2.0,0.0,15.6,6.57,0.0,
20.924,315.0,315.0,0.0,0.0,0.0,1.0,2.0,1.0,4.0,9.0,2.0,0.0,15.7,6.67,0.0,
20.936,315.0,315.0,0.0,0.0,0.0,1.0,2.0,1.0,4.0,9.0,2.0,0.0,15.7,6.67,0.0,
