time,pitch,roll,gyrx,gyry,gyrz,f1,f2,f3,f4,f5,f6,f7,g1,g2,g3
0.388,48.32,62.64,-2.37,-0.76,0.21,0,0,0,0,0,0,0,0.00,0.00,0.88,
0.411,55.150999999999996,71.856,-3.33,-0.48,-0.11,0,0,0,0,0,0,0,0.00,0.00,0.59,
0.435,61.7921,80.60759999999999,-4.0,0.06,-0.18,0,0,0,0,0,0,0,0.00,0.00,0.10,
0.458,67.54121,88.03476,-3.57,-1.79,-0.02,0,0,0,0,0,0,0,0.00,0.00,0.00,
0.482,72.436121,94.195476,-4.51,-1.5,0.0,0,0,0,0,0,0,0,0.00,0.00,0.29,
0.505,76.6336121,99.5545476,-5.2,-1.99,0.34,0,0,0,0,0,0,0,0.00,0.00,0.88,
0.529,80.13136121,104.19445475999999,-5.69,-2.24,1.24,0,0,0,0,0,0,0,0.00,0.00,0.78,
0.552,83.14513612100001,108.096445476,-5.67,-2.22,2.28,0,0,0,0,0,0,0,0.00,0.00,0.29,
0.576,85.84951361210001,111.3396445476,-5.73,-1.56,2.85,0,0,0,0,0,0,0,0.00,0.00,0.00,
0.601,88.17195136121,114.09396445476,-6.27,-1.13,3.42,0,0,0,0,0,0,0,0.00,0.00,0.10,
0.624,90.15019513612101,116.466396445476,-6.37,-0.56,3.0,0,0,0,0,0,0,0,0.00,0.00,0.59,
0.648,91.71601951361211,118.44063964454759,-6.18,-0.85,2.66,0,0,0,0,0,0,0,0.00,0.00,0.98,
0.671,93.07860195136122,120.20406396445478,-6.77,-1.95,2.11,0,0,0,0,0,0,0,0.00,0.00,0.29,
0.695,94.12386019513612,121.64940639644549,-6.86,-2.38,1.08,0,0,0,0,0,0,0,0.00,0.00,0.78,
0.718,94.9753860195136,122.93694063964455,-6.82,-1.81,0.08,0,0,0,0,0,0,0,0.00,0.00,0.78,
0.742,95.59153860195136,124.10069406396445,-5.71,-2.51,-1.31,0,0,0,0,0,0,0,0.00,0.00,0.39,
0.765,96.21115386019514,124.97306940639645,-4.85,-3.34,-2.16,0,0,0,0,0,0,0,0.00,0.00,0.00,
0.789,96.70511538601951,125.60030694063965,-4.21,-4.28,-3.23,0,0,0,0,0,0,0,0.00,0.00,0.10,
0.813,97.16851153860196,126.14003069406397,-5.0,-3.22,-3.05,0,0,0,0,0,0,0,0.00,0.00,0.49,
0.837,97.6018511538602,126.62600306940641,-5.15,-4.27,-1.66,0,0,0,0,0,0,0,0.00,0.00,0.69,
0.861,97.74418511538603,127.07960030694063,-4.5,-3.76,-0.5,0,0,0,0,0,0,0,0.00,0.00,0.59,
0.884,97.83041851153861,127.46696003069405,-3.76,-3.18,-0.21,0,0,0,0,0,0,0,0.00,0.00,0.10,
0.908,97.99204185115386,127.7666960030694,-3.27,-4.23,-0.23,0,0,0,0,0,0,0,0.00,0.00,0.00,
0.931,97.99020418511539,127.99466960030695,-3.57,-4.4,-0.65,0,0,0,0,0,0,0,0.00,0.00,0.20,
0.955,98.06202041851152,128.2064669600307,-3.17,-4.04,-0.97,0,0,0,0,0,0,0,0.00,0.00,0.69,
0.978,98.18620204185116,128.37164669600304,-3.31,-3.93,-0.79,0,0,0,0,0,0,0,0.00,0.00,0.88,
1.003,98.2616202041851,128.5411646696003,-3.76,-3.87,-0.1,0,0,0,0,0,0,0,0.00,0.00,0.39,
1.027,98.2781620204185,128.72911646696002,-4.41,-4.19,0.6,0,0,0,0,0,0,0,0.00,0.00,0.00,
1.05,98.31581620204184,128.891911646696,-4.99,-3.67,1.19,0,0,0,0,0,0,0,0.00,0.00,0.00,
1.074,98.6435816202042,129.0161911646696,-4.92,-4.18,2.38,0,0,0,0,0,0,0,0.00,0.00,0.59,
1.097,98.96435816202043,128.93861911646695,-4.49,-3.18,2.81,0,0,0,0,0,0,0,0.00,0.00,0.69,
1.121,99.19443581620204,128.7598619116467,-4.24,-2.05,1.87,0,0,0,0,0,0,0,0.00,0.00,0.59,
1.144,99.1904435816202,128.69698619116465,-4.95,-1.87,0.85,0,0,0,0,0,0,0,0.00,0.00,0.10,
1.168,98.92004435816202,128.80769861911648,-6.08,-1.94,0.51,0,0,0,0,0,0,0,0.00,0.00,0.00,
1.191,98.6950044358162,129.02576986191167,-5.87,-0.95,0.58,0,0,0,0,0,0,0,0.00,0.00,0.20,
1.215,98.60950044358161,129.03857698619117,-4.4,-1.86,0.72,0,0,0,0,0,0,0,0.00,0.00,0.78,
1.239,98.44795004435817,129.00385769861913,-4.18,-2.23,1.6,0,0,0,0,0,0,0,0.00,0.00,0.88,
1.262,97.97279500443581,128.9013857698619,-4.66,-0.74,0.92,0,0,0,0,0,0,0,0.00,0.00,0.49,
1.286,97.28627950044357,128.87313857698618,-4.69,-1.67,-1.02,0,0,0,0,0,0,0,0.00,0.00,0.10,
1.31,96.76762795004436,128.83431385769865,-4.83,-3.32,-1.05,0,0,0,0,0,0,0,0.00,0.00,0.10,
1.334,96.52676279500444,128.77643138576988,-4.04,-6.76,0.03,0,0,0,0,0,0,0,0.00,0.00,0.59,
1.357,95.98067627950044,128.779643138577,-4.01,-7.02,0.32,0,0,0,0,0,0,0,0.00,0.00,0.88,
1.381,95.31406762795004,128.8519643138577,-4.37,-7.82,0.06,0,0,0,0,0,0,0,0.00,0.00,0.69,
1.404,94.824406762795,128.9851964313858,-4.4,-9.53,-0.04,0,0,0,0,0,0,0,0.00,0.00,0.39,
1.428,94.82944067627949,128.80951964313857,-4.68,-9.75,1.21,0,0,0,0,0,0,0,0.00,0.00,0.00,
1.452,95.37894406762794,128.32395196431386,-5.88,-8.82,2.04,0,0,0,0,0,0,0,0.00,0.00,0.10,
1.475,96.20789440676279,127.77139519643137,-8.24,-6.6,3.89,0,0,0,0,0,0,0,0.00,0.00,0.69,
1.499,97.32578944067627,127.38313951964314,-12.11,-3.07,7.73,0,0,0,0,0,0,0,0.00,0.00,0.88,
1.522,98.63457894406763,126.78631395196432,-14.6,2.46,11.27,0,0,0,0,0,0,0,0.00,0.00,0.59,
1.547,99.85445789440676,126.17763139519643,-16.17,5.36,13.27,0,0,0,0,0,0,0,0.00,0.00,0.20,
1.57,100.85844578944068,125.55876313951964,-18.75,9.41,13.48,0,0,0,0,0,0,0,0.00,0.00,0.10,
1.594,101.49884457894406,125.08287631395196,-19.65,10.34,10.69,0,0,0,0,0,0,0,0.00,0.00,0.49,
1.617,101.6528844578944,124.7202876313952,-22.58,12.31,8.75,0,0,0,0,0,0,0,0.00,0.00,0.78,
1.642,101.55128844578945,124.51302876313952,-25.42,12.55,5.95,0,0,0,0,0,0,0,0.00,0.00,0.88,
1.666,101.29812884457894,124.58230287631395,-28.85,11.38,4.15,0,0,0,0,0,0,0,0.00,0.00,0.49,
1.689,100.75081288445789,124.2292302876314,-31.92,10.16,1.25,0,0,0,0,0,0,0,0.00,0.00,0.20,
1.713,100.09308128844579,123.76192302876314,-34.59,7.92,-1.96,0,0,0,0,0,0,0,0.00,0.00,0.00,
1.736,99.55030812884458,123.25619230287631,-38.34,5.37,-4.61,0,0,0,0,0,0,0,0.00,0.00,0.49,
1.761,99.01003081288447,122.43161923028764,-43.59,3.28,-5.76,0,0,0,0,0,0,0,0.00,0.00,0.88,
1.784,98.47000308128844,121.06216192302877,-47.83,3.85,-7.1,0,0,0,0,0,0,0,0.00,0.00,0.59,
1.808,98.07400030812884,119.44021619230287,-52.17,3.21,-8.31,0,0,0,0,0,0,0,0.00,0.00,0.10,
1.831,97.8184000308129,117.50502161923029,-62.53,5.79,-6.6,0,0,0,0,0,0,0,0.00,0.00,0.00,
1.855,97.94584000308129,115.37650216192303,-73.39,8.08,-2.38,0,0,0,0,0,0,0,0.00,0.00,0.49,
1.879,98.30958400030812,113.17465021619232,-83.6,15.65,4.98,0,0,0,0,0,0,0,0.00,0.00,0.78,
1.903,98.70595840003081,110.85746502161922,-87.02,24.11,9.35,0,0,0,0,0,0,0,0.00,0.00,0.69,
1.927,99.42059584000307,109.03274650216193,-76.17,22.78,10.19,0,0,0,0,0,0,0,0.00,0.20,0.59,
1.95,100.07705958400031,107.8062746502162,-64.14,13.67,10.82,0,0,0,0,0,0,0,0.00,0.00,0.29,
1.974,100.25970595840003,107.10762746502161,-57.75,2.18,13.95,0,0,0,0,0,0,0,0.00,0.20,0.10,
1.998,99.87297059584,106.97476274650215,-59.05,1.49,16.01,0,0,0,0,0,0,0,0.00,0.59,0.59,
2.022,99.312297059584,107.08747627465021,-61.67,8.21,17.49,0,0,0,0,0,0,0,0.00,0.69,0.88,
2.045,98.9322297059584,107.224747627465,-60.16,10.46,15.27,0,0,0,0,0,0,0,0.00,0.59,0.69,
2.069,98.72322297059584,106.9864747627465,-50.37,6.39,9.11,0,0,0,0,0,0,0,0.00,0.59,0.39,
2.093,98.52232229705959,107.21464747627464,-40.38,-3.05,2.8,0,0,0,0,0,0,0,0.00,0.69,0.20,
2.116,98.14223222970595,107.72346474762747,-37.96,-4.87,2.26,0,0,0,0,0,0,0,0.00,0.69,0.39,
2.141,97.8612232229706,107.47734647476274,-37.44,1.11,1.36,0,0,0,0,0,0,0,0.00,0.49,0.98,
2.164,98.04912232229705,106.98473464747627,-36.95,4.19,0.16,0,0,0,0,0,0,0,0.00,0.49,1.37,
2.188,98.63491223222971,106.80947346474763,-37.69,0.99,3.05,0,0,0,0,0,0,0,0.00,0.49,0.69,
2.211,99.08949122322296,106.79194734647476,-35.61,-1.8,6.58,0,0,0,0,0,0,0,0.00,0.49,0.10,
2.235,99.44094912232231,106.53819473464748,-28.05,-1.84,7.51,0,0,0,0,0,0,0,0.00,0.59,0.10,
2.258,99.69209491223224,105.98181947346475,-21.92,-1.74,6.54,0,0,0,0,0,0,0,0.00,0.59,0.49,
2.282,99.86120949122322,105.14318194734648,-20.26,-0.3,3.54,0,0,0,0,0,0,0,0.00,0.59,0.98,
2.306,99.92312094912234,104.22231819473465,-21.62,0.67,-0.68,0,0,0,0,0,0,0,0.00,0.49,1.08,
2.33,99.91131209491223,103.37423181947347,-22.73,2.52,-3.56,0,0,0,0,0,0,0,0.00,0.59,0.49,
2.354,99.93713120949121,102.47942318194734,-22.01,2.7,-6.41,0,0,0,0,0,0,0,0.00,0.49,0.00,
2.377,100.02971312094913,101.32794231819473,-18.12,5.22,-9.85,0,0,0,0,0,0,0,0.00,0.59,0.20,
2.401,100.1919713120949,100.12379423181947,-13.75,4.15,-13.21,0,0,0,0,0,0,0,0.00,0.49,0.88,
2.424,100.29819713120949,99.04037942318195,-11.06,2.01,-14.91,0,0,0,0,0,0,0,0.00,0.59,1.08,
2.449,100.39881971312094,98.0860379423182,-9.37,1.21,-14.72,0,0,0,0,0,0,0,0.00,0.59,0.69,
2.472,100.3908819713121,97.07260379423181,-8.99,3.58,-14.62,0,0,0,0,0,0,0,0.00,0.59,0.29,
2.496,100.4170881971312,95.83726037942318,-11.15,7.59,-13.95,0,0,0,0,0,0,0,0.00,0.59,0.00,
2.52,100.61770881971313,94.64272603794232,-14.98,11.89,-10.94,0,0,0,0,0,0,0,0.00,0.59,0.49,
2.544,100.84477088197131,93.35327260379422,-19.67,21.31,-8.81,0,0,0,0,0,0,0,0.00,0.49,0.98,
2.568,102.94647708819714,87.50032726037941,80.47,-73.6,-28.77,0,0,0,0,0,0,0,0.78,1.08,1.18,
2.591,103.5346477088197,87.09503272603794,83.33,-22.85,-34.66,0,0,0,1,0,0,0,1.08,0.00,6.28,
2.616,122.26846477088196,106.6475032726038,36.15,92.18,11.08,0,0,0,1,0,0,0,0.59,0.00,5.59,
2.639,118.67884647708819,106.92875032726037,-8.81,-60.01,5.04,0,0,0,1,0,0,0,0.59,0.00,17.46,
2.663,115.15188464770883,103.53687503272603,-17.79,-5.98,-2.03,0,0,0,1,0,0,0,0.39,0.00,0.00,
2.688,113.7011884647709,102.6036875032726,-5.73,11.32,-8.79,0,0,0,1,0,0,0,0.69,0.00,0.00,
2.711,112.59311884647708,102.05136875032726,0.24,6.21,-4.34,0,0,0,1,0,0,0,0.69,0.00,0.00,
2.736,111.1053118846477,101.30313687503272,-4.54,0.6,1.25,0,0,0,1,0,0,0,0.88,0.00,5.59,
2.759,109.04853118846476,100.57131368750328,-4.01,-1.98,2.22,0,0,0,1,0,0,0,1.08,0.00,0.00,
2.783,107.51985311884647,100.15613136875032,-6.37,-3.24,0.57,0,0,0,2,0,0,0,1.08,0.00,0.00,
2.807,106.23298531188465,99.67361313687503,-8.05,-5.68,5.4,0,0,0,2,0,0,0,1.28,0.00,0.00,
2.831,105.01529853118846,99.09436131368751,-7.51,-4.73,4.38,0,0,0,2,0,0,0,1.77,0.00,0.00,
2.855,104.02952985311885,98.65843613136875,-8.71,0.03,2.71,0,0,0,2,0,0,0,2.35,0.00,0.00,
2.879,103.24695298531188,98.16484361313688,-10.0,3.06,2.66,0,1,0,3,0,0,1,2.94,0.00,0.00,
2.904,102.78169529853119,97.69248436131369,-9.63,1.07,3.79,0,1,0,3,0,0,1,3.63,0.00,0.00,
2.927,102.34816952985311,97.33024843613137,-8.32,0.98,5.26,1,1,0,3,0,0,2,4.51,0.00,0.00,
2.952,101.99881695298531,96.87102484361313,-8.5,1.8,4.69,1,1,0,4,0,0,2,5.00,0.00,0.00,
2.975,101.68488169529854,96.63610248436132,-7.03,5.17,4.84,1,1,0,4,0,0,2,5.49,0.00,0.00,
2.999,101.50048816952986,96.41461024843613,-5.78,5.99,5.24,1,2,0,4,0,0,3,5.89,0.00,0.00,
3.023,101.33804881695299,96.2394610248436,-4.81,6.55,6.04,1,2,0,4,0,0,3,6.08,0.00,0.00,
3.047,101.2228048816953,96.06894610248435,-4.37,5.53,5.4,1,2,0,5,0,0,3,6.28,0.00,0.00,
3.072,101.17528048816952,95.91689461024843,-3.81,5.35,4.84,1,2,0,5,0,0,3,6.28,0.00,0.00,
3.096,101.10752804881695,95.79368946102484,-3.4,4.7,4.82,1,2,0,5,0,0,3,6.28,0.00,0.20,
3.12,101.0827528048817,95.67336894610247,-2.99,4.22,3.79,1,2,0,5,0,0,3,6.18,0.00,0.88,
3.144,101.08927528048818,95.61633689461026,-2.47,3.5,3.13,1,2,0,5,0,0,3,6.08,0.00,0.39,
3.168,101.0719275280488,95.57463368946101,-2.18,2.55,3.02,1,2,0,5,0,0,3,5.98,0.00,0.00,
3.192,101.00719275280488,95.5524633689461,-2.3,2.02,2.02,1,2,0,5,0,0,3,5.89,0.00,0.00,
3.216,100.90171927528048,95.46024633689461,-2.05,2.11,1.2,1,2,0,5,0,0,3,5.69,0.00,0.59,
3.24,100.87317192752805,95.39702463368945,-1.33,2.01,1.05,1,2,0,4,0,0,3,5.69,0.00,0.49,
3.265,100.8343171927528,95.39070246336894,-0.63,2.37,1.4,1,2,0,4,0,0,2,5.40,0.00,1.08,
3.289,100.82143171927528,95.44407024633689,0.09,2.47,1.56,1,1,0,4,0,0,2,4.81,0.00,0.00,
3.312,100.84714317192753,95.45840702463369,0.35,3.13,1.8,1,1,0,4,0,0,2,4.51,0.00,0.00,
3.337,100.91271431719275,95.55884070246336,-0.16,2.97,2.21,1,1,0,3,0,0,2,4.12,0.00,0.00,
3.36,100.93727143171928,95.60488407024634,-0.6,3.34,2.15,0,1,0,3,0,0,1,3.83,0.00,0.88,
3.385,100.93972714317192,95.64548840702464,-0.85,3.1,1.88,0,1,0,3,0,0,1,3.63,0.00,0.00,
3.408,101.0209727143172,95.71254884070245,-1.02,3.19,2.01,0,1,0,3,0,0,1,3.34,0.00,0.69,
3.433,101.10109727143171,95.73725488407024,-0.81,2.91,1.92,0,1,0,3,0,0,1,3.14,0.00,0.10,
3.457,101.15410972714317,95.80272548840702,-1.11,2.7,1.83,0,1,0,3,0,0,1,2.84,0.00,1.67,
3.48,101.12341097271432,95.9172725488407,-2.08,2.28,1.77,0,1,0,3,0,0,1,2.75,0.00,0.00,
3.505,101.11134109727142,95.96472725488407,-2.4,2.5,1.76,0,1,0,3,0,0,1,2.55,0.00,0.00,
3.528,101.19113410972713,96.01447272548839,-2.47,2.22,1.79,0,1,0,3,0,0,1,2.55,0.00,0.39,
3.552,101.24411341097272,96.05544727254885,-2.32,2.45,1.89,0,1,0,2,0,0,1,2.45,0.00,2.45,
3.576,101.27641134109727,96.11354472725489,-2.18,1.57,2.31,0,1,0,2,0,0,0,2.35,0.00,1.18,
3.6,101.29764113410972,96.11935447272549,-2.15,1.4,2.2,0,1,0,2,0,0,0,2.35,0.00,0.88,
3.623,101.37176411341098,96.14693544727255,-1.8,1.0,2.05,0,0,0,2,0,0,0,2.35,0.00,0.00,
3.648,101.44217641134111,96.23069354472725,-2.02,1.08,1.9,0,0,0,2,0,0,0,2.16,0.00,0.69,
3.672,101.44021764113411,96.22106935447272,-2.32,1.06,1.95,0,0,0,2,0,0,0,2.06,0.00,2.16,
3.695,101.4580217641134,96.22010693544726,-2.18,0.76,2.0,0,0,0,2,0,0,0,2.16,0.00,1.67,
3.72,101.45980217641133,96.20201069354472,-2.43,0.79,1.89,0,0,0,2,0,0,0,2.06,0.00,0.39,
3.743,101.49598021764115,96.20920106935446,-2.16,0.76,1.82,0,0,0,2,0,0,0,1.96,0.00,0.88,
3.767,101.5445980217641,96.23692010693544,-2.08,0.57,1.94,0,0,0,2,0,0,0,1.96,0.00,0.00,
3.791,101.55845980217642,96.24869201069355,-1.92,0.66,2.31,0,0,0,2,0,0,0,1.96,0.00,0.39,
3.815,101.53284598021764,96.22286920106936,-2.18,0.6,2.34,0,0,0,2,0,0,0,1.86,0.00,0.78,
3.838,101.53028459802178,96.25628692010693,-2.02,0.79,2.39,0,0,0,2,0,0,0,1.86,0.00,0.00,
3.863,101.54802845980217,96.3046286920107,-1.84,0.49,2.48,0,0,0,2,0,0,0,1.77,0.00,0.59,
3.887,101.50480284598022,96.33646286920107,-1.78,0.6,2.59,0,0,0,2,0,0,0,1.57,0.00,0.39,
3.91,101.49148028459801,96.3396462869201,-1.95,0.52,2.48,0,0,0,2,0,0,0,1.57,0.00,1.08,
3.935,101.48114802845981,96.33096462869202,-1.96,0.56,2.58,0,0,0,2,0,0,0,1.67,0.00,0.98,
3.958,101.43511480284599,96.35709646286921,-1.97,0.67,2.27,0,0,0,2,0,0,0,1.57,0.00,1.28,
3.982,101.3675114802846,96.37770964628692,-2.0,0.79,2.23,0,0,0,2,0,0,0,1.67,0.00,0.59,
4.005,101.38775114802846,96.41577096462869,-1.85,0.85,2.3,0,0,0,2,0,0,0,1.57,0.00,1.28,
4.03,101.38977511480284,96.49157709646288,-2.08,0.94,2.1,0,0,0,2,0,0,0,1.47,0.00,0.88,
4.054,101.43497751148028,96.49015770964628,-1.84,0.81,2.25,0,0,0,2,0,0,0,1.47,0.00,0.29,
4.077,101.45749775114803,96.47201577096463,-2.26,0.49,2.21,0,0,0,2,0,0,0,1.37,0.00,0.59,
4.101,101.4597497751148,96.49720157709646,-2.24,0.99,2.27,0,0,0,2,0,0,0,1.37,0.00,0.49,
4.125,101.4689749775115,96.52672015770966,-2.27,1.04,2.32,0,0,0,2,0,0,0,1.37,0.00,0.88,
4.149,101.47889749775115,96.56567201577096,-2.33,1.4,2.42,0,0,0,2,0,0,0,1.18,0.00,0.78,
4.172,101.50688974977513,96.52456720157709,-2.15,1.83,2.5,0,0,0,2,0,0,0,1.18,0.00,0.29,
4.196,101.47368897497752,96.53845672015771,-2.52,1.57,2.19,0,0,0,2,0,0,0,1.28,0.00,0.00,
4.219,101.48836889749774,96.59384567201576,-2.71,1.75,2.12,0,0,0,2,0,0,0,1.28,0.00,0.78,
4.244,101.52583688974978,96.61738456720158,-2.73,1.78,1.89,0,0,0,2,0,0,0,1.28,0.00,0.00,
4.268,101.60158368897497,96.59273845672017,-2.97,1.53,1.97,0,0,0,2,0,0,0,1.28,0.00,0.39,
4.291,101.6091583688975,96.60827384567202,-2.87,1.63,1.82,0,0,0,2,0,0,0,1.28,0.00,0.10,
4.315,101.63691583688974,96.6548273845672,-2.89,1.7,1.63,0,0,0,2,0,0,0,1.18,0.00,0.00,
4.339,101.65769158368897,96.63248273845672,-3.11,1.3,1.7,0,0,0,2,0,0,0,1.28,0.00,0.00,
4.363,101.6417691583689,96.63024827384567,-3.14,1.64,1.51,0,0,0,2,0,0,0,1.37,0.00,0.69,
4.386,101.6491769158369,96.62102482738457,-3.5,1.42,1.23,0,0,0,2,0,0,0,1.28,0.00,0.59,
4.41,101.6949176915837,96.63810248273845,-3.48,1.27,0.93,0,0,0,2,0,0,0,1.37,0.00,0.49,
4.433,101.71749176915837,96.61281024827385,-3.37,0.95,1.12,0,0,0,2,0,0,0,1.37,0.00,0.59,
4.458,101.71074917691584,96.62828102482737,-3.25,1.31,0.98,0,0,0,2,0,0,0,1.37,0.00,0.20,
4.482,101.71907491769159,96.62982810248273,-3.34,0.89,1.02,0,0,0,2,0,0,0,1.37,0.00,0.00,
4.505,101.73790749176916,96.62098281024828,-3.65,0.9,0.67,0,0,0,2,0,0,0,1.47,0.00,0.10,
4.529,101.74879074917692,96.58409828102482,-3.33,1.08,0.92,0,0,0,2,0,0,0,1.47,0.00,0.10,
4.553,101.7588790749177,96.60740982810248,-3.16,0.96,0.79,0,0,0,2,0,0,0,1.47,0.00,0.10,
4.577,101.73288790749177,96.57374098281025,-3.57,0.92,0.98,0,0,0,2,0,0,0,1.47,0.00,0.29,
4.6,101.77528879074919,96.60637409828102,-3.32,1.02,0.95,0,0,0,2,0,0,0,1.47,0.00,0.20,
4.624,101.79752887907492,96.59163740982811,-3.33,1.16,1.05,0,0,0,2,0,0,0,1.57,0.00,0.10,
4.647,101.79975288790749,96.5811637409828,-3.21,1.29,1.02,0,0,0,2,0,0,0,1.37,0.00,0.39,
4.672,101.82697528879075,96.58011637409828,-3.3,1.1,1.16,0,0,0,2,0,0,0,1.47,0.00,0.49,
4.696,101.82969752887908,96.58001163740983,-3.24,1.16,1.21,0,0,0,2,0,0,0,1.47,0.00,0.39,
4.719,101.8659697528879,96.55300116374097,-3.31,1.1,1.16,0,0,0,2,0,0,0,1.47,0.00,0.20,
4.743,101.85159697528879,96.55030011637409,-3.37,1.09,1.33,0,0,0,2,0,0,0,1.57,0.00,0.00,
4.767,101.82315969752887,96.5230300116374,-3.34,1.27,1.28,0,0,0,2,0,0,0,1.47,0.00,0.10,
4.791,101.82931596975288,96.50230300116374,-3.27,1.14,1.31,0,0,0,2,0,0,0,1.57,0.00,0.39,
4.814,101.82993159697529,96.52723030011639,-3.45,1.44,1.19,0,0,0,2,0,0,0,1.47,0.00,0.59,
4.838,101.85699315969754,96.52072303001162,-3.24,1.15,1.19,0,0,0,2,0,0,0,1.57,0.00,0.49,
4.862,101.85969931596976,96.46607230300116,-3.32,1.07,1.31,0,0,0,2,0,0,0,1.57,0.00,0.00,
4.886,101.89596993159698,96.48760723030011,-3.27,0.8,1.12,0,0,0,2,0,0,0,1.57,0.00,0.00,
4.91,101.9175969931597,96.54376072303,-3.28,0.79,1.01,0,0,0,3,0,0,0,1.57,0.00,0.00,
4.933,101.91975969931597,96.56737607230299,-3.33,0.85,0.84,0,0,0,3,0,0,0,1.67,0.00,0.29,
4.957,101.91097596993158,96.5787376072303,-3.45,0.69,0.77,0,0,0,2,0,0,0,1.57,0.00,0.69,
4.981,101.90109759699317,96.55287376072303,-3.49,0.66,0.86,0,0,0,2,0,0,0,1.57,0.00,0.00,
5.005,101.92710975969932,96.5142873760723,-3.51,0.71,0.96,0,0,0,3,0,0,0,1.57,0.00,0.00,
5.028,101.90271097596994,96.52842873760724,-3.4,0.79,0.77,0,0,0,3,0,0,0,1.57,0.00,0.29,
5.052,101.873271097597,96.50284287376073,-3.54,0.83,0.75,0,0,0,3,0,0,0,1.57,0.00,0.39,
5.076,101.87932710975969,96.47328428737607,-3.5,0.67,1.13,0,0,0,3,0,0,0,1.67,0.00,0.39,
5.1,101.90693271097597,96.47032842873762,-3.34,0.72,0.87,0,0,0,3,0,0,0,1.86,0.00,0.69,
5.124,101.9006932710976,96.47003284287376,-3.45,0.85,1.11,0,0,0,3,0,0,0,1.77,0.00,0.49,
5.147,101.91806932710976,96.44300328428739,-3.5,0.98,0.95,0,0,0,3,0,0,0,1.67,0.00,0.39,
5.171,101.90180693271098,96.44030032842875,-3.52,0.98,1.15,0,0,0,3,0,0,0,1.86,0.00,0.29,
5.195,101.9001806932711,96.43103003284288,-3.71,1.05,0.93,0,0,0,3,0,0,0,1.86,0.00,0.39,
5.219,101.92701806932712,96.40310300328429,-3.62,0.93,0.74,0,0,0,3,0,0,0,1.77,0.00,0.00,
5.242,101.94770180693271,96.41831030032843,-3.5,0.83,0.85,0,0,0,3,0,0,0,1.86,0.00,0.29,
5.267,101.93177018069328,96.39283103003285,-3.67,1.02,0.85,0,0,0,3,0,0,0,1.86,0.00,0.20,
5.291,101.91217701806931,96.40828310300328,-3.87,1.04,0.91,0,0,0,3,0,0,0,1.86,0.00,0.10,
5.315,101.91921770180694,96.37382831030033,-3.82,1.02,0.83,0,0,0,3,0,0,0,1.96,0.00,0.29,
5.339,101.97392177018071,96.39738283103003,-3.93,1.34,0.45,0,0,0,3,0,0,0,1.96,0.00,0.00,
5.362,101.96139217701807,96.390738283103,-3.82,1.38,0.62,0,0,0,3,0,0,0,2.06,0.00,0.88,
5.387,101.98713921770181,96.3990738283103,-4.13,1.48,0.69,0,0,0,3,0,0,0,1.96,0.00,0.78,
5.41,101.99871392177018,96.43590738283103,-4.05,1.56,1.02,0,0,0,3,0,0,0,2.16,0.00,0.20,
5.434,102.01787139217701,96.37659073828311,-3.99,1.4,0.82,0,0,0,3,0,0,0,2.16,0.00,0.59,
5.458,102.0467871392177,96.36165907382832,-4.27,1.43,0.92,0,0,0,3,0,0,0,2.26,0.00,0.00,
5.482,102.01367871392178,96.28816590738283,-4.35,1.85,1.03,0,0,0,3,0,0,1,2.26,0.00,0.00,
5.506,102.07336787139218,96.27181659073828,-4.6,2.03,1.25,0,0,0,3,0,0,1,2.26,0.00,0.00,
5.53,102.11533678713921,96.20718165907383,-4.69,1.99,1.13,0,0,0,3,0,0,1,2.45,0.00,0.00,
5.554,102.13753367871392,96.16471816590737,-4.8,2.25,1.12,0,0,0,3,0,0,1,2.45,0.00,0.00,
5.577,102.1487533678714,96.15147181659074,-4.7,2.08,0.86,0,0,0,3,0,0,1,2.55,0.00,0.00,
5.602,102.17687533678713,96.14114718165906,-4.71,2.15,0.89,0,0,0,3,0,0,1,2.75,0.00,0.00,
5.625,102.19768753367872,96.1671147181659,-4.79,1.48,0.04,0,0,0,3,0,0,1,2.84,0.00,0.20,
5.649,102.20876875336786,96.1517114718166,-4.68,1.47,-0.18,0,0,0,3,0,0,1,2.94,0.00,0.49,
5.673,102.25487687533679,96.17717114718167,-4.47,0.5,-0.12,0,0,0,3,0,0,1,3.04,0.00,0.69,
5.697,102.27748768753368,96.15271711471817,-4.23,0.26,-0.48,0,0,0,4,0,0,1,3.14,0.00,0.10,
5.722,102.25274876875338,96.11427171147182,-3.98,-0.06,-0.5,0,1,0,4,0,0,1,3.14,0.00,0.59,
5.745,102.26827487687532,96.05642717114718,-3.92,-0.14,-0.89,0,1,0,4,0,0,1,3.34,0.00,0.69,
5.77,102.17982748768753,96.01464271711473,-3.85,-0.4,-0.69,0,1,0,4,0,0,1,3.34,0.00,0.88,
5.793,102.16198274876875,96.01046427171147,-3.51,-0.37,-0.66,0,1,0,4,0,0,1,3.34,0.00,0.59,
5.818,102.17819827487688,96.01904642717113,-3.26,0.15,-0.29,0,1,0,4,0,0,1,3.24,0.00,0.49,
5.841,102.15281982748769,96.01990464271711,-3.03,0.19,0.21,0,1,0,4,0,0,1,3.34,0.00,0.39,
5.865,102.12328198274876,95.9929904642717,-2.68,0.91,0.52,0,1,0,4,0,0,1,3.24,0.00,0.20,
5.89,102.13832819827488,95.99029904642715,-2.82,0.97,1.16,0,1,0,4,0,0,1,3.14,0.00,0.39,
5.913,102.11283281982749,96.0170299046427,-2.41,1.45,1.41,0,1,0,4,0,0,1,3.04,0.00,0.00,
5.937,102.12828328198275,96.02870299046427,-2.76,1.51,1.73,0,1,0,4,0,0,1,3.04,0.00,0.49,
5.961,102.19282832819827,96.02087029904642,-2.92,1.21,2.01,0,1,0,3,0,0,1,2.94,0.00,0.39,
5.985,102.14528283281983,96.01108702990464,-3.02,1.37,1.94,0,1,0,3,0,0,1,2.84,0.00,0.10,
6.008,102.14952828328198,96.01010870299046,-3.4,1.27,2.1,0,1,0,3,0,0,1,2.84,0.00,0.29,
6.033,102.1139528283282,95.98301087029905,-3.32,1.04,1.88,0,1,0,3,0,0,1,2.94,0.00,0.39,
6.056,102.05639528283282,95.92630108702991,-3.45,1.38,1.42,0,1,0,3,0,0,1,2.84,0.00,0.39,
6.08,102.05963952828328,95.911630108703,-3.86,1.19,1.09,0,1,0,3,0,0,1,2.75,0.00,0.39,
6.105,102.07796395282833,95.89216301087029,-3.89,1.05,0.88,0,1,0,3,0,0,1,2.84,0.00,0.39,
6.128,102.14279639528283,95.89921630108702,-3.56,0.81,0.88,0,1,0,3,0,0,1,2.65,0.00,0.39,
6.153,102.12227963952829,95.90892163010871,-3.36,0.31,0.84,0,1,0,3,0,0,1,2.75,0.00,0.20,
6.176,102.14722796395283,95.93689216301087,-3.14,0.68,0.95,0,1,0,3,0,0,1,2.75,0.00,0.29,
6.2,102.12272279639528,95.93068921630109,-2.85,0.68,1.27,0,1,0,3,0,0,1,2.75,0.00,0.59,
6.224,102.09327227963952,95.93006892163011,-2.73,1.01,1.6,0,1,0,3,0,0,1,2.75,0.00,0.59,
6.248,102.09032722796395,95.885006892163,-2.71,0.95,2.02,0,1,0,3,0,0,1,2.65,0.00,0.59,
6.272,102.0810327227964,95.9525006892163,-2.93,1.34,2.11,0,1,0,3,0,0,0,2.75,0.00,0.49,
6.296,102.09810327227964,95.98625006892162,-3.21,1.8,2.37,0,1,0,3,0,0,0,2.65,0.00,2.35,
6.32,102.14481032722796,95.96262500689215,-3.42,2.61,1.85,0,1,0,3,0,0,0,2.65,0.00,0.78,
6.344,102.1854810327228,95.94226250068922,-3.47,3.83,2.09,0,0,0,4,0,0,0,2.65,0.00,1.96,
6.368,102.26154810327228,95.95822625006892,-3.22,4.13,2.37,0,1,0,4,0,0,0,2.65,0.00,3.83,
6.392,102.30515481032724,95.98682262500688,-3.27,3.93,2.48,0,0,0,4,0,0,0,2.65,0.00,1.18,
6.416,102.31851548103272,95.9806822625007,-3.02,4.48,2.56,0,1,0,4,0,0,0,2.55,0.00,0.20,
6.44,102.40085154810326,96.01606822625006,-3.09,5.38,2.49,0,1,0,4,0,0,0,2.65,0.00,0.00,
6.464,102.52608515481032,96.046606822625,-2.73,4.24,2.92,0,0,0,4,0,0,0,2.55,0.00,2.55,
6.488,102.62860851548103,96.0496606822625,-2.82,3.79,2.72,0,0,0,4,0,0,0,2.65,0.00,11.58,
6.512,102.7108608515481,96.06796606822624,-2.94,5.47,3.4,0,0,0,4,0,0,0,2.84,0.00,28.55,
6.536,102.8090860851548,96.05179660682262,-3.4,3.99,3.5,0,0,0,4,0,0,0,2.26,0.00,0.00,
6.559,102.98990860851548,95.94217966068226,-4.73,4.5,1.56,0,0,0,4,0,0,0,2.16,0.00,0.00,
6.584,103.05299086085155,95.98521796606822,-4.02,1.96,2.5,0,0,0,4,0,0,0,2.16,0.00,0.00,
6.607,103.07729908608516,95.92652179660682,-4.35,2.94,2.51,0,0,0,4,0,0,0,1.96,0.00,0.00,
6.631,103.16072990860852,95.91165217966068,-4.15,2.01,2.76,0,0,0,4,0,0,0,1.86,0.00,0.00,
6.654,103.31307299086085,95.88316521796607,-5.21,1.3,1.44,0,0,0,4,0,0,0,1.77,0.00,0.00,
6.679,103.31930729908608,95.8533165217966,-5.21,0.52,1.18,0,0,0,4,0,0,0,1.77,0.00,0.00,
6.703,103.3469307299086,95.76933165217967,-5.12,-0.52,0.81,0,0,0,4,0,0,0,1.86,0.00,0.00,
6.726,103.31369307299086,95.70693316521798,-5.5,-0.69,-0.03,0,0,0,4,0,0,0,1.86,0.00,0.00,
6.75,103.36436930729909,95.6736933165218,-6.02,-1.75,-0.69,0,0,0,4,0,0,0,2.06,0.00,0.00,
6.774,103.27043693072991,95.58036933165216,-6.52,-1.22,-1.08,0,0,0,4,0,0,0,2.16,0.00,0.00,
6.798,103.207043693073,95.54403693316522,-6.88,-1.74,-1.27,0,0,0,4,0,0,0,2.55,0.00,0.29,
6.822,103.2277043693073,95.46840369331652,-6.4,-2.34,-1.21,0,0,0,4,0,0,0,2.75,0.00,0.49,
6.846,103.14877043693073,95.38884036933165,-6.41,-1.95,-1.53,0,0,0,4,0,0,0,3.14,0.00,0.88,
6.871,103.14987704369308,95.38088403693317,-6.32,-1.36,-0.71,0,0,0,4,0,0,0,3.53,0.00,32.27,
6.894,103.0869877043693,95.41608840369332,-6.44,-0.87,0.29,0,0,0,4,0,0,0,3.63,0.00,0.00,
6.919,102.96369877043693,95.40160884036935,-6.24,-1.72,0.8,0,0,0,4,0,0,0,3.73,0.00,0.00,
6.942,102.9063698770437,95.40016088403695,-6.88,-0.4,1.14,0,0,0,4,0,0,0,4.32,0.00,0.00,
6.967,102.77463698770438,95.33701608840369,-7.52,-0.05,1.33,0,0,0,4,0,0,1,4.41,0.00,0.00,
6.99,102.77046369877043,95.23170160884038,-7.85,-2.26,1.06,0,0,0,4,0,0,1,5.00,0.00,0.00,
7.015,102.80604636987705,95.25717016088404,-7.37,0.11,4.56,0,1,0,4,0,0,1,5.40,0.00,0.00,
7.04,102.70160463698771,95.3227170160884,-6.53,1.74,9.55,0,1,0,4,0,0,1,5.79,0.00,0.00,
7.063,102.36716046369877,95.23027170160884,-6.91,8.2,10.47,0,1,0,4,0,0,1,6.18,0.00,0.00,
7.088,102.28871604636988,95.2750271701609,-5.27,10.07,14.02,0,1,0,4,0,0,2,6.38,0.00,0.10,
7.111,102.63187160463698,95.00050271701609,-8.64,8.71,8.98,0,1,0,4,0,0,2,6.47,0.00,0.10,
7.136,102.8101871604637,94.70305027170161,-6.84,6.9,6.66,0,1,0,3,0,0,2,6.47,0.00,0.39,
7.159,102.89101871604637,94.46630502717015,-5.67,4.06,5.58,0,1,0,3,0,0,2,6.67,0.00,0.20,
7.184,103.05210187160463,94.26263050271702,-1.78,3.71,7.21,0,1,0,3,0,0,2,6.57,0.00,0.29,
7.207,103.23021018716045,94.1252630502717,-1.56,2.8,4.82,0,1,0,3,0,0,2,6.67,0.00,0.00,
7.232,103.33802101871605,94.08452630502717,-0.35,-0.02,3.52,0,1,0,3,0,0,2,6.67,0.00,0.00,
7.256,103.3128021018716,94.13445263050272,-1.66,-0.35,3.55,0,1,0,3,0,0,2,6.57,0.00,0.49,
7.28,103.22028021018716,94.14844526305029,-3.93,1.12,3.33,0,1,0,3,0,0,2,6.57,0.00,0.10,
7.304,103.26502802101871,94.03284452630503,-4.18,1.56,2.8,0,1,0,3,0,0,2,6.67,0.00,0.49,
7.328,103.31450280210187,93.8952844526305,-2.89,0.66,1.77,0,1,0,3,0,0,2,6.67,0.00,0.59,
7.352,103.40045028021018,93.92652844526306,-1.42,-0.67,0.19,0,1,0,3,0,0,2,6.38,0.00,0.00,
7.376,103.31004502802102,94.05565284452629,-1.32,-0.75,2.21,0,1,0,3,0,0,2,6.18,0.00,0.29,
7.4,103.26500450280211,94.08656528445263,-3.08,0.54,2.4,0,1,0,3,0,0,3,6.28,0.00,0.39,
7.425,103.2155004502802,94.17965652844526,-4.46,2.43,3.12,0,0,0,3,0,0,2,6.28,0.00,0.20,
7.448,103.19255004502801,94.22496565284453,-4.88,3.99,4.62,0,0,0,3,0,0,2,6.18,0.00,0.29,
7.473,103.1722550045028,94.13049656528446,-2.13,2.18,10.16,0,0,0,3,0,0,2,6.38,0.00,0.00,
7.496,103.23322550045027,94.09404965652845,-3.33,6.81,7.15,0,0,0,3,0,0,3,6.57,0.00,0.29,
7.521,103.23032255004503,93.98240496565285,-2.78,4.24,8.79,0,0,0,2,0,0,3,6.77,0.00,0.88,
7.544,103.2210322550045,93.85424049656528,-3.87,7.19,7.35,0,0,0,2,0,0,3,6.67,0.00,0.29,
7.568,103.48110322550045,93.75142404965652,-3.76,7.83,7.11,0,0,0,2,0,0,3,6.67,0.00,0.49,
7.592,103.61511032255004,93.64214240496565,-3.81,5.71,7.24,0,0,0,2,0,0,3,6.77,0.00,0.29,
7.616,103.763511032255,93.64021424049656,-4.53,5.93,4.92,0,0,0,2,0,0,3,6.67,0.00,0.39,
7.641,103.8233511032255,93.64002142404965,-5.4,5.91,5.35,0,0,0,2,0,0,3,6.47,0.00,0.39,
7.664,104.02733511032254,93.62200214240497,-6.3,6.49,5.12,0,0,0,2,0,0,3,6.47,0.00,1.67,
7.689,104.18273351103225,93.5662002142405,-6.21,6.43,6.47,0,0,0,2,0,0,3,6.57,0.00,0.39,
7.712,104.26127335110323,93.51562002142406,-6.45,8.16,6.85,0,0,0,2,0,0,3,6.47,0.00,0.10,
7.737,104.44012733511032,93.46556200214239,-6.49,4.74,5.53,0,0,0,2,0,0,3,6.47,0.00,0.20,
7.76,104.55701273351103,93.30755620021425,-5.47,4.38,5.75,0,0,0,2,0,0,3,6.47,0.00,0.20,
7.785,104.7307012733511,93.04875562002142,-4.62,2.25,4.92,0,0,0,2,0,0,3,6.67,0.00,0.29,
7.809,104.9010701273351,92.88787556200215,-2.35,1.69,4.45,0,0,0,2,0,0,3,6.67,0.00,0.10,
7.833,104.9631070127335,92.70078755620023,-0.06,-2.31,2.53,0,0,0,2,0,1,3,6.77,0.00,0.00,
7.857,105.01431070127335,92.62807875562002,2.18,-5.28,-0.15,0,0,0,2,0,0,3,6.57,0.00,0.00,
7.881,104.96543107012732,92.62980787556201,3.11,-6.56,-2.18,0,0,0,2,0,0,3,6.47,0.00,0.10,
7.905,104.86154310701272,92.6389807875562,7.6,-8.49,-1.62,0,0,0,2,0,0,3,6.38,0.00,0.29,
7.929,104.90515431070126,92.36989807875563,17.4,-12.74,-3.52,0,0,0,2,0,0,2,5.89,0.00,0.10,
7.953,105.01751543107012,92.81098980787556,19.82,-23.38,-5.06,0,0,0,2,0,0,2,4.91,0.00,1.08,
7.977,104.146751543107,93.80909898078755,2.59,-17.75,2.47,0,0,0,2,0,0,2,4.61,0.00,0.98,
8.002,102.6826751543107,94.38590989807876,-2.73,-5.9,-3.15,0,0,0,3,0,0,2,4.81,0.00,0.00,
8.026,102.63526751543107,94.52459098980789,-2.75,-4.47,-8.98,0,0,0,3,0,0,1,4.12,0.00,0.59,
8.05,103.0535267515431,94.52045909898078,-1.54,-4.44,-5.38,0,0,0,3,0,0,1,3.53,0.00,1.47,
8.075,102.87935267515431,94.42104590989807,3.03,-5.1,-3.36,0,0,0,3,0,0,1,3.34,0.00,1.47,
8.098,102.66393526751543,94.6001045909898,5.57,1.06,-5.01,0,0,0,3,0,0,1,3.04,0.00,0.78,
8.122,102.57039352675154,95.16701045909899,1.96,4.21,-4.31,0,0,0,3,0,0,1,2.84,0.00,0.78,
8.146,102.37203935267515,95.27770104590991,-3.47,-2.08,-5.92,0,0,0,3,0,0,1,2.65,0.00,0.00,
8.17,102.37020393526753,95.24377010459098,-3.38,-2.15,-4.92,0,0,0,3,0,0,1,2.45,0.00,0.39,
8.195,102.47802039352675,95.3843770104591,-2.6,1.69,-4.62,0,0,0,3,0,0,1,2.26,0.00,0.78,
8.218,102.55180203935268,95.50643770104591,-1.15,2.28,-2.27,0,0,0,2,0,0,1,2.06,0.00,0.39,
8.242,102.55918020393527,95.55464377010459,-0.5,2.03,-1.66,0,0,0,3,0,0,1,2.06,0.00,0.00,
8.266,102.28091802039353,95.61346437701046,-0.99,2.08,-1.59,0,0,0,2,0,0,1,1.96,0.00,0.10,
8.29,102.27109180203934,95.75434643770105,-1.17,1.93,-1.68,0,0,0,2,0,0,1,1.96,0.00,0.78,
8.313,102.31510918020393,95.8224346437701,-0.82,1.87,-1.11,0,0,0,2,0,0,1,1.86,0.00,2.26,
8.337,102.3375109180204,95.874243464377,-0.38,2.89,-0.09,0,0,0,2,0,0,1,1.77,0.00,2.16,
8.361,102.43875109180203,95.97842434643769,0.37,1.63,0.67,0,0,0,2,0,0,0,1.67,0.00,0.49,
8.385,102.47587510918021,96.04284243464376,0.94,0.94,1.49,0,0,0,2,0,0,0,1.47,0.00,0.20,
8.409,102.32658751091803,96.11228424346439,0.66,-1.56,1.94,0,0,0,2,0,0,0,1.47,0.00,0.20,
8.432,102.2756587510918,96.22722842434644,-0.63,-1.09,2.04,0,0,0,2,0,0,0,1.28,0.00,0.00,
8.457,102.02756587510918,96.24772284243464,-1.1,-2.82,0.83,0,0,0,2,0,0,0,1.28,0.00,0.10,
8.48,102.12875658751092,96.32177228424347,-2.24,-0.67,0.69,0,0,0,2,0,0,0,1.28,0.00,0.00,
8.504,102.22887565875108,96.31117722842434,-2.16,-2.34,1.5,0,0,0,2,0,0,0,1.18,0.00,0.00,
8.528,102.24788756587512,96.31911772284244,-2.56,-0.07,1.53,0,0,0,2,0,0,0,1.18,0.00,0.49,
8.552,102.20478875658752,96.36491177228424,-2.27,-0.05,0.8,0,0,0,2,0,0,0,1.08,0.00,1.96,
8.576,102.21847887565875,96.50449117722842,-3.02,1.18,0.78,0,0,0,1,0,0,0,1.08,0.00,2.75,
8.599,102.23784788756586,96.51844911772284,-3.16,1.02,0.29,0,0,0,1,0,0,0,1.08,0.00,3.43,
8.624,102.26678478875658,96.59184491177228,-2.96,0.41,0.6,0,0,0,1,0,0,0,1.08,0.00,6.38,
8.647,102.27867847887566,96.58118449117723,-3.25,0.92,0.37,0,0,0,1,0,0,0,0.98,0.00,2.84,
8.671,102.28886784788757,96.58011844911772,-2.85,2.02,0.98,0,0,0,1,0,0,0,0.98,0.00,2.75,
8.694,102.29888678478875,96.61601184491178,-2.95,1.24,0.59,0,0,0,1,0,0,0,1.08,0.00,0.29,
8.719,102.25488867847888,96.59260118449119,-3.51,1.6,1.0,0,0,0,1,0,0,0,0.98,0.00,0.00,
8.742,102.11548886784789,96.48226011844912,-3.23,2.69,1.88,0,0,0,1,0,0,0,0.88,0.00,0.20,
8.766,102.12854888678478,96.4892260118449,-3.38,3.64,1.53,0,0,0,1,0,0,0,0.98,0.00,1.77,
8.79,102.13885488867848,96.3999226011845,-3.16,4.45,2.5,0,0,0,1,0,0,0,0.78,0.00,0.00,
8.813,102.22988548886784,96.48099226011844,-2.11,5.19,4.22,0,0,0,1,0,0,0,0.69,0.00,0.29,
8.838,102.40998854888679,96.52509922601185,-2.14,5.83,5.44,0,0,0,1,0,0,0,0.59,0.00,1.86,
8.861,102.46399885488867,96.49350992260118,-0.44,7.62,6.22,0,0,0,1,0,0,0,0.59,0.00,4.12,
8.885,102.40639988548888,96.43635099226012,1.82,9.53,4.68,0,0,0,0,0,0,0,0.49,0.00,4.81,
8.908,102.68863998854889,96.40363509922602,3.27,12.11,2.98,0,0,0,0,0,0,0,0.29,0.00,0.00,
8.932,102.83386399885488,96.59836350992262,5.76,11.76,4.18,0,0,0,0,0,0,0,0.29,0.00,0.00,
8.955,102.8933863998855,96.81583635099227,5.24,7.69,2.3,0,0,0,0,0,0,0,0.69,0.00,42.28,
8.98,102.92633863998856,96.95458363509923,4.49,6.76,-0.44,0,0,0,0,0,0,0,0.39,0.00,6.57,
9.004,102.97463386399886,97.14845836350992,2.85,4.11,-4.76,0,0,0,0,0,0,0,0.29,0.00,0.10,
9.027,103.40246338639989,97.41084583635099,1.53,0.14,-7.79,0,0,0,0,0,0,0,0.29,0.00,0.00,
9.051,103.62524633864,97.5990845836351,2.19,-6.27,-7.47,0,0,0,0,0,0,0,0.29,0.00,0.00,
9.074,103.47652463386399,97.80690845836351,1.73,-8.7,-6.2,0,0,0,0,0,0,0,0.29,0.00,0.00,
9.098,103.4976524633864,98.05269084583635,-0.87,-11.26,-9.27,0,0,0,0,0,0,0,0.39,0.00,0.00,
9.122,103.61676524633863,98.05026908458363,-4.94,-12.34,-12.51,0,0,0,0,0,0,0,0.29,0.00,0.20,
9.146,102.84567652463387,97.72602690845837,-1.89,-15.09,-8.69,0,0,0,0,0,0,0,0.29,0.00,0.29,
9.17,104.12756765246338,97.84660269084583,-3.7,-15.19,-7.89,0,0,0,1,0,0,0,0.49,0.00,0.00,
9.194,103.84175676524634,97.95766026908458,-10.59,-7.08,-6.54,0,0,0,1,0,0,0,0.39,0.00,0.00,
9.218,103.29117567652465,97.90576602690847,-10.21,-11.02,-2.95,0,0,0,2,0,0,0,0.49,0.00,0.00,
9.242,102.94811756765246,97.63057660269085,-9.53,-6.27,-2.59,1,1,0,2,0,0,0,0.88,0.00,0.00,
9.266,102.47281175676524,97.40505766026908,-7.41,-6.36,-0.1,2,1,0,3,0,0,0,1.37,0.00,0.00,
9.29,102.26328117567651,97.2115057660269,-6.56,-7.95,1.52,2,2,0,3,0,0,0,1.96,0.00,0.00,
9.314,101.85532811756765,97.07515057660268,-5.5,-5.85,1.12,3,2,0,4,0,0,0,2.55,0.00,0.00,
9.338,101.65253281175676,96.99851505766026,-5.49,-6.66,1.89,3,2,0,4,0,0,0,3.14,0.00,0.29,
9.362,101.45225328117567,96.98185150576603,-5.08,-4.7,2.43,3,2,0,4,0,0,0,3.34,0.00,0.00,
9.387,101.25222532811756,96.9711851505766,-5.27,-5.47,1.87,3,2,0,4,0,0,0,3.43,0.00,0.00,
9.41,101.20522253281175,97.15911851505766,-6.02,-4.53,2.56,3,2,0,4,0,0,0,3.83,0.00,14.81,
9.435,100.90352225328118,97.07891185150577,-6.84,-3.23,3.08,3,3,0,5,0,0,0,4.32,0.00,12.36,
9.459,100.62135222532812,97.02589118515057,-6.13,-0.41,3.5,3,3,0,5,0,0,0,5.10,0.00,0.00,
9.483,100.56613522253281,96.96658911851505,-5.95,1.52,4.66,3,3,0,5,0,0,0,5.49,0.00,0.00,
9.507,100.57861352225328,96.89765891185151,-6.24,2.36,6.28,3,3,0,5,0,0,0,6.08,0.00,2.16,
9.531,100.73286135222533,97.04376589118515,-8.95,2.15,8.64,3,3,0,5,0,0,1,6.47,0.00,0.00,
9.555,100.65828613522254,96.98637658911852,-10.77,1.78,9.85,3,3,0,5,0,1,2,7.75,0.00,0.00,
9.579,100.62382861352226,96.84563765891185,-9.16,3.6,9.14,3,3,0,5,0,1,3,8.73,0.00,0.00,
9.604,100.47638286135222,96.48956376589119,-9.84,4.15,7.31,3,3,0,5,0,1,3,9.42,0.00,0.00,
9.628,100.42563828613523,96.37295637658912,-8.52,4.9,6.04,3,3,0,5,0,1,4,9.71,0.00,0.00,
9.652,100.38456382861352,96.1362956376589,-7.76,5.4,3.92,3,3,0,6,0,1,4,10.10,0.00,0.00,
9.676,100.47045638286136,96.04062956376589,-8.46,5.78,2.71,3,3,0,5,0,2,4,10.10,0.00,0.00,
9.7,100.56004563828613,95.85106295637658,-7.56,6.76,1.7,3,3,0,6,0,2,5,10.20,0.00,0.00,
9.724,100.66800456382862,95.67010629563767,-7.09,6.3,0.79,3,3,0,6,0,2,5,10.10,0.00,0.00,
9.749,100.70580045638286,95.44501062956377,-6.35,7.64,0.4,3,3,0,6,0,2,5,9.91,0.00,0.00,
9.773,100.72758004563829,95.39550106295637,-5.92,7.91,1.76,3,3,0,6,0,2,5,9.52,0.00,0.00,
9.797,100.82875800456382,95.31855010629565,-7.65,7.33,2.79,3,3,0,6,0,2,5,9.42,0.00,0.49,
9.822,100.96487580045638,95.32885501062955,-9.29,7.36,3.45,3,3,0,6,1,2,5,9.42,0.29,0.00,
9.845,101.21248758004563,95.30288550106295,-8.8,6.66,5.75,3,3,0,6,1,2,6,9.61,1.18,0.00,
9.87,101.43524875800455,95.2372885501063,-8.15,7.11,6.05,3,3,0,6,1,3,6,10.01,1.67,0.00,
9.893,101.70052487580045,95.17672885501064,-7.89,4.03,8.0,3,3,0,7,1,3,7,10.59,2.55,0.00,
9.918,101.94305248758005,94.98167288550106,-9.73,1.5,6.5,3,3,0,7,1,3,8,11.09,3.43,0.00,
9.943,102.228305248758,94.9711672885501,-13.55,-0.15,3.85,3,4,0,7,1,4,9,11.58,4.22,0.00,
9.966,102.1308305248758,94.58311672885502,-10.49,0.15,4.07,4,4,0,8,1,5,10,12.36,5.30,0.00,
9.991,102.38208305248757,94.5803116728855,-13.37,-3.18,1.54,4,4,0,8,2,6,11,13.24,6.08,0.00,
10.015,102.40720830524876,94.29203116728856,-9.6,1.13,2.63,4,4,0,9,2,7,12,14.52,7.06,0.00,
10.04,102.51772083052488,93.92120311672886,-5.43,3.39,3.18,5,4,0,9,2,7,1,16.19,7.65,0.00,
10.064,102.56477208305249,93.83912031167289,-4.92,3.51,3.5,5,4,0,9,2,7,2,17.07,7.95,0.00,
10.088,102.58747720830524,93.77691203116729,-3.24,5.76,4.73,5,5,0,9,2,8,3,17.56,8.34,0.00,
10.113,102.52674772083053,93.75269120311673,-2.23,4.95,5.16,5,5,0,10,2,8,3,17.76,8.44,0.10,
10.137,102.42167477208305,93.67826912031167,-0.84,5.98,5.21,5,5,0,10,2,7,3,17.56,8.53,0.20,
10.162,102.5371674772083,93.55382691203117,0.63,7.44,4.13,4,4,0,9,2,7,2,16.97,8.24,0.29,
10.186,102.47671674772083,93.52338269120311,2.05,7.44,4.54,4,4,0,9,2,7,2,15.79,7.75,0.39,
10.21,102.62367167477208,93.53833826912032,2.78,7.9,4.25,4,4,0,9,2,6,0,14.72,7.16,0.39,
10.234,102.66536716747721,93.64783382691203,2.62,9.28,3.89,4,4,0,8,2,6,11,13.64,6.38,0.88,
10.259,102.86753671674772,93.6317833826912,3.57,9.76,2.7,3,4,0,8,1,5,11,12.56,5.69,0.88,
10.283,103.18475367167477,93.72017833826912,3.36,9.25,1.17,3,3,0,7,1,5,10,11.77,5.10,1.18,
10.307,103.45047536716748,93.95401783382692,1.83,6.73,1.83,3,3,0,7,1,4,9,11.09,4.51,0.98,
10.332,103.70204753671675,94.1394017833827,0.02,1.86,2.69,3,3,0,7,1,4,9,10.69,4.12,0.78,
10.355,103.85320475367168,94.23894017833827,-1.17,0.01,0.88,3,3,0,7,1,4,8,10.40,3.63,0.88,
10.38,103.91332047536717,94.40189401783383,-3.72,-2.48,-0.39,3,3,0,7,1,4,9,10.20,3.14,0.59,
10.404,103.9553320475367,94.4721894017834,-6.44,-4.12,0.94,3,3,0,7,1,4,9,10.40,2.94,0.20,
10.429,103.85153320475368,94.37121894017835,-8.02,-4.97,1.04,4,4,0,7,1,4,9,11.09,3.34,0.00,
10.454,103.79615332047537,94.28912189401784,-7.07,-2.8,0.98,4,4,0,8,1,4,9,11.67,3.73,0.00,
10.478,103.69161533204755,94.15491218940178,-4.73,-0.46,0.68,4,4,0,8,1,4,9,12.36,4.32,0.00,
10.502,103.60016153320475,94.04249121894019,-3.6,1.5,-0.06,4,4,0,8,1,4,9,12.85,4.61,0.10,
10.526,103.56401615332048,94.07624912189401,-3.43,2.83,0.06,4,4,0,8,1,4,9,12.95,4.81,0.10,
10.551,103.53340161533205,94.07962491218939,-2.78,3.18,0.23,4,4,0,8,1,4,9,12.85,4.91,0.39,
10.575,103.5933401615332,94.10696249121894,-2.65,3.67,0.39,4,4,0,8,1,4,9,12.85,5.00,0.49,
10.599,103.72533401615331,94.11869624912191,-2.21,3.69,0.57,4,4,0,8,1,4,9,12.65,5.00,0.69,
10.624,103.79253340161533,94.20086962491219,-2.69,3.28,0.64,4,4,0,8,1,4,9,12.65,5.10,0.59,
10.648,103.85325334016153,94.22708696249121,-3.39,2.45,1.0,4,4,0,8,1,4,9,12.56,5.20,0.49,
10.673,103.98532533401615,94.22970869624912,-3.6,2.08,1.08,4,4,0,8,1,4,9,12.65,5.40,0.59,
10.696,104.00753253340162,94.2029708696249,-3.76,2.31,1.0,4,4,0,8,1,4,9,12.95,5.79,0.20,
10.721,104.06375325334015,94.1822970869625,-3.18,1.47,1.02,4,4,0,8,1,4,9,13.05,5.89,0.10,
10.745,104.03337532533402,94.19822970869625,-3.39,2.42,0.6,4,4,0,8,1,4,9,13.34,6.08,0.20,
10.77,104.11133753253341,94.21782297086962,-4.28,1.75,0.55,5,4,0,8,1,5,10,13.34,6.38,0.20,
10.793,104.07413375325334,94.18378229708698,-4.96,1.84,0.43,5,4,0,8,1,5,10,13.73,6.67,0.20,
10.818,104.01641337532534,94.06337822970869,-4.31,3.36,0.37,5,4,0,8,1,5,10,13.83,6.97,0.29,
10.843,104.08264133753255,94.05133782297086,-3.79,3.84,-0.3,5,4,0,8,1,5,10,13.93,7.06,0.00,
10.867,104.16126413375325,94.09513378229708,-3.99,3.34,0.08,5,4,0,8,1,5,10,14.13,7.55,0.59,
10.892,104.26812641337533,94.1265133782297,-4.45,2.78,0.59,5,4,0,9,1,5,10,14.32,7.85,0.49,
10.916,104.26981264133754,94.12965133782296,-5.07,2.23,0.5,5,4,0,9,1,5,10,14.52,8.24,0.59,
10.94,104.37798126413375,94.10296513378229,-5.32,1.8,0.74,5,5,0,9,1,5,10,15.01,8.83,0.59,
10.964,104.46079812641337,94.07329651337822,-4.79,2.89,0.98,5,5,0,9,1,6,11,15.30,9.12,0.29,
10.989,104.55907981264133,93.98932965133783,-4.26,2.92,1.22,5,5,0,9,2,6,11,15.50,9.61,0.10,
11.014,104.64090798126414,94.02593296513379,-4.52,3.11,0.98,5,5,0,9,2,6,11,15.70,9.91,0.20,
11.038,104.5860907981264,93.96659329651337,-4.68,4.34,0.66,5,5,0,9,2,6,11,15.89,10.30,0.39,
11.063,104.62560907981263,93.87065932965135,-4.6,3.8,-0.16,5,5,0,9,2,6,11,16.28,10.79,0.00,
11.087,104.68356090798126,93.90606593296513,-4.44,4.34,0.13,5,5,0,9,2,6,11,16.58,11.67,0.00,
11.111,104.90535609079814,93.90060659329652,-3.65,2.64,0.43,5,5,0,9,2,6,11,16.87,12.26,0.20,
11.136,104.92753560907983,93.87306065932965,-4.09,2.53,0.37,5,5,0,9,2,6,11,17.07,12.36,0.29,
11.16,104.95675356090798,93.85230606593296,-4.45,3.15,0.28,5,5,0,9,2,6,11,17.17,12.65,0.29,
11.185,104.9506753560908,93.7962306065933,-4.23,2.42,0.1,5,5,0,10,2,7,12,17.27,12.95,0.39,
11.209,104.96806753560908,93.75462306065933,-3.4,3.22,0.13,5,5,0,10,2,7,12,17.56,13.15,0.49,
11.234,105.0598067535609,93.73246230606593,-3.47,3.18,-0.05,5,5,0,10,2,7,12,17.46,13.34,0.39,
11.258,105.13198067535609,93.6852462306066,-3.16,2.76,-0.08,5,5,0,10,2,7,12,17.56,13.54,0.49,
11.283,105.15719806753562,93.66252462306065,-2.4,2.39,-0.49,5,5,0,10,2,7,12,17.36,13.54,0.59,
11.308,105.13271980675356,93.67825246230608,-2.01,3.27,-1.23,5,5,0,10,2,7,12,17.17,13.44,0.59,
11.333,105.16627198067536,93.70682524623061,-2.41,2.83,-1.72,5,5,0,10,2,7,12,17.07,13.15,0.98,
11.358,105.25062719806755,93.71868252462306,-2.66,2.18,-1.56,6,5,0,10,2,7,11,17.07,13.05,1.08,
11.382,105.34906271980675,93.79186825246231,-2.25,2.55,-0.65,6,5,0,10,2,7,11,16.97,12.85,1.08,
11.407,105.34990627198067,93.82618682524622,-2.38,2.04,0.11,6,5,0,10,2,7,11,16.97,12.56,0.78,
11.431,105.33199062719807,93.80261868252462,-2.37,2.31,0.34,6,5,0,10,2,6,11,16.68,12.16,0.98,
11.456,105.42019906271982,93.80926186825246,-2.43,3.08,0.35,6,5,0,10,2,6,11,16.58,12.07,0.98,
11.481,105.49201990627198,93.85492618682525,-2.41,3.07,0.61,6,5,0,10,2,6,11,16.48,11.87,0.98,
11.505,105.5982019906272,93.85949261868252,-2.35,3.06,1.0,6,5,0,9,2,6,11,16.19,11.87,1.08,
11.53,105.61782019906272,93.85994926186825,-1.8,3.82,1.47,6,5,0,9,2,6,11,15.99,11.77,0.78,
11.554,105.60178201990627,93.91399492618683,-1.87,3.73,1.64,6,5,0,9,2,6,11,15.79,11.77,0.98,
11.578,105.72617820199062,94.0183994926187,-1.46,3.28,2.44,6,5,0,9,2,6,10,15.70,11.87,1.08,
11.602,105.77461782019905,94.03783994926188,-1.27,4.02,2.45,6,5,0,9,2,6,10,15.50,11.97,1.18,
11.627,105.80646178201991,94.0577839949262,-2.02,4.26,1.45,6,5,0,9,2,6,10,15.30,12.26,0.98,
11.652,105.89064617820199,94.15877839949262,-3.06,3.03,0.58,6,5,0,9,2,6,10,15.40,12.46,0.00,
11.676,105.98006461782019,94.17787783994928,-3.29,2.44,0.45,6,5,0,9,2,6,10,15.40,12.75,0.00,
11.701,106.06100646178201,94.17078778399492,-2.97,1.66,0.74,6,5,0,9,2,6,10,15.50,12.95,0.00,
11.725,106.01510064617821,94.1250787783995,-2.53,2.2,-0.47,6,5,0,9,2,6,10,15.50,13.24,0.39,
11.75,106.05551006461782,94.17450787783996,-2.73,1.69,-1.53,6,5,0,9,2,6,10,15.50,13.24,1.08,
11.774,106.15855100646178,94.251450787784,-3.12,1.91,-1.53,6,5,0,9,2,6,10,15.30,12.95,1.37,
11.799,106.21385510064617,94.1961450787784,-3.46,1.74,-2.89,6,5,0,9,2,6,10,15.40,12.95,1.37,
11.824,106.20138551006461,94.23561450787784,-4.08,1.45,-4.11,6,5,0,10,2,6,10,15.60,13.15,1.08,
11.848,106.28113855100646,94.3475614507878,-4.37,0.5,-3.59,6,5,0,10,2,6,10,15.99,13.24,0.88,
11.873,106.37911385510066,94.38575614507879,-4.22,-0.85,-1.53,6,5,0,10,2,6,10,16.28,13.24,0.98,
11.897,106.32591138551007,94.39857561450788,-3.96,-1.24,-1.24,6,5,0,10,2,6,10,16.58,13.15,0.98,
11.922,106.221591138551,94.3998575614508,-4.34,-1.95,-1.61,7,5,0,10,2,6,10,16.68,13.24,0.98,
11.947,106.2291591138551,94.39998575614509,-4.31,-2.29,-1.39,7,5,0,10,2,6,10,16.97,13.05,0.20,
11.972,106.2209159113855,94.4539985756145,-4.63,-2.94,-0.21,7,5,0,10,2,6,10,16.97,12.95,0.39,
11.997,106.15709159113855,94.43239985756145,-4.42,-3.37,0.98,7,5,0,10,2,6,10,17.27,12.95,0.20,
12.021,106.05170915911386,94.34923998575616,-4.2,-4.0,1.68,7,5,0,10,2,6,11,17.46,12.75,0.10,
12.046,105.92417091591139,94.36792399857562,-4.22,-3.98,2.3,7,5,0,10,2,6,11,17.27,12.56,0.00,
12.07,105.85741709159113,94.34279239985756,-4.17,-4.48,2.66,7,5,0,10,2,6,11,17.17,12.26,0.00,
12.095,105.74274170915912,94.27727923998576,-4.01,-4.18,3.18,7,5,0,10,2,6,11,17.07,11.87,0.00,
12.12,105.59627417091592,94.27072792399858,-3.73,-4.37,3.04,6,5,0,10,2,6,11,16.87,11.67,0.00,
12.144,105.47362741709159,94.21607279239986,-3.76,-4.11,3.36,6,5,0,10,2,6,11,16.78,11.38,0.00,
12.169,105.34436274170915,94.16560727923998,-3.58,-4.2,4.0,6,5,0,10,2,6,11,16.68,11.28,0.00,
12.193,105.25943627417092,94.13356072792399,-3.64,-4.08,3.7,6,5,0,10,2,6,11,16.58,10.89,0.00,
12.218,105.0799436274171,94.1123560727924,-3.69,-3.84,3.32,6,5,0,10,2,6,11,16.38,10.69,0.00,
12.242,104.95399436274171,94.12823560727924,-3.7,-2.8,2.07,6,5,0,10,1,6,11,16.38,10.40,0.00,
12.267,104.86039943627416,94.10282356072793,-3.68,-3.64,2.17,6,5,0,10,2,6,11,16.38,10.40,0.00,
12.293,104.87803994362741,94.1002823560728,-3.5,-3.78,3.21,6,5,0,10,2,6,11,16.58,10.30,0.00,
12.317,104.78980399436274,94.01002823560728,-3.39,-4.19,3.56,6,5,0,10,2,6,12,16.58,9.71,0.00,
12.342,104.71798039943626,93.96500282356072,-2.93,-4.22,3.78,6,5,0,10,1,6,12,16.38,9.32,0.00,
12.366,104.52179803994362,93.90650028235608,-2.89,-4.37,3.82,5,5,0,10,2,6,12,16.28,8.73,0.00,
12.391,104.34017980399435,93.81065002823561,-2.45,-3.09,4.09,5,5,0,10,1,6,12,16.19,7.95,0.00,
12.416,104.19601798039945,93.81906500282356,-2.7,-3.05,3.01,5,5,0,10,1,6,0,15.99,7.46,0.10,
12.44,104.07360179803996,93.82890650028236,-2.56,-2.36,2.5,5,5,0,10,1,6,0,15.79,7.16,0.00,
12.464,104.016360179804,93.87489065002823,-2.77,-1.69,1.82,5,5,0,10,1,6,0,15.50,6.67,0.10,
12.488,103.9386360179804,93.87048906500283,-2.49,-1.79,1.11,5,5,0,10,1,6,0,15.40,6.47,0.29,
12.513,103.87686360179805,93.87004890650029,-2.88,-2.21,0.77,5,5,0,10,1,6,0,15.40,6.38,0.29,
12.537,103.7716863601798,93.89700489065004,-3.03,-2.19,0.66,5,5,0,10,1,6,0,15.60,6.08,0.00,
12.562,103.73416863601798,93.89970048906501,-3.08,-2.95,0.95,5,5,0,10,1,6,0,15.50,5.79,0.00,
12.587,103.6494168636018,93.89997004890651,-3.42,-3.21,1.18,5,5,0,10,1,6,1,15.50,5.30,0.29,
12.611,103.60494168636018,93.85499700489065,-2.85,-3.31,1.28,5,5,0,10,1,6,1,15.50,4.91,0.29,
12.636,103.44749416863601,93.85049970048907,-3.34,-2.91,0.89,5,5,0,10,1,6,1,15.21,4.32,0.49,
12.66,103.26974941686359,93.8860499700489,-3.49,-2.8,0.95,5,5,0,10,1,6,1,15.01,4.02,0.29,
12.685,103.20697494168637,93.83560499700489,-3.28,-2.14,1.11,5,5,0,10,1,6,2,14.91,3.83,0.10,
12.709,103.21869749416862,93.8935604997005,-3.83,-2.19,0.63,5,5,0,10,1,6,1,14.91,3.63,0.00,
12.733,103.13886974941686,93.88135604997005,-3.25,-1.6,0.56,5,5,0,10,1,6,2,14.91,3.73,0.20,
12.758,102.98688697494168,93.85313560499701,-2.86,0.22,-0.24,5,5,0,10,1,6,2,15.21,3.53,0.20,
12.782,102.84568869749417,93.8323135604997,-2.84,0.91,-0.85,6,5,0,10,1,6,2,15.40,3.63,0.29,
12.807,102.86756886974942,93.82123135604996,-3.26,0.66,-2.05,6,5,0,10,1,6,2,15.70,3.73,0.29,
12.831,102.82475688697494,93.829123135605,-3.28,0.46,-1.74,6,5,0,10,1,6,2,15.79,3.92,0.39,
12.856,102.8924756886975,93.8839123135605,-3.24,0.51,-1.25,6,5,0,10,1,6,2,16.09,4.12,0.39,
12.88,102.95324756886976,93.88939123135606,-2.3,0.34,0.07,6,5,0,10,1,6,2,16.28,4.12,0.10,
12.905,102.81532475688697,93.8539391231356,-1.96,1.04,-1.6,6,6,0,10,1,6,2,16.38,4.12,0.20,
12.93,102.7295324756887,93.80539391231356,-2.78,0.85,-5.4,7,6,0,10,1,6,2,16.48,4.32,0.29,
12.954,102.79295324756886,93.85453939123136,-3.59,-0.81,-7.57,7,6,0,10,2,6,2,16.48,4.51,0.69,
12.978,102.8892953247569,93.95845393912315,-3.17,-1.92,-5.57,7,6,0,10,1,6,2,16.68,4.91,0.98,
13.002,102.8179295324757,93.94184539391232,-3.03,-1.55,-5.56,6,5,0,10,2,5,1,16.78,5.30,1.28,
13.027,102.75679295324758,93.93118453939124,-1.79,-2.05,-4.18,6,5,0,10,2,4,12,16.68,5.69,1.08,
13.052,102.66967929532476,94.12811845393914,-7.56,-6.71,-6.35,6,5,0,10,2,4,11,16.58,6.18,1.18,
13.077,102.63396792953247,94.2378118453939,-11.44,-14.19,-5.44,6,5,0,10,2,4,11,16.78,6.97,0.88,
13.102,102.45939679295324,94.49178118453939,-15.09,-26.01,-5.33,6,5,0,10,2,4,11,18.54,8.04,0.00,
13.126,101.87493967929532,94.78717811845394,-21.05,-41.31,-1.44,4,4,0,10,2,4,12,20.01,9.42,0.00,
13.151,100.70049396792952,94.60071781184539,-43.21,-26.41,17.15,1,3,0,8,2,4,1,21.88,10.01,11.09,
13.175,99.89004939679295,95.06807178118454,-104.41,12.15,59.41,1,2,0,5,2,5,3,22.27,8.24,1.57,
13.2,99.30500493967929,95.37580717811845,-156.88,50.56,88.98,1,1,0,3,1,5,3,20.21,2.06,0.69,
13.224,100.45250049396793,94.80358071781183,-203.22,45.04,103.05,1,1,0,3,1,6,12,12.26,2.26,3.63,
13.249,103.4742500493968,94.44935807178118,-154.12,88.36,69.64,1,0,0,1,1,2,5,7.26,0.10,4.32,
13.274,107.34942500493969,94.94493580717811,-72.09,18.27,92.04,1,0,0,0,1,2,0,4.71,0.00,1.47,
13.297,107.24194250049398,92.36649358071782,-26.11,5.19,79.03,1,0,0,0,1,2,0,0.20,0.00,13.64,
13.322,107.8881942500494,97.22964935807178,-3.93,-29.92,79.85,1,0,0,0,1,2,0,0.00,0.00,21.58,
13.345,103.39881942500494,100.19996493580717,10.92,-53.54,67.75,1,0,0,0,1,2,0,0.00,0.00,6.08,
13.37,95.37188194250051,105.12299649358073,66.54,-43.62,57.18,1,0,0,0,1,2,0,0.00,0.00,0.00,
13.393,87.89118819425005,110.89829964935808,57.76,-33.41,33.36,1,0,0,0,1,2,0,0.00,0.00,0.00,
13.418,83.084118819425,115.7778299649358,67.51,-14.64,12.72,1,0,0,0,1,2,0,0.00,0.00,0.88,
13.442,82.33341188194251,118.94778299649359,75.91,1.19,-2.54,1,0,0,0,1,2,0,0.00,0.00,1.08,
13.465,84.79634118819425,119.22877829964936,85.41,13.77,-17.02,1,0,0,0,1,2,0,0.10,0.00,1.57,
13.49,87.61663411881943,117.96987782996493,105.54,24.89,-32.77,1,0,0,0,1,2,0,0.00,0.00,1.08,
13.513,90.27466341188193,116.61098778299649,114.54,27.83,-44.95,1,0,0,0,1,2,0,0.00,0.00,0.00,
13.538,92.11546634118818,115.35909877829965,115.84,28.3,-44.29,1,0,0,0,1,2,0,0.00,0.00,0.88,
13.561,93.55954663411882,113.04690987782998,116.53,33.33,-29.82,1,0,0,0,1,2,0,0.00,0.00,0.00,
13.585,94.33395466341189,109.95369098778299,109.06,39.5,-29.15,1,0,0,0,1,2,0,0.00,0.00,0.00,
13.609,94.37539546634117,106.2153690987783,93.36,43.02,-44.95,1,0,0,0,1,2,0,0.00,0.00,0.69,
13.633,94.53253954663411,102.88053690987783,74.11,33.62,-52.02,1,0,0,0,1,2,0,0.00,0.00,0.88,
13.657,94.7912539546634,99.73905369098779,63.38,25.63,-55.72,1,0,0,0,1,2,0,0.00,0.00,0.00,
13.681,96.02312539546634,96.19390536909877,64.01,8.81,-63.2,1,0,0,0,1,2,0,0.00,0.00,0.00,
13.705,97.37031253954663,93.54439053690987,54.76,-15.92,-66.24,1,0,0,0,1,2,0,0.00,0.00,0.00,
13.728,98.48603125395465,91.92943905369098,39.47,-32.29,-49.43,1,0,0,0,1,2,0,0.00,0.00,3.34,
13.752,99.38960312539547,90.6159439053691,21.1,-23.34,-30.73,1,0,0,0,1,2,0,0.00,0.00,2.16,
13.776,100.52396031253956,88.89159439053691,7.14,-5.97,-16.8,1,0,0,0,1,2,0,0.00,0.00,1.37,
13.8,101.88839603125396,87.23415943905368,-5.11,3.43,-5.65,1,0,0,0,1,2,0,0.00,0.00,1.77,
13.824,103.36583960312541,86.77141594390537,-79.47,23.94,8.61,1,0,0,0,1,2,0,0.00,0.00,0.88,
13.847,101.97458396031253,87.46314159439054,-154.82,28.92,54.49,1,0,0,0,1,2,0,0.00,0.00,3.14,
13.872,102.41145839603125,87.47831415943905,-131.55,-19.4,13.82,1,0,0,0,1,2,0,0.00,0.00,0.39,
13.895,106.31614583960312,81.8368314159439,-50.79,-0.6,-52.95,1,0,0,0,1,2,0,0.00,0.00,1.37,
13.92,103.66461458396032,83.4146831415944,-10.97,-15.66,-6.79,1,0,0,1,1,2,0,0.20,0.00,6.28,
13.943,101.55446145839603,85.55246831415946,-28.32,20.81,-31.69,1,0,0,1,1,2,0,1.67,19.72,0.00,
13.968,102.57644614583961,86.69324683141593,-17.72,37.43,-12.77,0,0,0,3,1,0,0,3.92,47.58,12.26,
13.992,102.69664461458396,87.5633246831416,-15.66,22.58,-5.33,3,0,0,4,1,1,1,7.16,96.33,0.00,
14.017,103.0506644614584,88.60433246831415,-15.88,24.98,-7.7,4,1,0,6,1,2,2,10.40,100.36,0.00,
14.042,103.55406644614584,89.8064332468314,-18.0,15.69,-7.58,6,2,0,7,0,3,3,13.83,104.67,0.00,
14.066,103.9104066446146,90.42164332468315,-19.49,10.21,-8.88,7,3,0,8,0,4,4,17.76,90.74,0.00,
14.092,104.14404066446146,91.18516433246832,-18.98,5.32,-5.18,8,4,0,9,0,5,5,24.62,38.95,0.00,
14.116,104.14040406644614,91.76551643324683,-16.36,1.62,-2.05,9,5,0,10,1,6,5,28.45,37.28,0.00,
14.141,103.89704040664462,92.21955164332468,-15.88,2.66,-0.95,9,5,0,10,1,6,6,27.96,71.91,0.00,
14.166,104.01670404066446,91.90495516433248,-13.13,3.5,0.8,9,5,0,11,2,7,7,29.23,78.38,0.00,
14.19,104.17267040406645,92.24249551643325,-6.75,4.78,7.85,8,5,0,11,2,7,8,29.72,50.13,0.00,
14.215,104.11626704040664,92.59124955164333,-5.84,6.66,7.76,8,5,0,11,2,7,8,28.94,35.81,0.00,
14.239,104.37162670404066,92.85112495516432,-3.52,11.25,8.63,7,5,0,10,2,7,9,28.25,36.79,0.00,
14.264,104.46016267040406,93.05711249551644,-3.15,12.01,9.76,6,5,0,10,2,6,9,27.57,36.10,0.00,
14.287,104.63101626704041,93.24871124955163,-4.84,8.98,8.41,6,4,0,10,2,6,9,27.17,38.26,0.00,
14.312,104.81010162670404,93.28587112495518,-5.4,6.28,7.89,5,4,0,10,3,6,9,27.66,40.42,0.00,
14.337,104.8730101626704,93.41558711249552,-5.37,5.55,9.5,5,4,0,11,3,6,10,28.55,42.87,0.00,
14.361,104.95130101626704,93.60855871124954,-5.74,4.99,10.79,4,4,0,11,3,6,10,30.02,45.22,0.00,
14.386,104.7971301016267,93.63685587112495,-8.17,1.63,7.26,4,5,0,11,2,6,11,30.90,46.89,0.00,
14.41,104.88971301016268,93.6936855871125,-10.73,-2.92,3.73,4,5,0,11,3,7,11,32.27,48.56,0.00,
14.436,104.99797130101626,93.72636855871124,-13.27,-10.45,3.5,4,5,0,12,3,8,2,34.43,48.56,0.00,
14.46,104.99079713010163,93.78363685587112,-15.67,-15.24,5.21,4,5,0,1,3,9,6,36.69,47.68,0.00,
14.485,104.76507971301015,93.91536368558712,-21.36,-15.53,6.04,3,5,0,2,3,10,11,39.73,46.60,0.00,
14.51,104.75150797130102,93.88353636855871,-33.4,-7.83,13.76,2,5,0,2,4,11,18,41.79,45.32,1.77,
14.534,104.3991507971301,93.52035363685587,-42.63,-4.6,14.63,1,5,0,2,4,0,23,44.15,43.16,0.88,
14.559,102.88791507971301,93.2140353636856,-46.92,4.29,21.33,0,4,0,12,5,3,27,46.89,41.99,0.00,
14.583,103.3667915079713,92.52640353636855,-47.66,-2.56,23.15,0,3,0,11,6,5,32,49.25,42.97,0.00,
14.609,103.54967915079712,91.85464035363685,-53.64,-3.91,26.74,0,3,0,9,6,7,35,52.58,41.99,0.88,
14.633,103.39696791507971,91.13946403536369,-58.17,-6.5,32.33,0,2,0,8,6,9,40,54.84,42.87,1.37,
14.658,103.37269679150796,90.22194640353638,-63.11,-5.63,36.42,0,2,0,6,6,10,44,56.41,36.49,1.57,
14.683,103.2712696791508,89.41019464035362,-71.9,-0.18,44.04,0,1,0,5,6,11,48,57.19,35.22,1.96,
14.707,102.42412696791507,88.84301946403536,-82.93,-3.08,46.91,0,1,0,3,6,11,48,57.00,34.34,2.16,
14.732,102.4654126967915,89.11030194640354,-107.57,-3.01,51.31,0,1,0,3,5,11,50,52.68,53.66,0.39,
14.756,102.52354126967916,89.31703019464035,-131.41,8.41,67.8,0,1,0,3,4,10,46,44.15,104.57,2.16,
14.782,103.23135412696791,89.23870301946404,-168.21,5.87,71.91,0,0,0,4,2,8,39,31.59,95.16,5.98,
14.807,103.50013541269679,86.72887030194642,-184.73,6.11,48.68,0,0,0,4,0,2,22,21.68,95.35,4.81,
14.831,103.80601354126968,84.57888703019465,-175.31,-11.6,28.08,0,0,0,2,0,8,11,13.83,25.60,2.94,
14.856,105.10560135412697,87.51388870301948,-113.93,8.69,72.54,0,0,0,1,0,1,2,5.30,5.20,0.88,
14.879,110.50056013541268,94.62038887030195,-89.73,12.8,64.63,0,0,0,0,0,1,2,0.78,1.67,0.29,
14.904,110.46405601354127,96.01503888703019,-29.97,-16.94,63.33,0,0,0,0,0,1,0,0.00,2.75,23.25,
14.927,106.35640560135413,98.80050388870302,12.26,-19.44,49.37,0,0,0,0,0,1,0,0.00,1.86,0.00,
14.952,100.86064056013542,100.49205038887031,35.34,-6.62,33.07,0,0,0,0,0,1,0,0.00,1.28,0.10,
14.976,95.82006405601355,101.05720503888703,62.98,5.13,27.33,0,0,0,0,0,1,0,0.00,1.96,6.87,
15.0,91.73400640560135,99.4937205038887,85.13,24.34,8.21,0,0,0,0,0,1,0,0.00,0.59,19.82,
15.024,89.12940064056014,96.36737205038887,110.27,32.73,-11.75,0,0,0,0,0,1,0,0.00,0.29,5.00,
15.047,88.40994006405602,93.87673720503888,127.27,29.01,-23.36,0,0,0,0,0,1,0,0.00,0.49,0.49,
15.072,88.7609940064056,92.32267372050389,130.23,24.4,-23.82,0,0,0,0,0,1,0,0.00,0.69,0.00,
15.095,89.99309940064056,90.0432673720504,136.21,19.34,-16.54,0,0,0,0,0,1,0,0.00,0.88,0.00,
15.119,91.94330994006405,86.71932673720504,146.56,12.49,-20.89,0,0,0,0,0,1,0,0.00,0.98,0.00,
15.143,93.32633099400641,83.38093267372051,149.24,0.25,-26.77,0,0,0,0,0,1,0,0.00,2.06,0.00,
15.167,94.40063309940064,80.61709326737206,142.31,-2.66,-30.98,0,0,0,0,0,1,0,0.00,2.55,0.00,
15.191,94.82306330994007,78.8557093267372,125.54,4.49,-37.44,0,0,0,0,0,1,0,0.00,2.45,0.00,
15.214,96.19730633099401,77.0235709326737,110.01,10.54,-53.12,0,0,0,0,0,1,0,0.00,2.45,0.00,
15.239,96.4157306330994,76.17435709326736,89.92,16.85,-65.44,0,0,0,0,0,1,0,0.00,2.45,0.29,
15.262,97.27457306330994,75.08143570932674,68.17,7.02,-74.83,0,0,0,0,0,1,0,0.00,5.30,0.00,
15.286,98.46745730633099,73.89214357093267,37.33,7.8,-81.23,0,0,0,0,0,1,0,0.00,5.49,0.00,
15.309,99.5947457306331,72.90021435709328,-2.95,13.87,-74.07,0,0,0,0,0,1,0,0.00,5.40,0.00,
15.334,100.42747457306331,72.33302143570931,-42.45,36.05,-51.31,0,0,0,0,0,1,0,0.00,6.38,0.00,
15.357,102.57174745730634,73.54530214357094,-92.82,2.48,-25.43,0,0,0,0,0,1,0,0.00,22.76,0.00,
15.382,98.58317474573064,74.9535302143571,44.77,24.96,29.41,0,0,0,0,0,1,0,0.00,103.40,0.59,
15.406,95.70031747457307,78.64935302143572,22.47,0.64,-16.07,0,0,0,1,0,1,1,0.49,84.37,0.00,
15.429,94.2960317474573,82.80793530214356,-2.57,11.58,-24.53,0,0,0,2,0,1,2,1.47,32.67,0.00,
15.454,93.21060317474573,84.52879353021436,-3.13,28.42,-5.6,0,0,0,3,0,0,3,3.24,21.88,0.00,
15.478,93.94806031747459,86.26687935302142,-5.62,14.06,-6.24,0,0,0,4,0,0,5,5.69,22.76,0.00,
15.503,94.75080603174746,87.61968793530214,-4.47,5.34,0.3,0,0,0,5,0,1,6,7.95,2.45,0.00,
15.526,95.58708060317475,88.81696879353022,-7.74,-0.89,4.03,1,0,0,5,0,1,7,9.71,5.40,0.00,
15.551,96.03970806031748,89.44069687935303,-8.09,2.31,3.64,1,1,0,5,0,1,8,10.89,5.89,0.00,
15.576,96.69697080603174,89.9710696879353,-8.07,5.73,-1.26,1,1,0,6,0,2,9,12.26,7.55,0.00,
15.599,97.40169708060317,90.41110696879353,-7.05,8.02,-0.34,2,2,0,6,1,2,10,14.22,7.75,0.00,
15.624,98.24616970806031,90.81511069687934,-6.56,7.36,-0.58,2,2,0,6,1,3,11,15.60,8.44,0.00,
15.648,99.11361697080604,91.53951106968795,-0.8,11.55,-1.39,3,3,0,7,1,3,12,16.97,9.71,0.00,
15.673,99.45236169708059,91.98095110696879,-6.56,16.28,-6.12,4,3,0,7,1,4,2,18.15,11.18,0.00,
15.697,99.75623616970806,92.07909511069687,-6.0,12.57,-8.4,4,4,0,8,1,5,3,17.46,12.46,0.00,
15.722,100.3176236169708,92.21490951106969,-5.81,15.85,-9.37,5,4,0,8,2,5,4,17.85,13.93,0.00,
15.747,100.98576236169708,92.38149095110698,-3.56,15.41,-6.72,5,5,0,8,2,5,4,18.74,15.30,0.00,
15.771,101.7365762361697,92.6681490951107,-2.45,15.27,-3.17,6,5,0,9,2,6,4,19.03,16.09,0.10,
15.796,102.17165762361697,92.92181490951107,-3.94,11.02,-1.31,6,5,0,9,2,6,5,19.42,17.36,0.20,
15.82,102.49416576236169,93.12718149095112,-5.24,8.85,-1.69,7,5,0,9,2,6,6,19.91,18.34,0.00,
15.845,102.79641657623617,93.2377181490951,-5.61,6.91,-2.68,7,5,0,10,2,6,6,20.50,19.23,0.20,
15.869,103.07864165762362,93.2487718149095,-5.04,5.9,-2.45,7,6,0,10,2,6,6,21.58,20.11,0.78,
15.894,103.17886416576235,93.26787718149095,-4.59,6.5,-3.37,7,6,0,10,2,6,6,21.97,20.50,0.78,
15.919,103.41388641657623,93.2067877181491,-3.95,6.67,-4.13,7,6,0,10,2,6,6,22.17,20.99,0.78,
15.943,103.55438864165761,93.1646787718149,-3.71,7.11,-3.93,8,6,0,10,2,6,6,22.46,21.19,0.78,
15.968,103.73043886416576,93.15146787718149,-1.66,8.76,-3.52,8,6,0,10,2,5,3,22.66,21.39,0.69,
15.992,104.00904388641658,93.19514678771816,-0.6,9.44,-2.66,8,6,0,10,2,5,2,22.86,21.09,1.08,
16.017,104.33390438864166,93.35251467877181,0.17,8.61,-2.11,8,6,0,11,2,4,0,22.27,20.99,0.10,
16.041,104.56439043886417,93.47625146787718,-0.31,7.25,-1.6,8,6,0,11,2,4,12,21.48,20.50,0.00,
16.066,104.65043904388642,93.55162514678773,-0.56,6.68,-1.02,8,6,0,11,2,4,11,20.99,20.01,0.00,
16.091,104.72204390438864,93.63116251467876,-0.91,5.48,-1.42,8,6,0,11,2,4,11,20.60,19.42,0.10,
16.115,104.76520439043885,93.68411625146787,-1.55,4.38,-1.15,8,6,0,11,1,3,11,20.11,19.03,0.10,
16.14,104.83252043904389,93.74341162514679,-2.45,3.9,-1.56,8,6,0,11,1,3,10,19.42,18.74,0.29,
16.164,104.90225204390438,93.80334116251468,-2.76,2.28,-1.16,8,6,0,11,1,3,10,19.23,18.84,0.10,
16.189,105.00822520439044,93.84533411625146,-2.82,2.5,-1.4,8,6,0,11,1,3,10,19.13,18.64,0.39,
16.214,105.03682252043905,93.84953341162515,-3.08,2.36,-0.92,8,6,0,11,1,3,10,19.23,18.54,0.49,
16.238,105.18368225204391,93.84995334116252,-2.69,2.31,-0.73,8,6,0,11,1,3,10,19.23,18.34,0.59,
16.263,105.30636822520438,93.89499533411626,-2.79,1.48,-0.65,8,6,0,11,1,3,10,19.13,18.05,0.78,
16.287,105.31863682252043,93.95349953341162,-3.02,1.31,-0.55,8,6,0,11,1,3,10,18.93,17.95,0.29,
16.312,105.31986368225203,94.01334995334116,-3.39,1.43,-1.12,8,6,0,11,1,3,10,18.93,16.68,0.39,
16.336,105.4009863682252,94.06433499533411,-3.49,1.4,-1.19,8,6,0,11,1,3,10,19.13,15.50,0.39,
16.361,105.40909863682252,94.06043349953342,-3.4,1.29,-0.69,8,6,0,11,1,3,9,19.13,15.50,0.39,
16.386,105.46390986368225,94.06004334995335,-3.53,1.93,-0.73,8,6,0,11,1,3,9,19.13,15.30,0.39,
16.41,105.48739098636823,94.10500433499533,-2.86,1.34,-0.3,8,6,0,11,1,3,9,18.93,15.21,0.49,
16.435,105.53473909863682,94.17250043349955,-3.15,1.33,-0.29,8,6,0,11,1,3,9,18.54,15.11,0.69,
16.459,105.53047390986369,94.19725004334995,-3.02,-0.01,-0.24,8,6,0,11,1,3,9,18.44,14.81,0.59,
16.485,105.53004739098637,94.199725004335,-3.47,0.55,-0.5,8,6,0,11,1,3,9,18.34,14.42,0.49,
16.509,105.50300473909864,94.1999725004335,-3.37,0.52,0.05,8,6,0,11,1,3,8,18.34,14.22,0.59,
16.533,105.50030047390986,94.18199725004337,-3.21,0.31,0.11,8,6,0,11,1,3,8,18.54,13.93,0.78,
16.558,105.437030047391,94.19819972500434,-2.69,0.28,0.56,8,6,0,11,1,3,8,18.44,13.83,0.59,
16.582,105.34970300473911,94.21781997250044,-3.08,0.01,0.27,8,6,0,11,1,2,8,18.34,13.64,0.49,
16.607,105.39497030047391,94.25578199725004,-3.26,-0.27,-0.2,8,6,0,11,1,2,8,18.25,13.34,0.39,
16.631,105.40849703004739,94.250578199725,-3.66,-0.63,-0.27,8,6,0,11,1,2,8,18.15,13.15,0.39,
16.656,105.48184970300474,94.2410578199725,-3.61,-0.79,-0.14,8,6,0,11,1,2,7,18.15,12.85,0.69,
16.68,105.43518497030048,94.21310578199726,-3.49,-0.73,0.02,8,6,0,11,1,2,7,18.25,12.65,0.49,
16.705,105.39451849703005,94.30031057819973,-3.6,-1.04,-0.05,8,6,0,11,1,2,7,18.25,12.36,0.49,
16.73,105.417451849703,94.30903105781998,-3.61,-0.31,0.0,8,6,0,11,1,2,7,18.44,12.26,0.10,
16.754,105.34774518497031,94.264903105782,-3.8,0.03,0.2,8,6,0,11,1,2,7,18.54,11.97,0.00,
16.779,105.24177451849704,94.1974903105782,-3.34,-0.06,0.55,8,6,0,11,1,2,7,18.64,12.16,0.20,
16.803,105.1951774518497,94.15474903105783,-3.28,0.04,0.55,8,6,0,11,1,2,7,18.84,12.07,0.20,
16.828,105.19051774518498,94.15047490310579,-3.47,0.79,0.76,8,6,0,11,1,2,7,18.93,11.97,0.20,
16.852,105.14505177451849,94.15904749031057,-3.4,0.89,0.89,8,6,0,11,1,2,7,19.13,12.07,0.10,
16.877,105.15850517745186,94.17790474903107,-3.85,0.69,0.45,8,6,0,11,1,2,7,19.33,12.16,0.10,
16.902,105.19585051774519,94.1617904749031,-3.8,0.56,0.41,8,6,0,11,1,2,8,19.42,12.36,0.00,
16.926,105.11858505177452,94.15117904749032,-3.73,0.78,0.59,8,6,0,11,1,2,8,19.82,12.65,0.10,
16.951,105.20985850517745,94.15011790474904,-4.15,0.6,0.44,8,6,0,12,1,3,8,20.01,12.95,0.00,
16.975,105.25498585051776,94.1590117904749,-4.1,0.94,0.49,8,6,0,12,1,3,8,20.40,13.24,0.00,
17.0,105.24149858505177,94.13290117904748,-4.08,1.19,0.45,8,6,0,12,1,3,8,20.80,13.44,0.39,
17.025,105.25814985850518,94.09429011790476,-4.18,1.32,0.36,8,6,0,12,1,3,8,21.09,13.73,0.20,
17.048,105.26881498585051,94.08142901179048,-3.98,1.86,0.27,8,6,0,12,1,3,8,21.48,14.03,0.39,
17.073,105.32388149858505,94.11614290117906,-3.69,2.04,0.57,8,6,0,12,1,3,8,21.78,14.32,0.29,
17.097,105.33838814985852,94.09261429011792,-3.41,1.9,0.8,8,6,0,12,1,3,8,21.88,14.42,0.49,
17.122,105.33983881498585,94.13526142901179,-3.41,1.7,0.86,8,6,0,0,1,3,8,21.97,14.72,0.39,
17.146,105.32198388149858,94.11252614290117,-3.4,1.56,0.84,8,6,0,0,1,3,8,21.97,14.81,0.39,
17.171,105.33819838814986,94.11925261429013,-3.56,1.76,0.89,8,6,0,0,1,3,8,22.07,15.01,0.39,
17.196,105.30381983881497,94.074925261429,-3.24,1.78,0.98,8,6,0,0,1,3,8,21.97,15.30,0.39,
17.219,105.30938198388151,94.0254925261429,-3.21,1.31,1.25,8,6,0,0,1,3,8,21.88,15.21,0.59,
17.244,105.35493819838814,94.07454925261429,-3.15,2.0,1.07,8,6,0,0,1,3,8,21.78,15.30,0.49,
17.268,105.3234938198388,94.03445492526143,-3.21,1.34,0.96,8,6,0,0,1,3,8,21.88,15.40,0.49,
17.293,105.32034938198387,94.03044549252616,-2.86,1.14,1.02,8,6,0,1,1,3,8,21.78,15.40,0.69,
17.317,105.35603493819838,94.05704454925262,-3.03,0.83,1.1,8,6,0,1,1,3,8,21.58,15.50,0.10,
17.342,105.30560349381983,94.02370445492525,-3.14,1.14,1.01,8,6,0,1,1,3,8,21.58,15.50,0.00,
17.366,105.291560349382,94.02937044549253,-2.92,1.12,1.04,8,6,0,1,1,3,8,21.39,15.50,0.20,
17.39,105.33515603493821,94.01193704454926,-2.87,1.31,0.98,8,6,0,1,1,3,8,21.09,15.40,0.29,
17.415,105.35751560349382,93.99219370445492,-2.79,1.37,0.98,8,6,0,1,1,3,8,21.09,15.30,0.49,
17.439,105.40475156034938,93.9992193704455,-2.82,1.18,1.01,8,6,0,1,1,3,8,20.80,15.21,0.78,
17.464,105.38247515603493,94.00892193704456,-2.79,0.79,0.94,8,6,0,1,1,2,8,20.80,15.21,0.59,
17.488,105.3982475156035,94.02789219370446,-2.66,1.02,1.09,8,6,0,1,1,2,8,20.50,15.11,0.59,
17.512,105.41782475156035,94.06578921937044,-2.81,0.98,1.08,8,6,0,1,1,2,8,20.31,15.01,0.59,
17.537,105.44678247515603,94.04257892193705,-2.77,1.15,1.14,8,6,0,1,1,2,8,20.21,14.91,0.78,
17.561,105.46767824751561,94.0672578921937,-2.65,0.81,0.8,8,6,0,1,1,2,7,19.91,14.81,0.29,
17.586,105.43376782475157,94.07872578921936,-2.92,0.69,1.02,8,6,0,1,1,2,7,19.82,14.72,0.39,
17.61,105.43037678247516,94.03487257892195,-3.08,0.81,0.82,8,6,0,1,1,2,7,19.82,14.62,0.20,
17.635,105.38503767824751,94.07548725789219,-3.15,0.36,0.64,8,6,0,0,1,2,7,19.72,14.42,0.39,
17.658,105.42550376782476,94.12454872578921,-3.05,0.3,0.79,8,6,0,0,1,2,7,19.72,14.42,0.20,
17.683,105.42055037678247,94.11145487257892,-3.24,0.38,0.5,8,6,0,1,1,2,7,19.62,14.32,0.29,
17.708,105.39305503767824,94.12814548725788,-3.36,0.27,0.56,8,6,0,1,1,2,7,19.72,14.32,0.29,
17.732,105.39930550376783,94.16581454872579,-3.31,0.29,0.82,8,6,0,1,1,2,7,19.72,14.22,0.39,
17.757,105.34593055037679,94.17858145487259,-3.1,0.23,0.71,8,6,0,0,1,2,7,19.82,14.03,0.29,
17.78,105.33159305503767,94.15285814548727,-3.15,0.32,0.81,8,6,0,1,1,2,7,19.82,14.03,0.39,
17.805,105.31215930550377,94.15928581454872,-3.3,0.31,0.59,8,6,0,1,1,2,7,19.72,14.13,0.39,
17.829,105.32821593055037,94.13292858145488,-3.53,0.08,0.69,8,6,0,1,1,2,7,19.72,13.93,0.39,
17.854,105.30282159305503,94.10329285814548,-3.33,-0.1,0.73,8,6,0,1,1,2,7,19.82,14.03,0.29,
17.879,105.30928215930551,94.06432928581455,-3.28,-0.14,0.7,8,6,0,1,1,2,7,19.91,14.03,0.39,
17.903,105.29192821593055,94.06043292858146,-3.28,0.0,0.75,8,6,0,1,1,2,7,19.91,13.93,0.49,
17.928,105.21819282159305,94.10504329285814,-3.65,0.31,0.72,8,6,0,1,1,2,7,20.11,14.03,0.10,
17.951,105.24681928215931,94.06450432928582,-3.56,-0.06,0.5,8,6,0,1,1,2,7,20.11,14.13,0.10,
17.976,105.23168192821593,94.06945043292858,-3.58,0.24,0.71,8,6,0,1,1,2,7,20.31,14.13,0.00,
18.0,105.23916819282158,94.15094504329285,-3.76,0.1,0.34,8,6,0,1,1,2,7,20.50,14.22,0.00,
18.025,105.25791681928216,94.1500945043293,-3.6,0.07,0.63,8,6,0,1,1,2,7,20.70,14.22,0.10,
18.05,105.16979168192822,94.10500945043293,-3.7,-0.15,0.74,8,6,0,1,1,2,7,20.80,14.32,0.20,
18.074,105.16097916819282,94.07350094504329,-3.74,0.04,0.56,8,6,0,1,1,2,7,20.90,14.32,0.29,
18.099,105.15109791681928,94.09735009450432,-3.22,0.34,1.14,8,6,0,1,1,2,7,21.19,14.52,0.29,
18.122,105.14110979168193,94.09073500945044,-3.24,0.67,1.44,8,6,0,2,1,2,7,21.19,14.62,0.29,
18.147,105.0861109791682,94.09007350094505,-3.43,0.6,0.92,8,6,0,2,1,2,7,21.19,14.62,0.29,
18.171,105.16161109791682,94.0810073500945,-3.49,0.54,0.92,8,6,0,2,1,2,7,21.29,14.62,0.39,
18.196,105.15116110979169,94.04410073500947,-3.37,0.91,1.16,8,6,0,2,1,2,7,21.19,14.62,0.29,
18.221,105.16811611097917,94.04041007350095,-2.92,1.0,1.13,8,6,0,2,1,2,7,0.00,14.72,0.49,
18.244,105.18781161109791,94.07604100735009,-3.08,0.74,0.93,8,6,0,2,1,2,7,21.19,14.62,0.59,
18.269,105.20778116110978,94.03460410073501,-3.38,0.8,0.78,8,6,0,2,1,2,7,21.19,14.62,0.20,
18.293,105.19177811611098,94.0574604100735,-3.32,0.73,0.81,8,6,0,2,1,2,8,21.09,14.72,0.39,
18.318,105.1361778116111,94.06874604100734,-3.35,0.56,0.75,8,6,0,2,1,2,8,21.19,14.72,0.00,
18.342,105.1126177811611,94.10587460410073,-3.49,0.37,0.67,8,6,0,2,1,2,8,21.19,14.62,0.00,
18.366,105.11026177811611,94.11858746041008,-3.44,0.35,0.9,8,6,0,2,1,2,8,21.39,14.72,0.00,
18.391,105.09202617781162,94.056858746041,-3.47,0.34,0.82,8,6,0,2,1,2,8,21.48,14.81,0.10,
18.415,105.12620261778116,94.0236858746041,-3.27,0.51,0.8,8,6,0,2,1,2,8,21.48,14.81,0.29,
18.44,105.16562026177812,94.02036858746041,-3.14,0.56,0.96,8,6,0,2,1,2,8,21.68,15.01,0.29,
18.464,105.21456202617782,94.05603685874605,-3.3,0.56,0.95,8,6,0,2,1,2,8,21.68,14.81,0.49,
18.489,105.21045620261778,94.05060368587459,-3.4,0.7,0.98,8,6,0,2,1,2,8,21.58,14.81,0.39,
18.512,105.13804562026178,94.09506036858745,-3.22,0.58,0.82,8,6,0,2,1,2,8,21.58,14.91,0.59,
18.537,105.09480456202618,94.12650603685874,-3.23,0.66,0.97,8,6,0,2,1,2,8,21.48,15.01,0.59,
18.562,105.08148045620261,94.08465060368587,-2.82,1.01,1.18,8,6,0,2,1,2,8,21.48,14.91,0.49,
18.586,105.11614804562026,94.07146506036858,-3.26,1.13,1.18,8,6,0,2,1,2,8,21.39,14.91,0.49,
18.611,105.16461480456204,94.08814650603686,-3.05,0.58,1.11,8,6,0,2,1,2,8,21.19,14.91,0.29,
18.635,105.1424614804562,94.08081465060368,-2.98,0.79,1.04,8,6,0,2,1,2,8,21.09,14.91,0.00,
18.659,105.10424614804562,94.08008146506036,-3.15,0.76,1.02,8,6,0,2,1,2,8,20.90,14.81,0.00,
18.683,105.10042461480457,94.06200814650605,-3.06,0.5,1.01,8,6,0,2,1,2,8,20.90,14.62,0.00,
18.708,105.07304246148045,94.0782008146506,-2.95,0.71,0.9,8,6,0,2,1,2,8,20.80,14.72,0.20,
18.733,105.09730424614804,94.09782008146506,-2.98,0.73,0.85,8,6,0,2,1,2,8,20.60,14.52,0.20,
18.757,105.1267304246148,94.06378200814652,-2.93,0.66,0.89,8,6,0,2,1,2,8,20.50,14.52,0.39,
18.782,105.06667304246147,94.07837820081465,-2.93,0.62,0.86,8,6,0,2,1,2,7,20.40,14.32,0.39,
18.805,105.05166730424615,94.08883782008148,-3.0,0.84,1.02,8,6,0,2,1,2,7,20.31,14.22,0.49,
18.83,105.0231667304246,94.07188378200814,-3.11,0.69,0.82,8,6,0,2,1,2,7,20.11,14.13,0.49,
18.854,105.00231667304246,94.07918837820081,-3.03,0.53,0.88,8,6,0,2,1,2,7,20.11,14.13,0.29,
18.879,104.96423166730425,94.10691883782007,-3.12,0.51,0.86,8,6,0,2,1,2,7,20.11,14.13,0.49,
18.904,104.95142316673042,94.100691883782,-3.09,0.51,0.99,8,6,0,2,1,2,7,20.11,13.93,0.59,
18.928,104.96814231667304,94.0730691883782,-3.21,0.54,1.06,8,6,0,2,1,2,7,20.01,14.03,0.59,
18.952,104.9248142316673,94.07030691883782,-3.04,0.6,0.95,8,6,0,2,1,2,7,19.91,14.03,0.39,
18.976,104.95648142316672,94.09703069188377,-3.23,0.22,1.26,8,6,0,2,1,2,7,19.91,13.93,0.39,
19.001,104.93264814231668,94.10870306918838,-3.16,0.54,0.88,8,6,0,2,1,2,7,19.82,13.93,0.00,
19.025,104.98426481423166,94.12787030691884,-3.34,0.39,0.76,8,6,0,2,1,2,7,19.91,13.93,0.10,
19.05,104.93542648142318,94.1207870306919,-3.38,0.05,0.92,8,6,0,2,1,2,7,20.11,14.03,0.10,
19.074,104.93054264814232,94.10207870306918,-3.46,0.04,0.92,8,6,0,2,1,2,7,20.21,14.03,0.29,
19.098,104.91205426481423,94.11820787030693,-3.56,-0.05,0.86,8,6,0,2,1,2,7,20.40,14.03,0.20,
19.123,104.99120542648141,94.1198207870307,-3.48,0.14,0.95,8,6,0,2,1,2,7,20.60,14.32,0.20,
19.147,104.97212054264814,94.14698207870308,-3.66,0.02,1.04,8,6,0,2,1,2,7,20.70,14.32,0.20,
19.172,104.9432120542648,94.12269820787031,-3.65,-0.03,0.97,8,6,0,2,1,2,7,20.80,14.22,0.20,
19.196,104.88632120542647,94.06626982078704,-3.66,-0.29,1.08,8,6,0,2,1,2,8,21.09,14.52,0.39,
19.221,104.85363212054264,94.0516269820787,-3.71,-0.23,0.85,8,6,0,2,1,2,8,21.39,14.42,0.59,
19.246,104.85036321205426,94.02316269820787,-3.88,0.11,0.78,8,6,0,2,1,2,8,21.48,14.52,0.39,
19.269,104.87703632120542,94.04731626982078,-3.73,0.17,0.73,8,6,0,2,1,2,8,21.88,14.42,0.10,
19.294,104.84370363212055,94.05873162698208,-3.69,-0.13,0.79,8,6,0,2,1,2,8,21.97,14.62,0.20,
19.318,104.84037036321206,94.0508731626982,-3.88,-0.12,0.86,8,6,0,2,1,2,8,22.17,14.62,0.29,
19.343,104.8130370363212,94.03208731626982,-3.85,0.09,0.99,8,6,0,2,1,2,8,22.27,14.62,0.10,
19.367,104.80130370363212,94.02120873162697,-3.45,0.44,1.01,9,6,0,2,1,2,8,22.37,14.62,0.10,
19.392,104.8001303703632,94.0471208731627,-3.0,0.6,1.03,8,6,0,2,1,2,8,22.56,14.62,0.20,
19.416,104.81801303703631,94.03171208731628,-3.2,0.43,1.02,9,6,0,2,1,2,8,22.46,14.62,0.29,
19.44,104.85580130370363,94.02117120873162,-3.29,0.6,1.03,9,6,0,2,1,2,8,22.46,14.62,0.20,
19.465,104.85958013037036,94.01111712087317,-3.17,0.48,1.02,9,6,0,2,1,2,8,22.37,14.52,0.20,
19.489,104.80595801303703,93.99211171208731,-3.02,0.57,1.01,8,6,0,2,1,2,8,22.27,14.52,0.39,
19.514,104.80959580130371,93.92721117120874,-2.95,0.56,1.08,9,6,0,2,1,2,8,22.27,14.52,0.39,
19.538,104.84595958013037,93.92972111712088,-2.87,0.78,1.15,8,6,0,2,1,2,8,22.17,14.42,0.29,
19.562,104.84059595801304,93.94797211171209,-3.01,0.57,0.92,8,6,0,2,1,2,8,22.07,14.42,0.59,
19.587,104.7950595958013,93.92279721117121,-3.02,0.99,1.03,9,6,0,2,1,2,8,21.97,14.42,0.39,
19.611,104.74550595958011,93.96527972111713,-2.98,0.89,1.05,9,6,0,2,1,2,8,21.88,14.22,0.49,
19.636,104.767550595958,94.03252797211172,-3.01,0.71,0.93,9,6,0,2,1,2,8,21.78,14.32,0.39,
19.66,104.76075505959581,94.03025279721118,-2.95,0.79,1.01,9,6,0,2,1,2,8,21.48,14.32,0.59,
19.685,104.76907550595956,94.03002527972113,-2.75,1.02,1.11,8,6,0,2,1,2,8,21.48,14.22,0.39,
19.708,104.76990755059595,94.01200252797211,-2.73,1.21,1.3,8,6,0,2,1,2,8,21.19,14.13,0.29,
19.733,104.74299075505958,94.01020025279722,-2.53,1.28,1.26,8,6,0,2,1,2,8,21.09,14.03,0.39,
19.758,104.76729907550595,94.00102002527973,-2.73,1.18,1.27,8,6,0,2,1,2,8,20.80,13.93,0.10,
19.782,104.76972990755058,94.01810200252797,-2.82,1.19,1.24,8,6,0,2,1,2,8,20.60,13.83,0.29,
19.807,104.76997299075505,94.0648102002528,-2.76,1.05,1.26,8,6,0,2,1,2,8,20.40,13.83,0.20,
19.831,104.73399729907551,94.05148102002528,-2.94,1.19,1.33,8,6,0,2,1,2,8,20.21,13.73,0.49,
19.855,104.67639972990756,94.07714810200252,-2.82,1.11,1.01,8,6,0,2,1,2,8,20.11,13.73,0.69,
19.879,104.66163997299076,94.07971481020024,-2.85,1.2,1.03,8,6,0,2,1,2,8,19.91,13.54,0.39,
19.904,104.67816399729908,94.12497148102003,-2.93,1.02,0.85,8,6,0,2,1,2,8,19.82,13.64,0.39,
19.929,104.6798163997299,94.09349714810202,-2.94,0.83,1.09,8,6,0,2,1,2,8,19.72,13.44,0.29,
19.953,104.670981639973,94.0723497148102,-3.15,0.72,1.05,8,6,0,2,1,2,7,19.62,13.44,0.39,
19.978,104.73309816399728,94.08823497148103,-2.83,0.88,1.05,8,6,0,2,1,2,7,19.52,13.44,0.49,
20.001,104.69430981639972,94.1078234971481,-2.95,0.92,1.08,8,6,0,2,1,2,7,19.42,13.34,0.59,
20.026,104.69043098163998,94.14578234971482,-2.98,0.57,0.81,8,6,0,2,1,2,7,19.42,13.34,0.69,
20.05,104.73504309816398,94.1495782349715,-3.06,0.82,0.92,8,6,0,2,1,2,7,19.33,13.34,0.10,
20.075,104.73950430981638,94.16795782349715,-2.9,0.91,1.03,8,6,0,2,1,2,7,19.23,13.34,0.00,
20.1,104.75795043098164,94.16979578234971,-3.1,0.71,0.87,8,6,0,2,1,2,7,19.23,13.24,0.10,
20.123,104.78679504309817,94.17897957823499,-3.15,0.6,0.96,8,6,0,2,1,2,7,19.23,13.24,0.20,
20.148,104.78067950430982,94.1888979578235,-3.15,0.63,0.88,8,6,0,2,1,2,7,19.23,13.34,0.20,
20.172,104.82506795043098,94.16288979578235,-3.27,0.7,0.93,8,6,0,2,1,2,7,19.13,13.34,0.49,
20.197,104.8385067950431,94.18728897957823,-3.12,0.82,0.9,8,6,0,2,1,2,7,19.13,13.24,0.29,
20.221,104.8308506795043,94.18972889795782,-3.19,0.91,0.82,8,6,0,2,1,2,7,19.13,13.15,0.39,
20.246,104.80308506795042,94.18997288979578,-2.98,0.79,0.9,8,6,0,2,1,2,7,19.13,13.34,0.20,
20.27,104.85430850679504,94.21699728897957,-3.2,0.72,1.05,8,6,0,2,1,2,7,19.03,13.24,0.29,
20.294,104.76943085067951,94.18369972889798,-3.36,0.69,1.02,8,6,0,2,0,2,7,19.03,13.24,0.29,
20.319,104.75194308506795,94.16236997288979,-3.34,0.62,0.74,8,6,0,2,1,2,7,19.03,13.24,0.39,
20.343,104.74119430850678,94.14223699728898,-3.33,0.66,0.98,8,6,0,2,0,2,7,19.23,13.24,0.39,
20.368,104.75811943085068,94.14022369972889,-3.26,0.65,1.02,8,6,0,2,0,2,7,19.23,13.24,0.39,
20.392,104.76881194308505,94.18502236997288,-3.29,0.42,0.8,8,6,0,2,0,2,7,19.23,13.34,0.39,
20.416,104.78788119430851,94.22550223699729,-3.42,0.27,0.86,8,6,0,2,0,2,7,19.33,13.34,0.10,
20.441,104.71778811943084,94.20255022369973,-3.6,0.22,0.61,8,6,0,2,0,2,7,19.33,13.34,0.00,
20.465,104.72877881194309,94.18225502236999,-3.4,0.37,0.63,8,6,0,2,0,2,7,19.52,13.34,0.20,
20.49,104.7658778811943,94.189225502237,-3.59,0.3,0.75,8,6,0,2,0,2,7,19.72,13.44,0.39,
20.514,104.81458778811943,94.1359225502237,-3.39,0.51,0.59,8,6,0,2,0,2,7,19.82,13.34,0.10,
20.538,104.77445877881193,94.13059225502236,-3.23,0.45,0.91,8,6,0,2,0,2,8,19.91,13.34,0.20,
20.562,104.7524458778812,94.15705922550224,-3.47,0.43,0.71,8,6,0,2,0,2,8,19.91,13.34,0.29,
20.587,104.72324458778812,94.12370592255023,-3.57,0.27,0.85,8,6,0,2,0,2,8,19.91,13.24,0.29,
20.612,104.66632445877882,94.12037059225503,-3.42,0.39,0.9,8,6,0,2,0,2,8,20.01,13.15,0.29,
20.636,104.68763244587788,94.1650370592255,-3.4,0.34,0.78,8,6,0,2,0,2,8,20.21,13.24,0.49,
20.661,104.61776324458779,94.17850370592257,-3.46,0.07,0.89,8,6,0,2,0,2,8,20.21,13.34,0.39,
20.684,104.60177632445878,94.17085037059226,-3.42,-0.07,1.02,8,6,0,2,0,2,8,20.31,13.44,0.39,
20.709,104.52817763244587,94.15208503705924,-3.6,-0.02,0.95,8,6,0,2,1,2,8,20.11,13.34,0.98,
20.733,104.5388177632446,94.13220850370593,-3.52,0.04,1.05,8,6,0,2,1,2,8,20.40,13.44,0.10,
20.758,104.51288177632446,94.0942208503706,-3.34,0.08,1.05,8,6,0,2,1,2,8,20.50,13.64,0.00,
20.783,104.51028817763246,94.07242208503706,-3.21,-0.01,1.27,8,6,0,2,1,2,8,20.50,13.73,0.00,
20.807,104.48302881776326,94.06124220850371,-3.13,0.4,1.38,8,6,0,2,1,2,8,20.60,13.64,0.00,
20.832,104.48930288177633,94.06012422085038,-3.09,0.49,1.16,8,6,0,2,1,2,8,20.60,13.64,0.00,
20.855,104.46293028817763,94.06001242208505,-3.18,0.31,1.25,8,6,0,2,1,2,8,20.50,13.73,0.00,
20.88,104.45129302881777,94.06000124220851,-3.21,0.42,1.31,9,6,0,2,1,2,7,20.60,13.64,0.00,
20.904,104.40512930288179,94.05100012422085,-3.17,0.41,1.12,8,6,0,2,1,2,8,20.40,13.54,0.29,
20.929,104.37351293028819,94.05910001242209,-2.95,0.54,1.17,8,6,0,2,1,2,8,20.40,13.64,0.00,
20.954,104.31635129302882,94.0239100012422,-3.05,0.56,1.01,8,6,0,2,1,2,8,20.40,13.54,0.20,
20.978,104.34663512930287,94.06539100012421,-3.15,0.34,1.06,8,6,0,2,1,2,8,20.21,13.44,0.78,
21.002,104.35866351293029,94.06953910001242,-3.31,0.04,0.99,8,6,0,2,1,2,8,20.31,13.44,0.49,
21.026,104.33286635129303,94.03395391000124,-3.05,0.25,1.0,8,6,0,2,1,2,8,20.21,13.34,0.59,
21.051,104.3212866351293,94.03939539100013,-3.16,0.24,1.15,8,6,0,2,1,2,8,20.21,13.54,0.29,
21.075,104.28412866351293,94.1029395391,-2.93,0.11,1.3,8,6,0,2,1,2,8,20.21,13.44,0.29,
21.1,104.3074128663513,94.04629395391001,-2.81,0.7,1.4,8,6,0,2,1,2,8,20.21,13.34,0.29,
21.125,104.30074128663513,94.076629395391,-3.08,0.69,1.17,8,6,0,2,1,2,8,19.91,13.24,0.00,
21.148,104.30007412866351,94.09766293953909,-3.08,0.82,1.09,8,6,0,2,1,2,8,19.72,13.15,0.10,
21.173,104.31800741286634,94.0727662939539,-2.95,0.52,1.18,8,6,0,2,1,2,8,19.62,13.05,0.20,
21.197,104.29280074128664,94.05227662939538,-2.95,0.6,1.03,8,6,0,2,1,2,8,19.62,13.05,0.00,
21.222,104.28128007412866,94.06822766293953,-3.06,0.7,1.43,8,6,0,2,0,2,8,19.52,13.15,0.10,
21.246,104.27112800741287,94.06082276629397,-3.03,0.82,1.32,8,6,0,2,0,2,8,19.42,12.95,0.29,
21.27,104.19811280074128,94.0600822766294,-3.26,0.69,1.2,8,6,0,2,0,2,8,19.33,12.95,0.29,
21.295,104.20881128007413,94.06900822766293,-3.31,0.73,1.01,8,6,0,2,0,2,8,19.23,12.75,0.98,
21.319,104.25488112800741,94.0879008227663,-3.37,0.61,1.06,8,6,0,2,0,2,8,19.23,12.95,0.49,
21.344,104.26848811280074,94.06279008227663,-3.02,0.76,1.24,8,6,0,2,0,2,8,19.23,12.85,0.78,
21.368,104.24284881128007,94.06027900822767,-3.07,0.68,1.37,8,6,0,2,0,2,8,19.23,12.85,0.20,
21.393,104.285284881128,94.06902790082276,-3.2,0.83,0.98,8,6,0,2,0,2,8,19.33,12.75,0.20,
21.416,104.2715284881128,94.06090279008228,-3.11,0.9,1.08,8,6,0,2,0,2,8,19.13,12.75,0.59,
21.441,104.29715284881128,94.06009027900824,-3.03,0.7,1.25,8,6,0,2,0,2,8,19.13,12.75,0.59,
21.466,104.27271528488113,94.07800902790082,-3.21,0.73,1.18,8,6,0,2,0,2,8,19.13,12.75,0.69,
21.49,104.24327152848811,94.0168009027901,-3.14,0.69,1.21,8,6,0,1,0,2,8,19.03,12.65,0.29,
21.515,104.2133271528488,94.019680090279,-3.02,0.82,1.21,8,6,0,2,0,2,8,19.13,12.85,0.29,
21.538,104.19233271528488,94.0739680090279,-3.19,0.56,1.16,8,6,0,1,0,2,8,19.03,12.75,0.00,
21.563,104.20823327152848,94.0883968009028,-3.2,0.44,1.08,8,6,0,1,0,2,8,18.93,12.85,0.10,
21.587,104.22782332715285,94.13483968009028,-3.37,0.14,1.28,8,6,0,2,0,2,8,19.13,12.75,0.20,
21.612,104.25678233271529,94.09448396800903,-3.28,0.71,0.99,8,6,0,2,0,2,8,19.13,12.85,0.20,
21.637,104.25967823327153,94.0724483968009,-3.21,0.43,1.17,8,6,0,2,0,2,8,19.03,12.95,0.39,
21.661,104.25996782332716,94.0882448396801,-3.4,0.48,1.1,8,6,0,2,0,2,8,19.13,12.95,0.39,
21.685,104.25099678233272,94.125824483968,-3.49,0.24,1.02,8,6,0,2,0,2,8,19.13,12.95,0.39,
21.709,104.23209967823327,94.13858244839679,-3.69,0.28,0.98,8,6,0,2,0,2,8,19.33,12.95,0.20,
21.734,104.25720996782333,94.12185824483969,-3.48,0.42,1.18,8,6,0,2,0,2,8,19.52,13.05,0.59,
21.758,104.28672099678234,94.14718582448398,-3.6,0.4,0.91,8,6,0,2,0,2,8,19.52,13.15,0.29,
21.783,104.26267209967824,94.1317185824484,-3.65,0.43,0.81,8,6,0,2,0,2,8,19.72,13.15,0.49,
21.808,104.16126720996783,94.08517185824483,-3.63,0.4,0.97,8,6,0,2,0,2,8,19.72,13.15,0.29,
21.831,104.10612672099678,94.09851718582448,-3.53,0.23,0.98,8,6,0,2,0,2,8,19.82,13.24,0.10,
21.856,104.11861267209969,94.07285171858244,-3.53,0.5,0.79,8,6,0,2,1,2,8,20.11,13.24,0.10,
21.88,104.11986126720998,94.04328517185826,-3.44,0.61,1.05,8,6,0,2,1,2,8,20.21,13.24,0.10,
21.905,104.092986126721,94.02232851718583,-3.52,0.57,0.99,8,6,0,2,1,2,8,20.31,13.34,0.10,
21.929,104.11729861267212,94.04723285171858,-3.56,0.84,0.71,8,6,0,2,1,2,8,20.40,13.24,0.29,
21.953,104.1107298612672,94.07672328517185,-3.47,0.69,0.67,8,6,0,2,1,2,8,20.50,13.34,0.20,
21.978,104.12807298612671,94.06167232851719,-3.39,0.73,0.89,8,6,0,2,1,2,8,20.50,13.24,0.29,
22.002,104.13880729861266,94.06916723285171,-3.48,0.57,0.81,8,6,0,2,1,2,8,20.60,13.34,0.10,
22.027,104.14888072986128,94.06091672328517,-3.36,0.95,0.73,8,6,0,2,1,2,8,20.60,13.34,0.20,
22.051,104.16788807298613,94.03309167232852,-3.25,0.94,1.07,8,6,0,2,1,2,8,20.60,13.34,0.49,
22.076,104.16978880729862,94.04830916723284,-3.47,0.85,0.79,8,6,0,2,1,2,8,20.60,13.34,0.49,
22.099,104.15197888072987,94.0048309167233,-3.29,0.79,0.91,8,6,0,2,1,2,8,20.70,13.44,0.49,
22.124,104.10519788807298,94.00948309167234,-3.06,0.77,1.05,8,6,0,2,1,2,8,20.70,13.34,0.69,
22.149,104.07351978880729,94.04594830916723,-3.32,0.98,0.83,8,6,0,2,1,2,8,20.60,13.34,0.39,
22.173,104.05235197888072,94.04959483091672,-3.49,0.7,0.78,8,6,0,2,1,2,8,20.60,13.44,0.39,
22.198,104.08623519788809,94.03195948309168,-3.52,0.64,0.84,8,6,0,2,1,2,8,20.60,13.24,0.20,
22.221,104.08962351978882,94.04819594830916,-3.4,0.76,0.93,8,6,0,2,1,2,8,20.60,13.34,0.00,
22.246,104.06296235197888,94.04981959483091,-3.36,0.82,0.72,8,6,0,2,1,2,8,20.70,13.44,0.20,
22.27,104.07829623519788,94.04998195948309,-3.4,0.71,0.83,8,6,0,2,1,2,8,20.80,13.54,0.29,
22.295,104.13382962351979,94.0229981959483,-3.27,0.72,0.86,8,6,0,2,1,2,8,20.90,13.44,0.49,
22.32,104.13038296235197,94.02029981959483,-3.4,0.58,0.9,8,6,0,2,1,2,8,20.90,13.44,0.39,
22.344,104.09403829623521,93.98402998195948,-3.28,0.61,1.11,8,6,0,2,1,2,8,20.99,13.44,0.39,
22.368,104.14440382962353,93.96240299819594,-3.25,0.4,1.14,8,6,0,2,1,2,8,20.99,13.54,0.49,
22.392,104.11344038296235,93.9422402998196,-3.4,0.61,1.19,9,6,0,2,1,2,8,21.09,13.54,0.49,
22.417,104.07434403829623,93.89522402998196,-3.26,0.63,1.2,8,6,0,2,1,2,8,21.19,13.54,0.49,
22.441,104.05243440382962,93.9265224029982,-3.37,0.29,1.56,8,6,0,2,1,2,8,21.19,13.64,0.49,
22.466,104.04124344038297,93.90265224029983,-3.4,0.37,1.73,8,6,0,2,1,2,8,21.19,13.64,0.39,
22.491,104.0581243440383,93.86426522402999,-3.12,0.47,1.88,8,6,0,2,1,2,8,21.29,13.73,0.39,
22.514,104.05981243440384,93.95042652240299,-3.22,0.6,1.73,8,6,0,2,1,2,8,21.39,13.83,0.49,
22.539,104.05098124344038,93.9410426522403,-3.27,0.18,1.85,8,6,0,2,1,2,8,21.39,13.83,0.39,
22.563,103.99609812434403,93.96710426522404,-3.08,0.27,1.98,8,6,0,2,1,2,8,21.39,13.83,0.10,
22.588,103.9906098124344,93.96971042652241,-3.19,0.4,2.23,8,6,0,2,1,2,8,21.48,13.93,0.29,
22.612,103.96306098124343,93.93397104265225,-3.0,0.38,2.24,8,6,0,2,1,2,8,21.48,14.03,0.20,
22.636,103.91530609812435,93.92139710426522,-3.32,0.18,2.08,8,6,0,2,1,2,8,21.78,14.13,0.10,
22.661,103.91053060981244,93.92013971042653,-3.21,0.02,1.96,8,6,0,2,1,2,8,21.88,14.22,0.29,
22.685,103.91905306098124,93.90201397104266,-3.3,-0.05,1.87,9,6,0,2,1,2,8,21.97,14.22,0.20,
22.71,103.91990530609813,93.91820139710427,-3.51,-0.14,1.32,9,6,0,2,1,2,8,22.17,14.52,0.20,
22.734,103.88399053060982,93.91082013971044,-4.08,-0.44,1.16,9,7,0,3,1,2,8,22.46,14.52,0.39,
22.759,103.87139905306098,93.89208201397105,-3.97,-0.04,0.99,9,7,0,3,1,2,8,22.76,14.52,0.39,
22.784,103.8161399053061,93.8452082013971,-4.13,0.19,0.44,9,7,0,3,1,2,8,22.96,14.72,0.39,
22.808,103.75661399053061,93.79552082013971,-4.15,0.12,-0.31,9,7,0,3,1,2,8,23.25,14.81,0.29,
22.832,103.67866139905306,93.73655208201397,-4.19,0.08,-0.45,9,7,0,3,1,2,8,23.54,14.81,0.29,
22.856,103.7158661399053,93.6946552082014,-4.37,0.21,-0.27,9,7,0,3,1,2,8,23.84,14.72,0.49,
22.881,103.69258661399053,93.67246552082014,-4.18,0.26,-0.15,9,7,0,3,1,2,8,24.03,14.81,0.20,
22.905,103.72625866139904,93.688246552082,-4.28,0.06,-0.04,9,7,0,3,1,2,8,24.33,14.72,0.10,
22.93,103.7656258661399,93.7168246552082,-3.78,-0.13,0.18,9,7,0,3,1,3,8,24.43,14.81,0.10,
22.955,103.78756258661399,93.70168246552082,-4.14,-0.4,0.34,9,7,0,3,1,3,8,24.72,14.72,0.20,
22.979,103.7807562586614,93.69116824655208,-3.84,-0.21,0.15,9,7,0,3,1,3,8,24.92,14.72,0.39,
23.004,103.73507562586613,93.6721168246552,-3.91,-0.12,-0.18,9,7,0,3,1,3,9,25.11,14.72,0.10,
23.028,103.68550756258662,93.64321168246552,-4.12,-0.37,-0.66,9,7,0,3,1,3,9,25.21,14.62,0.29,
23.053,103.63555075625865,93.65832116824654,-4.4,-0.5,-0.73,9,7,0,3,1,3,9,25.41,14.52,0.29,
23.077,103.63055507562586,93.64183211682465,-4.2,-0.47,-0.82,9,7,0,3,1,3,9,25.70,14.32,0.49,
23.102,103.6210555075626,93.56818321168247,-3.92,0.49,-0.48,9,7,0,3,1,3,9,26.00,14.32,0.39,
23.127,103.52110555075626,93.62381832116824,-3.63,1.25,-0.29,9,7,0,3,1,3,9,26.09,14.22,0.39,
23.151,103.48411055507563,93.62038183211683,-3.09,1.79,-0.03,9,7,0,3,1,3,9,26.09,14.13,0.49,
23.176,103.47141105550756,93.61103818321168,-2.44,2.15,0.72,9,7,0,3,1,3,9,25.90,14.03,0.49,
23.199,103.47914110555075,93.66410381832117,-2.14,2.17,1.48,9,7,0,3,1,3,8,25.51,13.93,0.29,
23.224,103.55191411055509,93.70541038183211,-1.95,2.2,2.05,9,7,0,3,1,2,8,25.02,13.73,0.20,
23.248,103.64919141105551,93.6735410381832,-1.95,2.18,2.21,9,7,0,3,0,2,8,24.43,13.73,0.29,
23.273,103.69491914110554,93.67935410381833,-1.88,2.36,2.23,8,7,0,3,0,2,8,23.74,13.44,0.29,
23.298,103.66349191411055,93.66193541038183,-1.96,1.9,1.76,8,7,0,3,0,2,8,22.76,13.34,0.29,
23.321,103.66034919141106,93.75019354103819,-2.54,1.33,0.85,8,7,0,2,0,2,8,22.46,13.24,0.10,
23.346,103.6600349191411,93.77701935410381,-2.88,0.6,0.36,8,7,0,2,0,2,8,22.17,13.15,0.39,
23.37,103.67800349191413,93.76170193541037,-3.19,0.07,0.08,9,7,0,2,0,2,8,21.97,13.05,0.29,
23.395,103.70680034919141,93.73317019354104,-3.08,0.06,0.8,9,7,0,2,0,2,8,22.07,12.95,0.39,
23.419,103.66468003491914,93.7213170193541,-2.81,1.05,1.01,9,7,0,2,0,2,8,22.07,12.85,0.39,
23.444,103.64246800349191,93.7201317019354,-2.73,1.42,1.1,9,7,0,2,0,2,8,21.97,12.65,0.49,
23.469,103.6222468003492,93.78301317019354,-2.75,1.77,1.52,8,7,0,2,0,2,8,21.88,12.65,0.29,
23.492,103.68322468003491,93.82530131701935,-2.49,2.07,1.12,8,6,0,2,0,2,8,21.58,12.56,0.49,
23.517,103.71632246800348,93.83853013170193,-2.69,1.64,1.48,8,6,0,2,0,2,8,21.19,12.65,0.59,
23.541,103.80963224680035,93.8308530131702,-2.38,1.76,1.9,8,6,0,2,0,2,8,20.99,12.65,0.59,
23.566,103.82796322468003,93.86608530131701,-2.4,1.47,2.09,8,6,0,2,0,2,8,20.50,12.56,0.20,
23.59,103.820796322468,93.9056085301317,-2.76,1.31,1.29,8,6,0,2,0,2,8,20.50,12.65,0.20,
23.614,103.8200796322468,93.92756085301318,-3.34,0.6,0.47,8,6,0,2,0,2,8,20.21,12.56,0.20,
23.639,103.84700796322468,93.89375608530132,-3.39,-0.02,0.44,8,6,0,2,0,2,8,20.31,12.56,0.29,
23.663,103.86770079632247,93.89037560853014,-3.62,-0.22,0.51,8,6,0,2,0,2,8,20.50,12.56,0.20,
23.688,103.82477007963224,93.90803756085302,-3.5,-0.28,0.65,8,6,0,2,0,2,8,20.70,12.56,0.20,
23.712,103.83847700796322,93.85580375608531,-3.5,-0.05,0.75,8,6,0,2,0,2,8,20.90,12.56,0.49,
23.737,103.83984770079633,93.85058037560853,-3.44,0.1,0.96,8,6,0,2,0,2,8,20.99,12.56,0.49,
23.761,103.83998477007964,93.84105803756086,-3.11,0.18,0.86,8,6,0,2,0,2,8,21.09,12.56,0.49,
23.786,103.83099847700797,93.88510580375609,-3.09,0.65,1.18,8,6,0,2,0,2,8,21.09,12.46,0.29,
23.81,103.8570998477008,93.92551058037562,-3.21,0.43,1.33,8,6,0,2,0,2,8,21.19,12.46,0.39,
23.834,103.86870998477008,93.93855105803756,-3.12,0.54,1.63,8,6,0,2,0,2,8,21.19,12.56,0.39,
23.859,103.80687099847701,93.94885510580376,-3.22,0.72,1.47,8,6,0,2,0,2,8,21.09,12.65,0.49,
23.883,103.8186870998477,93.94988551058037,-3.12,0.67,1.58,8,6,0,2,0,2,8,20.99,12.56,0.49,
23.908,103.83786870998478,93.91398855105804,-3.21,0.67,1.69,8,6,0,2,0,2,8,21.09,12.65,0.20,
23.931,103.78578687099848,93.92839885510581,-3.51,0.74,1.31,8,6,0,2,0,2,8,20.90,12.65,0.20,
23.956,103.73557868709985,93.92083988551059,-3.27,0.66,0.79,8,6,0,2,0,2,8,20.99,12.75,0.00,
23.981,103.75755786870998,93.90208398855106,-3.31,0.85,0.58,8,6,0,2,0,2,8,21.29,12.75,0.10,
24.005,103.768755786871,93.88220839885511,-3.44,0.82,0.73,8,6,0,2,0,2,8,21.29,12.85,0.20,
24.03,103.77887557868709,93.86222083988551,-3.56,0.71,0.85,8,6,0,2,0,2,8,21.39,12.75,0.39,
24.054,103.7348875578687,93.82422208398856,-3.63,0.92,0.34,8,6,0,2,0,2,8,21.39,12.75,0.20,
24.078,103.77548875578687,93.86542220839885,-3.48,0.75,0.44,8,6,0,2,0,2,8,21.58,12.85,0.20,
24.102,103.76154887557868,93.89654222083989,-3.23,0.82,0.72,8,6,0,2,0,2,8,21.68,12.85,0.39,
24.127,103.74215488755786,93.917654222084,-3.05,1.07,0.7,8,6,0,2,0,2,8,21.68,12.85,0.39,
24.152,103.71321548875578,93.8657654222084,-3.08,1.04,0.79,8,6,0,2,0,2,8,21.58,12.85,0.49,
24.176,103.74632154887557,93.84257654222084,-3.01,1.22,0.84,8,6,0,2,0,2,8,21.48,12.95,0.49,
24.2,103.75863215488755,93.89425765422209,-3.08,0.92,0.69,8,6,0,2,0,2,8,21.39,12.85,0.49,
24.224,103.72386321548875,93.87242576542221,-3.27,0.61,0.73,8,6,0,2,0,2,8,21.29,12.85,0.59,
24.249,103.76538632154887,93.87024257654222,-3.4,0.78,0.56,8,6,0,2,0,2,8,21.19,12.75,0.39,
24.273,103.76953863215489,93.84302425765422,-3.46,0.84,0.34,8,6,0,2,0,2,8,21.19,12.75,0.20,
24.298,103.80595386321549,93.82230242576543,-3.34,0.66,0.24,8,6,0,2,0,2,8,21.29,12.65,0.20,
24.323,103.78259538632155,93.79323024257654,-3.36,0.94,0.41,8,6,0,2,0,2,8,21.29,12.75,0.20,
24.346,103.71725953863215,93.79932302425766,-3.02,1.0,0.57,9,6,0,2,0,2,8,21.39,12.75,0.29,
24.371,103.65672595386323,93.76393230242576,-3.05,1.15,0.82,9,7,0,2,0,2,8,21.39,12.65,0.29,
24.395,103.68667259538631,93.78739323024257,-2.87,1.12,1.09,9,7,0,2,0,2,8,21.39,12.65,0.39,
24.42,103.72566725953862,93.77173932302426,-2.83,1.27,1.27,8,6,0,2,0,2,8,21.19,12.56,0.49,
24.444,103.74756672595386,93.76117393230243,-2.56,1.58,1.56,8,6,0,2,0,2,8,21.09,12.46,0.29,
24.469,103.74075667259538,93.81411739323025,-2.37,1.95,1.48,8,6,0,2,0,2,8,20.80,12.46,0.29,
24.493,103.76707566725953,93.81941173932303,-2.34,1.94,1.81,8,6,0,2,0,2,8,20.60,12.36,0.39,
24.517,103.82370756672596,93.8109411739323,-2.27,1.7,1.64,8,6,0,2,0,2,8,20.21,12.36,0.49,
24.542,103.8473707566726,93.81009411739323,-2.38,1.69,1.74,8,6,0,2,0,2,8,19.82,12.26,0.69,
24.566,103.85873707566726,93.80100941173933,-2.61,1.38,1.77,8,6,0,2,0,2,8,19.52,12.26,0.49,
24.591,103.90487370756674,93.80010094117394,-2.6,1.41,1.4,8,6,0,1,0,2,8,19.23,12.16,0.69,
24.614,103.94548737075668,93.8540100941174,-2.63,1.13,1.19,8,6,0,1,0,2,8,19.13,12.16,0.59,
24.639,104.01254873707566,93.93140100941174,-2.86,1.06,1.12,8,6,0,1,0,2,8,19.03,12.16,0.29,
24.664,103.97425487370757,94.01114010094116,-3.0,1.33,1.04,8,6,0,1,0,2,8,19.03,12.26,0.10,
24.688,103.96142548737075,94.01911401009411,-3.01,0.47,1.11,8,6,0,1,0,2,8,19.03,12.16,0.10,
