time,pitch,roll,gyrx,gyry,gyrz,f1,f2,f3,f4,f5,f6,f7,g1,g2,g3
0.371,331.97,331.97,0.0,0.0,0.0,0.0,0.0,0.0,0.0,0.0,0.0,0.0,0.1,0.0,0.0,
0.385,329.684,329.684,0.0,0.0,0.0,0.0,0.0,0.0,0.0,0.0,0.0,0.0,0.1,0.0,0.1,
0.397,327.50239999999997,327.50239999999997,0.0,0.0,0.0,0.0,0.0,0.0,0.0,0.0,0.0,0.0,0.1,0.0,0.0,
0.409,325.62824,325.62824,0.0,0.0,0.0,0.0,0.0,0.0,0.0,0.0,0.0,0.0,0.2,0.0,0.0,
0.422,324.036824,324.036824,0.0,0.0,0.0,0.0,0.0,0.0,0.0,0.0,0.0,0.0,0.1,0.0,0.0,
0.435,322.68068239999997,322.68068239999997,0.0,0.0,0.0,0.0,0.0,0.0,0.0,0.0,0.0,0.0,0.1,0.0,0.0,
0.448,321.52806824,321.52806824,0.0,0.0,0.0,0.0,0.0,0.0,0.0,0.0,0.0,0.0,0.1,0.0,0.0,
0.46,320.548806824,320.548806824,0.0,0.0,0.0,0.0,0.0,0.0,0.0,0.0,0.0,0.0,0.1,0.0,0.0,
0.474,319.7128806824,319.7128806824,0.0,0.0,0.0,0.0,0.0,0.0,0.0,0.0,0.0,0.0,0.1,0.0,0.1,
0.486,319.00828806824,319.00828806824,0.0,0.0,0.0,0.0,0.0,0.0,0.0,0.0,0.0,0.0,0.1,0.0,0.0,
0.499,318.40682880682397,318.40682880682397,0.0,0.0,0.0,0.0,0.0,0.0,0.0,0.0,0.0,0.0,0.1,0.0,0.0,
0.512,317.89668288068236,317.89668288068236,0.0,0.0,0.0,0.0,0.0,0.0,0.0,0.0,0.0,0.0,0.1,0.0,0.0,
0.524,317.4586682880683,317.4586682880683,0.0,0.0,0.0,0.0,0.0,0.0,0.0,0.0,0.0,0.0,0.2,0.0,0.0,
0.537,317.09086682880684,317.09086682880684,0.0,0.0,0.0,0.0,0.0,0.0,0.0,0.0,0.0,0.0,0.1,0.0,0.0,
0.549,316.7750866828807,316.7750866828807,0.0,0.0,0.0,0.0,0.0,0.0,0.0,0.0,0.0,0.0,0.1,0.0,0.1,
0.563,316.5095086682881,316.5095086682881,0.0,0.0,0.0,0.0,0.0,0.0,0.0,0.0,0.0,0.0,0.2,0.0,0.1,
0.575,316.2849508668288,316.2849508668288,0.0,0.0,0.0,0.0,0.0,0.0,0.0,0.0,0.0,0.0,0.2,0.0,0.1,
0.588,316.0914950866829,316.0914950866829,0.0,0.0,0.0,0.0,0.0,0.0,0.0,0.0,0.0,0.0,0.1,0.0,0.1,
0.601,315.9281495086683,315.9281495086683,0.0,0.0,0.0,0.0,0.0,0.0,0.0,0.0,0.0,0.0,0.1,0.0,0.1,
0.614,315.7858149508668,315.7858149508668,0.0,0.0,0.0,0.0,0.0,0.0,0.0,0.0,0.0,0.0,0.1,0.0,0.1,
0.626,315.6725814950867,315.6725814950867,0.0,0.0,0.0,0.0,0.0,0.0,0.0,0.0,0.0,0.0,0.1,0.0,0.1,
0.64,315.5712581495087,315.5712581495087,0.0,0.0,0.0,0.0,0.0,0.0,0.0,0.0,0.0,0.0,0.1,0.0,0.0,
0.652,315.48912581495085,315.48912581495085,0.0,0.0,0.0,0.0,0.0,0.0,0.0,0.0,0.0,0.0,0.1,0.0,0.1,
0.665,315.4089125814951,315.4089125814951,0.0,0.0,0.0,0.0,0.0,0.0,0.0,0.0,0.0,0.0,0.1,0.0,0.1,
0.677,315.34689125814947,315.34689125814947,0.0,0.0,0.0,0.0,0.0,0.0,0.0,0.0,0.0,0.0,0.1,0.0,0.1,
0.69,315.295689125815,315.295689125815,0.0,0.0,0.0,0.0,0.0,0.0,0.0,0.0,0.0,0.0,0.1,0.0,0.1,
0.703,315.25456891258153,315.25456891258153,0.0,0.0,0.0,0.0,0.0,0.0,0.0,0.0,0.0,0.0,0.1,0.0,0.1,
0.715,315.2144568912581,315.2144568912581,0.0,0.0,0.0,0.0,0.0,0.0,0.0,0.0,0.0,0.0,0.1,0.0,0.1,
0.729,315.18344568912585,315.18344568912585,0.0,0.0,0.0,0.0,0.0,0.0,0.0,0.0,0.0,0.0,0.1,0.0,0.1,
0.741,315.1533445689126,315.1533445689126,0.0,0.0,0.0,0.0,0.0,0.0,0.0,0.0,0.0,0.0,0.1,0.0,0.0,
0.754,315.1323344568913,315.1323344568913,0.0,0.0,0.0,0.0,0.0,0.0,0.0,0.0,0.0,0.0,0.1,0.0,0.0,
0.766,315.1122334456892,315.1122334456892,0.0,0.0,0.0,0.0,0.0,0.0,0.0,0.0,0.0,0.0,0.1,0.0,0.0,
0.779,315.0922233445689,315.0922233445689,0.0,0.0,0.0,0.0,0.0,0.0,0.0,0.0,0.0,0.0,0.1,0.0,0.0,
0.792,315.08122233445687,315.08122233445687,0.0,0.0,0.0,0.0,0.0,0.0,0.0,0.0,0.0,0.0,0.1,0.0,0.1,
0.804,315.0711222334457,315.0711222334457,0.0,0.0,0.0,0.0,0.0,0.0,0.0,0.0,0.0,0.0,0.1,0.0,0.0,
0.818,315.0611122233446,315.0611122233446,0.0,0.0,0.0,0.0,0.0,0.0,0.0,0.0,0.0,0.0,0.1,0.0,0.0,
0.83,315.0511112223345,315.0511112223345,0.0,0.0,0.0,0.0,0.0,0.0,0.0,0.0,0.0,0.0,0.1,0.0,0.1,
0.843,315.0411111222335,315.0411111222335,0.0,0.0,0.0,0.0,0.0,0.0,0.0,0.0,0.0,0.0,0.1,0.0,0.1,
0.856,315.04011111222337,315.04011111222337,0.0,0.0,0.0,0.0,0.0,0.0,0.0,0.0,0.0,0.0,0.1,0.0,0.0,
0.869,315.0310111112223,315.0310111112223,0.0,0.0,0.0,0.0,0.0,0.0,0.0,0.0,0.0,0.0,0.1,0.0,0.0,
0.881,315.03010111112224,315.03010111112224,0.0,0.0,0.0,0.0,0.0,0.0,0.0,0.0,0.0,0.0,0.1,0.0,0.0,
0.894,315.0210101111122,315.0210101111122,0.0,0.0,0.0,0.0,0.0,0.0,0.0,0.0,0.0,0.0,0.0,0.0,0.0,
0.907,315.0201010111112,315.0201010111112,0.0,0.0,0.0,0.0,0.0,0.0,0.0,0.0,0.0,0.0,0.1,0.0,0.1,
0.919,315.0200101011111,315.0200101011111,0.0,0.0,0.0,0.0,0.0,0.0,0.0,0.0,0.0,0.0,0.0,0.0,0.1,
0.932,315.0110010101111,315.0110010101111,0.0,0.0,0.0,0.0,0.0,0.0,0.0,0.0,0.0,0.0,0.0,0.0,0.0,
0.945,315.0101001010111,315.0101001010111,0.0,0.0,0.0,0.0,0.0,0.0,0.0,0.0,0.0,0.0,0.1,0.0,0.1,
0.958,315.0100100101011,315.0100100101011,0.0,0.0,0.0,0.0,0.0,0.0,0.0,0.0,0.0,0.0,0.1,0.0,0.1,
0.97,315.0100010010101,315.0100010010101,0.0,0.0,0.0,0.0,0.0,0.0,0.0,0.0,0.0,0.0,0.1,0.0,0.1,
0.984,315.010000100101,315.010000100101,0.0,0.0,0.0,0.0,0.0,0.0,0.0,0.0,0.0,0.0,0.1,0.0,0.1,
0.996,315.0100000100101,315.0100000100101,0.0,0.0,0.0,0.0,0.0,0.0,0.0,0.0,0.0,0.0,0.1,0.0,0.0,
1.009,315.010000001001,315.010000001001,0.0,0.0,0.0,0.0,0.0,0.0,0.0,0.0,0.0,0.0,0.0,0.0,0.1,
1.021,315.0010000001001,315.0010000001001,0.0,0.0,0.0,0.0,0.0,0.0,0.0,0.0,0.0,0.0,0.0,0.0,0.1,
1.035,315.00010000001,315.00010000001,0.0,0.0,0.0,0.0,0.0,0.0,0.0,0.0,0.0,0.0,0.1,0.0,0.1,
1.047,315.000010000001,315.000010000001,0.0,0.0,0.0,0.0,0.0,0.0,0.0,0.0,0.0,0.0,0.1,0.0,0.1,
1.059,315.0000010000001,315.0000010000001,0.0,0.0,0.0,0.0,0.0,0.0,0.0,0.0,0.0,0.0,0.1,0.0,0.0,
1.073,315.0000001,315.0000001,0.0,0.0,0.0,0.0,0.0,0.0,0.0,0.0,0.0,0.0,0.1,0.0,0.0,
1.085,315.00000001,315.00000001,0.0,0.0,0.0,0.0,0.0,0.0,0.0,0.0,0.0,0.0,0.2,0.0,0.1,
1.098,315.000000001,315.000000001,0.0,0.0,0.0,0.0,0.0,0.0,0.0,0.0,0.0,0.0,0.1,0.0,0.1,
1.111,315.0000000001,315.0000000001,0.0,0.0,0.0,0.0,0.0,0.0,0.0,0.0,0.0,0.0,0.0,0.0,0.0,
1.124,315.00000000001,315.00000000001,0.0,0.0,0.0,0.0,0.0,0.0,0.0,0.0,0.0,0.0,0.0,0.0,0.0,
1.136,315.000000000001,315.000000000001,0.0,0.0,0.0,0.0,0.0,0.0,0.0,0.0,0.0,0.0,0.1,0.0,0.1,
1.149,315.0000000000001,315.0000000000001,0.0,0.0,0.0,0.0,0.0,0.0,0.0,0.0,0.0,0.0,0.1,0.0,0.1,
1.162,315.0,315.0,0.0,0.0,0.0,0.0,0.0,0.0,0.0,0.0,0.0,0.0,0.1,0.0,0.0,
1.174,315.0,315.0,0.0,0.0,0.0,0.0,0.0,0.0,0.0,0.0,0.0,0.0,0.1,0.0,0.1,
1.187,315.0,315.0,0.0,0.0,0.0,0.0,0.0,0.0,0.0,0.0,0.0,0.0,0.1,0.0,0.1,
1.2,315.0,315.0,0.0,0.0,0.0,0.0,0.0,0.0,0.0,0.0,0.0,0.0,0.1,0.0,0.1,
1.213,315.0,315.0,0.0,0.0,0.0,0.0,0.0,0.0,0.0,0.0,0.0,0.0,0.1,0.0,0.1,
1.225,315.0,315.0,0.0,0.0,0.0,0.0,0.0,0.0,0.0,0.0,0.0,0.0,0.2,0.0,0.2,
1.239,315.0,315.0,0.0,0.0,0.0,0.0,0.0,0.0,0.0,0.0,0.0,0.0,0.2,0.0,0.1,
1.251,315.0,315.0,0.0,0.0,0.0,0.0,0.0,0.0,0.0,0.0,0.0,0.0,0.1,0.0,0.0,
1.264,315.0,315.0,0.0,0.0,0.0,0.0,0.0,0.0,0.0,0.0,0.0,0.0,0.1,0.0,0.0,
1.276,315.0,315.0,0.0,0.0,0.0,0.0,0.0,0.0,0.0,0.0,0.0,0.0,0.0,0.0,0.0,
1.29,315.0,315.0,0.0,0.0,0.0,0.0,0.0,0.0,0.0,0.0,0.0,0.0,0.1,0.0,0.0,
1.302,315.0,315.0,0.0,0.0,0.0,0.0,0.0,0.0,0.0,0.0,0.0,0.0,0.2,0.0,0.0,
1.314,315.0,315.0,0.0,0.0,0.0,0.0,0.0,0.0,0.0,0.0,0.0,0.0,0.1,0.0,0.0,
1.328,315.0,315.0,0.0,0.0,0.0,0.0,0.0,0.0,0.0,0.0,0.0,0.0,0.0,0.0,0.0,
1.34,315.0,315.0,0.0,0.0,0.0,0.0,0.0,0.0,0.0,0.0,0.0,0.0,0.1,0.0,0.0,
1.353,315.0,315.0,0.0,0.0,0.0,0.0,0.0,0.0,0.0,0.0,0.0,0.0,0.1,0.0,0.0,
1.366,315.0,315.0,0.0,0.0,0.0,0.0,0.0,0.0,0.0,0.0,0.0,0.0,0.1,0.0,0.0,
1.379,315.0,315.0,0.0,0.0,0.0,0.0,0.0,0.0,0.0,0.0,0.0,0.0,0.0,0.0,0.1,
1.391,315.0,315.0,0.0,0.0,0.0,0.0,0.0,0.0,0.0,0.0,0.0,0.0,0.0,0.0,0.1,
1.404,315.0,315.0,0.0,0.0,0.0,0.0,0.0,0.0,0.0,0.0,0.0,0.0,0.1,0.0,0.1,
1.417,315.0,315.0,0.0,0.0,0.0,0.0,0.0,0.0,0.0,0.0,0.0,0.0,0.1,0.0,0.0,
1.43,315.0,315.0,0.0,0.0,0.0,0.0,0.0,0.0,0.0,0.0,0.0,0.0,0.1,0.0,0.0,
1.442,315.0,315.0,0.0,0.0,0.0,0.0,0.0,0.0,0.0,0.0,0.0,0.0,0.1,0.0,0.0,
1.455,315.0,315.0,0.0,0.0,0.0,0.0,0.0,0.0,0.0,0.0,0.0,0.0,0.1,0.0,0.0,
1.468,315.0,315.0,0.0,0.0,0.0,0.0,0.0,0.0,0.0,0.0,0.0,0.0,0.1,0.0,0.0,
1.48,315.0,315.0,0.0,0.0,0.0,0.0,0.0,0.0,0.0,0.0,0.0,0.0,0.1,0.0,0.1,
1.494,315.0,315.0,0.0,0.0,0.0,0.0,0.0,0.0,0.0,0.0,0.0,0.0,0.0,0.0,0.1,
1.506,315.0,315.0,0.0,0.0,0.0,0.0,0.0,0.0,0.0,0.0,0.0,0.0,0.1,0.0,0.1,
1.519,315.0,315.0,0.0,0.0,0.0,0.0,0.0,0.0,0.0,0.0,0.0,0.0,0.1,0.0,0.0,
1.531,315.0,315.0,0.0,0.0,0.0,0.0,0.0,0.0,0.0,0.0,0.0,0.0,0.1,0.0,0.0,
1.545,315.0,315.0,0.0,0.0,0.0,0.0,0.0,0.0,0.0,0.0,0.0,0.0,0.1,0.0,0.0,
1.557,315.0,315.0,0.0,0.0,0.0,0.0,0.0,0.0,0.0,0.0,0.0,0.0,0.1,0.0,0.1,
1.569,315.0,315.0,0.0,0.0,0.0,0.0,0.0,0.0,0.0,0.0,0.0,0.0,0.1,0.0,0.1,
1.583,315.0,315.0,0.0,0.0,0.0,0.0,0.0,0.0,0.0,0.0,0.0,0.0,0.0,0.0,0.0,
1.595,315.0,315.0,0.0,0.0,0.0,0.0,0.0,0.0,0.0,0.0,0.0,0.0,0.1,0.0,0.0,
1.608,315.0,315.0,0.0,0.0,0.0,0.0,0.0,0.0,0.0,0.0,0.0,0.0,0.1,0.0,0.1,
1.62,315.0,315.0,0.0,0.0,0.0,0.0,0.0,0.0,0.0,0.0,0.0,0.0,0.1,0.0,0.0,
1.634,315.0,315.0,0.0,0.0,0.0,0.0,0.0,0.0,0.0,0.0,0.0,0.0,0.1,0.0,0.0,
1.646,315.0,315.0,0.0,0.0,0.0,0.0,0.0,0.0,0.0,0.0,0.0,0.0,0.1,0.0,0.1,
1.659,315.0,315.0,0.0,0.0,0.0,0.0,0.0,0.0,0.0,0.0,0.0,0.0,0.1,0.0,0.0,
1.672,315.0,315.0,0.0,0.0,0.0,0.0,0.0,0.0,0.0,0.0,0.0,0.0,0.1,0.0,0.1,
1.685,315.0,315.0,0.0,0.0,0.0,0.0,0.0,0.0,0.0,0.0,0.0,0.0,0.1,0.0,0.1,
1.697,315.0,315.0,0.0,0.0,0.0,0.0,0.0,0.0,0.0,0.0,0.0,0.0,0.1,0.0,0.0,
1.71,315.0,315.0,0.0,0.0,0.0,0.0,0.0,0.0,0.0,0.0,0.0,0.0,0.1,0.0,0.1,
1.723,315.0,315.0,0.0,0.0,0.0,0.0,0.0,0.0,0.0,0.0,0.0,0.0,0.1,0.0,0.1,
1.735,315.0,315.0,0.0,0.0,0.0,0.0,0.0,0.0,0.0,0.0,0.0,0.0,0.0,0.0,0.1,
1.748,315.0,315.0,0.0,0.0,0.0,0.0,0.0,0.0,0.0,0.0,0.0,0.0,0.1,0.0,0.1,
1.761,315.0,315.0,0.0,0.0,0.0,0.0,0.0,0.0,0.0,0.0,0.0,0.0,0.2,0.0,0.1,
1.774,315.0,315.0,0.0,0.0,0.0,0.0,0.0,0.0,0.0,0.0,0.0,0.0,0.2,0.0,0.0,
1.786,315.0,315.0,0.0,0.0,0.0,0.0,0.0,0.0,0.0,0.0,0.0,0.0,0.0,0.0,0.0,
1.8,315.0,315.0,0.0,0.0,0.0,0.0,0.0,0.0,0.0,0.0,0.0,0.0,0.0,0.0,0.0,
1.812,315.0,315.0,0.0,0.0,0.0,0.0,0.0,0.0,0.0,0.0,0.0,0.0,0.1,0.0,0.0,
1.824,315.0,315.0,0.0,0.0,0.0,0.0,0.0,0.0,0.0,0.0,0.0,0.0,0.1,0.0,0.1,
1.838,315.0,315.0,0.0,0.0,0.0,0.0,0.0,0.0,0.0,0.0,0.0,0.0,0.1,0.0,0.1,
1.85,315.0,315.0,0.0,0.0,0.0,0.0,0.0,0.0,0.0,0.0,0.0,0.0,0.1,0.0,0.0,
1.863,315.0,315.0,0.0,0.0,0.0,0.0,0.0,0.0,0.0,0.0,0.0,0.0,0.1,0.0,0.0,
1.875,315.0,315.0,0.0,0.0,0.0,0.0,0.0,0.0,0.0,0.0,0.0,0.0,0.1,0.0,0.0,
1.889,315.0,315.0,0.0,0.0,0.0,0.0,0.0,0.0,0.0,0.0,0.0,0.0,0.1,0.0,0.0,
1.901,315.0,315.0,0.0,0.0,0.0,0.0,0.0,0.0,0.0,0.0,0.0,0.0,0.1,0.0,0.0,
1.914,315.0,315.0,0.0,0.0,0.0,0.0,0.0,0.0,0.0,0.0,0.0,0.0,0.1,0.0,0.0,
1.927,315.0,315.0,0.0,0.0,0.0,0.0,0.0,0.0,0.0,0.0,0.0,0.0,0.1,0.0,0.1,
1.94,315.0,315.0,0.0,0.0,0.0,0.0,0.0,0.0,0.0,0.0,0.0,0.0,0.1,0.0,0.1,
1.952,315.0,315.0,0.0,0.0,0.0,0.0,0.0,0.0,0.0,0.0,0.0,0.0,0.1,0.0,0.1,
1.965,315.0,315.0,0.0,0.0,0.0,0.0,0.0,0.0,0.0,0.0,0.0,0.0,0.1,0.0,0.1,
1.978,315.0,315.0,0.0,0.0,0.0,0.0,0.0,0.0,0.0,0.0,0.0,0.0,0.0,0.0,0.1,
1.99,315.0,315.0,0.0,0.0,0.0,0.0,0.0,0.0,0.0,0.0,0.0,0.0,0.0,0.0,0.1,
2.003,315.0,315.0,0.0,0.0,0.0,0.0,0.0,0.0,0.0,0.0,0.0,0.0,0.1,0.0,0.1,
2.016,315.0,315.0,0.0,0.0,0.0,0.0,0.0,0.0,0.0,0.0,0.0,0.0,0.1,0.0,0.1,
2.029,315.0,315.0,0.0,0.0,0.0,0.0,0.0,0.0,0.0,0.0,0.0,0.0,0.1,0.0,0.1,
2.041,315.0,315.0,0.0,0.0,0.0,0.0,0.0,0.0,0.0,0.0,0.0,0.0,0.0,0.0,0.0,
2.055,315.0,315.0,0.0,0.0,0.0,0.0,0.0,0.0,0.0,0.0,0.0,0.0,0.1,0.0,0.1,
2.067,315.0,315.0,0.0,0.0,0.0,0.0,0.0,0.0,0.0,0.0,0.0,0.0,0.1,0.0,0.0,
2.08,315.0,315.0,0.0,0.0,0.0,0.0,0.0,0.0,0.0,0.0,0.0,0.0,0.1,0.0,0.0,
2.093,315.0,315.0,0.0,0.0,0.0,0.0,0.0,0.0,0.0,0.0,0.0,0.0,0.1,0.0,0.1,
2.105,315.0,315.0,0.0,0.0,0.0,0.0,0.0,0.0,0.0,0.0,0.0,0.0,0.1,0.0,0.1,
2.118,315.0,315.0,0.0,0.0,0.0,0.0,0.0,0.0,0.0,0.0,0.0,0.0,0.1,0.0,0.1,
2.13,315.0,315.0,0.0,0.0,0.0,0.0,0.0,0.0,0.0,0.0,0.0,0.0,0.2,0.0,0.1,
2.144,315.0,315.0,0.0,0.0,0.0,0.0,0.0,0.0,0.0,0.0,0.0,0.0,0.2,0.0,0.2,
2.156,315.0,315.0,0.0,0.0,0.0,0.0,0.0,0.0,0.0,0.0,0.0,0.0,0.1,0.0,0.1,
2.169,315.0,315.0,0.0,0.0,0.0,0.0,0.0,0.0,0.0,0.0,0.0,0.0,0.2,0.0,0.1,
2.182,315.0,315.0,0.0,0.0,0.0,0.0,0.0,0.0,0.0,0.0,0.0,0.0,0.1,0.0,0.2,
2.195,315.0,315.0,0.0,0.0,0.0,0.0,0.0,0.0,0.0,0.0,0.0,0.0,0.1,0.0,0.1,
2.207,315.0,315.0,0.0,0.0,0.0,0.0,0.0,0.0,0.0,0.0,0.0,0.0,0.1,0.0,0.2,
2.22,315.0,315.0,0.0,0.0,0.0,0.0,0.0,0.0,0.0,0.0,0.0,0.0,0.1,0.0,0.2,
2.233,315.0,315.0,0.0,0.0,0.0,0.0,0.0,0.0,0.0,0.0,0.0,0.0,0.1,0.0,0.2,
2.245,315.0,315.0,0.0,0.0,0.0,0.0,0.0,0.0,0.0,0.0,0.0,0.0,0.1,0.0,0.2,
2.258,315.0,315.0,0.0,0.0,0.0,0.0,0.0,0.0,0.0,0.0,0.0,0.0,0.1,0.0,0.1,
2.271,315.0,315.0,0.0,0.0,0.0,0.0,0.0,0.0,0.0,0.0,0.0,0.0,0.2,0.0,0.39,
2.284,315.0,315.0,0.0,0.0,0.0,0.0,0.0,0.0,0.0,0.0,0.0,0.0,0.29,0.0,0.39,
2.296,315.0,315.0,0.0,0.0,0.0,0.0,0.0,0.0,0.0,0.0,0.0,0.0,0.2,0.0,0.2,
2.31,315.0,315.0,0.0,0.0,0.0,0.0,0.0,0.0,0.0,0.0,0.0,0.0,0.1,0.0,0.2,
2.322,315.0,315.0,0.0,0.0,0.0,0.0,0.0,0.0,0.0,0.0,0.0,0.0,0.1,0.0,0.2,
2.335,315.0,315.0,0.0,0.0,0.0,0.0,0.0,0.0,0.0,0.0,0.0,0.0,0.1,0.0,0.1,
2.348,315.0,315.0,0.0,0.0,0.0,0.0,0.0,0.0,0.0,0.0,0.0,0.0,0.29,0.0,0.39,
2.36,315.0,315.0,0.0,0.0,0.0,0.0,0.0,0.0,0.0,0.0,0.0,0.0,0.2,0.0,0.29,
2.373,315.0,315.0,0.0,0.0,0.0,0.0,0.0,0.0,0.0,0.0,0.0,0.0,0.2,0.0,0.2,
2.385,315.0,315.0,0.0,0.0,0.0,0.0,0.0,0.0,0.0,0.0,0.0,0.0,0.1,0.0,0.1,
2.399,315.0,315.0,0.0,0.0,0.0,0.0,0.0,0.0,0.0,0.0,0.0,0.0,0.0,0.0,0.1,
2.411,315.0,315.0,0.0,0.0,0.0,0.0,0.0,0.0,0.0,0.0,0.0,0.0,0.1,0.0,0.0,
2.424,315.0,315.0,0.0,0.0,0.0,0.0,0.0,0.0,0.0,0.0,0.0,0.0,0.1,0.0,0.0,
2.437,315.0,315.0,0.0,0.0,0.0,0.0,0.0,0.0,0.0,0.0,0.0,0.0,0.2,0.0,0.1,
2.45,315.0,315.0,0.0,0.0,0.0,0.0,0.0,0.0,0.0,0.0,0.0,0.0,0.29,0.0,0.2,
2.462,315.0,315.0,0.0,0.0,0.0,0.0,0.0,0.0,0.0,0.0,0.0,0.0,0.39,0.0,0.29,
2.475,315.0,315.0,0.0,0.0,0.0,0.0,0.0,0.0,0.0,0.0,0.0,0.0,0.39,0.2,0.29,
2.488,315.0,315.0,0.0,0.0,0.0,0.0,0.0,0.0,0.0,0.0,0.0,0.0,0.39,0.39,0.29,
2.5,315.0,315.0,0.0,0.0,0.0,0.0,0.0,0.0,0.0,0.0,0.0,0.0,0.39,0.49,0.2,
2.513,315.0,315.0,0.0,0.0,0.0,0.0,0.0,0.0,0.0,0.0,0.0,0.0,0.39,0.59,0.2,
2.526,315.0,315.0,0.0,0.0,0.0,0.0,0.0,0.0,0.0,0.0,0.0,0.0,0.29,0.59,0.2,
2.539,315.0,315.0,0.0,0.0,0.0,0.0,0.0,0.0,0.0,0.0,0.0,0.0,0.29,0.59,0.2,
2.551,315.0,315.0,0.0,0.0,0.0,0.0,0.0,0.0,0.0,0.0,0.0,0.0,0.39,0.59,0.2,
2.565,315.0,315.0,0.0,0.0,0.0,0.0,0.0,0.0,0.0,0.0,0.0,0.0,0.39,0.49,0.2,
2.577,315.0,315.0,0.0,0.0,0.0,0.0,0.0,0.0,0.0,0.0,0.0,0.0,0.39,0.39,0.2,
2.59,315.0,315.0,0.0,0.0,0.0,0.0,0.0,0.0,0.0,0.0,0.0,0.0,0.39,0.39,0.2,
2.603,315.0,315.0,0.0,0.0,0.0,0.0,0.0,0.0,0.0,0.0,0.0,0.0,0.49,0.39,0.2,
2.616,315.0,315.0,0.0,0.0,0.0,0.0,0.0,0.0,0.0,0.0,0.0,0.0,0.59,0.29,0.29,
2.628,315.0,315.0,0.0,0.0,0.0,0.0,0.0,0.0,0.0,0.0,0.0,0.0,0.78,0.29,0.29,
2.641,315.0,315.0,0.0,0.0,0.0,0.0,0.0,0.0,0.0,0.0,0.0,0.0,1.86,0.2,0.39,
2.655,334.31399999999996,332.496,-114.0,-47.0,38.0,0.0,0.0,0.0,0.0,0.0,0.0,0.0,2.55,0.0,0.69,
2.668,351.5724,349.85159999999996,0.0,0.0,0.0,0.0,0.0,0.0,0.0,0.0,0.0,0.0,2.26,0.0,0.88,
2.68,348.10524000000004,346.61916,0.0,0.0,0.0,0.0,0.0,0.0,0.0,0.0,0.0,0.0,1.86,0.0,0.88,
2.694,343.339524,342.07491600000003,0.0,0.0,0.0,0.0,1.0,0.0,0.0,0.0,0.0,0.0,1.47,0.0,0.88,
2.706,339.1099524,338.03849159999993,0.0,0.0,0.0,0.0,1.0,0.0,0.0,0.0,0.0,0.0,1.28,0.0,0.88,
2.718,335.49199523999994,334.58384915999994,0.0,0.0,0.0,0.0,1.0,0.0,0.0,0.0,0.0,0.0,0.88,0.0,0.78,
2.733,346.119199524,349.079384916,10.0,76.0,-15.0,0.0,1.0,0.0,0.0,0.0,0.0,0.0,0.29,0.0,0.69,
2.747,36.61891995239999,39.452938491599994,1.0,-49.0,72.0,0.0,2.0,0.0,0.0,0.0,0.0,0.0,0.0,1.67,0.2,
2.76,16.84689199524,19.40729384916,8.0,3.0,-24.0,0.0,2.0,0.0,0.0,0.0,0.0,0.0,0.0,5.59,0.0,
2.774,24.985689199524003,29.228729384916,17.0,5.0,-49.0,0.0,1.0,0.0,0.0,0.0,0.0,0.0,0.0,9.81,0.0,
2.787,34.8355689199524,41.1188729384916,10.0,-1.0,-23.0,0.0,1.0,0.0,0.0,0.0,0.0,0.0,0.0,5.49,0.0,
2.801,43.91155689199525,51.23588729384916,9.0,-6.0,-10.0,0.0,1.0,0.0,0.0,0.0,0.0,0.0,0.0,2.45,0.0,
2.814,50.94815568919952,59.25858872938491,8.0,-3.0,-2.0,0.0,1.0,0.0,0.0,0.0,0.0,0.0,0.0,1.18,0.1,
2.828,56.754815568919945,67.2338588729385,8.0,-6.0,-3.0,0.0,1.0,0.0,0.0,0.0,0.0,0.0,0.0,0.59,0.29,
2.841,61.934481556891996,74.14238588729384,3.0,-10.0,7.0,0.0,1.0,0.0,0.0,0.0,0.0,0.0,0.0,0.49,0.29,
2.855,66.4214481556892,79.5852385887294,-2.0,-14.0,29.0,0.0,1.0,0.0,0.0,0.0,0.0,0.0,0.69,1.86,0.29,
2.869,70.89314481556892,82.62252385887294,0.0,-14.0,34.0,0.0,1.0,0.0,0.0,0.0,0.0,0.0,0.98,3.73,0.2,
2.883,73.96831448155689,83.99725238588731,4.0,2.0,4.0,0.0,1.0,0.0,0.0,0.0,0.0,0.0,1.28,6.38,0.0,
2.896,76.13883144815568,85.65572523858873,13.0,-7.0,-24.0,0.0,2.0,0.0,0.0,0.0,0.0,0.0,1.37,8.93,0.0,
2.911,78.30888314481555,88.42257252385888,18.0,-4.0,-28.0,0.0,2.0,1.0,0.0,0.0,0.0,0.0,1.96,9.42,0.0,
2.924,79.92988831448156,91.55225725238589,13.0,-3.0,-19.0,0.0,2.0,1.0,0.0,0.0,0.0,0.0,2.45,7.95,0.0,
2.938,81.38798883144815,93.9982257252386,7.0,0.0,-11.0,0.0,2.0,1.0,0.0,0.0,0.0,0.0,3.04,6.57,0.0,
2.953,82.71279888314481,95.65582257252386,6.0,1.0,-5.0,0.0,2.0,1.0,0.0,0.0,1.0,0.0,3.53,5.69,0.0,
2.966,83.97027988831448,97.01858225725239,5.0,2.0,-5.0,0.0,2.0,1.0,0.0,0.0,1.0,0.0,3.83,5.3,0.0,
2.979,85.16702798883145,98.19885822572523,5.0,3.0,-5.0,0.0,2.0,1.0,0.0,0.0,1.0,0.0,4.12,5.59,0.0,
2.994,86.16870279888315,99.22588582257252,4.0,4.0,-6.0,0.0,2.0,1.0,0.0,0.0,1.0,0.0,4.22,5.98,0.0,
3.007,86.92587027988833,99.99458858225725,4.0,5.0,-7.0,0.0,2.0,1.0,0.0,0.0,1.0,0.0,4.41,6.08,0.0,
3.021,87.55058702798884,100.70145885822572,4.0,5.0,-8.0,1.0,2.0,1.0,0.0,0.0,1.0,0.0,4.41,6.08,0.0,
3.035,88.09905870279887,101.41114588582256,4.0,5.0,-8.0,1.0,2.0,1.0,0.0,0.0,1.0,0.0,4.81,5.89,0.0,
3.049,88.54090587027989,102.04011458858226,2.0,6.0,-6.0,1.0,3.0,1.0,1.0,0.0,1.0,0.0,5.0,5.69,0.0,
3.062,88.91809058702798,102.54401145885822,2.0,5.0,-5.0,1.0,3.0,1.0,1.0,0.0,1.0,0.0,5.2,5.59,0.0,
3.077,89.3158090587028,103.01740114588581,1.0,5.0,-4.0,1.0,3.0,1.0,1.0,0.0,1.0,0.0,5.4,5.49,0.0,
3.09,89.69758090587027,103.37974011458859,1.0,5.0,-4.0,1.0,3.0,1.0,1.0,0.0,1.0,0.0,5.69,5.49,0.0,
3.104,90.08675809058703,103.71297401145885,1.0,4.0,-2.0,1.0,3.0,1.0,1.0,0.0,1.0,0.0,5.79,5.49,0.0,
3.118,90.3596758090587,103.94429740114589,1.0,3.0,-3.0,1.0,3.0,1.0,1.0,0.0,1.0,0.0,5.89,5.59,0.0,
3.132,90.52196758090588,104.11142974011459,0.0,3.0,-3.0,1.0,3.0,1.0,1.0,0.0,2.0,0.0,6.08,5.59,0.0,
3.145,90.6821967580906,104.29914297401145,0.0,3.0,-2.0,1.0,3.0,1.0,1.0,0.0,2.0,0.0,6.28,5.69,0.0,
3.16,90.79721967580906,104.47991429740114,0.0,2.0,-2.0,1.0,3.0,1.0,1.0,0.0,2.0,0.0,6.57,5.69,0.0,
3.173,90.95272196758091,104.67799142974012,0.0,1.0,-1.0,1.0,3.0,1.0,1.0,0.0,2.0,0.0,6.67,5.69,0.0,
3.187,91.1032721967581,104.859799142974,0.0,2.0,0.0,1.0,3.0,1.0,1.0,0.0,2.0,0.0,6.87,5.89,0.0,
3.201,91.19032721967581,104.9319799142974,0.0,0.0,0.0,1.0,3.0,1.0,1.0,0.0,2.0,0.0,7.06,6.08,0.0,
3.215,91.26203272196759,104.95719799142974,0.0,0.0,0.0,1.0,3.0,1.0,1.0,0.0,2.0,0.0,7.26,6.08,0.0,
3.228,91.34120327219676,104.96871979914297,0.0,0.0,0.0,1.0,3.0,1.0,1.0,0.0,2.0,0.0,7.36,6.28,0.0,
3.243,91.39412032721968,104.96987197991429,0.0,0.0,-1.0,1.0,3.0,1.0,1.0,0.0,2.0,0.0,7.46,6.57,0.0,
3.256,91.44441203272197,105.05098719799143,0.0,0.0,-1.0,1.0,3.0,1.0,1.0,0.0,2.0,0.0,7.55,6.57,0.0,
3.27,91.5214412032722,105.14009871979914,0.0,0.0,-1.0,1.0,3.0,1.0,1.0,0.0,2.0,0.0,7.65,6.38,0.0,
3.283,91.61014412032723,105.22100987197992,-1.0,0.0,-1.0,1.0,3.0,1.0,1.0,0.0,2.0,0.0,8.04,6.28,0.0,
3.298,91.70001441203271,105.220100987198,-1.0,0.0,0.0,1.0,3.0,1.0,1.0,0.0,2.0,0.0,8.04,6.18,0.0,
3.312,91.73600144120327,105.2740100987198,-2.0,0.0,0.0,1.0,3.0,1.0,1.0,0.0,2.0,0.0,8.14,6.08,0.0,
3.325,91.74860014412033,105.37840100987198,-2.0,0.0,0.0,1.0,3.0,1.0,1.0,0.0,2.0,0.0,8.14,6.18,0.0,
3.34,91.80386001441204,105.4788401009872,-3.0,0.0,0.0,1.0,3.0,1.0,1.0,0.0,2.0,0.0,8.04,6.38,0.0,
3.353,91.80038600144121,105.51588401009872,-4.0,0.0,2.0,1.0,3.0,1.0,1.0,0.0,2.0,0.0,7.95,6.77,0.0,
3.367,91.74603860014412,105.45658840100987,-4.0,-1.0,1.0,1.0,3.0,1.0,1.0,0.0,2.0,0.0,7.85,6.97,0.0,
3.381,91.69560386001442,105.39665884010098,-4.0,0.0,1.0,1.0,3.0,1.0,1.0,0.0,2.0,0.0,7.75,7.26,0.0,
3.395,91.69056038600144,105.4266658840101,-4.0,-1.0,2.0,1.0,3.0,1.0,1.0,0.0,2.0,0.0,7.55,7.65,0.0,
3.408,91.70805603860015,105.384666588401,-4.0,-1.0,1.0,1.0,3.0,1.0,1.0,0.0,2.0,0.0,7.46,8.04,0.0,
3.423,91.73680560386002,105.38046665884009,-5.0,-1.0,2.0,1.0,3.0,1.0,1.0,0.0,2.0,0.0,7.46,8.24,0.0,
3.437,91.68568056038602,105.35304666588401,-4.0,-1.0,2.0,1.0,3.0,1.0,1.0,0.0,2.0,0.0,7.26,8.44,0.0,
3.45,91.60856805603859,105.29630466658841,-4.0,-1.0,2.0,1.0,3.0,1.0,1.0,0.0,2.0,0.0,7.06,8.73,0.0,
3.465,91.65485680560386,105.28163046665885,-4.0,-1.0,3.0,1.0,2.0,1.0,1.0,0.0,2.0,0.0,6.97,9.22,0.0,
3.478,91.71348568056038,105.24416304666588,-4.0,-1.0,3.0,1.0,2.0,1.0,1.0,0.0,2.0,0.0,6.97,9.52,0.0,
3.492,91.65634856805605,105.06041630466659,-4.0,-1.0,2.0,1.0,2.0,1.0,1.0,0.0,2.0,0.0,6.77,9.71,0.0,
3.506,91.64163485680561,104.92504163046665,-3.0,-1.0,1.0,1.0,2.0,1.0,1.0,0.0,2.0,0.0,6.67,9.91,0.0,
3.52,91.61316348568056,104.90250416304667,-3.0,-1.0,0.0,1.0,2.0,1.0,1.0,0.0,2.0,0.0,6.57,10.2,0.0,
3.534,91.63731634856805,104.86425041630466,-4.0,-2.0,1.0,1.0,2.0,1.0,1.0,0.0,2.0,0.0,6.57,10.3,0.0,
3.548,91.6397316348568,104.92342504163048,-3.0,-1.0,0.0,1.0,2.0,1.0,1.0,0.0,2.0,0.0,6.47,10.3,0.0,
3.562,91.66697316348568,104.90234250416306,-3.0,-2.0,0.0,1.0,2.0,1.0,1.0,0.0,2.0,0.0,6.47,10.3,0.0,
3.576,91.67869731634858,104.9092342504163,-3.0,-2.0,0.0,1.0,2.0,1.0,1.0,0.0,2.0,0.0,6.47,10.2,0.0,
3.59,91.71586973163485,104.91892342504163,-3.0,-2.0,0.0,1.0,2.0,1.0,1.0,0.0,2.0,0.0,6.47,10.2,0.0,
3.604,91.77358697316349,104.90189234250417,-3.0,-2.0,1.0,1.0,2.0,1.0,1.0,0.0,2.0,0.0,6.47,10.1,0.0,
3.618,91.75235869731635,104.9181892342504,-3.0,-2.0,0.0,1.0,2.0,1.0,1.0,0.0,2.0,0.0,6.57,10.1,0.0,
3.632,91.66023586973165,104.88381892342504,-3.0,-2.0,0.0,1.0,2.0,1.0,1.0,0.0,2.0,0.0,6.77,10.3,0.0,
3.646,91.68702358697317,104.8353818923425,-3.0,-2.0,1.0,1.0,2.0,1.0,1.0,0.0,2.0,0.0,6.77,10.3,0.0,
3.66,91.72570235869732,104.83053818923425,-3.0,-2.0,0.0,1.0,2.0,1.0,1.0,0.0,2.0,0.0,6.77,10.3,0.0,
3.674,91.64857023586973,104.79405381892343,-2.0,-2.0,0.0,1.0,2.0,1.0,1.0,0.0,2.0,0.0,6.77,10.3,0.0,
3.688,91.65885702358698,104.76340538189234,-2.0,-2.0,0.0,1.0,2.0,1.0,1.0,0.0,2.0,0.0,6.97,10.2,0.0,
3.702,91.6958857023587,104.74234053818923,-2.0,-2.0,0.0,1.0,2.0,1.0,1.0,0.0,2.0,0.0,6.97,10.3,0.0,
3.716,91.62758857023587,104.75823405381892,-2.0,-2.0,-1.0,1.0,2.0,1.0,1.0,0.0,2.0,0.0,6.97,10.3,0.0,
3.73,91.5487588570236,104.7328234053819,-2.0,-2.0,0.0,1.0,2.0,1.0,1.0,0.0,2.0,0.0,6.87,10.2,0.0,
3.744,91.52287588570235,104.73928234053818,-2.0,-2.0,0.0,1.0,2.0,1.0,1.0,0.0,2.0,0.0,6.97,10.1,0.0,
3.759,91.38528758857024,104.76692823405381,-2.0,-2.0,0.0,1.0,2.0,1.0,1.0,0.0,2.0,0.0,6.97,10.01,0.0,
3.772,91.44352875885703,104.87769282340537,-2.0,-1.0,-3.0,1.0,2.0,1.0,1.0,0.0,2.0,0.0,7.06,10.1,0.0,
3.786,91.3683528758857,104.79876928234054,-3.0,-2.0,0.0,1.0,2.0,1.0,1.0,0.0,2.0,0.0,7.16,10.01,0.0,
3.801,91.36983528758857,104.76387692823405,-2.0,-2.0,-1.0,1.0,2.0,1.0,1.0,0.0,2.0,0.0,7.16,10.01,0.0,
3.814,91.35198352875886,104.7693876928234,-3.0,-1.0,0.0,1.0,2.0,1.0,1.0,0.0,2.0,0.0,7.16,10.01,0.0,
3.828,91.3951983528759,104.81493876928234,-3.0,-2.0,0.0,1.0,2.0,1.0,1.0,0.0,2.0,0.0,7.16,10.1,0.0,
3.843,91.30951983528759,104.58549387692823,-2.0,-2.0,0.0,1.0,2.0,1.0,1.0,0.0,2.0,0.0,7.16,10.1,0.0,
3.857,91.37295198352876,104.74254938769283,-3.0,-2.0,0.0,1.0,2.0,1.0,1.0,0.0,1.0,0.0,7.26,10.01,0.0,
3.87,91.32529519835288,104.83925493876927,-1.0,0.0,-4.0,1.0,2.0,1.0,1.0,0.0,2.0,0.0,7.26,10.01,0.0,
3.885,91.23952951983529,104.70492549387693,-2.0,-3.0,0.0,1.0,2.0,1.0,1.0,0.0,2.0,0.0,7.26,10.01,0.0,
3.899,91.31195295198353,104.8534925493877,-3.0,-2.0,0.0,1.0,2.0,1.0,1.0,0.0,2.0,0.0,7.36,9.81,0.0,
3.912,91.23819529519835,104.98534925493877,-2.0,-1.0,-4.0,1.0,2.0,1.0,1.0,0.0,1.0,0.0,7.26,9.81,0.0,
3.927,91.17681952951983,104.92653492549387,-2.0,-2.0,-2.0,1.0,2.0,1.0,1.0,0.0,1.0,0.0,7.36,9.81,0.0,
3.94,91.01768195295199,104.90265349254939,-2.0,-2.0,-3.0,1.0,2.0,1.0,1.0,0.0,1.0,0.0,7.36,9.91,0.0,
3.954,90.9837681952952,104.66626534925494,-3.0,-3.0,1.0,1.0,2.0,1.0,1.0,0.0,1.0,0.0,7.36,9.91,0.0,
3.969,90.98937681952951,104.7146265349255,-1.0,0.0,-2.0,1.0,2.0,1.0,1.0,0.0,1.0,0.0,7.26,9.91,0.0,
3.982,91.01693768195294,104.96246265349255,-4.0,0.0,0.0,1.0,2.0,1.0,1.0,0.0,1.0,0.0,7.16,9.91,0.0,
3.996,91.0016937681953,104.88824626534925,-3.0,-1.0,-1.0,1.0,2.0,1.0,1.0,0.0,1.0,0.0,7.16,9.91,0.0,
4.011,90.89216937681952,104.74582462653493,-3.0,-1.0,0.0,1.0,2.0,1.0,1.0,0.0,1.0,0.0,7.16,9.81,0.0,
4.024,90.92621693768196,104.68658246265349,-3.0,0.0,0.0,1.0,2.0,1.0,1.0,0.0,1.0,0.0,7.06,9.81,0.0,
4.038,90.8306216937682,104.75265824626536,-2.0,-2.0,-1.0,1.0,2.0,1.0,1.0,0.0,1.0,0.0,6.87,9.81,0.0,
4.051,90.95606216937682,104.78626582462654,-2.0,-1.0,-1.0,1.0,2.0,1.0,1.0,0.0,1.0,0.0,6.87,9.91,0.0,
4.066,90.91460621693768,104.69062658246266,-2.0,0.0,-1.0,1.0,2.0,1.0,1.0,0.0,1.0,0.0,6.87,9.81,0.0,
4.079,90.73046062169377,104.76206265824625,-3.0,0.0,0.0,1.0,2.0,1.0,1.0,0.0,1.0,0.0,6.87,9.81,0.0,
4.093,90.77504606216937,104.77820626582462,-2.0,-1.0,-1.0,1.0,2.0,1.0,1.0,0.0,1.0,0.0,6.77,9.81,0.0,
4.108,90.68950460621694,104.65382062658246,-2.0,-1.0,0.0,1.0,2.0,1.0,0.0,0.0,1.0,0.0,6.87,9.71,0.0,
4.121,90.8609504606217,104.88438206265823,-4.0,0.0,0.0,1.0,2.0,1.0,1.0,0.0,1.0,0.0,6.87,9.71,0.0,
4.135,90.84209504606217,104.75443820626582,-3.0,0.0,0.0,1.0,2.0,1.0,1.0,0.0,1.0,0.0,6.77,9.71,0.0,
4.149,90.91220950460621,104.71444382062657,-3.0,0.0,0.0,1.0,2.0,1.0,1.0,0.0,1.0,0.0,6.87,9.71,0.0,
4.163,90.90122095046063,104.67444438206266,-2.0,0.0,0.0,1.0,2.0,1.0,1.0,0.0,1.0,0.0,6.77,9.71,0.0,
4.176,90.90912209504606,104.68844443820626,-2.0,0.0,-1.0,1.0,2.0,1.0,1.0,0.0,1.0,0.0,6.77,9.71,0.0,
4.191,90.84691220950461,104.64484444382063,-2.0,0.0,0.0,1.0,2.0,1.0,1.0,0.0,1.0,0.0,6.87,9.71,0.0,
4.204,90.80469122095046,104.61348444438207,-2.0,0.0,-1.0,1.0,2.0,1.0,1.0,0.0,1.0,0.0,6.77,9.71,0.0,
4.218,90.89046912209504,104.4843484444382,-3.0,-1.0,2.0,1.0,2.0,1.0,1.0,0.0,1.0,0.0,6.67,9.81,0.0,
4.232,90.8540469122095,104.40843484444383,-1.0,-1.0,0.0,1.0,2.0,1.0,0.0,0.0,1.0,0.0,6.67,9.81,0.0,
4.246,90.83240469122094,104.4008434844444,-1.0,0.0,0.0,1.0,2.0,1.0,0.0,0.0,1.0,0.0,6.57,9.91,0.0,
4.26,91.0192404691221,104.86808434844443,-3.0,0.0,0.0,1.0,2.0,1.0,0.0,0.0,1.0,0.0,6.47,10.01,0.0,
4.274,90.9029240469122,104.73480843484444,-4.0,-1.0,1.0,1.0,2.0,1.0,0.0,0.0,1.0,0.0,6.57,10.2,0.0,
4.288,90.90029240469121,104.72148084348444,-4.0,-1.0,2.0,1.0,2.0,1.0,0.0,0.0,1.0,0.0,6.47,10.3,0.0,
4.301,90.86402924046912,104.72014808434845,-4.0,-1.0,2.0,1.0,2.0,1.0,0.0,0.0,1.0,0.0,6.28,10.5,0.0,
4.316,90.86040292404691,104.63001480843485,-5.0,-1.0,3.0,1.0,2.0,1.0,0.0,0.0,1.0,0.0,6.08,10.79,0.0,
4.33,90.86904029240469,104.67500148084349,-5.0,-1.0,4.0,1.0,1.0,1.0,0.0,0.0,1.0,0.0,5.98,11.38,0.0,
4.343,90.75290402924047,102.69950014808434,0.0,0.0,0.0,1.0,1.0,1.0,0.0,0.0,1.0,0.0,5.79,11.77,0.0,
4.357,90.77729040292404,102.80795001480843,-5.0,-1.0,5.0,1.0,1.0,1.0,0.0,0.0,1.0,0.0,5.59,12.16,0.0,
4.371,102.8847290402924,113.24079500148085,0.0,0.0,0.0,1.0,1.0,1.0,0.0,0.0,1.0,0.0,5.4,12.56,0.0,
4.384,102.25947290402924,112.86207950014808,-6.0,0.0,6.0,1.0,1.0,1.0,0.0,0.0,1.0,0.0,5.2,13.54,0.0,
4.398,82.32494729040292,91.51220795001481,0.0,0.0,0.0,1.0,1.0,1.0,0.0,0.0,1.0,0.0,5.0,14.03,0.0,
4.41,63.447494729040294,71.26922079500147,0.0,0.0,0.0,0.0,1.0,0.0,0.0,0.0,1.0,0.0,4.51,14.52,0.0,
4.422,47.195749472904026,53.85492207950015,0.0,0.0,0.0,0.0,1.0,0.0,0.0,0.0,1.0,0.0,4.32,15.01,0.0,
4.435,33.3755749472904,39.02749220795002,0.0,0.0,0.0,0.0,1.0,0.0,0.0,0.0,1.0,0.0,4.02,15.5,0.0,
4.448,21.61655749472904,26.420749220795003,0.0,0.0,0.0,0.0,1.0,0.0,0.0,0.0,1.0,0.0,3.63,15.99,0.0,
4.461,11.620655749472903,15.7100749220795,0.0,0.0,0.0,0.0,1.0,0.0,0.0,0.0,1.0,0.0,3.43,16.58,0.0,
4.473,3.13306557494729,6.6020074922079495,0.0,0.0,0.0,0.0,1.0,0.0,0.0,0.0,0.0,0.0,3.24,17.56,0.0,
4.486,319.9123065574948,322.8602007492208,0.0,0.0,0.0,0.0,1.0,0.0,0.0,0.0,0.0,0.0,2.94,17.95,0.0,
4.499,346.17223065574944,348.6810200749221,0.0,0.0,0.0,0.0,1.0,0.0,0.0,0.0,0.0,0.0,2.75,18.25,0.0,
4.511,344.199223065575,346.33110200749223,0.0,0.0,0.0,0.0,1.0,0.0,0.0,0.0,0.0,0.0,2.26,18.74,0.0,
4.525,340.08692230655754,341.90211020074923,0.0,0.0,0.0,0.0,1.0,0.0,0.0,0.0,0.0,0.0,2.06,19.13,0.0,
4.537,336.35469223065576,337.8952110200749,0.0,0.0,0.0,0.0,1.0,0.0,0.0,0.0,0.0,0.0,1.86,19.52,0.0,
4.55,333.1554692230656,334.46152110200745,0.0,0.0,0.0,0.0,1.0,0.0,0.0,0.0,0.0,0.0,1.67,20.01,0.0,
4.562,330.4325469223066,331.54415211020074,0.0,0.0,0.0,0.0,1.0,0.0,0.0,0.0,0.0,0.0,1.47,20.6,0.0,
4.576,328.1172546922307,329.0654152110201,0.0,0.0,0.0,0.0,0.0,0.0,0.0,0.0,0.0,0.0,1.37,20.99,0.0,
4.588,326.14872546922305,326.95454152110204,0.0,0.0,0.0,0.0,1.0,0.0,0.0,0.0,0.0,0.0,1.18,21.39,0.0,
4.601,324.47587254692235,325.1594541521102,0.0,0.0,0.0,0.0,1.0,0.0,0.0,0.0,0.0,0.0,0.98,21.88,0.0,
4.614,323.05758725469224,323.6389454152111,0.0,0.0,0.0,0.0,1.0,0.0,0.0,0.0,0.0,0.0,0.78,22.27,0.0,
4.627,321.8447587254692,322.34389454152114,0.0,0.0,0.0,0.0,1.0,0.0,0.0,0.0,0.0,0.0,0.69,22.76,0.0,
4.639,320.8234758725469,321.24238945415215,0.0,0.0,0.0,0.0,0.0,0.0,0.0,0.0,0.0,0.0,0.59,23.74,0.0,
4.653,319.9473475872547,320.3042389454152,0.0,0.0,0.0,0.0,0.0,0.0,0.0,0.0,0.0,0.0,0.49,24.03,0.0,
4.666,319.2027347587255,319.5084238945415,0.0,0.0,0.0,0.0,0.0,0.0,0.0,0.0,0.0,0.0,0.49,24.52,0.0,
4.678,318.57027347587257,318.83484238945414,0.0,0.0,0.0,0.0,1.0,0.0,0.0,0.0,0.0,0.0,0.39,24.92,0.0,
4.691,318.03902734758725,318.2544842389454,0.0,0.0,0.0,0.0,0.0,0.0,0.0,0.0,0.0,0.0,0.29,25.51,0.0,
4.704,317.5809027347587,317.7644484238945,0.0,0.0,0.0,0.0,0.0,0.0,0.0,0.0,0.0,0.0,0.2,26.29,0.0,
4.717,317.1930902734759,317.35544484238943,0.0,0.0,0.0,0.0,0.0,0.0,0.0,0.0,0.0,0.0,0.1,27.27,0.0,
4.729,316.8663090273476,316.9995444842389,0.0,0.0,0.0,0.0,0.0,0.0,0.0,0.0,0.0,0.0,0.0,29.92,0.0,
4.743,316.5816309027348,316.70295444842395,0.0,0.0,0.0,0.0,0.0,0.0,0.0,0.0,0.0,0.0,0.0,31.59,0.0,
4.755,316.3461630902735,316.4482954448424,0.0,0.0,0.0,0.0,0.0,0.0,0.0,0.0,0.0,0.0,0.0,33.55,0.0,
4.768,316.1426163090274,316.22482954448424,0.0,0.0,0.0,0.0,0.0,0.0,0.0,0.0,0.0,0.0,0.0,35.81,0.0,
4.781,315.96926163090274,316.0404829544484,0.0,0.0,0.0,0.0,0.0,0.0,0.0,0.0,0.0,0.0,0.0,38.75,0.0,
4.794,315.82592616309023,315.88704829544486,0.0,0.0,0.0,0.0,0.0,0.0,0.0,0.0,0.0,0.0,0.1,42.38,0.0,
4.806,315.703592616309,315.7547048295445,0.0,0.0,0.0,0.0,0.0,0.0,0.0,0.0,0.0,0.0,0.1,51.4,0.0,
4.818,315.6013592616309,315.6424704829544,0.0,0.0,0.0,0.0,0.0,0.0,0.0,0.0,0.0,0.0,0.1,56.21,0.0,
4.832,315.51013592616306,315.5412470482954,0.0,0.0,0.0,0.0,0.0,0.0,0.0,0.0,0.0,0.0,0.0,61.41,0.0,
4.845,315.42901359261634,315.4591247048295,0.0,0.0,0.0,0.0,0.0,0.0,0.0,0.0,0.0,0.0,0.0,67.1,0.0,
4.857,315.36690135926165,315.39691247048296,0.0,0.0,0.0,0.0,0.0,0.0,0.0,0.0,0.0,0.0,0.0,73.18,0.0,
4.872,334.1076901359262,334.56969124704824,12.0,12.0,0.0,0.0,0.0,0.0,0.0,0.0,0.0,0.0,0.2,79.46,0.0,
4.884,333.11976901359265,333.5529691247048,0.0,0.0,0.0,0.0,0.0,0.0,0.0,0.0,0.0,0.0,0.2,92.41,0.0,
4.896,330.5909769013592,330.9672969124705,0.0,0.0,0.0,0.0,0.0,0.0,0.0,0.0,0.0,0.0,0.1,98.69,0.0,
4.91,328.2680976901359,328.58472969124705,0.0,0.0,0.0,0.0,0.0,0.0,0.0,0.0,0.0,0.0,0.2,103.79,0.0,
4.923,326.2808097690136,326.5554729691247,0.0,0.0,0.0,0.0,0.0,0.0,0.0,0.0,0.0,0.0,0.2,107.71,0.0,
4.935,324.5880809769013,324.8225472969125,0.0,0.0,0.0,0.0,0.0,0.0,0.0,0.0,0.0,0.0,0.2,110.85,0.0,
4.948,323.14980809769014,323.3442547296913,0.0,0.0,0.0,0.0,0.0,0.0,0.0,0.0,1.0,0.0,0.2,113.6,0.0,
4.962,321.92598080976904,322.09842547296915,0.0,0.0,0.0,0.0,0.0,0.0,0.0,0.0,1.0,0.0,0.29,116.84,0.0,
4.974,320.8855980809769,321.0288425472969,0.0,0.0,0.0,0.0,0.0,0.0,0.0,0.0,1.0,0.0,0.39,117.52,0.0,
4.987,320.0075598080977,320.1298842547297,0.0,0.0,0.0,0.0,0.0,0.0,0.0,0.0,1.0,0.0,0.39,117.82,0.0,
5.001,319.2537559808098,319.35598842547296,0.0,0.0,0.0,0.0,0.0,0.0,0.0,0.0,1.0,0.0,0.39,118.41,0.0,
5.013,318.62037559808095,318.7025988425473,0.0,0.0,0.0,0.0,0.0,0.0,0.0,0.0,1.0,0.0,0.39,119.09,0.0,
5.026,318.0710375598081,318.1512598842547,0.0,0.0,0.0,0.0,0.0,0.0,0.0,0.0,1.0,0.0,0.39,119.58,0.0,
5.04,317.6111037559808,317.67312598842545,0.0,0.0,0.0,0.0,0.0,0.0,0.0,0.0,1.0,0.0,0.49,119.88,0.0,
5.052,317.2231103755981,317.2743125988425,0.0,0.0,0.0,0.0,0.0,0.0,0.0,0.0,1.0,0.0,0.49,120.27,0.0,
5.065,316.8873110375598,316.93743125988425,0.0,0.0,0.0,0.0,0.0,0.0,0.0,0.0,1.0,0.0,0.39,120.76,0.0,
5.078,316.601731103756,316.64274312598843,0.0,0.0,0.0,0.0,0.0,0.0,0.0,0.0,1.0,0.0,0.39,121.55,0.0,
5.091,316.36617311037554,316.3972743125988,0.0,0.0,0.0,0.0,0.0,0.0,0.0,0.0,1.0,0.0,0.39,122.53,0.0,
5.104,316.16261731103754,316.1837274312599,0.0,0.0,0.0,0.0,0.0,0.0,0.0,0.0,1.0,0.0,0.49,123.21,0.0,
5.116,315.9892617311038,316.009372743126,0.0,0.0,0.0,0.0,0.0,0.0,0.0,0.0,1.0,0.0,0.49,123.61,0.0,
5.13,315.8369261731104,315.85693727431254,0.0,0.0,0.0,0.0,0.0,0.0,0.0,0.0,1.0,0.0,0.59,123.21,0.0,
5.142,315.71369261731104,315.72469372743126,0.0,0.0,0.0,0.0,0.0,0.0,0.0,0.0,1.0,0.0,0.49,122.72,0.0,
5.155,315.6023692617311,315.62146937274315,0.0,0.0,0.0,0.0,0.0,0.0,0.0,0.0,1.0,0.0,0.39,122.23,0.0,
5.169,315.5102369261731,315.5301469372743,0.0,0.0,0.0,0.0,0.0,0.0,0.0,0.0,1.0,0.0,0.39,121.84,0.0,
5.181,315.4380236926173,315.44901469372746,0.0,0.0,0.0,0.0,0.0,0.0,0.0,0.0,1.0,0.0,0.39,121.35,0.0,
5.194,315.36780236926177,315.3779014693728,0.0,0.0,0.0,0.0,0.0,0.0,0.0,0.0,1.0,0.0,0.39,120.27,0.0,
5.208,315.3157802369262,315.32579014693727,0.0,0.0,0.0,1.0,0.0,0.0,0.0,0.0,1.0,0.0,0.39,119.68,0.0,
5.22,315.26557802369257,315.27557901469373,0.0,0.0,0.0,1.0,0.0,0.0,0.0,0.0,1.0,0.0,0.39,118.6,0.0,
5.233,315.2245578023693,315.23455790146943,0.0,0.0,0.0,1.0,0.0,0.0,0.0,0.0,2.0,0.0,0.1,117.03,0.0,
5.245,315.19345578023695,315.19445579014695,0.0,0.0,0.0,1.0,0.0,0.0,0.0,0.0,2.0,0.0,0.1,115.17,0.0,
5.259,315.1633455780237,315.1724455790147,0.0,0.0,0.0,1.0,0.0,0.0,0.0,0.0,2.0,0.0,0.1,113.21,0.0,
5.272,315.1423345578023,315.1432445579014,0.0,0.0,0.0,0.0,0.0,0.0,0.0,0.0,2.0,0.0,0.1,109.38,0.0,
5.284,315.12223345578025,315.12232445579014,0.0,0.0,0.0,0.0,0.0,0.0,0.0,0.0,2.0,0.0,0.2,107.62,0.0,
5.298,315.10222334557807,315.10223244557903,0.0,0.0,0.0,0.0,0.0,0.0,0.0,0.0,2.0,0.0,0.2,105.75,0.0,
5.311,315.0822223345578,315.09122324455785,0.0,0.0,0.0,0.0,0.0,0.0,0.0,0.0,1.0,0.0,0.2,103.89,0.0,
5.323,315.0712222334558,315.0721223244558,0.0,0.0,0.0,0.0,0.0,0.0,0.0,0.0,1.0,0.0,0.1,101.93,0.0,
5.337,315.0611222233456,315.0612122324456,0.0,0.0,0.0,0.0,0.0,0.0,0.0,0.0,1.0,0.0,0.1,99.96,0.0,
5.349,315.05111222233455,315.0511212232446,0.0,0.0,0.0,0.0,0.0,0.0,0.0,0.0,1.0,0.0,0.1,98.0,0.0,
5.362,315.04111122223344,315.0501121223245,0.0,0.0,0.0,0.0,0.0,0.0,0.0,0.0,1.0,0.0,0.1,93.78,0.0,
5.374,315.0401111222233,315.04101121223243,0.0,0.0,0.0,0.0,0.0,0.0,0.0,0.0,1.0,0.0,0.1,91.13,0.0,
5.388,315.0310111122223,315.03110112122323,0.0,0.0,0.0,0.0,0.0,0.0,0.0,0.0,1.0,0.0,0.0,88.19,0.0,
5.4,315.0301011112222,315.0301101121223,0.0,0.0,0.0,0.0,0.0,0.0,0.0,0.0,0.0,0.0,0.0,84.76,0.0,
5.413,315.02101011112217,315.0210110112122,0.0,0.0,0.0,0.0,0.0,0.0,0.0,0.0,0.0,0.0,0.0,81.03,0.0,
5.426,315.02010101111216,315.0201011011212,0.0,0.0,0.0,0.0,0.0,0.0,0.0,0.0,0.0,0.0,0.1,77.2,0.0,
5.439,315.0200101011112,315.0200101101121,0.0,0.0,0.0,0.0,0.0,0.0,0.0,0.0,0.0,0.0,0.1,69.85,0.0,
5.451,315.01100101011116,315.0110010110112,0.0,0.0,0.0,0.0,0.0,0.0,0.0,0.0,0.0,0.0,0.1,66.51,0.0,
5.465,315.0101001010111,315.0101001011011,0.0,0.0,0.0,0.0,0.0,0.0,0.0,0.0,0.0,0.0,0.1,63.47,0.0,
5.477,315.0100100101011,315.01001001011014,0.0,0.0,0.0,0.0,0.0,0.0,0.0,0.0,0.0,0.0,0.0,60.33,0.0,
5.49,315.0100010010101,315.010001001011,0.0,0.0,0.0,0.0,0.0,0.0,0.0,0.0,0.0,0.0,0.0,57.09,0.0,
5.502,315.010000100101,315.01000010010114,0.0,0.0,0.0,0.0,0.0,0.0,0.0,0.0,0.0,0.0,0.0,53.96,0.0,
5.516,315.0100000100101,315.0100000100101,0.0,0.0,0.0,0.0,0.0,0.0,0.0,0.0,0.0,0.0,0.0,51.01,0.0,
5.528,315.010000001001,315.010000001001,0.0,0.0,0.0,0.0,0.0,0.0,0.0,0.0,0.0,0.0,0.1,46.5,0.0,
5.541,315.0010000001001,315.0010000001001,0.0,0.0,0.0,0.0,0.0,0.0,0.0,0.0,0.0,0.0,0.0,45.03,0.0,
5.554,315.00010000001,315.00010000001,0.0,0.0,0.0,0.0,0.0,0.0,0.0,0.0,0.0,0.0,0.0,44.05,0.0,
5.567,315.000010000001,315.000010000001,0.0,0.0,0.0,0.0,0.0,0.0,0.0,0.0,0.0,0.0,0.0,43.75,0.0,
5.579,315.0000010000001,315.0000010000001,0.0,0.0,0.0,0.0,0.0,0.0,0.0,0.0,0.0,0.0,0.1,43.75,0.0,
5.593,315.0000001,315.0000001,0.0,0.0,0.0,0.0,0.0,0.0,0.0,0.0,0.0,0.0,0.1,44.05,0.0,
5.605,315.00000001,315.00000001,0.0,0.0,0.0,0.0,0.0,0.0,0.0,0.0,0.0,0.0,0.2,44.83,0.0,
5.618,315.000000001,315.000000001,0.0,0.0,0.0,0.0,0.0,0.0,0.0,0.0,0.0,0.0,0.1,45.42,0.0,
5.632,315.0000000001,315.0000000001,0.0,0.0,0.0,0.0,0.0,0.0,0.0,0.0,0.0,0.0,0.2,46.3,0.0,
5.644,315.00000000001,315.00000000001,0.0,0.0,0.0,0.0,0.0,0.0,0.0,0.0,0.0,0.0,0.2,46.79,0.0,
5.657,315.000000000001,315.000000000001,0.0,0.0,0.0,0.0,0.0,0.0,0.0,0.0,0.0,0.0,0.1,47.09,0.0,
5.669,315.0000000000001,315.0000000000001,0.0,0.0,0.0,0.0,0.0,0.0,0.0,0.0,0.0,0.0,0.2,47.68,0.0,
5.683,315.0,315.0,0.0,0.0,0.0,0.0,0.0,0.0,0.0,0.0,0.0,0.0,0.2,49.93,0.0,
5.695,315.0,315.0,0.0,0.0,0.0,0.0,0.0,0.0,0.0,0.0,0.0,0.0,0.2,51.6,0.0,
5.708,315.0,315.0,0.0,0.0,0.0,0.0,0.0,0.0,0.0,0.0,0.0,0.0,0.2,53.56,0.0,
5.722,315.0,315.0,0.0,0.0,0.0,0.0,0.0,0.0,0.0,0.0,1.0,0.0,0.2,55.13,0.0,
5.734,315.0,315.0,0.0,0.0,0.0,0.0,0.0,0.0,0.0,0.0,1.0,0.0,0.29,56.21,0.0,
5.747,315.0,315.0,0.0,0.0,0.0,0.0,0.0,0.0,1.0,0.0,1.0,0.0,0.29,57.0,0.0,
5.76,315.0,315.0,0.0,0.0,0.0,0.0,0.0,0.0,1.0,0.0,1.0,0.0,0.29,58.37,0.0,
5.773,315.0,315.0,0.0,0.0,0.0,0.0,0.0,0.0,1.0,0.0,1.0,0.0,0.39,59.45,0.0,
5.785,315.0,315.0,0.0,0.0,0.0,0.0,0.0,0.0,1.0,0.0,1.0,0.0,0.49,60.53,0.0,
5.798,315.0,315.0,0.0,0.0,0.0,0.0,1.0,0.0,1.0,0.0,1.0,0.0,0.49,62.2,0.0,
5.812,315.0,315.0,0.0,0.0,0.0,0.0,1.0,0.0,1.0,0.0,1.0,0.0,0.59,64.16,0.0,
5.824,315.0,315.0,0.0,0.0,0.0,0.0,1.0,0.0,1.0,0.0,1.0,0.0,0.49,66.22,0.0,
5.837,315.0,315.0,0.0,0.0,0.0,0.0,1.0,0.0,1.0,0.0,1.0,0.0,0.39,68.18,0.0,
5.85,315.0,315.0,0.0,0.0,0.0,0.0,1.0,0.0,1.0,0.0,1.0,0.0,0.49,69.55,0.0,
5.863,315.0,315.0,0.0,0.0,0.0,1.0,1.0,1.0,1.0,0.0,2.0,0.0,0.49,68.77,0.0,
5.875,315.0,315.0,0.0,0.0,0.0,1.0,1.0,1.0,1.0,0.0,2.0,0.0,0.49,68.38,0.0,
5.889,315.0,315.0,0.0,0.0,0.0,1.0,1.0,1.0,1.0,0.0,1.0,0.0,0.39,69.06,0.0,
5.901,315.0,315.0,0.0,0.0,0.0,0.0,1.0,1.0,1.0,0.0,1.0,0.0,0.39,69.95,0.0,
5.914,315.0,315.0,0.0,0.0,0.0,0.0,1.0,1.0,1.0,0.0,1.0,0.0,0.49,71.12,0.0,
5.926,315.0,315.0,0.0,0.0,0.0,0.0,1.0,0.0,1.0,0.0,1.0,0.0,0.49,72.69,0.0,
5.94,315.0,315.0,0.0,0.0,0.0,0.0,1.0,0.0,1.0,0.0,1.0,0.0,0.59,72.5,0.0,
5.952,315.0,315.0,0.0,0.0,0.0,0.0,1.0,0.0,1.0,0.0,1.0,0.0,0.59,72.4,0.0,
5.965,315.0,315.0,0.0,0.0,0.0,0.0,1.0,0.0,1.0,0.0,1.0,0.0,0.49,72.79,0.0,
5.978,315.0,315.0,0.0,0.0,0.0,0.0,1.0,1.0,1.0,0.0,1.0,0.0,0.39,73.18,0.0,
5.991,315.0,315.0,0.0,0.0,0.0,1.0,1.0,1.0,1.0,0.0,2.0,0.0,0.29,73.18,0.0,
6.004,315.0,315.0,0.0,0.0,0.0,1.0,1.0,1.0,1.0,0.0,2.0,0.0,0.29,70.73,0.0,
6.017,315.0,315.0,0.0,0.0,0.0,1.0,1.0,1.0,1.0,0.0,2.0,0.0,0.2,69.16,0.0,
6.03,315.0,315.0,0.0,0.0,0.0,1.0,1.0,1.0,1.0,0.0,2.0,0.0,0.29,67.49,0.0,
6.042,315.0,315.0,0.0,0.0,0.0,1.0,1.0,1.0,1.0,0.0,2.0,0.0,0.29,65.53,0.0,
6.055,315.0,315.0,0.0,0.0,0.0,1.0,1.0,1.0,1.0,0.0,2.0,0.0,0.69,63.86,0.0,
6.068,315.0,315.0,0.0,0.0,0.0,1.0,2.0,1.0,1.0,0.0,2.0,0.0,0.98,62.49,0.0,
6.081,315.0,315.0,0.0,0.0,0.0,2.0,2.0,1.0,1.0,0.0,2.0,0.0,1.37,61.31,0.0,
6.094,315.0,315.0,0.0,0.0,0.0,2.0,2.0,1.0,1.0,0.0,2.0,0.0,1.86,59.45,0.0,
6.107,315.0,315.0,0.0,0.0,0.0,2.0,2.0,1.0,1.0,0.0,2.0,0.0,2.45,58.66,0.0,
6.119,315.0,315.0,0.0,0.0,0.0,2.0,2.0,2.0,1.0,0.0,2.0,0.0,3.04,58.17,0.0,
6.132,315.0,315.0,0.0,0.0,0.0,2.0,2.0,2.0,2.0,0.0,2.0,0.0,3.83,57.78,0.0,
6.146,315.0,315.0,0.0,0.0,0.0,2.0,2.0,2.0,2.0,0.0,2.0,0.0,5.4,57.19,0.0,
6.158,315.0,315.0,0.0,0.0,0.0,2.0,2.0,2.0,2.0,0.0,2.0,0.0,6.18,56.7,0.0,
6.171,315.0,315.0,0.0,0.0,0.0,2.0,2.0,2.0,2.0,0.0,2.0,0.0,6.77,54.94,0.0,
6.183,315.0,315.0,0.0,0.0,0.0,3.0,2.0,2.0,2.0,0.0,2.0,0.0,7.36,53.66,0.0,
6.197,315.0,315.0,0.0,0.0,0.0,3.0,2.0,2.0,2.0,0.0,3.0,0.0,8.04,52.19,0.0,
6.209,315.0,315.0,0.0,0.0,0.0,3.0,3.0,2.0,2.0,0.0,3.0,0.0,8.63,50.23,0.0,
6.222,315.0,315.0,0.0,0.0,0.0,3.0,3.0,2.0,2.0,0.0,3.0,0.0,9.32,48.27,0.0,
6.235,315.0,315.0,0.0,0.0,0.0,3.0,3.0,2.0,2.0,0.0,3.0,0.0,10.01,46.11,0.0,
6.248,315.0,315.0,0.0,0.0,0.0,3.0,3.0,2.0,2.0,0.0,3.0,0.0,11.67,41.59,0.0,
6.26,315.0,315.0,0.0,0.0,0.0,3.0,3.0,2.0,2.0,0.0,3.0,0.0,12.56,39.53,0.0,
6.274,315.0,315.0,0.0,0.0,0.0,3.0,3.0,2.0,2.0,1.0,3.0,0.0,13.34,37.77,0.0,
6.287,315.0,315.0,0.0,0.0,0.0,3.0,3.0,2.0,2.0,1.0,3.0,0.0,14.22,36.1,0.0,
6.299,315.0,315.0,0.0,0.0,0.0,3.0,3.0,2.0,2.0,1.0,3.0,0.0,15.01,34.53,0.0,
6.312,315.0,315.0,0.0,0.0,0.0,3.0,3.0,2.0,3.0,1.0,4.0,0.0,15.89,32.96,0.0,
6.326,315.0,315.0,0.0,0.0,0.0,3.0,3.0,2.0,3.0,1.0,4.0,0.0,17.56,29.43,0.0,
6.338,315.0,315.0,0.0,0.0,0.0,3.0,4.0,2.0,3.0,1.0,4.0,0.0,18.34,27.57,0.0,
6.351,315.0,315.0,0.0,0.0,0.0,3.0,4.0,2.0,3.0,1.0,4.0,0.0,18.93,25.9,0.0,
6.365,315.0,315.0,0.0,0.0,0.0,4.0,4.0,2.0,3.0,1.0,4.0,0.0,19.62,24.33,0.0,
6.377,315.0,315.0,0.0,0.0,0.0,4.0,4.0,2.0,3.0,2.0,4.0,0.0,20.21,22.86,0.0,
6.39,315.0,315.0,0.0,0.0,0.0,4.0,4.0,3.0,3.0,2.0,4.0,0.0,20.9,21.48,0.0,
6.403,315.0,315.0,0.0,0.0,0.0,4.0,4.0,3.0,3.0,2.0,4.0,0.0,21.58,20.21,0.0,
6.416,315.0,315.0,0.0,0.0,0.0,4.0,4.0,3.0,3.0,2.0,4.0,0.0,22.86,18.05,0.0,
6.429,315.0,315.0,0.0,0.0,0.0,4.0,4.0,3.0,3.0,2.0,5.0,0.0,23.64,17.27,0.0,
6.441,315.0,315.0,0.0,0.0,0.0,4.0,4.0,3.0,3.0,2.0,5.0,0.0,24.33,16.38,0.0,
6.455,315.0,315.0,0.0,0.0,0.0,4.0,4.0,3.0,3.0,2.0,5.0,0.0,24.92,15.6,0.0,
6.467,315.0,315.0,0.0,0.0,0.0,4.0,4.0,3.0,3.0,2.0,5.0,0.0,25.41,14.91,0.0,
6.48,315.0,315.0,0.0,0.0,0.0,4.0,4.0,3.0,3.0,2.0,5.0,0.0,25.8,14.42,0.0,
6.494,315.0,315.0,0.0,0.0,0.0,4.0,4.0,3.0,3.0,2.0,5.0,0.0,26.0,14.13,0.0,
6.506,315.0,315.0,0.0,0.0,0.0,4.0,4.0,3.0,3.0,2.0,5.0,0.0,26.29,14.22,0.0,
6.519,315.0,315.0,0.0,0.0,0.0,4.0,4.0,3.0,3.0,2.0,5.0,0.0,26.39,14.22,0.0,
6.533,315.0,315.0,0.0,0.0,0.0,4.0,4.0,3.0,3.0,2.0,5.0,0.0,26.39,14.22,0.0,
6.545,315.0,315.0,0.0,0.0,0.0,4.0,4.0,3.0,3.0,2.0,5.0,0.0,26.39,14.13,0.0,
6.558,315.0,315.0,0.0,0.0,0.0,4.0,4.0,3.0,3.0,2.0,5.0,0.0,26.39,13.93,0.0,
6.571,315.0,315.0,0.0,0.0,0.0,4.0,4.0,3.0,3.0,2.0,5.0,0.0,26.39,13.34,0.0,
6.584,315.0,315.0,0.0,0.0,0.0,4.0,4.0,3.0,3.0,2.0,6.0,0.0,26.39,12.95,0.0,
6.597,315.0,315.0,0.0,0.0,0.0,4.0,4.0,3.0,3.0,2.0,6.0,0.0,26.49,12.56,0.0,
6.609,315.0,315.0,0.0,0.0,0.0,4.0,4.0,3.0,3.0,2.0,6.0,0.0,26.59,12.07,0.0,
6.623,315.0,315.0,0.0,0.0,0.0,4.0,4.0,3.0,3.0,2.0,6.0,0.0,26.68,11.77,0.0,
6.636,315.0,315.0,0.0,0.0,0.0,4.0,4.0,3.0,4.0,2.0,6.0,0.0,26.59,11.48,0.0,
6.648,315.0,315.0,0.0,0.0,0.0,4.0,5.0,3.0,3.0,2.0,6.0,0.0,26.59,11.18,0.0,
6.662,315.0,315.0,0.0,0.0,0.0,4.0,5.0,3.0,4.0,2.0,6.0,0.0,26.59,11.18,0.0,
6.674,315.0,315.0,0.0,0.0,0.0,4.0,5.0,3.0,3.0,2.0,6.0,0.0,26.49,11.48,0.0,
6.687,315.0,315.0,0.0,0.0,0.0,4.0,5.0,3.0,3.0,2.0,6.0,0.0,26.19,11.77,0.0,
6.701,315.0,315.0,0.0,0.0,0.0,4.0,5.0,3.0,3.0,2.0,6.0,0.0,26.19,12.16,0.0,
6.713,315.0,315.0,0.0,0.0,0.0,4.0,5.0,3.0,3.0,2.0,6.0,0.0,26.19,12.46,0.0,
6.726,315.0,315.0,0.0,0.0,0.0,4.0,4.0,3.0,3.0,2.0,6.0,0.0,26.19,13.05,0.0,
6.738,315.0,315.0,0.0,0.0,0.0,4.0,4.0,3.0,3.0,2.0,6.0,0.0,26.19,13.05,0.0,
6.752,315.0,315.0,0.0,0.0,0.0,4.0,4.0,3.0,3.0,3.0,6.0,0.0,26.39,13.15,0.0,
6.765,315.0,315.0,0.0,0.0,0.0,4.0,4.0,3.0,3.0,3.0,6.0,0.0,26.39,13.34,0.0,
6.777,315.0,315.0,0.0,0.0,0.0,4.0,4.0,3.0,3.0,3.0,6.0,0.0,26.59,13.44,0.0,
6.791,315.0,315.0,0.0,0.0,0.0,4.0,4.0,3.0,3.0,3.0,6.0,0.0,26.68,13.73,0.0,
6.804,315.0,315.0,0.0,0.0,0.0,4.0,4.0,3.0,4.0,3.0,6.0,0.0,26.68,14.42,0.0,
6.816,315.0,315.0,0.0,0.0,0.0,4.0,4.0,3.0,4.0,2.0,6.0,0.0,26.88,14.72,0.0,
6.83,315.0,315.0,0.0,0.0,0.0,4.0,4.0,3.0,4.0,2.0,6.0,0.0,26.98,15.01,0.0,
6.842,315.0,315.0,0.0,0.0,0.0,4.0,4.0,3.0,3.0,2.0,6.0,0.0,27.17,15.21,0.0,
6.855,315.0,315.0,0.0,0.0,0.0,4.0,4.0,3.0,3.0,2.0,6.0,0.0,27.76,15.3,0.0,
6.868,315.0,315.0,0.0,0.0,0.0,4.0,4.0,3.0,3.0,2.0,6.0,0.0,28.15,15.3,0.0,
6.881,315.0,315.0,0.0,0.0,0.0,4.0,4.0,3.0,3.0,2.0,6.0,0.0,28.65,15.3,0.0,
6.894,315.0,315.0,0.0,0.0,0.0,4.0,4.0,3.0,3.0,2.0,6.0,0.0,29.04,15.3,0.0,
6.906,315.0,315.0,0.0,0.0,0.0,4.0,5.0,3.0,3.0,2.0,6.0,0.0,29.53,15.4,0.0,
6.92,315.0,315.0,0.0,0.0,0.0,4.0,4.0,3.0,3.0,2.0,6.0,0.0,29.82,15.3,0.0,
6.933,315.0,315.0,0.0,0.0,0.0,4.0,5.0,3.0,3.0,2.0,6.0,0.0,30.02,15.21,0.0,
6.945,315.0,315.0,0.0,0.0,0.0,4.0,5.0,3.0,3.0,2.0,6.0,0.0,30.41,14.81,0.0,
6.959,315.0,315.0,0.0,0.0,0.0,4.0,5.0,3.0,3.0,2.0,6.0,0.0,30.41,13.83,0.0,
6.972,315.0,315.0,0.0,0.0,0.0,4.0,5.0,3.0,3.0,2.0,6.0,0.0,30.41,13.24,0.0,
6.984,315.0,315.0,0.0,0.0,0.0,4.0,4.0,3.0,3.0,2.0,6.0,0.0,30.51,12.56,0.0,
6.998,315.0,315.0,0.0,0.0,0.0,4.0,5.0,3.0,3.0,2.0,6.0,0.0,30.51,11.97,0.0,
7.01,315.0,315.0,0.0,0.0,0.0,4.0,5.0,3.0,3.0,3.0,6.0,0.0,30.51,11.58,0.0,
7.023,315.0,315.0,0.0,0.0,0.0,4.0,5.0,3.0,3.0,3.0,6.0,0.0,30.41,11.18,0.0,
7.036,315.0,315.0,0.0,0.0,0.0,4.0,5.0,3.0,3.0,3.0,6.0,0.0,30.41,10.4,0.0,
7.049,315.0,315.0,0.0,0.0,0.0,4.0,5.0,3.0,3.0,3.0,6.0,0.0,30.41,9.91,0.0,
7.062,315.0,315.0,0.0,0.0,0.0,4.0,5.0,3.0,3.0,3.0,6.0,0.0,30.31,9.52,0.0,
7.074,315.0,315.0,0.0,0.0,0.0,4.0,5.0,3.0,3.0,3.0,6.0,0.0,30.31,9.03,0.0,
7.088,315.0,315.0,0.0,0.0,0.0,4.0,5.0,3.0,3.0,3.0,6.0,0.0,30.31,8.63,0.0,
7.1,315.0,315.0,0.0,0.0,0.0,4.0,5.0,3.0,3.0,2.0,6.0,0.0,30.21,8.24,0.0,
7.113,315.0,315.0,0.0,0.0,0.0,4.0,5.0,3.0,3.0,3.0,6.0,0.0,30.21,7.46,0.0,
7.126,315.0,315.0,0.0,0.0,0.0,4.0,5.0,3.0,3.0,3.0,6.0,0.0,30.12,7.06,0.0,
7.139,315.0,315.0,0.0,0.0,0.0,4.0,5.0,3.0,4.0,3.0,6.0,0.0,30.31,6.97,0.0,
7.152,315.0,315.0,0.0,0.0,0.0,4.0,5.0,3.0,4.0,3.0,6.0,0.0,30.31,6.77,0.0,
7.164,315.0,315.0,0.0,0.0,0.0,4.0,5.0,3.0,4.0,3.0,6.0,0.0,30.51,6.67,0.0,
7.178,315.0,315.0,0.0,0.0,0.0,4.0,5.0,3.0,4.0,3.0,6.0,0.0,30.61,6.57,0.0,
7.19,315.0,315.0,0.0,0.0,0.0,4.0,5.0,3.0,4.0,3.0,6.0,0.0,30.8,6.38,0.0,
7.203,315.0,315.0,0.0,0.0,0.0,4.0,5.0,3.0,4.0,3.0,6.0,0.0,31.0,5.98,0.0,
7.216,315.0,315.0,0.0,0.0,0.0,4.0,5.0,3.0,4.0,3.0,6.0,0.0,31.29,5.89,0.0,
7.229,315.0,315.0,0.0,0.0,0.0,4.0,5.0,3.0,4.0,3.0,6.0,0.0,31.39,5.79,0.0,
7.241,315.0,315.0,0.0,0.0,0.0,4.0,5.0,3.0,4.0,3.0,6.0,0.0,31.29,5.59,0.0,
7.255,315.0,315.0,0.0,0.0,0.0,4.0,5.0,3.0,4.0,3.0,6.0,0.0,31.29,5.49,0.0,
7.267,315.0,315.0,0.0,0.0,0.0,4.0,5.0,3.0,4.0,3.0,6.0,0.0,31.49,5.4,0.0,
7.28,315.0,315.0,0.0,0.0,0.0,4.0,5.0,3.0,4.0,3.0,7.0,0.0,31.49,5.2,0.0,
7.292,315.0,315.0,0.0,0.0,0.0,4.0,5.0,3.0,4.0,3.0,7.0,1.0,31.49,5.2,0.0,
7.306,315.0,315.0,0.0,0.0,0.0,4.0,5.0,3.0,4.0,3.0,7.0,1.0,31.59,5.1,0.0,
7.318,315.0,315.0,0.0,0.0,0.0,4.0,5.0,3.0,4.0,3.0,7.0,1.0,31.69,5.0,0.0,
7.331,315.0,315.0,0.0,0.0,0.0,4.0,5.0,3.0,4.0,3.0,7.0,1.0,31.69,4.91,0.0,
7.345,315.0,315.0,0.0,0.0,0.0,4.0,5.0,3.0,4.0,3.0,7.0,1.0,31.78,4.81,0.0,
7.357,315.0,315.0,0.0,0.0,0.0,4.0,5.0,3.0,4.0,3.0,7.0,1.0,31.78,4.61,0.0,
7.37,315.0,315.0,0.0,0.0,0.0,4.0,5.0,3.0,4.0,3.0,7.0,1.0,31.78,4.51,0.0,
7.383,315.0,315.0,0.0,0.0,0.0,4.0,5.0,3.0,4.0,3.0,7.0,1.0,31.78,4.51,0.0,
7.396,315.0,315.0,0.0,0.0,0.0,4.0,5.0,3.0,4.0,3.0,7.0,1.0,31.78,4.41,0.0,
7.408,315.0,315.0,0.0,0.0,0.0,4.0,5.0,3.0,4.0,3.0,7.0,1.0,31.88,4.51,0.0,
7.421,315.0,315.0,0.0,0.0,0.0,4.0,5.0,3.0,4.0,3.0,7.0,1.0,31.98,4.61,0.0,
7.434,315.0,315.0,0.0,0.0,0.0,4.0,5.0,3.0,4.0,3.0,7.0,1.0,32.08,4.71,0.0,
7.447,315.0,315.0,0.0,0.0,0.0,4.0,5.0,3.0,4.0,3.0,7.0,1.0,32.27,4.71,0.0,
7.459,315.0,315.0,0.0,0.0,0.0,4.0,5.0,3.0,4.0,3.0,7.0,1.0,32.37,4.81,0.0,
7.473,315.0,315.0,0.0,0.0,0.0,4.0,5.0,3.0,4.0,3.0,7.0,1.0,32.67,4.81,0.0,
7.485,315.0,315.0,0.0,0.0,0.0,4.0,5.0,3.0,4.0,3.0,7.0,1.0,32.96,4.81,0.0,
7.498,315.0,315.0,0.0,0.0,0.0,4.0,5.0,3.0,4.0,3.0,7.0,1.0,33.06,4.71,0.0,
7.512,315.0,315.0,0.0,0.0,0.0,4.0,5.0,3.0,4.0,3.0,7.0,1.0,32.96,4.71,0.0,
7.524,315.0,315.0,0.0,0.0,0.0,4.0,5.0,3.0,4.0,3.0,7.0,1.0,32.96,4.61,0.0,
7.537,315.0,315.0,0.0,0.0,0.0,4.0,5.0,3.0,4.0,3.0,7.0,1.0,32.86,4.61,0.0,
7.549,315.0,315.0,0.0,0.0,0.0,4.0,5.0,3.0,4.0,3.0,7.0,1.0,32.77,4.71,0.0,
7.563,315.0,315.0,0.0,0.0,0.0,4.0,5.0,3.0,4.0,3.0,7.0,1.0,32.57,4.91,0.0,
7.575,315.0,315.0,0.0,0.0,0.0,4.0,5.0,3.0,4.0,3.0,7.0,1.0,32.37,5.1,0.0,
7.588,315.0,315.0,0.0,0.0,0.0,4.0,5.0,3.0,4.0,3.0,7.0,1.0,32.08,5.2,0.0,
7.601,315.0,315.0,0.0,0.0,0.0,4.0,5.0,3.0,4.0,3.0,7.0,1.0,31.98,5.79,0.0,
7.614,315.0,315.0,0.0,0.0,0.0,4.0,5.0,3.0,4.0,3.0,7.0,1.0,31.88,6.18,0.0,
7.626,315.0,315.0,0.0,0.0,0.0,4.0,5.0,3.0,4.0,3.0,7.0,1.0,31.69,6.47,0.0,
7.64,315.0,315.0,0.0,0.0,0.0,4.0,5.0,3.0,4.0,3.0,7.0,1.0,31.49,6.77,0.0,
7.652,315.0,315.0,0.0,0.0,0.0,4.0,5.0,3.0,4.0,3.0,7.0,1.0,31.39,6.97,0.0,
7.665,315.0,315.0,0.0,0.0,0.0,4.0,5.0,3.0,4.0,3.0,7.0,1.0,31.29,7.16,0.0,
7.677,315.0,315.0,0.0,0.0,0.0,4.0,5.0,3.0,4.0,3.0,7.0,1.0,30.9,7.16,0.0,
7.691,315.0,315.0,0.0,0.0,0.0,4.0,5.0,3.0,4.0,3.0,7.0,1.0,30.8,7.36,0.0,
7.704,315.0,315.0,0.0,0.0,0.0,4.0,5.0,3.0,4.0,3.0,7.0,1.0,30.71,7.46,0.0,
7.716,315.0,315.0,0.0,0.0,0.0,4.0,5.0,3.0,4.0,3.0,7.0,1.0,30.61,7.65,0.0,
7.73,315.0,315.0,0.0,0.0,0.0,4.0,5.0,3.0,4.0,3.0,7.0,1.0,30.61,7.75,0.0,
7.742,315.0,315.0,0.0,0.0,0.0,4.0,5.0,3.0,4.0,3.0,7.0,1.0,30.61,7.75,0.0,
7.755,315.0,315.0,0.0,0.0,0.0,4.0,5.0,3.0,4.0,3.0,7.0,1.0,30.71,7.85,0.0,
7.768,315.0,315.0,0.0,0.0,0.0,4.0,5.0,3.0,4.0,3.0,7.0,1.0,30.9,7.75,0.0,
7.781,315.0,315.0,0.0,0.0,0.0,4.0,5.0,3.0,4.0,3.0,7.0,1.0,31.2,7.75,0.0,
7.793,315.0,315.0,0.0,0.0,0.0,4.0,5.0,3.0,4.0,3.0,7.0,1.0,31.39,7.65,0.0,
7.806,315.0,315.0,0.0,0.0,0.0,4.0,5.0,3.0,4.0,3.0,7.0,1.0,31.49,7.46,0.0,
7.819,315.0,315.0,0.0,0.0,0.0,4.0,5.0,3.0,4.0,3.0,7.0,1.0,31.59,7.36,0.0,
7.832,315.0,315.0,0.0,0.0,0.0,4.0,5.0,3.0,4.0,3.0,7.0,1.0,31.49,7.36,0.0,
7.844,315.0,315.0,0.0,0.0,0.0,4.0,5.0,3.0,4.0,3.0,7.0,1.0,31.49,7.26,0.0,
7.858,315.0,315.0,0.0,0.0,0.0,4.0,5.0,3.0,4.0,3.0,7.0,1.0,31.49,7.36,0.0,
7.87,315.0,315.0,0.0,0.0,0.0,4.0,5.0,3.0,4.0,3.0,7.0,1.0,31.59,7.26,0.0,
7.883,315.0,315.0,0.0,0.0,0.0,4.0,5.0,3.0,4.0,3.0,7.0,1.0,31.69,7.26,0.0,
7.897,315.0,315.0,0.0,0.0,0.0,4.0,5.0,3.0,4.0,3.0,7.0,1.0,31.78,7.26,0.0,
7.909,315.0,315.0,0.0,0.0,0.0,4.0,5.0,3.0,4.0,3.0,7.0,1.0,31.88,7.36,0.0,
7.922,315.0,315.0,0.0,0.0,0.0,4.0,5.0,3.0,4.0,3.0,7.0,1.0,32.08,7.36,0.0,
7.934,315.0,315.0,0.0,0.0,0.0,4.0,5.0,3.0,4.0,3.0,7.0,1.0,32.18,7.26,0.0,
7.948,315.0,315.0,0.0,0.0,0.0,4.0,5.0,3.0,4.0,3.0,7.0,1.0,32.37,7.06,0.0,
7.96,315.0,315.0,0.0,0.0,0.0,4.0,5.0,3.0,4.0,3.0,7.0,1.0,32.77,7.06,0.0,
7.973,315.0,315.0,0.0,0.0,0.0,4.0,5.0,3.0,4.0,3.0,7.0,1.0,32.86,6.87,0.0,
7.986,315.0,315.0,0.0,0.0,0.0,4.0,5.0,3.0,4.0,3.0,7.0,1.0,32.96,6.77,0.0,
7.999,315.0,315.0,0.0,0.0,0.0,4.0,5.0,3.0,4.0,3.0,7.0,1.0,33.06,6.77,0.0,
8.011,315.0,315.0,0.0,0.0,0.0,4.0,5.0,3.0,4.0,3.0,7.0,1.0,33.06,6.57,0.0,
8.025,315.0,315.0,0.0,0.0,0.0,4.0,5.0,3.0,4.0,3.0,7.0,1.0,33.26,6.47,0.0,
8.037,315.0,315.0,0.0,0.0,0.0,4.0,5.0,3.0,4.0,3.0,7.0,1.0,33.35,6.38,0.0,
8.05,315.0,315.0,0.0,0.0,0.0,4.0,5.0,3.0,4.0,3.0,7.0,1.0,33.55,6.38,0.0,
8.062,315.0,315.0,0.0,0.0,0.0,4.0,5.0,3.0,4.0,3.0,7.0,1.0,33.65,6.38,0.0,
8.076,315.0,315.0,0.0,0.0,0.0,4.0,5.0,3.0,4.0,3.0,7.0,1.0,33.75,6.38,0.0,
8.089,315.0,315.0,0.0,0.0,0.0,4.0,5.0,3.0,4.0,3.0,7.0,1.0,33.75,6.38,0.0,
8.101,315.0,315.0,0.0,0.0,0.0,4.0,5.0,3.0,4.0,3.0,7.0,1.0,33.84,6.38,0.0,
8.115,315.0,315.0,0.0,0.0,0.0,4.0,5.0,3.0,4.0,3.0,7.0,1.0,33.94,6.47,0.0,
8.127,315.0,315.0,0.0,0.0,0.0,4.0,5.0,3.0,4.0,3.0,7.0,1.0,33.94,6.57,0.0,
8.14,315.0,315.0,0.0,0.0,0.0,4.0,5.0,3.0,4.0,3.0,7.0,1.0,33.94,6.57,0.0,
8.153,315.0,315.0,0.0,0.0,0.0,4.0,5.0,3.0,4.0,3.0,7.0,1.0,33.94,6.57,0.0,
8.166,315.0,315.0,0.0,0.0,0.0,4.0,5.0,3.0,4.0,3.0,7.0,1.0,34.04,6.67,0.0,
8.178,315.0,315.0,0.0,0.0,0.0,4.0,5.0,3.0,4.0,3.0,7.0,1.0,33.94,6.77,0.0,
8.192,315.0,315.0,0.0,0.0,0.0,4.0,5.0,3.0,4.0,3.0,7.0,1.0,33.94,6.97,0.0,
8.204,315.0,315.0,0.0,0.0,0.0,4.0,5.0,3.0,4.0,3.0,7.0,1.0,33.94,7.16,0.0,
8.217,315.0,315.0,0.0,0.0,0.0,4.0,5.0,3.0,4.0,3.0,7.0,1.0,33.94,7.26,0.0,
8.229,315.0,315.0,0.0,0.0,0.0,4.0,5.0,3.0,4.0,3.0,7.0,1.0,33.94,7.36,0.0,
8.243,315.0,315.0,0.0,0.0,0.0,4.0,5.0,3.0,4.0,3.0,7.0,1.0,33.84,7.55,0.0,
8.255,315.0,315.0,0.0,0.0,0.0,4.0,5.0,3.0,4.0,3.0,7.0,1.0,33.75,7.85,0.0,
8.268,315.0,315.0,0.0,0.0,0.0,4.0,5.0,3.0,4.0,3.0,7.0,1.0,33.75,8.04,0.0,
8.282,315.0,315.0,0.0,0.0,0.0,4.0,5.0,3.0,4.0,3.0,7.0,1.0,33.65,8.24,0.0,
8.294,315.0,315.0,0.0,0.0,0.0,4.0,5.0,3.0,4.0,3.0,7.0,1.0,33.55,8.34,0.0,
8.307,315.0,315.0,0.0,0.0,0.0,4.0,5.0,3.0,4.0,3.0,7.0,1.0,33.55,8.53,0.0,
8.32,315.0,315.0,0.0,0.0,0.0,4.0,5.0,3.0,4.0,3.0,7.0,1.0,33.55,8.73,0.0,
8.333,315.0,315.0,0.0,0.0,0.0,4.0,5.0,3.0,4.0,3.0,7.0,1.0,33.45,8.93,0.0,
8.345,315.0,315.0,0.0,0.0,0.0,4.0,5.0,3.0,4.0,3.0,7.0,1.0,33.45,9.32,0.0,
8.358,315.0,315.0,0.0,0.0,0.0,4.0,5.0,3.0,4.0,3.0,7.0,1.0,33.35,9.61,0.0,
8.371,315.0,315.0,0.0,0.0,0.0,4.0,5.0,3.0,4.0,3.0,7.0,1.0,33.35,9.91,0.0,
8.384,315.0,315.0,0.0,0.0,0.0,4.0,5.0,3.0,4.0,3.0,7.0,1.0,33.26,10.1,0.0,
8.396,315.0,315.0,0.0,0.0,0.0,4.0,5.0,3.0,4.0,3.0,7.0,1.0,33.26,10.3,0.0,
8.41,315.0,315.0,0.0,0.0,0.0,4.0,5.0,3.0,4.0,3.0,7.0,1.0,33.26,10.5,0.0,
8.423,315.0,315.0,0.0,0.0,0.0,4.0,5.0,3.0,4.0,3.0,7.0,1.0,33.16,10.79,0.0,
8.435,315.0,315.0,0.0,0.0,0.0,4.0,5.0,3.0,4.0,3.0,7.0,1.0,33.16,10.89,0.0,
8.449,315.0,315.0,0.0,0.0,0.0,4.0,5.0,3.0,4.0,3.0,7.0,1.0,33.16,11.09,0.0,
8.462,315.0,315.0,0.0,0.0,0.0,4.0,5.0,3.0,4.0,3.0,7.0,1.0,33.06,11.18,0.0,
8.474,315.0,315.0,0.0,0.0,0.0,4.0,5.0,3.0,4.0,3.0,7.0,1.0,33.06,11.18,0.0,
8.487,315.0,315.0,0.0,0.0,0.0,4.0,5.0,3.0,4.0,3.0,7.0,1.0,32.96,11.28,0.0,
8.5,315.0,315.0,0.0,0.0,0.0,4.0,5.0,3.0,4.0,3.0,7.0,1.0,33.06,11.28,0.0,
8.513,315.0,315.0,0.0,0.0,0.0,4.0,5.0,3.0,4.0,3.0,7.0,1.0,33.16,11.38,0.0,
8.526,315.0,315.0,0.0,0.0,0.0,4.0,5.0,3.0,4.0,3.0,7.0,1.0,33.16,11.58,0.0,
8.539,315.0,315.0,0.0,0.0,0.0,4.0,5.0,3.0,4.0,3.0,7.0,1.0,33.26,11.67,0.0,
8.552,315.0,315.0,0.0,0.0,0.0,4.0,5.0,3.0,4.0,3.0,7.0,1.0,33.35,11.87,0.0,
8.564,315.0,315.0,0.0,0.0,0.0,4.0,5.0,3.0,4.0,3.0,7.0,1.0,33.45,11.97,0.0,
8.578,315.0,315.0,0.0,0.0,0.0,4.0,5.0,3.0,4.0,3.0,7.0,1.0,33.55,12.36,0.0,
8.591,315.0,315.0,0.0,0.0,0.0,4.0,5.0,3.0,4.0,3.0,7.0,1.0,33.55,12.36,0.0,
8.603,315.0,315.0,0.0,0.0,0.0,4.0,5.0,3.0,4.0,3.0,7.0,1.0,33.55,12.26,0.0,
8.616,315.0,315.0,0.0,0.0,0.0,4.0,5.0,3.0,4.0,3.0,7.0,1.0,33.55,12.16,0.0,
8.63,315.0,315.0,0.0,0.0,0.0,4.0,5.0,3.0,4.0,3.0,7.0,1.0,33.45,12.16,0.0,
8.642,315.0,315.0,0.0,0.0,0.0,4.0,5.0,3.0,4.0,3.0,7.0,1.0,33.45,12.26,0.0,
8.655,315.0,315.0,0.0,0.0,0.0,4.0,5.0,3.0,4.0,3.0,7.0,1.0,33.45,12.46,0.0,
8.668,315.0,315.0,0.0,0.0,0.0,4.0,5.0,3.0,4.0,3.0,7.0,1.0,33.35,12.46,0.0,
8.681,315.0,315.0,0.0,0.0,0.0,4.0,5.0,3.0,4.0,3.0,7.0,1.0,33.35,12.65,0.0,
8.694,315.0,315.0,0.0,0.0,0.0,4.0,5.0,3.0,4.0,3.0,7.0,1.0,33.16,12.85,0.0,
8.707,315.0,315.0,0.0,0.0,0.0,4.0,5.0,3.0,4.0,3.0,7.0,1.0,33.06,13.05,0.0,
8.72,315.0,315.0,0.0,0.0,0.0,4.0,5.0,3.0,4.0,3.0,7.0,1.0,33.06,13.24,0.0,
8.733,315.0,315.0,0.0,0.0,0.0,4.0,5.0,3.0,4.0,3.0,7.0,1.0,32.86,13.73,0.0,
8.745,315.0,315.0,0.0,0.0,0.0,4.0,5.0,3.0,4.0,3.0,7.0,1.0,32.77,13.93,0.0,
8.759,315.0,315.0,0.0,0.0,0.0,4.0,5.0,3.0,4.0,3.0,7.0,1.0,32.67,14.13,0.0,
8.771,315.0,315.0,0.0,0.0,0.0,4.0,5.0,3.0,4.0,3.0,7.0,1.0,32.47,14.22,0.0,
8.784,315.0,315.0,0.0,0.0,0.0,4.0,5.0,3.0,4.0,3.0,7.0,1.0,32.27,14.42,0.0,
8.798,315.0,315.0,0.0,0.0,0.0,4.0,5.0,3.0,4.0,3.0,7.0,1.0,32.18,14.62,0.0,
8.81,315.0,315.0,0.0,0.0,0.0,4.0,5.0,3.0,4.0,3.0,7.0,1.0,32.18,14.81,0.0,
8.823,315.0,315.0,0.0,0.0,0.0,4.0,5.0,3.0,4.0,3.0,7.0,1.0,32.08,14.81,0.0,
8.836,315.0,315.0,0.0,0.0,0.0,4.0,5.0,3.0,4.0,3.0,7.0,1.0,32.08,14.81,0.0,
8.849,315.0,315.0,0.0,0.0,0.0,4.0,5.0,3.0,4.0,3.0,7.0,1.0,31.98,14.81,0.0,
8.862,315.0,315.0,0.0,0.0,0.0,4.0,5.0,3.0,4.0,3.0,7.0,1.0,31.98,14.72,0.0,
8.875,315.0,315.0,0.0,0.0,0.0,4.0,5.0,3.0,4.0,3.0,7.0,1.0,31.98,14.72,0.0,
8.888,315.0,315.0,0.0,0.0,0.0,4.0,5.0,3.0,4.0,3.0,7.0,1.0,31.98,14.62,0.0,
8.901,315.0,315.0,0.0,0.0,0.0,4.0,5.0,3.0,4.0,3.0,7.0,1.0,31.98,14.62,0.0,
8.913,315.0,315.0,0.0,0.0,0.0,4.0,5.0,3.0,4.0,3.0,7.0,1.0,31.88,14.72,0.0,
8.927,315.0,315.0,0.0,0.0,0.0,4.0,5.0,3.0,4.0,3.0,7.0,1.0,31.88,14.72,0.0,
8.939,315.0,315.0,0.0,0.0,0.0,4.0,5.0,3.0,4.0,3.0,7.0,1.0,31.78,14.72,0.0,
8.952,315.0,315.0,0.0,0.0,0.0,4.0,5.0,3.0,4.0,3.0,7.0,1.0,31.78,14.81,0.0,
8.966,315.0,315.0,0.0,0.0,0.0,4.0,5.0,3.0,4.0,3.0,7.0,1.0,31.78,14.81,0.0,
8.978,315.0,315.0,0.0,0.0,0.0,4.0,5.0,3.0,4.0,3.0,7.0,1.0,31.78,14.91,0.0,
8.991,315.0,315.0,0.0,0.0,0.0,4.0,5.0,3.0,4.0,3.0,7.0,1.0,31.78,14.91,0.0,
9.004,315.0,315.0,0.0,0.0,0.0,4.0,5.0,3.0,4.0,3.0,7.0,1.0,31.78,14.91,0.0,
9.017,315.0,315.0,0.0,0.0,0.0,4.0,5.0,3.0,4.0,3.0,7.0,1.0,31.78,14.91,0.0,
9.03,315.0,315.0,0.0,0.0,0.0,4.0,5.0,3.0,4.0,3.0,7.0,1.0,31.88,14.91,0.0,
9.042,315.0,315.0,0.0,0.0,0.0,4.0,5.0,3.0,4.0,3.0,7.0,1.0,31.88,15.01,0.0,
9.056,315.0,315.0,0.0,0.0,0.0,4.0,5.0,3.0,4.0,3.0,7.0,1.0,31.78,15.01,0.0,
9.069,315.0,315.0,0.0,0.0,0.0,4.0,5.0,3.0,4.0,3.0,7.0,1.0,31.78,15.01,0.0,
9.081,315.0,315.0,0.0,0.0,0.0,4.0,5.0,3.0,4.0,3.0,7.0,1.0,31.78,15.01,0.0,
9.095,315.0,315.0,0.0,0.0,0.0,4.0,5.0,3.0,4.0,3.0,7.0,1.0,31.78,15.11,0.0,
9.107,315.0,315.0,0.0,0.0,0.0,4.0,5.0,3.0,4.0,3.0,7.0,1.0,31.78,15.11,0.0,
9.12,315.0,315.0,0.0,0.0,0.0,4.0,5.0,3.0,4.0,3.0,7.0,1.0,31.78,14.91,0.0,
9.134,315.0,315.0,0.0,0.0,0.0,4.0,5.0,3.0,4.0,3.0,7.0,1.0,31.78,14.81,0.0,
9.146,315.0,315.0,0.0,0.0,0.0,4.0,5.0,3.0,4.0,3.0,7.0,1.0,31.78,14.81,0.0,
9.159,315.0,315.0,0.0,0.0,0.0,4.0,5.0,3.0,4.0,3.0,7.0,1.0,31.69,14.72,0.0,
9.171,315.0,315.0,0.0,0.0,0.0,4.0,5.0,3.0,4.0,3.0,7.0,1.0,31.78,14.62,0.0,
9.185,315.0,315.0,0.0,0.0,0.0,4.0,5.0,3.0,4.0,3.0,7.0,1.0,31.69,14.52,0.0,
9.198,315.0,315.0,0.0,0.0,0.0,4.0,5.0,3.0,4.0,3.0,7.0,1.0,31.69,14.52,0.0,
9.21,315.0,315.0,0.0,0.0,0.0,4.0,5.0,3.0,4.0,3.0,7.0,1.0,31.69,14.32,0.0,
9.224,315.0,315.0,0.0,0.0,0.0,5.0,5.0,3.0,4.0,3.0,7.0,1.0,31.69,14.32,0.0,
9.237,315.0,315.0,0.0,0.0,0.0,5.0,5.0,3.0,4.0,3.0,7.0,1.0,31.69,14.22,0.0,
9.249,315.0,315.0,0.0,0.0,0.0,5.0,5.0,3.0,4.0,3.0,7.0,1.0,31.69,14.22,0.0,
9.263,315.0,315.0,0.0,0.0,0.0,5.0,5.0,3.0,4.0,3.0,7.0,1.0,31.69,14.22,0.0,
9.275,315.0,315.0,0.0,0.0,0.0,5.0,5.0,3.0,4.0,3.0,7.0,1.0,31.69,14.22,0.0,
9.288,315.0,315.0,0.0,0.0,0.0,5.0,5.0,3.0,4.0,3.0,7.0,1.0,31.59,14.42,0.0,
9.302,315.0,315.0,0.0,0.0,0.0,5.0,5.0,3.0,4.0,3.0,7.0,1.0,31.69,14.52,0.0,
9.314,315.0,315.0,0.0,0.0,0.0,5.0,5.0,3.0,4.0,3.0,7.0,1.0,31.59,14.52,0.0,
9.327,315.0,315.0,0.0,0.0,0.0,5.0,5.0,3.0,4.0,3.0,7.0,1.0,31.49,14.42,0.0,
9.34,315.0,315.0,0.0,0.0,0.0,5.0,5.0,3.0,4.0,3.0,7.0,1.0,31.49,14.52,0.0,
9.353,315.0,315.0,0.0,0.0,0.0,4.0,5.0,3.0,4.0,3.0,7.0,1.0,31.39,14.62,0.0,
9.366,315.0,315.0,0.0,0.0,0.0,5.0,5.0,3.0,4.0,3.0,7.0,1.0,31.39,14.62,0.0,
9.378,315.0,315.0,0.0,0.0,0.0,5.0,5.0,3.0,4.0,3.0,7.0,1.0,31.39,14.52,0.0,
9.392,315.0,315.0,0.0,0.0,0.0,5.0,5.0,3.0,4.0,3.0,7.0,1.0,31.39,14.62,0.0,
9.405,315.0,315.0,0.0,0.0,0.0,5.0,5.0,3.0,4.0,3.0,7.0,1.0,31.39,14.62,0.0,
9.417,315.0,315.0,0.0,0.0,0.0,5.0,5.0,3.0,4.0,3.0,7.0,1.0,31.29,14.62,0.0,
9.431,315.0,315.0,0.0,0.0,0.0,5.0,5.0,3.0,4.0,3.0,7.0,1.0,31.29,14.52,0.0,
9.443,315.0,315.0,0.0,0.0,0.0,4.0,5.0,3.0,4.0,3.0,7.0,1.0,31.29,14.52,0.0,
9.456,315.0,315.0,0.0,0.0,0.0,5.0,5.0,3.0,4.0,3.0,7.0,1.0,31.29,14.52,0.0,
9.469,315.0,315.0,0.0,0.0,0.0,5.0,5.0,3.0,4.0,3.0,7.0,1.0,31.29,14.42,0.0,
9.482,315.0,315.0,0.0,0.0,0.0,5.0,5.0,3.0,4.0,3.0,7.0,1.0,31.29,14.42,0.0,
9.495,315.0,315.0,0.0,0.0,0.0,5.0,5.0,3.0,4.0,3.0,7.0,1.0,31.2,14.42,0.0,
9.508,315.0,315.0,0.0,0.0,0.0,5.0,5.0,3.0,4.0,3.0,7.0,1.0,31.2,14.42,0.0,
9.521,315.0,315.0,0.0,0.0,0.0,5.0,5.0,3.0,4.0,3.0,7.0,1.0,31.29,14.42,0.0,
9.534,315.0,315.0,0.0,0.0,0.0,5.0,5.0,3.0,4.0,3.0,7.0,1.0,31.29,14.42,0.0,
9.546,315.0,315.0,0.0,0.0,0.0,5.0,5.0,3.0,4.0,3.0,7.0,1.0,31.39,14.42,0.0,
9.56,315.0,315.0,0.0,0.0,0.0,5.0,5.0,3.0,4.0,3.0,7.0,1.0,31.39,14.32,0.0,
9.573,315.0,315.0,0.0,0.0,0.0,5.0,5.0,3.0,4.0,3.0,7.0,1.0,31.29,14.22,0.0,
9.585,315.0,315.0,0.0,0.0,0.0,5.0,5.0,3.0,4.0,3.0,7.0,1.0,31.2,14.22,0.0,
9.598,315.0,315.0,0.0,0.0,0.0,5.0,5.0,3.0,4.0,3.0,7.0,1.0,31.2,14.13,0.0,
9.611,315.0,315.0,0.0,0.0,0.0,5.0,5.0,3.0,4.0,3.0,7.0,1.0,31.29,14.13,0.0,
9.624,315.0,315.0,0.0,0.0,0.0,5.0,5.0,3.0,4.0,3.0,7.0,1.0,31.29,14.03,0.0,
9.637,315.0,315.0,0.0,0.0,0.0,5.0,5.0,3.0,4.0,3.0,7.0,1.0,31.2,14.03,0.0,
9.65,315.0,315.0,0.0,0.0,0.0,5.0,5.0,3.0,4.0,3.0,7.0,1.0,31.2,14.03,0.0,
9.663,315.0,315.0,0.0,0.0,0.0,5.0,5.0,3.0,4.0,3.0,7.0,1.0,31.29,14.03,0.0,
9.676,315.0,315.0,0.0,0.0,0.0,5.0,5.0,3.0,4.0,3.0,7.0,1.0,31.2,14.03,0.0,
9.689,315.0,315.0,0.0,0.0,0.0,5.0,5.0,3.0,4.0,3.0,7.0,1.0,31.2,14.03,0.0,
9.702,315.0,315.0,0.0,0.0,0.0,5.0,5.0,3.0,4.0,3.0,7.0,1.0,31.1,14.03,0.0,
9.714,315.0,315.0,0.0,0.0,0.0,5.0,5.0,3.0,4.0,3.0,7.0,1.0,31.1,14.03,0.0,
9.728,315.0,315.0,0.0,0.0,0.0,5.0,5.0,3.0,4.0,3.0,7.0,1.0,31.1,14.03,0.0,
9.741,315.0,315.0,0.0,0.0,0.0,5.0,5.0,3.0,4.0,3.0,7.0,1.0,31.1,14.03,0.0,
9.753,315.0,315.0,0.0,0.0,0.0,5.0,5.0,3.0,4.0,3.0,7.0,1.0,31.1,14.03,0.0,
9.766,315.0,315.0,0.0,0.0,0.0,5.0,5.0,3.0,4.0,3.0,7.0,1.0,31.1,13.93,0.0,
9.779,315.0,315.0,0.0,0.0,0.0,5.0,5.0,3.0,4.0,3.0,7.0,1.0,31.1,13.93,0.0,
9.792,315.0,315.0,0.0,0.0,0.0,5.0,5.0,3.0,4.0,3.0,7.0,1.0,31.1,13.93,0.0,
9.805,315.0,315.0,0.0,0.0,0.0,5.0,5.0,3.0,4.0,3.0,7.0,1.0,31.2,13.93,0.0,
9.818,315.0,315.0,0.0,0.0,0.0,5.0,5.0,3.0,4.0,3.0,7.0,1.0,31.29,13.83,0.0,
9.831,315.0,315.0,0.0,0.0,0.0,5.0,5.0,3.0,4.0,3.0,7.0,1.0,31.29,13.83,0.0,
9.844,315.0,315.0,0.0,0.0,0.0,5.0,5.0,3.0,4.0,3.0,7.0,1.0,31.29,13.73,0.0,
9.857,315.0,315.0,0.0,0.0,0.0,5.0,5.0,3.0,4.0,3.0,7.0,1.0,31.29,13.73,0.0,
9.87,315.0,315.0,0.0,0.0,0.0,5.0,5.0,3.0,4.0,3.0,7.0,1.0,31.39,13.73,0.0,
9.882,315.0,315.0,0.0,0.0,0.0,5.0,5.0,3.0,4.0,3.0,7.0,1.0,31.29,13.73,0.0,
9.895,315.0,315.0,0.0,0.0,0.0,5.0,5.0,3.0,4.0,3.0,7.0,1.0,31.39,13.73,0.0,
9.909,315.0,315.0,0.0,0.0,0.0,5.0,5.0,3.0,4.0,3.0,7.0,1.0,31.39,14.03,0.0,
9.921,315.0,315.0,0.0,0.0,0.0,5.0,5.0,3.0,4.0,3.0,7.0,1.0,31.29,14.03,0.0,
9.934,315.0,315.0,0.0,0.0,0.0,5.0,5.0,3.0,4.0,3.0,7.0,1.0,31.29,14.03,0.0,
9.947,315.0,315.0,0.0,0.0,0.0,5.0,5.0,3.0,4.0,3.0,7.0,1.0,31.29,13.93,0.0,
9.96,315.0,315.0,0.0,0.0,0.0,5.0,5.0,3.0,4.0,3.0,7.0,1.0,31.29,13.83,0.0,
9.973,315.0,315.0,0.0,0.0,0.0,5.0,5.0,3.0,4.0,3.0,7.0,1.0,31.29,13.73,0.0,
9.986,315.0,315.0,0.0,0.0,0.0,5.0,5.0,3.0,4.0,3.0,7.0,1.0,31.2,13.64,0.0,
9.999,315.0,315.0,0.0,0.0,0.0,5.0,5.0,3.0,4.0,3.0,7.0,1.0,31.1,13.54,0.0,
10.012,315.0,315.0,0.0,0.0,0.0,5.0,5.0,3.0,4.0,3.0,7.0,1.0,31.1,13.54,0.0,
10.024,315.0,315.0,0.0,0.0,0.0,5.0,5.0,3.0,4.0,3.0,7.0,1.0,31.1,13.73,0.0,
10.038,315.0,315.0,0.0,0.0,0.0,5.0,5.0,3.0,4.0,3.0,7.0,1.0,31.2,13.93,0.0,
10.051,315.0,315.0,0.0,0.0,0.0,5.0,5.0,3.0,4.0,3.0,7.0,1.0,31.29,14.13,0.0,
10.063,315.0,315.0,0.0,0.0,0.0,5.0,5.0,3.0,4.0,3.0,7.0,1.0,31.39,14.42,0.0,
10.077,315.0,315.0,0.0,0.0,0.0,5.0,5.0,3.0,4.0,3.0,7.0,1.0,31.39,14.42,0.0,
10.09,315.0,315.0,0.0,0.0,0.0,5.0,5.0,3.0,4.0,3.0,7.0,1.0,31.49,14.32,0.0,
10.102,315.0,315.0,0.0,0.0,0.0,5.0,5.0,3.0,4.0,3.0,7.0,1.0,31.49,14.32,0.0,
10.116,315.0,315.0,0.0,0.0,0.0,5.0,5.0,3.0,4.0,3.0,7.0,1.0,31.49,14.03,0.0,
10.129,315.0,315.0,0.0,0.0,0.0,5.0,5.0,3.0,4.0,3.0,7.0,1.0,31.39,13.93,0.0,
10.142,315.0,315.0,0.0,0.0,0.0,5.0,5.0,3.0,4.0,3.0,7.0,1.0,31.29,13.93,0.0,
10.155,315.0,315.0,0.0,0.0,0.0,5.0,5.0,3.0,4.0,3.0,7.0,1.0,31.1,14.03,0.0,
10.168,315.0,315.0,0.0,0.0,0.0,5.0,5.0,3.0,4.0,3.0,7.0,1.0,31.0,14.13,0.0,
10.181,315.0,315.0,0.0,0.0,0.0,5.0,5.0,3.0,4.0,3.0,7.0,1.0,30.71,14.13,0.0,
10.193,315.0,315.0,0.0,0.0,0.0,5.0,5.0,3.0,4.0,3.0,7.0,0.0,30.61,14.03,0.0,
10.207,315.0,315.0,0.0,0.0,0.0,5.0,5.0,3.0,4.0,3.0,7.0,0.0,30.61,14.03,0.0,
10.22,315.0,315.0,0.0,0.0,0.0,4.0,5.0,3.0,4.0,3.0,7.0,0.0,30.61,13.93,0.0,
10.232,315.0,315.0,0.0,0.0,0.0,5.0,5.0,3.0,4.0,3.0,7.0,0.0,30.61,13.83,0.0,
10.246,315.0,315.0,0.0,0.0,0.0,4.0,5.0,3.0,4.0,3.0,7.0,0.0,30.61,13.73,0.0,
10.259,315.0,315.0,0.0,0.0,0.0,4.0,5.0,3.0,4.0,3.0,7.0,0.0,30.71,13.44,0.0,
10.272,315.0,315.0,0.0,0.0,0.0,4.0,5.0,3.0,4.0,3.0,7.0,0.0,30.9,13.44,0.0,
10.285,315.0,315.0,0.0,0.0,0.0,4.0,5.0,3.0,4.0,3.0,7.0,1.0,30.9,13.34,0.0,
10.298,315.0,315.0,0.0,0.0,0.0,4.0,5.0,3.0,4.0,3.0,7.0,1.0,31.0,13.34,0.0,
10.311,315.0,315.0,0.0,0.0,0.0,4.0,5.0,3.0,4.0,3.0,7.0,1.0,31.0,13.44,0.0,
10.323,315.0,315.0,0.0,0.0,0.0,4.0,5.0,3.0,4.0,3.0,7.0,1.0,31.1,13.44,0.0,
10.337,315.0,315.0,0.0,0.0,0.0,4.0,5.0,3.0,4.0,3.0,7.0,0.0,31.1,13.54,0.0,
10.35,315.0,315.0,0.0,0.0,0.0,4.0,5.0,3.0,4.0,3.0,7.0,0.0,31.1,13.54,0.0,
10.362,315.0,315.0,0.0,0.0,0.0,4.0,5.0,3.0,4.0,3.0,7.0,0.0,31.0,13.73,0.0,
10.376,315.0,315.0,0.0,0.0,0.0,4.0,5.0,3.0,4.0,3.0,7.0,0.0,30.9,13.93,0.0,
10.389,315.0,315.0,0.0,0.0,0.0,4.0,5.0,3.0,4.0,3.0,7.0,0.0,30.8,13.93,0.0,
10.402,315.0,315.0,0.0,0.0,0.0,4.0,5.0,3.0,4.0,3.0,7.0,0.0,30.71,14.03,0.0,
10.415,315.0,315.0,0.0,0.0,0.0,4.0,5.0,3.0,4.0,3.0,7.0,0.0,30.71,14.22,0.0,
10.428,315.0,315.0,0.0,0.0,0.0,5.0,5.0,3.0,4.0,3.0,7.0,0.0,30.71,14.32,0.0,
10.441,315.0,315.0,0.0,0.0,0.0,5.0,5.0,3.0,4.0,3.0,7.0,0.0,30.71,14.62,0.0,
10.454,315.0,315.0,0.0,0.0,0.0,5.0,5.0,3.0,4.0,3.0,7.0,0.0,30.8,14.72,0.0,
10.467,315.0,315.0,0.0,0.0,0.0,5.0,5.0,3.0,4.0,3.0,7.0,0.0,30.9,14.81,0.0,
10.48,315.0,315.0,0.0,0.0,0.0,5.0,5.0,3.0,4.0,3.0,7.0,0.0,31.1,14.91,0.0,
10.493,315.0,315.0,0.0,0.0,0.0,5.0,5.0,3.0,4.0,3.0,7.0,0.0,31.2,15.11,0.0,
10.506,315.0,315.0,0.0,0.0,0.0,5.0,5.0,3.0,4.0,3.0,7.0,0.0,31.39,15.3,0.0,
10.519,315.0,315.0,0.0,0.0,0.0,5.0,5.0,3.0,4.0,3.0,7.0,1.0,31.69,15.79,0.0,
10.532,315.0,315.0,0.0,0.0,0.0,5.0,5.0,3.0,4.0,3.0,7.0,1.0,31.98,15.99,0.0,
10.545,315.0,315.0,0.0,0.0,0.0,5.0,5.0,3.0,4.0,3.0,7.0,1.0,32.27,16.19,0.0,
10.558,315.0,315.0,0.0,0.0,0.0,5.0,5.0,3.0,4.0,3.0,7.0,1.0,32.47,16.48,0.0,
10.571,315.0,315.0,0.0,0.0,0.0,5.0,5.0,3.0,4.0,3.0,7.0,1.0,32.77,16.58,0.0,
10.584,315.0,315.0,0.0,0.0,0.0,5.0,5.0,3.0,4.0,3.0,7.0,1.0,32.96,16.78,0.0,
10.597,315.0,315.0,0.0,0.0,0.0,5.0,5.0,3.0,4.0,3.0,7.0,1.0,33.16,16.87,0.0,
10.61,315.0,315.0,0.0,0.0,0.0,5.0,5.0,3.0,4.0,3.0,7.0,1.0,33.55,16.87,0.0,
10.622,315.0,315.0,0.0,0.0,0.0,5.0,5.0,3.0,4.0,3.0,7.0,1.0,33.75,16.97,0.0,
10.636,315.0,315.0,0.0,0.0,0.0,5.0,5.0,3.0,4.0,3.0,7.0,1.0,33.84,16.97,0.0,
10.649,315.0,315.0,0.0,0.0,0.0,5.0,5.0,3.0,4.0,3.0,7.0,1.0,34.04,16.97,0.0,
10.662,315.0,315.0,0.0,0.0,0.0,5.0,5.0,3.0,4.0,3.0,7.0,1.0,34.24,17.07,0.0,
10.675,315.0,315.0,0.0,0.0,0.0,5.0,5.0,3.0,4.0,3.0,7.0,1.0,34.34,16.97,0.0,
10.688,315.0,315.0,0.0,0.0,0.0,5.0,5.0,3.0,4.0,3.0,7.0,1.0,34.63,16.97,0.0,
10.701,315.0,315.0,0.0,0.0,0.0,5.0,5.0,3.0,4.0,3.0,7.0,1.0,34.63,16.87,0.0,
10.714,315.0,315.0,0.0,0.0,0.0,5.0,5.0,3.0,4.0,3.0,7.0,1.0,34.63,16.97,0.0,
10.727,315.0,315.0,0.0,0.0,0.0,5.0,5.0,3.0,4.0,3.0,7.0,1.0,34.63,17.07,0.0,
10.74,315.0,315.0,0.0,0.0,0.0,5.0,5.0,3.0,4.0,3.0,7.0,1.0,34.63,17.27,0.0,
10.753,315.0,315.0,0.0,0.0,0.0,5.0,5.0,4.0,4.0,3.0,7.0,1.0,34.63,17.36,0.0,
10.766,315.0,315.0,0.0,0.0,0.0,5.0,5.0,3.0,4.0,3.0,7.0,1.0,34.73,17.46,0.0,
10.779,315.0,315.0,0.0,0.0,0.0,5.0,5.0,4.0,4.0,3.0,7.0,1.0,34.73,17.36,0.0,
10.792,315.0,315.0,0.0,0.0,0.0,5.0,5.0,3.0,4.0,3.0,7.0,1.0,34.73,17.46,0.0,
10.805,315.0,315.0,0.0,0.0,0.0,5.0,5.0,3.0,4.0,3.0,7.0,1.0,34.83,17.56,0.0,
10.818,315.0,315.0,0.0,0.0,0.0,5.0,5.0,3.0,4.0,3.0,7.0,1.0,34.83,17.66,0.0,
10.831,315.0,315.0,0.0,0.0,0.0,5.0,5.0,3.0,4.0,3.0,7.0,1.0,34.83,17.76,0.0,
10.844,315.0,315.0,0.0,0.0,0.0,5.0,5.0,4.0,4.0,3.0,7.0,1.0,34.73,17.85,0.0,
10.857,315.0,315.0,0.0,0.0,0.0,5.0,5.0,4.0,4.0,3.0,7.0,1.0,34.83,17.85,0.0,
10.87,315.0,315.0,0.0,0.0,0.0,5.0,5.0,4.0,4.0,3.0,7.0,1.0,34.83,17.85,0.0,
10.883,315.0,315.0,0.0,0.0,0.0,5.0,5.0,4.0,4.0,3.0,7.0,1.0,34.83,17.95,0.0,
10.896,315.0,315.0,0.0,0.0,0.0,5.0,5.0,4.0,4.0,3.0,7.0,1.0,34.92,17.95,0.0,
10.909,315.0,315.0,0.0,0.0,0.0,5.0,5.0,4.0,4.0,3.0,7.0,1.0,34.92,18.05,0.0,
10.923,315.0,315.0,0.0,0.0,0.0,5.0,5.0,4.0,4.0,3.0,7.0,1.0,34.92,18.05,0.0,
10.935,315.0,315.0,0.0,0.0,0.0,5.0,5.0,4.0,4.0,3.0,7.0,1.0,34.92,18.05,0.0,
10.948,315.0,315.0,0.0,0.0,0.0,5.0,5.0,3.0,4.0,3.0,7.0,1.0,34.92,18.25,0.0,
10.961,315.0,315.0,0.0,0.0,0.0,5.0,5.0,4.0,4.0,3.0,7.0,1.0,35.02,18.15,0.0,
10.974,315.0,315.0,0.0,0.0,0.0,5.0,5.0,3.0,4.0,3.0,7.0,1.0,35.02,18.34,0.0,
10.987,315.0,315.0,0.0,0.0,0.0,5.0,5.0,4.0,4.0,3.0,7.0,1.0,35.02,18.44,0.0,
11.0,315.0,315.0,0.0,0.0,0.0,5.0,5.0,4.0,4.0,3.0,7.0,1.0,35.12,18.54,0.0,
11.014,315.0,315.0,0.0,0.0,0.0,5.0,5.0,3.0,4.0,3.0,7.0,1.0,35.02,18.54,0.0,
11.026,315.0,315.0,0.0,0.0,0.0,5.0,5.0,3.0,4.0,3.0,7.0,1.0,35.12,18.54,0.0,
11.039,315.0,315.0,0.0,0.0,0.0,5.0,5.0,4.0,4.0,3.0,7.0,1.0,35.22,18.74,0.0,
11.053,315.0,315.0,0.0,0.0,0.0,5.0,5.0,4.0,4.0,3.0,7.0,1.0,35.22,18.64,0.0,
11.065,315.0,315.0,0.0,0.0,0.0,5.0,5.0,4.0,4.0,3.0,7.0,1.0,35.12,18.74,0.0,
11.078,315.0,315.0,0.0,0.0,0.0,5.0,5.0,4.0,4.0,3.0,7.0,1.0,35.12,18.64,0.0,
11.091,315.0,315.0,0.0,0.0,0.0,5.0,5.0,3.0,4.0,3.0,7.0,1.0,35.02,18.64,0.0,
11.104,315.0,315.0,0.0,0.0,0.0,5.0,5.0,3.0,4.0,3.0,7.0,1.0,35.02,18.54,0.0,
11.117,315.0,315.0,0.0,0.0,0.0,5.0,5.0,4.0,4.0,3.0,7.0,1.0,35.02,18.44,0.0,
11.13,315.0,315.0,0.0,0.0,0.0,5.0,5.0,4.0,4.0,3.0,7.0,1.0,34.92,18.44,0.0,
11.144,315.0,315.0,0.0,0.0,0.0,5.0,5.0,3.0,4.0,3.0,7.0,1.0,34.92,18.44,0.0,
11.156,315.0,315.0,0.0,0.0,0.0,5.0,5.0,4.0,4.0,3.0,7.0,1.0,34.92,18.54,0.0,
11.169,315.0,315.0,0.0,0.0,0.0,5.0,5.0,3.0,4.0,3.0,7.0,1.0,34.83,18.64,0.0,
11.183,315.0,315.0,0.0,0.0,0.0,5.0,5.0,3.0,4.0,3.0,7.0,1.0,34.73,18.64,0.0,
11.195,315.0,315.0,0.0,0.0,0.0,5.0,5.0,3.0,4.0,3.0,7.0,1.0,34.73,18.74,0.0,
11.208,315.0,315.0,0.0,0.0,0.0,5.0,5.0,3.0,4.0,3.0,7.0,1.0,34.63,18.93,0.0,
11.222,315.0,315.0,0.0,0.0,0.0,5.0,5.0,3.0,4.0,3.0,7.0,1.0,34.73,18.93,0.0,
11.234,315.0,315.0,0.0,0.0,0.0,5.0,5.0,3.0,4.0,3.0,7.0,1.0,34.63,18.84,0.0,
11.247,315.0,315.0,0.0,0.0,0.0,5.0,5.0,3.0,4.0,3.0,7.0,1.0,34.63,18.74,0.0,
11.26,315.0,315.0,0.0,0.0,0.0,5.0,5.0,3.0,4.0,3.0,7.0,1.0,34.53,18.64,0.0,
11.273,315.0,315.0,0.0,0.0,0.0,5.0,5.0,3.0,4.0,3.0,7.0,1.0,34.53,18.54,0.0,
11.286,315.0,315.0,0.0,0.0,0.0,5.0,5.0,3.0,4.0,3.0,7.0,1.0,34.24,18.54,0.0,
11.299,315.0,315.0,0.0,0.0,0.0,5.0,5.0,3.0,4.0,3.0,7.0,1.0,34.24,18.64,0.0,
11.313,315.0,315.0,0.0,0.0,0.0,5.0,5.0,3.0,4.0,3.0,7.0,1.0,34.24,18.74,0.0,
11.325,315.0,315.0,0.0,0.0,0.0,5.0,5.0,3.0,4.0,3.0,7.0,1.0,34.14,18.84,0.0,
11.338,315.0,315.0,0.0,0.0,0.0,5.0,5.0,3.0,4.0,3.0,7.0,1.0,34.04,18.93,0.0,
11.352,315.0,315.0,0.0,0.0,0.0,5.0,5.0,3.0,4.0,3.0,7.0,1.0,34.04,19.03,0.0,
11.364,315.0,315.0,0.0,0.0,0.0,5.0,5.0,3.0,4.0,3.0,7.0,1.0,33.84,19.13,0.0,
11.377,315.0,315.0,0.0,0.0,0.0,5.0,5.0,3.0,4.0,3.0,7.0,1.0,33.84,19.23,0.0,
11.39,315.0,315.0,0.0,0.0,0.0,5.0,5.0,3.0,4.0,3.0,7.0,1.0,33.75,19.33,0.0,
11.403,315.0,315.0,0.0,0.0,0.0,5.0,5.0,3.0,4.0,3.0,7.0,1.0,33.75,19.33,0.0,
11.416,315.0,315.0,0.0,0.0,0.0,5.0,5.0,3.0,4.0,3.0,7.0,1.0,33.65,19.52,0.0,
11.429,315.0,315.0,0.0,0.0,0.0,5.0,5.0,3.0,4.0,3.0,7.0,1.0,33.65,19.72,0.0,
11.443,315.0,315.0,0.0,0.0,0.0,5.0,5.0,3.0,4.0,3.0,7.0,1.0,33.65,19.82,0.0,
11.455,315.0,315.0,0.0,0.0,0.0,5.0,5.0,3.0,4.0,3.0,7.0,1.0,33.75,19.91,0.0,
11.468,315.0,315.0,0.0,0.0,0.0,5.0,5.0,3.0,4.0,3.0,7.0,1.0,33.84,19.91,0.0,
11.482,315.0,315.0,0.0,0.0,0.0,5.0,5.0,3.0,4.0,3.0,7.0,1.0,33.75,19.91,0.0,
11.494,315.0,315.0,0.0,0.0,0.0,5.0,5.0,3.0,4.0,3.0,7.0,1.0,33.84,19.82,0.0,
11.507,315.0,315.0,0.0,0.0,0.0,5.0,5.0,3.0,4.0,3.0,7.0,1.0,33.75,19.82,0.0,
11.521,315.0,315.0,0.0,0.0,0.0,5.0,5.0,3.0,4.0,3.0,7.0,1.0,33.75,19.82,0.0,
11.534,315.0,315.0,0.0,0.0,0.0,5.0,5.0,3.0,4.0,3.0,7.0,1.0,33.55,19.82,0.0,
11.546,315.0,315.0,0.0,0.0,0.0,5.0,5.0,3.0,4.0,3.0,7.0,1.0,33.45,19.72,0.0,
11.559,315.0,315.0,0.0,0.0,0.0,5.0,5.0,3.0,4.0,3.0,7.0,1.0,33.35,19.62,0.0,
11.573,315.0,315.0,0.0,0.0,0.0,5.0,5.0,3.0,4.0,3.0,7.0,1.0,33.26,19.23,0.0,
11.585,315.0,315.0,0.0,0.0,0.0,5.0,5.0,3.0,4.0,3.0,7.0,1.0,33.06,19.13,0.0,
11.598,315.0,315.0,0.0,0.0,0.0,5.0,5.0,3.0,4.0,3.0,7.0,0.0,32.96,18.84,0.0,
11.612,315.0,315.0,0.0,0.0,0.0,5.0,5.0,3.0,4.0,3.0,7.0,0.0,32.86,18.54,0.0,
11.624,315.0,315.0,0.0,0.0,0.0,5.0,5.0,3.0,4.0,3.0,7.0,0.0,32.37,18.15,0.0,
11.637,315.0,315.0,0.0,0.0,0.0,5.0,5.0,3.0,4.0,3.0,7.0,0.0,32.08,17.56,0.0,
11.651,315.0,315.0,0.0,0.0,0.0,4.0,5.0,3.0,4.0,3.0,7.0,0.0,31.78,16.28,0.0,
11.664,315.0,315.0,0.0,0.0,0.0,4.0,5.0,3.0,4.0,3.0,7.0,0.0,31.49,15.6,0.0,
11.676,315.0,315.0,0.0,0.0,0.0,4.0,5.0,3.0,4.0,3.0,7.0,0.0,31.1,14.72,0.0,
11.689,315.0,315.0,0.0,0.0,0.0,4.0,4.0,3.0,4.0,3.0,6.0,0.0,30.8,13.83,0.0,
11.703,315.0,315.0,0.0,0.0,0.0,4.0,4.0,3.0,4.0,2.0,6.0,0.0,29.53,12.85,0.0,
11.715,315.0,315.0,0.0,0.0,0.0,3.0,4.0,2.0,4.0,2.0,6.0,0.0,28.45,12.07,0.0,
11.728,315.0,315.0,0.0,0.0,0.0,3.0,3.0,2.0,3.0,2.0,5.0,0.0,26.59,11.67,0.0,
11.742,315.0,315.0,0.0,0.0,0.0,2.0,3.0,2.0,3.0,1.0,5.0,0.0,24.03,12.46,0.0,
11.754,315.0,315.0,0.0,0.0,0.0,2.0,3.0,1.0,3.0,1.0,5.0,0.0,21.09,13.64,0.0,
11.767,315.0,315.0,0.0,0.0,0.0,2.0,2.0,1.0,2.0,0.0,4.0,0.0,18.05,14.91,0.0,
11.781,315.0,315.0,0.0,0.0,0.0,1.0,2.0,1.0,2.0,0.0,4.0,0.0,15.4,15.79,0.0,
11.793,315.0,315.0,0.0,0.0,0.0,1.0,2.0,1.0,2.0,0.0,3.0,0.0,11.58,16.28,0.0,
11.806,315.0,315.0,0.0,0.0,0.0,1.0,1.0,1.0,2.0,0.0,3.0,0.0,10.2,15.99,0.0,
11.82,315.0,315.0,0.0,0.0,0.0,1.0,1.0,1.0,2.0,0.0,3.0,0.0,9.12,15.6,0.0,
11.832,315.0,315.0,0.0,0.0,0.0,1.0,2.0,1.0,2.0,0.0,3.0,0.0,8.24,15.21,0.0,
11.845,315.0,315.0,0.0,0.0,0.0,1.0,2.0,1.0,2.0,0.0,3.0,0.0,7.85,14.72,0.0,
11.858,315.0,315.0,0.0,0.0,0.0,1.0,2.0,1.0,2.0,0.0,3.0,0.0,8.24,14.03,0.0,
11.871,315.0,315.0,0.0,0.0,0.0,2.0,2.0,1.0,2.0,1.0,3.0,0.0,10.5,12.46,0.0,
11.884,315.0,315.0,0.0,0.0,0.0,2.0,2.0,2.0,2.0,1.0,4.0,0.0,12.16,11.67,0.0,
11.897,315.0,315.0,0.0,0.0,0.0,2.0,3.0,2.0,3.0,1.0,4.0,0.0,14.13,11.09,0.0,
11.91,315.0,315.0,0.0,0.0,0.0,3.0,3.0,2.0,3.0,2.0,4.0,0.0,16.48,10.59,0.0,
11.923,315.0,315.0,0.0,0.0,0.0,3.0,3.0,2.0,3.0,2.0,4.0,0.0,18.64,10.5,0.0,
11.936,315.0,315.0,0.0,0.0,0.0,3.0,3.0,2.0,3.0,2.0,5.0,0.0,20.7,10.79,0.0,
11.95,315.0,315.0,0.0,0.0,0.0,3.0,3.0,3.0,3.0,2.0,5.0,0.0,22.66,11.77,0.0,
11.962,315.0,315.0,0.0,0.0,0.0,4.0,4.0,3.0,3.0,2.0,5.0,0.0,25.8,12.26,0.0,
11.975,315.0,315.0,0.0,0.0,0.0,4.0,4.0,3.0,3.0,2.0,5.0,0.0,26.98,12.95,0.0,
11.988,315.0,315.0,0.0,0.0,0.0,4.0,4.0,3.0,3.0,2.0,5.0,0.0,27.57,13.73,0.0,
12.001,315.0,315.0,0.0,0.0,0.0,4.0,4.0,3.0,3.0,2.0,5.0,0.0,27.76,14.81,0.0,
12.014,315.0,315.0,0.0,0.0,0.0,4.0,4.0,3.0,3.0,2.0,5.0,0.0,27.66,15.79,0.0,
12.027,315.0,315.0,0.0,0.0,0.0,4.0,4.0,3.0,4.0,2.0,5.0,0.0,27.37,18.34,0.0,
12.04,315.0,315.0,0.0,0.0,0.0,4.0,4.0,3.0,4.0,2.0,5.0,0.0,26.78,19.91,0.0,
12.053,315.0,315.0,0.0,0.0,0.0,4.0,4.0,3.0,4.0,2.0,5.0,0.0,26.49,21.58,0.0,
12.066,315.0,315.0,0.0,0.0,0.0,4.0,4.0,3.0,4.0,2.0,5.0,0.0,26.29,23.15,0.0,
12.08,315.0,315.0,0.0,0.0,0.0,4.0,4.0,3.0,4.0,2.0,5.0,0.0,26.19,24.72,0.0,
12.092,315.0,315.0,0.0,0.0,0.0,4.0,4.0,3.0,4.0,2.0,5.0,0.0,26.29,26.29,0.0,
12.105,315.0,315.0,0.0,0.0,0.0,4.0,4.0,3.0,4.0,2.0,5.0,0.0,26.59,29.53,0.0,
12.119,315.0,315.0,0.0,0.0,0.0,4.0,4.0,3.0,4.0,2.0,5.0,0.0,27.08,31.1,0.0,
12.131,315.0,315.0,0.0,0.0,0.0,4.0,4.0,3.0,4.0,2.0,5.0,0.0,28.65,32.57,0.0,
12.144,315.0,315.0,0.0,0.0,0.0,4.0,4.0,3.0,4.0,2.0,5.0,0.0,29.53,33.75,0.0,
12.157,315.0,315.0,0.0,0.0,0.0,4.0,4.0,3.0,4.0,2.0,5.0,0.0,30.31,34.92,0.0,
12.171,315.0,315.0,0.0,0.0,0.0,5.0,5.0,3.0,4.0,2.0,5.0,0.0,30.8,36.1,0.0,
12.183,315.0,315.0,0.0,0.0,0.0,5.0,5.0,3.0,4.0,2.0,5.0,0.0,31.29,38.65,0.0,
12.196,315.0,315.0,0.0,0.0,0.0,5.0,5.0,3.0,4.0,2.0,5.0,0.0,31.69,40.42,0.0,
12.21,315.0,315.0,0.0,0.0,0.0,5.0,5.0,3.0,4.0,2.0,5.0,0.0,32.18,42.67,0.0,
12.222,315.0,315.0,0.0,0.0,0.0,5.0,5.0,3.0,4.0,2.0,5.0,0.0,32.37,45.32,0.0,
12.235,315.0,315.0,0.0,0.0,0.0,5.0,5.0,3.0,4.0,2.0,5.0,0.0,32.37,48.46,0.0,
12.249,315.0,315.0,0.0,0.0,0.0,5.0,5.0,3.0,4.0,2.0,5.0,0.0,32.37,55.23,0.0,
12.261,315.0,315.0,0.0,0.0,0.0,5.0,5.0,3.0,4.0,2.0,5.0,0.0,32.37,58.76,0.0,
12.274,315.0,315.0,0.0,0.0,0.0,5.0,5.0,3.0,4.0,2.0,5.0,0.0,32.37,62.39,0.0,
12.288,315.0,315.0,0.0,0.0,0.0,5.0,5.0,3.0,5.0,2.0,5.0,0.0,32.27,66.02,0.0,
12.3,315.0,315.0,0.0,0.0,0.0,4.0,5.0,3.0,5.0,2.0,5.0,0.0,31.29,69.85,0.0,
12.313,315.0,315.0,0.0,0.0,0.0,4.0,5.0,3.0,5.0,1.0,5.0,0.0,30.12,74.36,0.0,
12.326,315.0,315.0,0.0,0.0,0.0,4.0,5.0,3.0,5.0,1.0,5.0,0.0,28.55,83.38,0.0,
12.339,315.0,315.0,0.0,0.0,0.0,4.0,5.0,3.0,5.0,1.0,4.0,0.0,27.08,87.31,0.0,
12.352,315.0,315.0,0.0,0.0,0.0,4.0,5.0,2.0,5.0,1.0,4.0,0.0,25.6,91.23,0.0,
12.365,315.0,315.0,0.0,0.0,0.0,3.0,5.0,2.0,5.0,0.0,4.0,0.0,24.23,94.86,0.0,
12.379,315.0,315.0,0.0,0.0,0.0,3.0,5.0,2.0,5.0,0.0,4.0,0.0,21.88,98.0,0.0,
12.391,315.0,315.0,0.0,0.0,0.0,3.0,4.0,2.0,6.0,0.0,4.0,0.0,20.5,100.75,0.0,
12.404,315.0,315.0,0.0,0.0,0.0,2.0,4.0,2.0,6.0,0.0,4.0,0.0,19.03,104.08,0.0,
12.418,315.0,315.0,0.0,0.0,0.0,2.0,4.0,2.0,6.0,0.0,3.0,0.0,17.56,104.18,0.0,
12.43,315.0,315.0,0.0,0.0,0.0,1.0,4.0,2.0,6.0,0.0,3.0,0.0,16.38,103.4,0.0,
12.443,315.0,315.0,0.0,0.0,0.0,1.0,3.0,2.0,6.0,0.0,3.0,0.0,15.4,101.93,0.0,
12.456,315.0,315.0,0.0,0.0,0.0,1.0,3.0,1.0,6.0,0.0,4.0,0.0,14.62,100.06,0.0,
12.47,315.0,315.0,0.0,0.0,0.0,1.0,3.0,1.0,6.0,0.0,3.0,0.0,13.64,97.9,0.0,
12.483,315.0,315.0,0.0,0.0,0.0,1.0,3.0,1.0,6.0,0.0,3.0,0.0,13.24,92.61,0.0,
12.495,315.0,315.0,0.0,0.0,0.0,0.0,3.0,1.0,6.0,0.0,4.0,0.0,13.05,89.47,0.0,
12.509,315.0,315.0,0.0,0.0,0.0,0.0,3.0,1.0,6.0,0.0,3.0,0.0,12.85,85.84,0.39,
12.522,315.0,315.0,0.0,0.0,0.0,0.0,3.0,1.0,6.0,0.0,4.0,0.0,12.85,81.91,1.18,
12.534,315.0,315.0,0.0,0.0,0.0,0.0,3.0,1.0,6.0,0.0,4.0,0.0,13.15,77.79,2.06,
12.548,315.0,315.0,0.0,0.0,0.0,0.0,2.0,1.0,6.0,0.0,4.0,0.0,13.93,69.75,3.04,
12.561,315.0,315.0,0.0,0.0,0.0,0.0,2.0,1.0,6.0,0.0,4.0,0.0,14.52,65.73,4.12,
12.573,315.0,315.0,0.0,0.0,0.0,0.0,2.0,1.0,6.0,0.0,4.0,0.0,15.3,61.9,6.38,
12.587,315.0,315.0,0.0,0.0,0.0,0.0,3.0,1.0,6.0,0.0,4.0,0.0,16.19,57.98,7.36,
12.6,315.0,315.0,0.0,0.0,0.0,0.0,3.0,1.0,6.0,0.0,4.0,0.0,17.07,53.86,8.24,
12.613,315.0,315.0,0.0,0.0,0.0,0.0,3.0,1.0,6.0,0.0,4.0,0.0,17.95,49.54,8.93,
12.625,315.0,315.0,0.0,0.0,0.0,0.0,3.0,1.0,6.0,0.0,5.0,0.0,18.84,40.61,9.71,
12.639,315.0,315.0,0.0,0.0,0.0,0.0,3.0,1.0,6.0,0.0,5.0,0.0,20.5,36.3,10.3,
12.652,315.0,315.0,0.0,0.0,0.0,1.0,4.0,1.0,6.0,0.0,5.0,0.0,21.48,32.08,10.5,
12.665,315.0,315.0,0.0,0.0,0.0,1.0,4.0,2.0,6.0,0.0,6.0,0.0,22.46,28.15,10.2,
12.679,315.0,315.0,0.0,0.0,0.0,2.0,5.0,2.0,6.0,1.0,6.0,0.0,23.54,24.52,9.61,
12.691,315.0,315.0,0.0,0.0,0.0,2.0,5.0,3.0,6.0,1.0,7.0,0.0,24.82,21.78,9.12,
12.704,315.0,315.0,0.0,0.0,0.0,3.0,6.0,3.0,6.0,2.0,7.0,0.0,26.29,17.46,8.83,
12.718,315.0,315.0,0.0,0.0,0.0,3.0,6.0,3.0,6.0,2.0,7.0,0.0,29.92,15.4,8.53,
12.73,315.0,315.0,0.0,0.0,0.0,3.0,6.0,3.0,6.0,3.0,8.0,0.0,31.59,12.95,8.53,
12.743,315.0,315.0,0.0,0.0,0.0,3.0,7.0,3.0,6.0,3.0,8.0,0.0,33.06,10.2,8.83,
12.756,315.0,315.0,0.0,0.0,0.0,3.0,7.0,3.0,6.0,3.0,8.0,0.0,34.53,7.65,9.03,
12.769,315.0,315.0,0.0,0.0,0.0,3.0,7.0,3.0,6.0,4.0,9.0,1.0,36.1,5.4,9.32,
12.782,315.0,315.0,0.0,0.0,0.0,3.0,7.0,3.0,7.0,4.0,9.0,1.0,37.77,2.16,9.42,
12.795,315.0,315.0,0.0,0.0,0.0,3.0,7.0,3.0,7.0,4.0,9.0,1.0,39.53,1.18,9.81,
12.808,315.0,315.0,0.0,0.0,0.0,2.0,7.0,3.0,7.0,5.0,9.0,1.0,42.87,0.29,10.01,
12.821,315.0,315.0,0.0,0.0,0.0,2.0,7.0,3.0,7.0,5.0,10.0,1.0,44.24,0.0,10.3,
12.834,315.0,315.0,0.0,0.0,0.0,2.0,7.0,3.0,7.0,6.0,10.0,1.0,45.62,0.0,10.59,
12.847,315.0,315.0,0.0,0.0,0.0,1.0,7.0,3.0,8.0,6.0,10.0,1.0,46.99,0.0,11.09,
12.86,315.0,315.0,0.0,0.0,0.0,1.0,7.0,3.0,8.0,6.0,11.0,2.0,48.27,0.0,11.58,
12.873,315.0,315.0,0.0,0.0,0.0,0.0,7.0,3.0,8.0,6.0,11.0,2.0,49.54,0.0,12.56,
12.887,315.0,315.0,0.0,0.0,0.0,0.0,6.0,3.0,8.0,7.0,11.0,2.0,52.19,0.0,13.05,
12.899,315.0,315.0,0.0,0.0,0.0,0.0,6.0,2.0,8.0,7.0,11.0,2.0,53.37,0.0,13.54,
12.912,315.0,315.0,0.0,0.0,0.0,0.0,6.0,2.0,8.0,7.0,12.0,2.0,54.54,0.0,13.93,
12.925,315.0,315.0,0.0,0.0,0.0,0.0,6.0,1.0,8.0,7.0,12.0,2.0,55.43,0.0,14.32,
12.939,315.0,315.0,0.0,0.0,0.0,0.0,5.0,1.0,8.0,8.0,0.0,2.0,56.31,0.0,15.4,
12.952,315.0,315.0,0.0,0.0,0.0,0.0,5.0,0.0,8.0,8.0,0.0,2.0,57.29,0.0,15.89,
12.964,315.0,315.0,0.0,0.0,0.0,0.0,4.0,0.0,8.0,8.0,1.0,3.0,58.86,0.0,16.48,
12.978,315.0,315.0,0.0,0.0,0.0,0.0,4.0,0.0,8.0,8.0,2.0,3.0,59.55,0.0,17.17,
12.991,315.0,315.0,0.0,0.0,0.0,0.0,3.0,0.0,8.0,9.0,2.0,3.0,60.04,0.0,17.66,
13.003,315.0,315.0,0.0,0.0,0.0,0.0,3.0,0.0,8.0,9.0,2.0,3.0,60.43,0.0,18.05,
13.017,315.0,315.0,0.0,0.0,0.0,0.0,2.0,0.0,9.0,9.0,3.0,3.0,60.53,0.0,18.34,
13.03,315.0,315.0,0.0,0.0,0.0,0.0,2.0,0.0,9.0,9.0,3.0,3.0,60.63,0.0,18.15,
13.042,315.0,315.0,0.0,0.0,0.0,0.0,2.0,0.0,9.0,9.0,3.0,3.0,60.43,0.0,17.85,
13.056,315.0,315.0,0.0,0.0,0.0,0.0,1.0,0.0,9.0,9.0,4.0,3.0,59.45,0.0,17.66,
13.069,315.0,315.0,0.0,0.0,0.0,0.0,1.0,0.0,9.0,9.0,4.0,3.0,58.66,0.0,17.07,
13.081,315.0,315.0,0.0,0.0,0.0,0.0,1.0,0.0,9.0,9.0,4.0,3.0,57.68,0.0,15.99,
13.094,315.0,315.0,0.0,0.0,0.0,0.0,0.0,0.0,8.0,9.0,4.0,4.0,56.41,0.0,13.73,
13.108,315.0,315.0,0.0,0.0,0.0,0.0,0.0,0.0,8.0,9.0,4.0,4.0,54.94,0.0,12.65,
13.121,315.0,315.0,0.0,0.0,0.0,0.0,0.0,0.0,8.0,7.0,4.0,4.0,53.07,0.0,11.28,
13.133,315.0,315.0,0.0,0.0,0.0,0.0,0.0,0.0,8.0,7.0,3.0,4.0,48.17,0.0,9.71,
13.147,315.0,315.0,0.0,0.0,0.0,0.0,0.0,0.0,8.0,7.0,3.0,4.0,45.42,0.0,8.44,
13.159,315.0,315.0,0.0,0.0,0.0,0.0,0.0,0.0,8.0,7.0,2.0,3.0,42.67,0.0,7.46,
13.172,315.0,315.0,0.0,0.0,0.0,0.0,0.0,0.0,7.0,8.0,12.0,3.0,40.22,0.0,5.69,
13.186,315.0,315.0,0.0,0.0,0.0,0.0,0.0,0.0,7.0,8.0,11.0,3.0,37.96,0.0,5.0,
13.198,315.0,315.0,0.0,0.0,0.0,0.0,0.0,0.0,6.0,6.0,10.0,3.0,35.9,0.0,4.51,
13.211,315.0,315.0,0.0,0.0,0.0,0.0,0.0,0.0,6.0,8.0,8.0,3.0,34.04,0.0,4.81,
13.224,315.0,315.0,0.0,0.0,0.0,0.0,0.0,0.0,5.0,8.0,7.0,2.0,29.72,0.0,5.1,
13.237,315.0,315.0,0.0,0.0,0.0,0.0,0.0,0.0,3.0,9.0,6.0,2.0,26.39,0.0,4.61,
13.25,315.0,315.0,0.0,0.0,0.0,0.0,0.0,0.0,3.0,8.0,5.0,2.0,22.07,0.0,2.75,
13.263,315.0,315.0,0.0,0.0,0.0,0.0,0.0,0.0,2.0,8.0,4.0,1.0,18.05,0.0,1.67,
13.276,315.0,315.0,0.0,0.0,0.0,0.0,0.0,0.0,1.0,7.0,3.0,1.0,14.32,0.0,0.69,
13.289,315.0,315.0,0.0,0.0,0.0,0.0,0.0,0.0,1.0,7.0,2.0,0.0,11.18,0.0,0.0,
13.301,315.0,315.0,0.0,0.0,0.0,0.0,0.0,0.0,0.0,6.0,1.0,0.0,8.53,0.0,0.0,
13.315,315.0,315.0,0.0,0.0,0.0,0.0,0.0,0.0,0.0,2.0,1.0,0.0,3.83,0.0,0.0,
13.327,315.0,315.0,0.0,0.0,0.0,0.0,0.0,0.0,0.0,2.0,1.0,0.0,1.96,0.0,0.0,
13.34,315.0,315.0,0.0,0.0,0.0,0.0,0.0,0.0,0.0,2.0,0.0,0.0,0.49,0.0,0.0,
13.352,315.0,315.0,0.0,0.0,0.0,0.0,0.0,0.0,0.0,2.0,0.0,0.0,0.0,0.0,0.0,
13.366,315.0,315.0,0.0,0.0,0.0,0.0,0.0,0.0,0.0,2.0,0.0,0.0,0.0,0.0,0.29,
13.378,315.0,315.0,0.0,0.0,0.0,0.0,0.0,0.0,0.0,2.0,0.0,0.0,0.0,0.0,0.59,
13.391,315.0,315.0,0.0,0.0,0.0,0.0,0.0,0.0,0.0,2.0,0.0,0.0,0.0,0.0,0.69,
13.404,315.0,315.0,0.0,0.0,0.0,0.0,0.0,0.0,0.0,2.0,0.0,0.0,0.0,0.0,0.59,
13.417,315.0,315.0,0.0,0.0,0.0,0.0,0.0,0.0,0.0,2.0,0.0,0.0,0.0,0.0,0.59,
13.429,315.0,315.0,0.0,0.0,0.0,0.0,0.0,0.0,0.0,2.0,0.0,0.0,0.0,0.0,0.49,
13.443,315.0,315.0,0.0,0.0,0.0,0.0,0.0,0.0,0.0,2.0,0.0,0.0,0.0,0.0,0.49,
13.456,315.0,315.0,0.0,0.0,0.0,0.0,0.0,0.0,0.0,2.0,0.0,0.0,0.0,0.0,0.59,
13.468,315.0,315.0,0.0,0.0,0.0,0.0,0.0,0.0,0.0,2.0,0.0,0.0,0.0,0.0,0.59,
13.48,315.0,315.0,0.0,0.0,0.0,0.0,0.0,0.0,0.0,2.0,0.0,0.0,0.0,0.0,0.49,
13.494,315.0,315.0,0.0,0.0,0.0,0.0,0.0,0.0,0.0,2.0,0.0,0.0,0.0,0.0,0.39,
13.507,315.0,315.0,0.0,0.0,0.0,0.0,0.0,0.0,0.0,2.0,0.0,0.0,0.0,0.0,0.39,
13.519,315.0,315.0,0.0,0.0,0.0,0.0,0.0,0.0,0.0,2.0,0.0,0.0,0.0,0.0,0.49,
13.533,315.0,315.0,0.0,0.0,0.0,0.0,0.0,0.0,0.0,2.0,0.0,0.0,0.0,0.0,0.49,
13.545,315.0,315.0,0.0,0.0,0.0,0.0,0.0,0.0,0.0,2.0,0.0,0.0,0.0,0.0,0.49,
13.558,315.0,315.0,0.0,0.0,0.0,0.0,0.0,0.0,0.0,2.0,0.0,0.0,0.0,0.0,0.39,
13.571,315.0,315.0,0.0,0.0,0.0,0.0,0.0,0.0,0.0,2.0,0.0,0.0,0.0,0.0,0.39,
13.584,315.0,315.0,0.0,0.0,0.0,0.0,0.0,0.0,0.0,2.0,0.0,0.0,0.0,0.0,0.29,
13.596,315.0,315.0,0.0,0.0,0.0,0.0,0.0,0.0,0.0,2.0,0.0,0.0,0.0,0.0,0.39,
13.609,315.0,315.0,0.0,0.0,0.0,0.0,0.0,0.0,0.0,2.0,0.0,0.0,0.0,0.0,0.39,
13.622,315.0,315.0,0.0,0.0,0.0,0.0,0.0,0.0,0.0,2.0,0.0,0.0,0.0,0.0,0.39,
13.635,315.0,315.0,0.0,0.0,0.0,0.0,0.0,0.0,0.0,2.0,0.0,0.0,0.0,0.0,0.39,
13.647,315.0,315.0,0.0,0.0,0.0,0.0,0.0,0.0,0.0,2.0,0.0,0.0,0.0,0.0,0.39,
13.661,315.0,315.0,0.0,0.0,0.0,0.0,0.0,0.0,0.0,2.0,0.0,0.0,0.0,0.0,0.49,
13.673,315.0,315.0,0.0,0.0,0.0,0.0,0.0,0.0,0.0,2.0,0.0,0.0,0.0,0.0,0.49,
13.686,315.0,315.0,0.0,0.0,0.0,0.0,0.0,0.0,0.0,2.0,0.0,0.0,0.0,0.0,0.49,
13.7,315.0,315.0,0.0,0.0,0.0,0.0,0.0,0.0,0.0,2.0,0.0,0.0,0.0,0.0,0.49,
13.712,315.0,315.0,0.0,0.0,0.0,0.0,0.0,0.0,0.0,2.0,0.0,0.0,0.1,0.0,0.49,
13.725,315.0,315.0,0.0,0.0,0.0,0.0,0.0,0.0,0.0,2.0,0.0,0.0,0.0,0.0,0.39,
13.737,315.0,315.0,0.0,0.0,0.0,0.0,0.0,0.0,0.0,2.0,0.0,0.0,0.0,0.0,0.39,
13.751,315.0,315.0,0.0,0.0,0.0,0.0,0.0,0.0,0.0,2.0,0.0,0.0,0.1,0.0,0.39,
13.763,315.0,315.0,0.0,0.0,0.0,0.0,0.0,0.0,0.0,2.0,0.0,0.0,0.1,0.0,0.39,
13.776,315.0,315.0,0.0,0.0,0.0,0.0,0.0,0.0,0.0,2.0,0.0,0.0,0.0,0.0,0.49,
13.789,315.0,315.0,0.0,0.0,0.0,0.0,0.0,0.0,0.0,2.0,0.0,0.0,0.0,0.0,0.39,
13.802,315.0,315.0,0.0,0.0,0.0,0.0,0.0,0.0,0.0,2.0,0.0,0.0,0.0,0.0,0.39,
13.814,315.0,315.0,0.0,0.0,0.0,0.0,0.0,0.0,0.0,2.0,0.0,0.0,0.0,0.0,0.49,
13.828,315.0,315.0,0.0,0.0,0.0,0.0,0.0,0.0,0.0,2.0,0.0,0.0,0.0,0.0,0.49,
13.84,315.0,315.0,0.0,0.0,0.0,0.0,0.0,0.0,0.0,2.0,0.0,0.0,0.0,0.0,0.39,
13.853,315.0,315.0,0.0,0.0,0.0,0.0,0.0,0.0,0.0,2.0,0.0,0.0,0.0,0.0,0.39,
13.867,315.0,315.0,0.0,0.0,0.0,0.0,0.0,0.0,0.0,2.0,0.0,0.0,0.1,0.0,0.49,
13.879,315.0,315.0,0.0,0.0,0.0,0.0,0.0,0.0,0.0,2.0,0.0,0.0,0.1,0.0,0.59,
13.892,315.0,315.0,0.0,0.0,0.0,0.0,0.0,0.0,0.0,2.0,0.0,0.0,0.1,0.0,0.49,
13.904,315.0,315.0,0.0,0.0,0.0,0.0,0.0,0.0,0.0,2.0,0.0,0.0,0.2,0.0,0.59,
13.918,315.0,315.0,0.0,0.0,0.0,0.0,0.0,0.0,0.0,2.0,0.0,0.0,0.2,0.0,0.69,
13.93,315.0,315.0,0.0,0.0,0.0,0.0,0.0,0.0,0.0,2.0,0.0,0.0,0.2,0.0,0.69,
13.943,315.0,315.0,0.0,0.0,0.0,0.0,0.0,0.0,0.0,2.0,0.0,0.0,0.2,0.0,0.69,
13.956,315.0,315.0,0.0,0.0,0.0,0.0,0.0,0.0,0.0,2.0,0.0,0.0,0.29,0.0,0.69,
13.969,315.0,315.0,0.0,0.0,0.0,0.0,0.0,0.0,0.0,2.0,0.0,0.0,0.1,0.0,0.78,
13.981,315.0,315.0,0.0,0.0,0.0,0.0,0.0,0.0,0.0,2.0,0.0,0.0,0.0,0.0,0.78,
13.995,315.0,315.0,0.0,0.0,0.0,0.0,0.0,0.0,0.0,2.0,0.0,0.0,0.0,0.0,0.69,
14.007,315.0,315.0,0.0,0.0,0.0,0.0,0.0,0.0,0.0,2.0,0.0,0.0,0.0,0.0,0.69,
14.02,315.0,315.0,0.0,0.0,0.0,0.0,0.0,0.0,0.0,2.0,0.0,0.0,0.0,0.0,0.69,
14.032,315.0,315.0,0.0,0.0,0.0,0.0,0.0,0.0,0.0,2.0,0.0,0.0,0.0,0.0,0.69,
14.046,315.0,315.0,0.0,0.0,0.0,0.0,0.0,0.0,0.0,2.0,0.0,0.0,0.0,2.75,0.69,
14.058,315.0,315.0,0.0,0.0,0.0,0.0,1.0,0.0,0.0,2.0,0.0,0.0,0.0,9.61,0.69,
14.071,315.0,315.0,0.0,0.0,0.0,0.0,1.0,0.0,0.0,2.0,0.0,0.0,0.0,27.17,0.78,
14.085,315.0,315.0,0.0,0.0,0.0,0.0,2.0,0.0,0.0,2.0,0.0,0.0,0.0,49.83,0.78,
14.097,315.0,315.0,0.0,0.0,0.0,0.0,2.0,0.0,0.0,2.0,0.0,0.0,0.1,65.53,0.69,
14.11,315.0,315.0,0.0,0.0,0.0,0.0,3.0,0.0,0.0,2.0,0.0,0.0,0.29,73.28,0.29,
14.124,315.0,315.0,0.0,0.0,0.0,0.0,3.0,0.0,0.0,2.0,0.0,0.0,0.49,81.52,0.0,
14.136,315.0,315.0,0.0,0.0,0.0,0.0,3.0,0.0,0.0,2.0,0.0,0.0,0.98,82.99,0.0,
14.149,315.0,315.0,0.0,0.0,0.0,0.0,4.0,0.0,0.0,2.0,0.0,0.0,2.94,81.72,0.0,
14.162,315.0,315.0,0.0,0.0,0.0,0.0,4.0,0.0,0.0,2.0,0.0,0.0,4.22,79.95,0.0,
14.175,315.0,315.0,0.0,0.0,0.0,1.0,4.0,1.0,0.0,2.0,0.0,0.0,6.38,80.25,0.0,
14.188,315.0,315.0,0.0,0.0,0.0,2.0,4.0,1.0,0.0,2.0,0.0,0.0,9.81,83.19,0.0,
14.201,315.0,315.0,0.0,0.0,0.0,2.0,4.0,2.0,0.0,2.0,0.0,0.0,14.42,94.96,0.0,
14.214,315.0,315.0,0.0,0.0,0.0,3.0,4.0,2.0,0.0,2.0,0.0,0.0,20.01,101.53,0.0,
14.227,315.0,315.0,0.0,0.0,0.0,3.0,5.0,2.0,0.0,0.0,0.0,0.0,30.31,106.05,0.0,
14.24,315.0,315.0,0.0,0.0,0.0,3.0,5.0,2.0,1.0,1.0,0.0,0.0,34.63,108.69,0.0,
14.254,315.0,315.0,0.0,0.0,0.0,4.0,5.0,2.0,1.0,1.0,0.0,0.0,38.36,109.87,0.0,
14.267,315.0,315.0,0.0,0.0,0.0,4.0,5.0,2.0,1.0,1.0,0.0,0.0,41.59,110.46,0.0,
14.279,315.0,315.0,0.0,0.0,0.0,4.0,6.0,3.0,1.0,2.0,0.0,0.0,44.34,112.13,0.0,
14.292,315.0,315.0,0.0,0.0,0.0,5.0,6.0,3.0,2.0,2.0,0.0,0.0,46.7,113.11,0.0,
14.306,315.0,315.0,0.0,0.0,0.0,5.0,6.0,3.0,2.0,3.0,0.0,0.0,50.33,113.99,0.0,
14.319,315.0,315.0,0.0,0.0,0.0,5.0,6.0,3.0,2.0,4.0,1.0,0.0,51.6,114.38,0.0,
14.332,315.0,315.0,0.0,0.0,0.0,6.0,6.0,3.0,2.0,4.0,1.0,0.0,52.58,114.29,0.0,
14.345,315.0,315.0,0.0,0.0,0.0,6.0,7.0,4.0,3.0,4.0,1.0,0.0,53.17,113.6,0.0,
14.358,315.0,315.0,0.0,0.0,0.0,6.0,7.0,4.0,3.0,5.0,2.0,0.0,53.66,113.11,0.0,
14.371,315.0,315.0,0.0,0.0,0.0,6.0,7.0,4.0,3.0,5.0,2.0,0.0,53.86,112.62,0.0,
14.385,315.0,315.0,0.0,0.0,0.0,6.0,7.0,4.0,3.0,5.0,2.0,0.0,54.05,111.64,0.0,
14.397,315.0,315.0,0.0,0.0,0.0,6.0,7.0,4.0,3.0,5.0,3.0,0.0,54.05,110.17,0.0,
14.41,315.0,315.0,0.0,0.0,0.0,6.0,7.0,4.0,4.0,5.0,3.0,0.0,53.76,108.3,0.0,
14.424,315.0,315.0,0.0,0.0,0.0,6.0,7.0,4.0,4.0,6.0,3.0,0.0,53.27,103.3,0.0,
14.437,315.0,315.0,0.0,0.0,0.0,6.0,7.0,4.0,4.0,6.0,3.0,0.0,52.78,100.55,0.0,
14.45,315.0,315.0,0.0,0.0,0.0,6.0,7.0,4.0,4.0,5.0,3.0,0.0,51.99,97.81,0.0,
14.462,315.0,315.0,0.0,0.0,0.0,6.0,7.0,4.0,4.0,6.0,4.0,0.0,50.91,95.55,0.0,
14.476,315.0,315.0,0.0,0.0,0.0,6.0,7.0,4.0,4.0,6.0,4.0,0.0,47.48,93.69,0.0,
14.489,315.0,315.0,0.0,0.0,0.0,6.0,7.0,4.0,4.0,6.0,4.0,0.0,45.62,89.47,0.0,
14.501,315.0,315.0,0.0,0.0,0.0,6.0,7.0,4.0,5.0,6.0,4.0,0.0,44.15,87.21,0.0,
14.515,315.0,315.0,0.0,0.0,0.0,6.0,7.0,4.0,5.0,6.0,4.0,0.0,42.97,85.05,0.0,
14.528,315.0,315.0,0.0,0.0,0.0,6.0,7.0,4.0,5.0,6.0,4.0,0.0,42.08,82.99,0.0,
14.541,315.0,315.0,0.0,0.0,0.0,6.0,7.0,4.0,5.0,6.0,4.0,0.0,41.4,81.13,0.0,
14.554,315.0,315.0,0.0,0.0,0.0,6.0,7.0,4.0,5.0,6.0,4.0,0.0,41.01,79.26,0.0,
14.567,315.0,315.0,0.0,0.0,0.0,6.0,7.0,4.0,5.0,6.0,4.0,0.0,41.1,75.64,0.0,
14.58,315.0,315.0,0.0,0.0,0.0,6.0,7.0,4.0,5.0,6.0,5.0,0.0,41.4,73.58,0.0,
14.593,315.0,315.0,0.0,0.0,0.0,6.0,7.0,4.0,5.0,6.0,5.0,0.0,41.89,71.12,0.0,
14.606,315.0,315.0,0.0,0.0,0.0,6.0,7.0,4.0,5.0,6.0,5.0,0.0,42.58,68.57,0.0,
14.619,315.0,315.0,0.0,0.0,0.0,6.0,7.0,4.0,5.0,6.0,5.0,0.0,43.26,66.32,0.0,
14.632,315.0,315.0,0.0,0.0,0.0,6.0,7.0,4.0,5.0,6.0,5.0,0.0,44.15,64.16,0.0,
14.645,315.0,315.0,0.0,0.0,0.0,6.0,7.0,4.0,5.0,6.0,6.0,0.0,45.81,58.76,0.0,
14.658,315.0,315.0,0.0,0.0,0.0,6.0,7.0,4.0,6.0,7.0,6.0,0.0,46.89,54.94,0.0,
14.671,315.0,315.0,0.0,0.0,0.0,6.0,7.0,4.0,6.0,7.0,6.0,0.0,48.17,50.33,0.0,
14.684,315.0,315.0,0.0,0.0,0.0,6.0,7.0,4.0,6.0,8.0,6.0,0.0,50.03,45.13,0.0,
14.697,315.0,315.0,0.0,0.0,0.0,6.0,7.0,4.0,6.0,8.0,7.0,0.0,52.78,39.34,0.49,
14.71,315.0,315.0,0.0,0.0,0.0,6.0,7.0,4.0,7.0,8.0,7.0,0.0,56.02,33.65,1.08,
14.723,315.0,315.0,0.0,0.0,0.0,7.0,8.0,4.0,7.0,9.0,8.0,0.0,62.98,24.72,2.35,
14.736,315.0,315.0,0.0,0.0,0.0,7.0,8.0,4.0,7.0,9.0,8.0,1.0,66.51,21.48,3.04,
14.749,315.0,315.0,0.0,0.0,0.0,7.0,8.0,4.0,7.0,10.0,8.0,1.0,69.75,18.64,3.73,
14.763,315.0,315.0,0.0,0.0,0.0,7.0,8.0,4.0,7.0,10.0,9.0,1.0,72.79,16.19,4.32,
14.775,315.0,315.0,0.0,0.0,0.0,7.0,9.0,4.0,7.0,10.0,9.0,1.0,75.54,14.13,4.81,
14.788,315.0,315.0,0.0,0.0,0.0,7.0,9.0,4.0,8.0,10.0,9.0,1.0,78.19,10.89,5.4,
14.801,315.0,315.0,0.0,0.0,0.0,7.0,9.0,4.0,8.0,11.0,10.0,1.0,80.34,9.81,5.98,
14.815,315.0,315.0,0.0,0.0,0.0,7.0,9.0,4.0,8.0,11.0,10.0,2.0,82.6,9.03,6.28,
14.828,315.0,315.0,0.0,0.0,0.0,6.0,9.0,4.0,8.0,11.0,10.0,2.0,82.89,8.24,6.28,
14.84,315.0,315.0,0.0,0.0,0.0,6.0,9.0,4.0,8.0,11.0,10.0,2.0,82.8,7.55,6.28,
14.854,315.0,315.0,0.0,0.0,0.0,6.0,9.0,4.0,8.0,11.0,11.0,2.0,82.31,6.97,6.18,
14.867,315.0,315.0,0.0,0.0,0.0,6.0,9.0,4.0,8.0,11.0,11.0,2.0,81.42,5.89,5.98,
14.88,315.0,315.0,0.0,0.0,0.0,6.0,9.0,4.0,8.0,11.0,11.0,2.0,80.54,5.49,5.89,
14.893,315.0,315.0,0.0,0.0,0.0,6.0,9.0,4.0,8.0,11.0,11.0,2.0,78.48,5.1,5.59,
14.906,315.0,315.0,0.0,0.0,0.0,6.0,9.0,4.0,8.0,11.0,11.0,2.0,77.3,4.81,5.49,
14.919,315.0,315.0,0.0,0.0,0.0,6.0,9.0,4.0,8.0,11.0,11.0,2.0,76.03,4.61,5.4,
14.932,315.0,315.0,0.0,0.0,0.0,6.0,9.0,4.0,8.0,11.0,11.0,2.0,74.65,4.22,5.3,
14.946,315.0,315.0,0.0,0.0,0.0,6.0,9.0,4.0,8.0,11.0,11.0,2.0,73.08,4.12,4.81,
14.958,315.0,315.0,0.0,0.0,0.0,5.0,9.0,4.0,8.0,11.0,11.0,2.0,71.22,3.92,4.71,
14.971,315.0,315.0,0.0,0.0,0.0,5.0,9.0,4.0,8.0,11.0,11.0,2.0,66.71,3.83,4.61,
14.985,315.0,315.0,0.0,0.0,0.0,5.0,9.0,4.0,8.0,11.0,11.0,2.0,64.35,3.73,4.41,
14.998,315.0,315.0,0.0,0.0,0.0,5.0,8.0,4.0,8.0,11.0,11.0,2.0,62.2,3.73,4.12,
15.011,315.0,315.0,0.0,0.0,0.0,5.0,8.0,4.0,8.0,11.0,11.0,2.0,60.04,4.02,3.24,
15.024,315.0,315.0,0.0,0.0,0.0,5.0,8.0,4.0,8.0,11.0,11.0,2.0,57.98,4.22,2.75,
15.037,315.0,315.0,0.0,0.0,0.0,5.0,8.0,4.0,8.0,10.0,11.0,1.0,56.02,4.41,2.26,
15.05,315.0,315.0,0.0,0.0,0.0,5.0,8.0,4.0,8.0,10.0,11.0,1.0,53.46,4.61,1.57,
15.064,315.0,315.0,0.0,0.0,0.0,5.0,8.0,4.0,7.0,10.0,11.0,1.0,52.48,4.71,1.08,
15.076,315.0,315.0,0.0,0.0,0.0,5.0,8.0,4.0,7.0,10.0,10.0,1.0,51.6,4.61,0.49,
15.089,315.0,315.0,0.0,0.0,0.0,5.0,8.0,4.0,7.0,10.0,10.0,1.0,50.82,4.22,0.0,
15.102,315.0,315.0,0.0,0.0,0.0,4.0,8.0,4.0,7.0,10.0,10.0,1.0,50.03,4.02,0.0,
15.116,315.0,315.0,0.0,0.0,0.0,4.0,8.0,4.0,7.0,10.0,10.0,1.0,49.05,3.73,0.0,
15.129,315.0,315.0,0.0,0.0,0.0,4.0,7.0,4.0,7.0,9.0,10.0,1.0,47.19,3.63,0.0,
15.141,315.0,315.0,0.0,0.0,0.0,4.0,7.0,4.0,7.0,9.0,10.0,1.0,46.21,3.43,0.0,
15.155,315.0,315.0,0.0,0.0,0.0,4.0,7.0,4.0,7.0,9.0,10.0,1.0,45.32,3.14,0.0,
15.168,315.0,315.0,0.0,0.0,0.0,4.0,7.0,4.0,6.0,9.0,9.0,1.0,44.54,3.04,0.0,
15.18,315.0,315.0,0.0,0.0,0.0,4.0,7.0,3.0,6.0,9.0,9.0,1.0,43.85,3.14,0.0,
15.194,315.0,315.0,0.0,0.0,0.0,4.0,7.0,3.0,6.0,9.0,9.0,1.0,43.16,3.14,0.0,
15.207,315.0,315.0,0.0,0.0,0.0,4.0,7.0,3.0,6.0,9.0,9.0,1.0,42.48,3.14,0.0,
15.219,315.0,315.0,0.0,0.0,0.0,4.0,7.0,3.0,6.0,9.0,9.0,1.0,40.91,3.24,0.0,
15.233,315.0,315.0,0.0,0.0,0.0,4.0,7.0,3.0,6.0,9.0,9.0,1.0,40.12,3.43,0.0,
15.245,315.0,315.0,0.0,0.0,0.0,4.0,6.0,3.0,6.0,9.0,8.0,1.0,39.24,3.63,0.0,
15.258,315.0,315.0,0.0,0.0,0.0,3.0,6.0,3.0,6.0,9.0,9.0,1.0,38.46,3.63,0.0,
15.271,315.0,315.0,0.0,0.0,0.0,3.0,6.0,3.0,6.0,9.0,8.0,1.0,37.77,3.63,0.0,
15.284,315.0,315.0,0.0,0.0,0.0,3.0,6.0,3.0,6.0,9.0,8.0,1.0,36.98,3.63,0.0,
15.297,315.0,315.0,0.0,0.0,0.0,3.0,6.0,3.0,6.0,9.0,8.0,1.0,36.3,3.73,0.0,
15.309,315.0,315.0,0.0,0.0,0.0,3.0,6.0,3.0,6.0,9.0,8.0,1.0,35.12,3.73,0.0,
15.323,315.0,315.0,0.0,0.0,0.0,3.0,6.0,3.0,6.0,9.0,8.0,1.0,34.53,3.73,0.0,
15.336,315.0,315.0,0.0,0.0,0.0,3.0,6.0,3.0,6.0,9.0,8.0,1.0,33.94,3.83,0.0,
15.348,315.0,315.0,0.0,0.0,0.0,3.0,6.0,3.0,5.0,9.0,8.0,1.0,33.55,3.73,0.0,
15.362,315.0,315.0,0.0,0.0,0.0,3.0,6.0,3.0,5.0,8.0,7.0,1.0,33.16,3.73,0.0,
15.375,315.0,315.0,0.0,0.0,0.0,3.0,5.0,3.0,5.0,8.0,7.0,1.0,32.77,3.63,0.0,
15.387,315.0,315.0,0.0,0.0,0.0,2.0,5.0,2.0,5.0,8.0,7.0,1.0,32.37,3.53,0.0,
15.4,315.0,315.0,0.0,0.0,0.0,2.0,5.0,2.0,5.0,8.0,7.0,1.0,31.88,3.53,0.0,
15.413,315.0,315.0,0.0,0.0,0.0,2.0,5.0,2.0,5.0,8.0,7.0,0.0,31.69,3.43,0.0,
15.426,315.0,315.0,0.0,0.0,0.0,2.0,5.0,2.0,5.0,8.0,7.0,0.0,31.59,3.43,0.0,
15.439,315.0,315.0,0.0,0.0,0.0,2.0,5.0,2.0,5.0,8.0,7.0,0.0,31.29,3.43,0.0,
15.452,315.0,315.0,0.0,0.0,0.0,2.0,5.0,2.0,5.0,8.0,7.0,0.0,31.2,3.34,0.0,
15.465,315.0,315.0,0.0,0.0,0.0,2.0,5.0,2.0,5.0,8.0,7.0,0.0,31.1,3.24,0.0,
15.478,315.0,315.0,0.0,0.0,0.0,2.0,5.0,2.0,5.0,8.0,7.0,0.0,31.0,3.24,0.0,
15.491,315.0,315.0,0.0,0.0,0.0,2.0,5.0,2.0,5.0,8.0,7.0,0.0,30.51,3.14,0.0,
15.504,315.0,315.0,0.0,0.0,0.0,2.0,5.0,2.0,5.0,8.0,7.0,0.0,30.21,3.14,0.0,
15.516,315.0,315.0,0.0,0.0,0.0,2.0,5.0,2.0,5.0,8.0,7.0,0.0,30.02,3.14,0.0,
15.529,315.0,315.0,0.0,0.0,0.0,2.0,5.0,2.0,5.0,8.0,7.0,0.0,29.92,3.14,0.0,
15.543,315.0,315.0,0.0,0.0,0.0,2.0,5.0,2.0,5.0,8.0,7.0,0.0,29.82,3.24,0.0,
15.555,315.0,315.0,0.0,0.0,0.0,2.0,5.0,2.0,5.0,8.0,6.0,0.0,29.72,3.24,0.0,
15.568,315.0,315.0,0.0,0.0,0.0,2.0,5.0,2.0,5.0,8.0,7.0,0.0,29.63,3.24,0.0,
15.581,315.0,315.0,0.0,0.0,0.0,2.0,5.0,2.0,5.0,8.0,7.0,0.0,29.43,3.24,0.0,
15.594,315.0,315.0,0.0,0.0,0.0,2.0,5.0,2.0,5.0,8.0,7.0,0.0,29.33,3.34,0.0,
15.607,315.0,315.0,0.0,0.0,0.0,2.0,5.0,2.0,5.0,8.0,6.0,0.0,29.23,3.34,0.0,
15.62,315.0,315.0,0.0,0.0,0.0,2.0,5.0,2.0,5.0,8.0,6.0,0.0,29.14,3.43,0.0,
15.633,315.0,315.0,0.0,0.0,0.0,2.0,5.0,2.0,5.0,8.0,6.0,0.0,29.04,3.34,0.0,
15.646,315.0,315.0,0.0,0.0,0.0,2.0,5.0,2.0,5.0,8.0,6.0,0.0,28.94,3.43,0.0,
15.659,315.0,315.0,0.0,0.0,0.0,2.0,5.0,2.0,5.0,8.0,6.0,0.0,28.74,3.34,0.0,
15.672,315.0,315.0,0.0,0.0,0.0,2.0,5.0,2.0,5.0,8.0,6.0,0.0,28.74,3.43,0.0,
15.684,315.0,315.0,0.0,0.0,0.0,2.0,5.0,2.0,5.0,8.0,6.0,0.0,28.74,3.43,0.0,
15.697,315.0,315.0,0.0,0.0,0.0,2.0,5.0,2.0,5.0,8.0,6.0,0.0,28.84,3.53,0.0,
15.711,315.0,315.0,0.0,0.0,0.0,2.0,5.0,2.0,5.0,8.0,6.0,0.0,28.74,3.53,0.0,
15.723,315.0,315.0,0.0,0.0,0.0,2.0,5.0,2.0,5.0,7.0,6.0,0.0,28.84,3.63,0.0,
15.736,315.0,315.0,0.0,0.0,0.0,2.0,5.0,2.0,5.0,8.0,6.0,0.0,28.94,3.63,0.0,
15.749,315.0,315.0,0.0,0.0,0.0,2.0,5.0,2.0,5.0,7.0,6.0,0.0,29.14,3.73,0.0,
15.762,315.0,315.0,0.0,0.0,0.0,2.0,5.0,2.0,5.0,7.0,6.0,0.0,29.33,3.83,0.0,
15.775,315.0,315.0,0.0,0.0,0.0,3.0,5.0,2.0,5.0,7.0,6.0,0.0,29.33,3.92,0.0,
15.788,315.0,315.0,0.0,0.0,0.0,3.0,5.0,2.0,5.0,7.0,6.0,0.0,29.43,4.22,0.0,
15.801,315.0,315.0,0.0,0.0,0.0,3.0,5.0,2.0,5.0,7.0,6.0,0.0,29.53,4.32,0.0,
15.814,315.0,315.0,0.0,0.0,0.0,3.0,5.0,2.0,5.0,7.0,6.0,0.0,29.53,4.51,0.0,
15.826,315.0,315.0,0.0,0.0,0.0,3.0,5.0,2.0,5.0,7.0,6.0,0.0,29.43,4.51,0.0,
15.84,315.0,315.0,0.0,0.0,0.0,3.0,5.0,2.0,5.0,7.0,6.0,0.0,29.43,4.61,0.0,
15.852,315.0,315.0,0.0,0.0,0.0,3.0,5.0,2.0,5.0,7.0,6.0,0.0,29.43,4.81,0.0,
15.865,315.0,315.0,0.0,0.0,0.0,3.0,5.0,2.0,5.0,7.0,6.0,0.0,29.43,4.91,0.0,
15.879,315.0,315.0,0.0,0.0,0.0,3.0,5.0,2.0,5.0,7.0,6.0,0.0,29.43,4.91,0.0,
15.891,315.0,315.0,0.0,0.0,0.0,3.0,5.0,2.0,5.0,7.0,6.0,0.0,29.33,5.0,0.0,
15.904,315.0,315.0,0.0,0.0,0.0,3.0,5.0,2.0,5.0,7.0,6.0,0.0,29.23,5.0,0.0,
15.917,315.0,315.0,0.0,0.0,0.0,3.0,5.0,2.0,5.0,7.0,6.0,0.0,29.14,5.0,0.0,
15.93,315.0,315.0,0.0,0.0,0.0,3.0,5.0,2.0,5.0,7.0,6.0,0.0,29.04,5.1,0.0,
15.943,315.0,315.0,0.0,0.0,0.0,3.0,4.0,2.0,4.0,7.0,6.0,0.0,28.94,5.4,0.0,
15.955,315.0,315.0,0.0,0.0,0.0,3.0,4.0,2.0,4.0,7.0,6.0,0.0,28.84,5.59,0.0,
15.969,315.0,315.0,0.0,0.0,0.0,3.0,4.0,2.0,4.0,7.0,6.0,0.0,28.55,5.69,0.0,
15.982,315.0,315.0,0.0,0.0,0.0,3.0,4.0,2.0,4.0,7.0,6.0,0.0,28.45,5.98,0.0,
15.994,315.0,315.0,0.0,0.0,0.0,3.0,4.0,2.0,4.0,7.0,6.0,0.0,28.25,6.28,0.0,
16.008,315.0,315.0,0.0,0.0,0.0,3.0,4.0,2.0,4.0,7.0,6.0,0.0,28.06,6.57,0.0,
16.02,315.0,315.0,0.0,0.0,0.0,3.0,4.0,2.0,4.0,6.0,6.0,0.0,27.66,7.06,0.0,
16.033,315.0,315.0,0.0,0.0,0.0,3.0,4.0,2.0,4.0,6.0,6.0,0.0,27.47,7.36,0.0,
16.047,315.0,315.0,0.0,0.0,0.0,3.0,4.0,2.0,4.0,6.0,6.0,0.0,27.27,7.55,0.0,
16.059,315.0,315.0,0.0,0.0,0.0,3.0,4.0,2.0,4.0,6.0,6.0,0.0,27.08,7.75,0.0,
16.072,315.0,315.0,0.0,0.0,0.0,3.0,4.0,2.0,4.0,6.0,6.0,0.0,26.98,7.95,0.0,
16.086,315.0,315.0,0.0,0.0,0.0,3.0,4.0,2.0,4.0,6.0,6.0,0.0,26.88,8.24,0.0,
16.098,315.0,315.0,0.0,0.0,0.0,3.0,4.0,2.0,4.0,6.0,6.0,0.0,26.88,8.53,0.0,
16.111,315.0,315.0,0.0,0.0,0.0,3.0,4.0,2.0,4.0,6.0,6.0,0.0,26.68,8.63,0.0,
16.123,315.0,315.0,0.0,0.0,0.0,3.0,4.0,2.0,4.0,6.0,6.0,0.0,26.59,8.73,0.0,
16.137,315.0,315.0,0.0,0.0,0.0,3.0,4.0,2.0,4.0,6.0,5.0,0.0,26.49,8.73,0.0,
16.15,315.0,315.0,0.0,0.0,0.0,3.0,4.0,2.0,4.0,6.0,6.0,0.0,26.49,8.73,0.0,
16.162,315.0,315.0,0.0,0.0,0.0,3.0,4.0,2.0,4.0,6.0,6.0,0.0,26.59,8.83,0.0,
16.176,315.0,315.0,0.0,0.0,0.0,3.0,4.0,2.0,4.0,6.0,6.0,0.0,26.49,8.93,0.0,
16.188,315.0,315.0,0.0,0.0,0.0,3.0,4.0,2.0,4.0,6.0,6.0,0.0,26.29,8.93,0.0,
16.201,315.0,315.0,0.0,0.0,0.0,3.0,4.0,2.0,4.0,6.0,6.0,0.0,26.19,8.93,0.0,
16.215,315.0,315.0,0.0,0.0,0.0,3.0,4.0,2.0,4.0,6.0,6.0,0.0,26.09,8.93,0.0,
16.227,315.0,315.0,0.0,0.0,0.0,3.0,4.0,2.0,4.0,6.0,6.0,0.0,26.09,8.93,0.0,
16.24,315.0,315.0,0.0,0.0,0.0,3.0,4.0,2.0,4.0,6.0,6.0,0.0,26.09,8.93,0.0,
16.253,315.0,315.0,0.0,0.0,0.0,3.0,4.0,2.0,4.0,6.0,6.0,0.0,26.0,9.03,0.0,
16.266,315.0,315.0,0.0,0.0,0.0,3.0,4.0,2.0,4.0,6.0,6.0,0.0,25.9,8.93,0.0,
16.279,315.0,315.0,0.0,0.0,0.0,3.0,4.0,2.0,4.0,6.0,6.0,0.0,26.0,8.93,0.0,
16.291,315.0,315.0,0.0,0.0,0.0,3.0,4.0,2.0,4.0,6.0,6.0,0.0,25.9,8.93,0.0,
16.305,315.0,315.0,0.0,0.0,0.0,3.0,4.0,2.0,4.0,6.0,6.0,0.0,25.8,8.93,0.0,
16.318,315.0,315.0,0.0,0.0,0.0,3.0,4.0,2.0,4.0,6.0,6.0,0.0,25.9,8.93,0.0,
16.33,315.0,315.0,0.0,0.0,0.0,3.0,4.0,2.0,4.0,6.0,6.0,0.0,25.9,9.12,0.0,
16.344,315.0,315.0,0.0,0.0,0.0,3.0,4.0,2.0,4.0,6.0,6.0,0.0,25.9,9.12,0.0,
16.356,315.0,315.0,0.0,0.0,0.0,3.0,4.0,2.0,4.0,6.0,6.0,0.0,25.9,9.03,0.0,
16.369,315.0,315.0,0.0,0.0,0.0,3.0,4.0,2.0,4.0,6.0,6.0,0.0,25.8,9.03,0.0,
16.382,315.0,315.0,0.0,0.0,0.0,3.0,4.0,2.0,4.0,6.0,6.0,0.0,25.8,9.03,0.0,
16.395,315.0,315.0,0.0,0.0,0.0,3.0,4.0,2.0,4.0,6.0,6.0,0.0,25.7,9.03,0.0,
16.408,315.0,315.0,0.0,0.0,0.0,3.0,4.0,2.0,4.0,6.0,6.0,0.0,25.6,8.93,0.0,
16.421,315.0,315.0,0.0,0.0,0.0,3.0,4.0,2.0,4.0,6.0,6.0,0.0,25.6,8.83,0.0,
16.434,315.0,315.0,0.0,0.0,0.0,3.0,4.0,2.0,4.0,6.0,6.0,0.0,25.51,8.83,0.0,
16.447,315.0,315.0,0.0,0.0,0.0,3.0,4.0,2.0,4.0,6.0,5.0,0.0,25.41,8.83,0.0,
16.459,315.0,315.0,0.0,0.0,0.0,3.0,4.0,2.0,4.0,6.0,6.0,0.0,25.21,8.73,0.0,
16.473,315.0,315.0,0.0,0.0,0.0,3.0,4.0,2.0,4.0,6.0,6.0,0.0,25.21,8.83,0.0,
16.486,315.0,315.0,0.0,0.0,0.0,3.0,4.0,2.0,4.0,6.0,6.0,0.0,25.02,9.12,0.0,
16.498,315.0,315.0,0.0,0.0,0.0,3.0,4.0,2.0,4.0,6.0,6.0,0.0,24.82,9.22,0.0,
16.512,315.0,315.0,0.0,0.0,0.0,3.0,4.0,2.0,4.0,6.0,6.0,0.0,24.72,9.52,0.0,
16.524,315.0,315.0,0.0,0.0,0.0,3.0,4.0,2.0,4.0,6.0,6.0,0.0,24.62,9.91,0.0,
16.537,315.0,315.0,0.0,0.0,0.0,3.0,4.0,2.0,4.0,6.0,5.0,0.0,24.43,10.2,0.0,
16.55,315.0,315.0,0.0,0.0,0.0,3.0,4.0,2.0,4.0,6.0,5.0,0.0,24.33,10.4,0.0,
16.563,315.0,315.0,0.0,0.0,0.0,3.0,4.0,2.0,4.0,6.0,5.0,0.0,24.13,10.99,0.0,
16.576,315.0,315.0,0.0,0.0,0.0,3.0,4.0,2.0,4.0,6.0,5.0,0.0,24.13,11.18,0.0,
16.589,315.0,315.0,0.0,0.0,0.0,3.0,4.0,2.0,4.0,6.0,5.0,0.0,24.03,11.48,0.0,
16.603,315.0,315.0,0.0,0.0,0.0,3.0,4.0,2.0,4.0,6.0,5.0,0.0,24.03,11.77,0.0,
16.615,315.0,315.0,0.0,0.0,0.0,3.0,4.0,2.0,4.0,6.0,5.0,0.0,23.94,11.97,0.0,
16.628,315.0,315.0,0.0,0.0,0.0,3.0,4.0,2.0,4.0,6.0,5.0,0.0,23.84,12.16,0.0,
16.642,315.0,315.0,0.0,0.0,0.0,3.0,4.0,2.0,4.0,6.0,5.0,0.0,23.74,12.26,0.0,
16.654,315.0,315.0,0.0,0.0,0.0,3.0,4.0,2.0,4.0,6.0,5.0,0.0,23.74,12.36,0.0,
16.667,315.0,315.0,0.0,0.0,0.0,3.0,4.0,2.0,4.0,6.0,5.0,0.0,23.84,12.46,0.0,
16.68,315.0,315.0,0.0,0.0,0.0,3.0,4.0,2.0,4.0,6.0,5.0,0.0,23.84,12.46,0.0,
16.693,315.0,315.0,0.0,0.0,0.0,3.0,4.0,2.0,4.0,6.0,5.0,0.0,23.84,12.56,0.0,
16.706,315.0,315.0,0.0,0.0,0.0,3.0,4.0,2.0,4.0,6.0,5.0,0.0,23.84,12.65,0.0,
16.719,315.0,315.0,0.0,0.0,0.0,3.0,4.0,2.0,4.0,6.0,5.0,0.0,23.74,12.65,0.0,
16.733,315.0,315.0,0.0,0.0,0.0,3.0,4.0,2.0,4.0,6.0,5.0,0.0,23.74,12.65,0.0,
16.745,315.0,315.0,0.0,0.0,0.0,3.0,4.0,2.0,4.0,6.0,5.0,0.0,23.74,12.56,0.0,
16.758,315.0,315.0,0.0,0.0,0.0,3.0,4.0,2.0,4.0,6.0,5.0,0.0,23.64,12.56,0.0,
16.772,315.0,315.0,0.0,0.0,0.0,3.0,4.0,2.0,4.0,6.0,5.0,0.0,23.54,12.56,0.0,
16.784,315.0,315.0,0.0,0.0,0.0,3.0,4.0,2.0,4.0,6.0,5.0,0.0,23.45,12.65,0.0,
16.797,315.0,315.0,0.0,0.0,0.0,3.0,4.0,2.0,4.0,6.0,5.0,0.0,23.25,12.46,0.0,
16.811,315.0,315.0,0.0,0.0,0.0,2.0,4.0,2.0,4.0,6.0,5.0,0.0,23.15,12.46,0.0,
16.823,315.0,315.0,0.0,0.0,0.0,2.0,4.0,2.0,4.0,5.0,5.0,0.0,23.05,12.56,0.0,
16.836,315.0,315.0,0.0,0.0,0.0,2.0,4.0,2.0,4.0,5.0,5.0,0.0,22.86,12.56,0.0,
16.849,315.0,315.0,0.0,0.0,0.0,2.0,4.0,2.0,4.0,5.0,5.0,0.0,22.76,12.75,0.0,
16.863,315.0,315.0,0.0,0.0,0.0,2.0,4.0,2.0,4.0,5.0,5.0,0.0,22.56,12.95,0.0,
16.875,315.0,315.0,0.0,0.0,0.0,2.0,4.0,2.0,4.0,5.0,5.0,0.0,22.46,13.15,0.0,
16.888,315.0,315.0,0.0,0.0,0.0,2.0,4.0,2.0,4.0,5.0,5.0,0.0,22.17,13.34,0.0,
16.902,315.0,315.0,0.0,0.0,0.0,2.0,4.0,2.0,4.0,5.0,5.0,0.0,22.07,13.34,0.0,
16.914,315.0,315.0,0.0,0.0,0.0,2.0,4.0,2.0,4.0,5.0,5.0,0.0,21.88,13.44,0.0,
16.927,315.0,315.0,0.0,0.0,0.0,2.0,4.0,2.0,4.0,5.0,5.0,0.0,21.68,13.54,0.0,
16.941,315.0,315.0,0.0,0.0,0.0,2.0,4.0,2.0,4.0,5.0,5.0,0.0,21.58,13.34,0.0,
16.954,315.0,315.0,0.0,0.0,0.0,2.0,4.0,2.0,4.0,5.0,5.0,0.0,21.48,13.05,0.0,
16.966,315.0,315.0,0.0,0.0,0.0,2.0,4.0,2.0,4.0,5.0,5.0,0.0,21.39,12.85,0.0,
16.979,315.0,315.0,0.0,0.0,0.0,2.0,4.0,2.0,4.0,5.0,5.0,0.0,21.29,12.75,0.0,
16.993,315.0,315.0,0.0,0.0,0.0,2.0,4.0,2.0,4.0,5.0,5.0,0.0,21.09,12.56,0.0,
17.005,315.0,315.0,0.0,0.0,0.0,2.0,3.0,2.0,4.0,5.0,5.0,0.0,20.99,12.46,0.0,
17.018,315.0,315.0,0.0,0.0,0.0,2.0,4.0,2.0,4.0,5.0,5.0,0.0,20.9,12.46,0.0,
17.032,315.0,315.0,0.0,0.0,0.0,2.0,3.0,2.0,4.0,5.0,5.0,0.0,20.7,12.56,0.0,
17.044,315.0,315.0,0.0,0.0,0.0,2.0,3.0,2.0,4.0,5.0,5.0,0.0,20.7,12.65,0.0,
17.057,315.0,315.0,0.0,0.0,0.0,2.0,3.0,2.0,4.0,5.0,5.0,0.0,20.4,12.75,0.0,
17.071,315.0,315.0,0.0,0.0,0.0,2.0,3.0,2.0,4.0,5.0,5.0,0.0,20.31,12.75,0.0,
17.083,315.0,315.0,0.0,0.0,0.0,2.0,3.0,2.0,4.0,5.0,5.0,0.0,20.21,12.75,0.0,
17.096,315.0,315.0,0.0,0.0,0.0,2.0,3.0,2.0,4.0,5.0,5.0,0.0,20.11,12.65,0.0,
17.11,315.0,315.0,0.0,0.0,0.0,2.0,3.0,2.0,4.0,5.0,5.0,0.0,20.01,12.46,0.0,
17.123,315.0,315.0,0.0,0.0,0.0,2.0,3.0,2.0,4.0,5.0,5.0,0.0,19.91,12.16,0.0,
17.135,315.0,315.0,0.0,0.0,0.0,2.0,3.0,2.0,4.0,5.0,5.0,0.0,19.82,12.07,0.0,
17.148,315.0,315.0,0.0,0.0,0.0,2.0,3.0,2.0,4.0,5.0,5.0,0.0,19.72,11.77,0.0,
17.162,315.0,315.0,0.0,0.0,0.0,2.0,3.0,2.0,4.0,5.0,5.0,0.0,19.62,11.58,0.0,
17.174,315.0,315.0,0.0,0.0,0.0,2.0,3.0,2.0,4.0,5.0,5.0,0.0,19.52,11.18,0.0,
17.187,315.0,315.0,0.0,0.0,0.0,2.0,3.0,2.0,4.0,5.0,5.0,0.0,19.42,10.99,0.0,
17.201,315.0,315.0,0.0,0.0,0.0,2.0,3.0,2.0,4.0,5.0,5.0,0.0,19.33,10.69,0.0,
17.213,315.0,315.0,0.0,0.0,0.0,2.0,3.0,2.0,4.0,5.0,5.0,0.0,19.33,10.59,0.0,
17.226,315.0,315.0,0.0,0.0,0.0,2.0,3.0,2.0,4.0,5.0,5.0,0.0,19.23,10.5,0.0,
17.24,315.0,315.0,0.0,0.0,0.0,2.0,3.0,2.0,4.0,5.0,5.0,0.0,19.13,10.4,0.0,
17.253,315.0,315.0,0.0,0.0,0.0,2.0,3.0,2.0,4.0,5.0,5.0,0.0,19.13,10.4,0.0,
17.265,315.0,315.0,0.0,0.0,0.0,2.0,3.0,2.0,4.0,5.0,5.0,0.0,19.13,10.5,0.0,
17.278,315.0,315.0,0.0,0.0,0.0,2.0,3.0,2.0,4.0,5.0,5.0,0.0,19.23,10.59,0.0,
17.292,315.0,315.0,0.0,0.0,0.0,2.0,3.0,2.0,4.0,5.0,5.0,0.0,19.23,10.69,0.0,
17.304,315.0,315.0,0.0,0.0,0.0,2.0,3.0,2.0,4.0,5.0,5.0,0.0,19.13,10.89,0.0,
17.317,315.0,315.0,0.0,0.0,0.0,2.0,3.0,2.0,4.0,5.0,5.0,0.0,19.13,11.18,0.0,
17.331,315.0,315.0,0.0,0.0,0.0,2.0,3.0,2.0,4.0,5.0,5.0,0.0,19.23,11.38,0.0,
17.343,315.0,315.0,0.0,0.0,0.0,2.0,3.0,2.0,4.0,5.0,5.0,0.0,19.13,11.48,0.0,
17.356,315.0,315.0,0.0,0.0,0.0,2.0,3.0,2.0,4.0,5.0,5.0,0.0,19.03,11.48,0.0,
17.37,315.0,315.0,0.0,0.0,0.0,2.0,3.0,2.0,4.0,5.0,5.0,0.0,18.84,11.48,0.0,
17.383,315.0,315.0,0.0,0.0,0.0,2.0,3.0,2.0,4.0,5.0,5.0,0.0,18.84,11.38,0.0,
17.395,315.0,315.0,0.0,0.0,0.0,2.0,3.0,2.0,4.0,5.0,5.0,0.0,18.74,11.38,0.0,
17.409,315.0,315.0,0.0,0.0,0.0,2.0,3.0,2.0,4.0,5.0,5.0,0.0,18.64,11.48,0.0,
17.422,315.0,315.0,0.0,0.0,0.0,2.0,3.0,2.0,4.0,5.0,5.0,0.0,18.54,11.48,0.0,
17.434,315.0,315.0,0.0,0.0,0.0,2.0,3.0,2.0,4.0,5.0,5.0,0.0,18.44,11.48,0.0,
17.447,315.0,315.0,0.0,0.0,0.0,2.0,3.0,2.0,4.0,5.0,5.0,0.0,18.44,11.58,0.0,
17.461,315.0,315.0,0.0,0.0,0.0,2.0,3.0,2.0,4.0,5.0,5.0,0.0,18.44,11.77,0.0,
17.474,315.0,315.0,0.0,0.0,0.0,2.0,3.0,2.0,4.0,5.0,5.0,0.0,18.54,12.07,0.0,
17.486,315.0,315.0,0.0,0.0,0.0,2.0,3.0,2.0,4.0,5.0,5.0,0.0,18.64,12.16,0.0,
17.5,315.0,315.0,0.0,0.0,0.0,2.0,3.0,2.0,4.0,5.0,5.0,0.0,18.64,12.16,0.0,
17.513,315.0,315.0,0.0,0.0,0.0,2.0,3.0,2.0,4.0,5.0,5.0,0.0,18.64,12.16,0.0,
17.525,315.0,315.0,0.0,0.0,0.0,2.0,3.0,2.0,4.0,5.0,5.0,0.0,18.74,12.07,0.0,
17.539,315.0,315.0,0.0,0.0,0.0,2.0,3.0,2.0,4.0,5.0,5.0,0.0,18.93,12.07,0.0,
17.552,315.0,315.0,0.0,0.0,0.0,2.0,3.0,2.0,4.0,6.0,5.0,0.0,18.84,11.87,0.0,
17.564,315.0,315.0,0.0,0.0,0.0,2.0,3.0,2.0,4.0,6.0,5.0,0.0,19.03,11.97,0.0,
17.577,315.0,315.0,0.0,0.0,0.0,2.0,3.0,2.0,4.0,6.0,5.0,0.0,19.03,11.87,0.0,
17.591,315.0,315.0,0.0,0.0,0.0,2.0,3.0,2.0,4.0,6.0,5.0,0.0,19.13,11.87,0.0,
17.604,315.0,315.0,0.0,0.0,0.0,2.0,3.0,2.0,4.0,6.0,5.0,0.0,19.13,11.97,0.0,
17.616,315.0,315.0,0.0,0.0,0.0,2.0,3.0,2.0,4.0,6.0,5.0,0.0,19.23,12.16,0.0,
17.63,315.0,315.0,0.0,0.0,0.0,2.0,3.0,2.0,4.0,6.0,5.0,0.0,19.33,12.36,0.0,
17.643,315.0,315.0,0.0,0.0,0.0,2.0,3.0,2.0,4.0,6.0,5.0,0.0,19.42,12.36,0.0,
17.655,315.0,315.0,0.0,0.0,0.0,2.0,3.0,2.0,4.0,6.0,5.0,0.0,19.52,12.56,0.0,
17.669,315.0,315.0,0.0,0.0,0.0,2.0,4.0,2.0,4.0,6.0,5.0,0.0,19.52,12.85,0.0,
17.682,315.0,315.0,0.0,0.0,0.0,2.0,4.0,2.0,4.0,6.0,5.0,0.0,19.52,12.95,0.0,
17.694,315.0,315.0,0.0,0.0,0.0,2.0,4.0,2.0,4.0,6.0,5.0,0.0,19.52,13.05,0.0,
17.708,315.0,315.0,0.0,0.0,0.0,2.0,4.0,2.0,4.0,6.0,5.0,0.0,19.62,13.05,0.0,
17.721,315.0,315.0,0.0,0.0,0.0,2.0,4.0,2.0,4.0,6.0,5.0,0.0,19.62,13.15,0.0,
17.734,315.0,315.0,0.0,0.0,0.0,2.0,4.0,2.0,4.0,6.0,5.0,0.0,19.82,13.34,0.0,
17.746,315.0,315.0,0.0,0.0,0.0,2.0,4.0,2.0,4.0,6.0,5.0,0.0,19.82,13.34,0.0,
17.76,315.0,315.0,0.0,0.0,0.0,2.0,4.0,2.0,4.0,6.0,5.0,0.0,19.91,13.34,0.0,
17.773,315.0,315.0,0.0,0.0,0.0,2.0,4.0,2.0,4.0,6.0,5.0,0.0,19.91,13.54,0.0,
17.785,315.0,315.0,0.0,0.0,0.0,2.0,4.0,2.0,4.0,6.0,5.0,0.0,20.01,13.64,0.0,
17.799,315.0,315.0,0.0,0.0,0.0,2.0,4.0,2.0,4.0,6.0,5.0,0.0,20.11,13.73,0.0,
17.812,315.0,315.0,0.0,0.0,0.0,2.0,4.0,2.0,4.0,6.0,5.0,0.0,20.4,13.73,0.0,
17.824,315.0,315.0,0.0,0.0,0.0,3.0,4.0,2.0,4.0,6.0,5.0,0.0,20.6,13.73,0.0,
17.838,315.0,315.0,0.0,0.0,0.0,3.0,4.0,2.0,4.0,6.0,5.0,0.0,20.6,13.73,0.0,
17.851,315.0,315.0,0.0,0.0,0.0,3.0,4.0,2.0,4.0,6.0,5.0,0.0,20.8,13.93,0.0,
17.864,315.0,315.0,0.0,0.0,0.0,3.0,4.0,2.0,4.0,6.0,5.0,0.0,20.9,14.03,0.0,
17.876,315.0,315.0,0.0,0.0,0.0,3.0,4.0,2.0,4.0,6.0,6.0,0.0,20.99,14.13,0.0,
17.89,315.0,315.0,0.0,0.0,0.0,3.0,4.0,2.0,4.0,6.0,6.0,0.0,21.09,14.22,0.0,
17.903,315.0,315.0,0.0,0.0,0.0,3.0,4.0,2.0,4.0,6.0,6.0,0.0,21.39,14.22,0.0,
17.915,315.0,315.0,0.0,0.0,0.0,3.0,4.0,2.0,4.0,6.0,6.0,0.0,21.48,14.32,0.0,
17.929,315.0,315.0,0.0,0.0,0.0,3.0,4.0,2.0,4.0,6.0,6.0,0.0,21.58,14.62,0.0,
17.942,315.0,315.0,0.0,0.0,0.0,3.0,4.0,2.0,4.0,6.0,6.0,0.0,21.58,14.72,0.0,
17.954,315.0,315.0,0.0,0.0,0.0,3.0,4.0,2.0,4.0,6.0,6.0,0.0,21.58,14.81,0.0,
17.968,315.0,315.0,0.0,0.0,0.0,3.0,4.0,2.0,4.0,6.0,6.0,0.0,21.68,14.91,0.0,
17.981,315.0,315.0,0.0,0.0,0.0,3.0,4.0,2.0,4.0,6.0,6.0,0.0,21.78,15.01,0.0,
17.994,315.0,315.0,0.0,0.0,0.0,3.0,4.0,2.0,4.0,6.0,6.0,0.0,21.78,15.3,0.0,
18.007,315.0,315.0,0.0,0.0,0.0,3.0,4.0,2.0,4.0,6.0,6.0,0.0,21.78,15.4,0.0,
18.02,315.0,315.0,0.0,0.0,0.0,3.0,4.0,2.0,4.0,6.0,6.0,0.0,21.88,15.6,0.0,
18.033,315.0,315.0,0.0,0.0,0.0,3.0,4.0,2.0,4.0,6.0,6.0,0.0,21.88,15.79,0.0,
18.045,315.0,315.0,0.0,0.0,0.0,3.0,4.0,2.0,4.0,6.0,6.0,0.0,21.97,15.99,0.0,
18.059,315.0,315.0,0.0,0.0,0.0,3.0,4.0,2.0,4.0,6.0,6.0,0.0,22.17,16.19,0.0,
18.072,315.0,315.0,0.0,0.0,0.0,3.0,4.0,2.0,4.0,6.0,6.0,0.0,22.37,16.38,0.0,
18.084,315.0,315.0,0.0,0.0,0.0,3.0,4.0,2.0,4.0,6.0,6.0,0.0,22.56,16.48,0.0,
18.098,315.0,315.0,0.0,0.0,0.0,3.0,4.0,2.0,4.0,6.0,6.0,0.0,22.76,16.48,0.0,
18.111,315.0,315.0,0.0,0.0,0.0,3.0,4.0,2.0,4.0,6.0,6.0,0.0,23.05,16.58,0.0,
18.124,315.0,315.0,0.0,0.0,0.0,3.0,4.0,3.0,4.0,6.0,6.0,0.0,23.25,16.58,0.0,
18.137,315.0,315.0,0.0,0.0,0.0,3.0,4.0,3.0,4.0,6.0,6.0,0.0,23.45,16.78,0.0,
18.15,315.0,315.0,0.0,0.0,0.0,3.0,4.0,3.0,4.0,6.0,6.0,0.0,23.84,17.17,0.0,
18.163,315.0,315.0,0.0,0.0,0.0,3.0,4.0,3.0,4.0,6.0,6.0,0.0,24.13,17.56,0.0,
18.176,315.0,315.0,0.0,0.0,0.0,3.0,4.0,3.0,4.0,6.0,6.0,0.0,24.43,17.85,0.0,
18.189,315.0,315.0,0.0,0.0,0.0,3.0,4.0,3.0,4.0,6.0,6.0,0.0,24.52,18.05,0.0,
18.202,315.0,315.0,0.0,0.0,0.0,3.0,4.0,3.0,4.0,6.0,6.0,0.0,24.72,18.05,0.0,
18.214,315.0,315.0,0.0,0.0,0.0,3.0,4.0,3.0,5.0,6.0,6.0,0.0,24.92,18.15,0.0,
18.228,315.0,315.0,0.0,0.0,0.0,3.0,4.0,3.0,5.0,6.0,6.0,0.0,25.11,18.34,0.0,
18.241,315.0,315.0,0.0,0.0,0.0,3.0,4.0,3.0,5.0,6.0,6.0,0.0,25.41,18.34,0.0,
18.254,315.0,315.0,0.0,0.0,0.0,3.0,4.0,3.0,5.0,6.0,6.0,0.0,25.51,18.44,0.0,
18.267,315.0,315.0,0.0,0.0,0.0,3.0,4.0,3.0,5.0,6.0,6.0,0.0,25.7,18.34,0.0,
18.28,315.0,315.0,0.0,0.0,0.0,3.0,4.0,3.0,5.0,6.0,6.0,0.0,25.7,18.25,0.0,
18.293,315.0,315.0,0.0,0.0,0.0,3.0,4.0,3.0,5.0,6.0,6.0,0.0,25.8,18.15,0.0,
18.306,315.0,315.0,0.0,0.0,0.0,3.0,5.0,3.0,5.0,6.0,6.0,0.0,25.9,17.66,0.0,
18.319,315.0,315.0,0.0,0.0,0.0,3.0,5.0,3.0,5.0,6.0,6.0,0.0,26.29,17.46,0.0,
18.332,315.0,315.0,0.0,0.0,0.0,3.0,5.0,3.0,5.0,6.0,6.0,0.0,26.29,17.17,0.0,
18.344,315.0,315.0,0.0,0.0,0.0,3.0,5.0,3.0,5.0,6.0,6.0,0.0,26.39,16.87,0.0,
18.358,315.0,315.0,0.0,0.0,0.0,3.0,4.0,3.0,5.0,6.0,6.0,0.0,26.39,16.58,0.0,
18.371,315.0,315.0,0.0,0.0,0.0,3.0,4.0,3.0,5.0,6.0,6.0,0.0,26.39,16.19,0.0,
18.384,315.0,315.0,0.0,0.0,0.0,3.0,4.0,3.0,5.0,6.0,6.0,0.0,26.39,15.99,0.0,
18.397,315.0,315.0,0.0,0.0,0.0,3.0,4.0,3.0,5.0,6.0,6.0,0.0,26.29,15.89,0.0,
18.41,315.0,315.0,0.0,0.0,0.0,3.0,4.0,3.0,5.0,6.0,6.0,0.0,26.0,15.79,0.0,
18.423,315.0,315.0,0.0,0.0,0.0,3.0,4.0,3.0,5.0,6.0,6.0,0.0,25.9,15.7,0.0,
18.436,315.0,315.0,0.0,0.0,0.0,3.0,4.0,2.0,5.0,6.0,6.0,0.0,25.7,15.6,0.0,
18.449,315.0,315.0,0.0,0.0,0.0,3.0,4.0,2.0,5.0,6.0,6.0,0.0,25.51,15.11,0.0,
18.462,315.0,315.0,0.0,0.0,0.0,3.0,4.0,2.0,5.0,6.0,6.0,0.0,25.21,14.91,0.0,
18.475,315.0,315.0,0.0,0.0,0.0,3.0,4.0,2.0,5.0,6.0,6.0,0.0,24.82,14.72,0.0,
18.488,315.0,315.0,0.0,0.0,0.0,3.0,4.0,2.0,5.0,6.0,6.0,0.0,24.13,14.32,0.0,
18.501,315.0,315.0,0.0,0.0,0.0,3.0,4.0,2.0,5.0,6.0,6.0,0.0,23.74,13.93,0.0,
18.514,315.0,315.0,0.0,0.0,0.0,3.0,4.0,2.0,5.0,6.0,6.0,0.0,23.45,13.54,0.0,
18.527,315.0,315.0,0.0,0.0,0.0,3.0,4.0,2.0,4.0,5.0,6.0,0.0,23.05,12.85,0.0,
18.54,315.0,315.0,0.0,0.0,0.0,2.0,4.0,2.0,4.0,5.0,6.0,0.0,22.56,12.65,0.0,
18.553,315.0,315.0,0.0,0.0,0.0,2.0,4.0,2.0,4.0,5.0,6.0,0.0,21.97,12.65,0.0,
18.566,315.0,315.0,0.0,0.0,0.0,2.0,3.0,2.0,4.0,5.0,5.0,0.0,21.29,12.95,0.0,
18.579,315.0,315.0,0.0,0.0,0.0,2.0,3.0,2.0,4.0,5.0,5.0,0.0,19.33,13.64,0.0,
18.592,315.0,315.0,0.0,0.0,0.0,2.0,3.0,2.0,4.0,4.0,5.0,0.0,18.15,14.81,0.0,
18.605,315.0,315.0,0.0,0.0,0.0,2.0,3.0,2.0,4.0,4.0,5.0,0.0,17.27,17.95,0.0,
18.618,315.0,315.0,0.0,0.0,0.0,2.0,3.0,2.0,4.0,4.0,5.0,0.0,16.58,19.13,0.0,
18.631,315.0,315.0,0.0,0.0,0.0,2.0,3.0,2.0,4.0,4.0,4.0,0.0,16.38,19.62,0.0,
18.644,315.0,315.0,0.0,0.0,0.0,2.0,3.0,2.0,4.0,4.0,4.0,0.0,16.38,19.62,0.0,
18.657,315.0,315.0,0.0,0.0,0.0,2.0,3.0,2.0,4.0,4.0,4.0,0.0,16.28,19.33,0.0,
18.67,315.0,315.0,0.0,0.0,0.0,2.0,3.0,2.0,4.0,4.0,4.0,0.0,16.28,19.03,0.0,
18.683,315.0,315.0,0.0,0.0,0.0,2.0,3.0,2.0,4.0,4.0,4.0,0.0,16.19,18.74,0.0,
18.696,315.0,315.0,0.0,0.0,0.0,2.0,3.0,2.0,4.0,4.0,4.0,0.0,15.99,18.84,0.0,
18.709,315.0,315.0,0.0,0.0,0.0,2.0,2.0,2.0,4.0,3.0,4.0,0.0,15.7,18.93,0.0,
18.722,315.0,315.0,0.0,0.0,0.0,2.0,2.0,2.0,3.0,3.0,4.0,0.0,15.5,19.33,0.0,
18.735,315.0,315.0,0.0,0.0,0.0,2.0,2.0,2.0,3.0,3.0,4.0,0.0,15.3,19.62,0.0,
18.748,315.0,315.0,0.0,0.0,0.0,2.0,2.0,2.0,3.0,3.0,4.0,0.0,15.01,20.11,0.0,
18.761,315.0,315.0,0.0,0.0,0.0,2.0,2.0,2.0,3.0,3.0,4.0,0.0,14.91,20.01,0.0,
18.774,315.0,315.0,0.0,0.0,0.0,2.0,2.0,1.0,3.0,3.0,4.0,0.0,14.72,20.01,0.0,
18.787,315.0,315.0,0.0,0.0,0.0,2.0,2.0,1.0,3.0,3.0,4.0,0.0,14.62,20.11,0.0,
18.8,315.0,315.0,0.0,0.0,0.0,2.0,2.0,1.0,3.0,3.0,4.0,0.0,14.62,20.01,0.0,
18.813,315.0,315.0,0.0,0.0,0.0,2.0,2.0,1.0,3.0,3.0,4.0,0.0,14.52,19.91,0.0,
18.826,315.0,315.0,0.0,0.0,0.0,2.0,2.0,1.0,3.0,3.0,4.0,0.0,14.52,19.62,0.0,
18.839,315.0,315.0,0.0,0.0,0.0,2.0,2.0,1.0,3.0,3.0,4.0,0.0,14.42,19.42,0.0,
18.852,315.0,315.0,0.0,0.0,0.0,2.0,2.0,1.0,3.0,3.0,4.0,0.0,14.42,19.33,0.0,
18.865,315.0,315.0,0.0,0.0,0.0,2.0,2.0,1.0,3.0,3.0,4.0,0.0,14.42,19.13,0.0,
18.878,315.0,315.0,0.0,0.0,0.0,2.0,2.0,1.0,3.0,3.0,3.0,0.0,14.42,19.03,0.0,
18.891,315.0,315.0,0.0,0.0,0.0,2.0,2.0,1.0,3.0,3.0,3.0,0.0,14.42,18.84,0.0,
18.904,315.0,315.0,0.0,0.0,0.0,2.0,2.0,1.0,3.0,3.0,3.0,0.0,14.42,18.44,0.0,
18.917,315.0,315.0,0.0,0.0,0.0,2.0,2.0,1.0,3.0,3.0,3.0,0.0,14.32,18.25,0.0,
18.93,315.0,315.0,0.0,0.0,0.0,2.0,2.0,1.0,3.0,3.0,3.0,0.0,14.22,17.95,0.0,
18.942,315.0,315.0,0.0,0.0,0.0,2.0,2.0,1.0,3.0,3.0,3.0,0.0,14.22,17.76,0.0,
18.956,315.0,315.0,0.0,0.0,0.0,2.0,2.0,1.0,3.0,3.0,3.0,0.0,14.22,17.66,0.0,
18.969,315.0,315.0,0.0,0.0,0.0,2.0,2.0,1.0,3.0,3.0,3.0,0.0,14.13,17.46,0.0,
18.982,315.0,315.0,0.0,0.0,0.0,2.0,2.0,1.0,3.0,3.0,3.0,0.0,14.03,17.36,0.0,
18.995,315.0,315.0,0.0,0.0,0.0,2.0,2.0,1.0,3.0,3.0,3.0,0.0,13.93,17.27,0.0,
19.008,315.0,315.0,0.0,0.0,0.0,2.0,2.0,1.0,3.0,3.0,3.0,0.0,13.83,17.36,0.0,
19.021,315.0,315.0,0.0,0.0,0.0,2.0,2.0,1.0,3.0,3.0,3.0,0.0,13.83,17.56,0.0,
19.034,315.0,315.0,0.0,0.0,0.0,2.0,2.0,1.0,3.0,3.0,3.0,0.0,13.64,17.56,0.0,
19.047,315.0,315.0,0.0,0.0,0.0,2.0,2.0,1.0,3.0,3.0,3.0,0.0,13.64,17.66,0.0,
19.06,315.0,315.0,0.0,0.0,0.0,2.0,2.0,1.0,3.0,3.0,3.0,0.0,13.64,17.85,0.0,
19.074,315.0,315.0,0.0,0.0,0.0,2.0,2.0,1.0,3.0,3.0,3.0,0.0,13.64,17.76,0.0,
19.086,315.0,315.0,0.0,0.0,0.0,2.0,2.0,1.0,3.0,3.0,3.0,0.0,13.73,17.66,0.0,
19.099,315.0,315.0,0.0,0.0,0.0,2.0,2.0,1.0,3.0,3.0,3.0,0.0,13.83,17.66,0.0,
19.112,315.0,315.0,0.0,0.0,0.0,2.0,2.0,1.0,3.0,3.0,3.0,0.0,13.83,17.66,0.0,
19.125,315.0,315.0,0.0,0.0,0.0,1.0,2.0,1.0,3.0,3.0,3.0,0.0,13.83,17.27,0.0,
19.138,315.0,315.0,0.0,0.0,0.0,1.0,2.0,1.0,3.0,3.0,3.0,0.0,13.93,17.07,0.0,
19.151,315.0,315.0,0.0,0.0,0.0,1.0,2.0,1.0,3.0,3.0,3.0,0.0,14.03,16.87,0.0,
19.165,315.0,315.0,0.0,0.0,0.0,1.0,2.0,1.0,3.0,3.0,3.0,0.0,14.13,16.78,0.0,
19.177,315.0,315.0,0.0,0.0,0.0,1.0,2.0,1.0,3.0,3.0,3.0,0.0,14.32,16.58,0.0,
19.19,315.0,315.0,0.0,0.0,0.0,1.0,2.0,1.0,3.0,3.0,3.0,0.0,14.42,16.48,0.0,
19.204,315.0,315.0,0.0,0.0,0.0,1.0,2.0,1.0,3.0,3.0,3.0,0.0,14.32,16.38,0.0,
19.216,315.0,315.0,0.0,0.0,0.0,1.0,2.0,1.0,3.0,3.0,3.0,0.0,14.52,16.09,0.0,
19.229,315.0,315.0,0.0,0.0,0.0,1.0,2.0,1.0,3.0,3.0,3.0,0.0,14.62,15.89,0.0,
19.243,315.0,315.0,0.0,0.0,0.0,1.0,2.0,1.0,3.0,3.0,3.0,0.0,14.62,15.7,0.0,
19.255,315.0,315.0,0.0,0.0,0.0,1.0,2.0,1.0,3.0,3.0,3.0,0.0,14.72,15.5,0.0,
19.268,315.0,315.0,0.0,0.0,0.0,1.0,2.0,1.0,3.0,3.0,3.0,0.0,14.81,15.21,0.0,
19.281,315.0,315.0,0.0,0.0,0.0,1.0,2.0,1.0,3.0,3.0,3.0,0.0,14.91,15.01,0.0,
19.295,315.0,315.0,0.0,0.0,0.0,1.0,2.0,1.0,3.0,3.0,3.0,0.0,14.91,14.81,0.0,
19.307,315.0,315.0,0.0,0.0,0.0,1.0,2.0,1.0,3.0,3.0,3.0,0.0,15.01,14.62,0.0,
19.32,315.0,315.0,0.0,0.0,0.0,1.0,2.0,1.0,3.0,3.0,4.0,0.0,15.01,14.52,0.0,
19.334,315.0,315.0,0.0,0.0,0.0,1.0,2.0,1.0,3.0,3.0,4.0,0.0,15.11,14.32,0.0,
19.346,315.0,315.0,0.0,0.0,0.0,1.0,2.0,1.0,3.0,3.0,4.0,0.0,15.3,14.22,0.0,
19.359,315.0,315.0,0.0,0.0,0.0,1.0,2.0,1.0,3.0,3.0,4.0,0.0,15.4,14.22,0.0,
19.373,315.0,315.0,0.0,0.0,0.0,2.0,2.0,1.0,3.0,3.0,4.0,0.0,15.5,14.13,0.0,
19.385,315.0,315.0,0.0,0.0,0.0,2.0,2.0,1.0,3.0,3.0,4.0,0.0,15.6,14.03,0.0,
19.398,315.0,315.0,0.0,0.0,0.0,2.0,2.0,1.0,3.0,3.0,4.0,0.0,15.6,13.93,0.0,
19.411,315.0,315.0,0.0,0.0,0.0,2.0,2.0,1.0,3.0,3.0,4.0,0.0,15.7,13.93,0.0,
19.425,315.0,315.0,0.0,0.0,0.0,2.0,2.0,1.0,3.0,3.0,4.0,0.0,15.79,13.83,0.0,
19.437,315.0,315.0,0.0,0.0,0.0,2.0,2.0,1.0,3.0,3.0,4.0,0.0,15.79,13.64,0.0,
19.45,315.0,315.0,0.0,0.0,0.0,2.0,2.0,1.0,3.0,3.0,4.0,0.0,15.89,13.44,0.0,
19.464,315.0,315.0,0.0,0.0,0.0,2.0,2.0,1.0,3.0,3.0,4.0,0.0,15.89,13.44,0.0,
19.476,315.0,315.0,0.0,0.0,0.0,2.0,2.0,1.0,3.0,3.0,4.0,0.0,15.99,13.34,0.0,
19.489,315.0,315.0,0.0,0.0,0.0,2.0,2.0,1.0,3.0,4.0,4.0,0.0,15.99,13.24,0.0,
19.503,315.0,315.0,0.0,0.0,0.0,2.0,2.0,1.0,3.0,4.0,4.0,0.0,15.99,12.85,0.0,
19.515,315.0,315.0,0.0,0.0,0.0,2.0,2.0,1.0,3.0,4.0,4.0,0.0,15.99,12.65,0.0,
19.528,315.0,315.0,0.0,0.0,0.0,2.0,2.0,1.0,3.0,4.0,4.0,0.0,15.99,12.46,0.0,
19.542,315.0,315.0,0.0,0.0,0.0,2.0,2.0,1.0,3.0,4.0,4.0,0.0,15.99,12.16,0.0,
19.555,315.0,315.0,0.0,0.0,0.0,1.0,2.0,1.0,3.0,4.0,4.0,0.0,16.09,11.97,0.0,
19.567,315.0,315.0,0.0,0.0,0.0,1.0,2.0,1.0,3.0,4.0,4.0,0.0,15.99,11.77,0.0,
19.58,315.0,315.0,0.0,0.0,0.0,2.0,2.0,1.0,3.0,4.0,4.0,0.0,15.99,11.18,0.0,
19.594,315.0,315.0,0.0,0.0,0.0,1.0,2.0,1.0,3.0,4.0,4.0,0.0,15.99,10.99,0.0,
19.606,315.0,315.0,0.0,0.0,0.0,2.0,2.0,1.0,3.0,4.0,4.0,0.0,15.99,10.79,0.0,
19.619,315.0,315.0,0.0,0.0,0.0,2.0,3.0,1.0,3.0,4.0,4.0,0.0,16.09,10.59,0.0,
19.633,315.0,315.0,0.0,0.0,0.0,2.0,3.0,1.0,3.0,4.0,4.0,0.0,16.19,10.59,0.0,
19.645,315.0,315.0,0.0,0.0,0.0,2.0,3.0,1.0,3.0,4.0,4.0,0.0,16.09,10.5,0.0,
19.658,315.0,315.0,0.0,0.0,0.0,2.0,3.0,1.0,3.0,4.0,4.0,0.0,16.19,10.4,0.0,
19.672,315.0,315.0,0.0,0.0,0.0,2.0,3.0,1.0,3.0,4.0,4.0,0.0,16.28,10.4,0.0,
19.685,315.0,315.0,0.0,0.0,0.0,2.0,3.0,1.0,3.0,4.0,4.0,0.0,16.28,10.4,0.0,
19.697,315.0,315.0,0.0,0.0,0.0,2.0,3.0,1.0,3.0,4.0,4.0,0.0,16.28,10.5,0.0,
19.71,315.0,315.0,0.0,0.0,0.0,2.0,3.0,1.0,3.0,4.0,4.0,0.0,16.38,10.59,0.0,
19.724,315.0,315.0,0.0,0.0,0.0,2.0,3.0,1.0,3.0,4.0,4.0,0.0,16.48,10.59,0.0,
19.736,315.0,315.0,0.0,0.0,0.0,2.0,3.0,1.0,3.0,4.0,4.0,0.0,16.48,10.69,0.0,
19.749,315.0,315.0,0.0,0.0,0.0,2.0,3.0,1.0,3.0,4.0,4.0,0.0,16.58,10.69,0.0,
19.763,315.0,315.0,0.0,0.0,0.0,2.0,3.0,1.0,3.0,4.0,4.0,0.0,16.58,10.59,0.0,
19.775,315.0,315.0,0.0,0.0,0.0,2.0,3.0,1.0,3.0,4.0,4.0,0.0,16.68,10.59,0.0,
19.788,315.0,315.0,0.0,0.0,0.0,2.0,3.0,1.0,3.0,4.0,4.0,0.0,16.78,10.69,0.0,
19.802,315.0,315.0,0.0,0.0,0.0,2.0,3.0,1.0,3.0,4.0,4.0,0.0,16.78,10.79,0.0,
19.815,315.0,315.0,0.0,0.0,0.0,2.0,3.0,1.0,3.0,4.0,4.0,0.0,16.78,10.69,0.0,
19.827,315.0,315.0,0.0,0.0,0.0,2.0,3.0,1.0,3.0,4.0,4.0,0.0,16.78,10.69,0.0,
19.841,315.0,315.0,0.0,0.0,0.0,2.0,3.0,1.0,3.0,4.0,4.0,0.0,16.87,10.79,0.0,
19.854,315.0,315.0,0.0,0.0,0.0,2.0,3.0,1.0,3.0,4.0,4.0,0.0,16.97,10.99,0.0,
19.866,315.0,315.0,0.0,0.0,0.0,2.0,3.0,1.0,3.0,4.0,4.0,0.0,16.97,11.09,0.0,
19.879,315.0,315.0,0.0,0.0,0.0,2.0,3.0,1.0,3.0,4.0,4.0,0.0,17.07,11.48,0.0,
19.893,315.0,315.0,0.0,0.0,0.0,2.0,3.0,1.0,3.0,4.0,4.0,0.0,16.97,11.67,0.0,
19.905,315.0,315.0,0.0,0.0,0.0,2.0,3.0,1.0,3.0,4.0,4.0,0.0,16.97,11.67,0.0,
19.918,315.0,315.0,0.0,0.0,0.0,2.0,3.0,1.0,3.0,4.0,4.0,0.0,16.97,11.67,0.0,
19.932,315.0,315.0,0.0,0.0,0.0,2.0,3.0,1.0,3.0,4.0,4.0,0.0,16.87,11.67,0.0,
19.945,315.0,315.0,0.0,0.0,0.0,2.0,3.0,1.0,3.0,4.0,4.0,0.0,16.78,11.58,0.0,
19.957,315.0,315.0,0.0,0.0,0.0,2.0,3.0,1.0,3.0,4.0,4.0,0.0,16.68,11.58,0.0,
19.971,315.0,315.0,0.0,0.0,0.0,2.0,3.0,1.0,3.0,4.0,4.0,0.0,16.58,11.58,0.0,
19.984,315.0,315.0,0.0,0.0,0.0,2.0,3.0,1.0,3.0,4.0,4.0,0.0,16.48,11.67,0.0,
19.996,315.0,315.0,0.0,0.0,0.0,2.0,3.0,1.0,3.0,4.0,4.0,0.0,16.28,11.77,0.0,
20.009,315.0,315.0,0.0,0.0,0.0,2.0,3.0,1.0,3.0,4.0,4.0,0.0,16.19,11.77,0.0,
20.023,315.0,315.0,0.0,0.0,0.0,2.0,3.0,1.0,3.0,4.0,4.0,0.0,15.99,11.77,0.0,
20.035,315.0,315.0,0.0,0.0,0.0,2.0,3.0,1.0,3.0,4.0,4.0,0.0,15.79,12.07,0.0,
20.048,315.0,315.0,0.0,0.0,0.0,2.0,3.0,1.0,3.0,4.0,4.0,0.0,15.7,12.16,0.0,
20.062,315.0,315.0,0.0,0.0,0.0,2.0,3.0,1.0,3.0,4.0,4.0,0.0,15.6,12.16,0.0,
20.075,315.0,315.0,0.0,0.0,0.0,2.0,3.0,1.0,3.0,4.0,4.0,0.0,15.6,11.97,0.0,
20.087,315.0,315.0,0.0,0.0,0.0,2.0,3.0,1.0,3.0,4.0,4.0,0.0,15.5,11.87,0.0,
