time,pitch,roll,gyrx,gyry,gyrz,f1,f2,f3,f4,f5,f6,f7,g1,g2,g3
0.37,30.77,53.01,-1.22,-4.12,9.69,0.0,0.0,1.0,0.0,3.0,0.0,0.0,0.69,0.2,0.0,
0.394,37.349,63.756,0.93,-4.95,4.22,0.0,0.0,1.0,0.0,3.0,0.0,0.0,0.69,0.0,0.0,
0.417,44.14489999999999,73.76759999999999,0.29,1.27,-8.08,0.0,0.0,1.0,0.0,3.0,0.0,0.0,0.59,0.0,0.0,
0.441,50.44949,82.54476,-4.07,3.06,-8.74,0.0,0.0,1.0,0.0,3.0,0.0,0.0,0.59,0.0,0.0,
0.465,55.588949,90.343476,-7.27,-2.03,0.24,0.0,0.0,1.0,0.0,3.0,0.0,0.0,0.59,0.0,0.0,
0.489,59.279894899999995,97.17134760000002,-9.05,-6.38,6.28,0.0,0.0,1.0,0.0,3.0,0.0,0.0,0.59,0.0,0.0,
0.513,62.19598949,102.87613476000001,-4.9,-4.98,-0.63,0.0,0.0,1.0,0.0,3.0,0.0,0.0,0.69,0.0,0.0,
0.536,65.30459894900001,107.739613476,-1.21,0.12,-9.4,0.0,0.0,1.0,0.0,3.0,0.0,0.0,0.78,0.0,0.0,
0.561,68.2524598949,111.7089613476,-5.8,-1.53,-5.44,0.0,0.0,1.0,0.0,3.0,0.0,0.0,0.78,0.0,0.0,
0.584,70.15824598949,115.23789613475999,-9.75,-4.48,4.42,0.0,0.0,1.0,0.0,3.0,0.0,0.0,0.88,0.0,0.0,
0.608,71.221824598949,118.479789613476,-10.92,-6.96,0.82,0.0,0.0,1.0,0.0,3.0,0.0,0.0,0.88,0.0,0.0,
0.632,71.85918245989491,121.4499789613476,-5.69,-4.72,-2.44,0.0,0.0,1.0,0.0,3.0,0.0,0.0,0.88,0.0,0.0,
0.656,72.73291824598948,123.91599789613475,-0.09,-4.16,-2.86,0.0,0.0,1.0,0.0,3.0,0.0,0.0,0.88,0.0,0.0,
0.679,74.16129182459893,125.63859978961347,0.22,-0.23,-1.11,0.0,0.0,1.0,0.0,3.0,0.0,0.0,0.88,0.0,0.0,
0.704,75.5821291824599,126.88185997896134,-0.01,5.17,1.82,0.0,0.0,1.0,0.0,3.0,0.0,0.0,0.98,0.0,0.0,
0.728,76.53421291824598,128.08618599789614,-3.12,1.5,7.65,0.0,0.0,1.0,0.0,3.0,0.0,0.0,0.98,0.0,0.0,
0.751,76.86342129182461,129.1066185997896,-3.41,-0.79,8.74,0.0,0.0,1.0,0.0,3.0,0.0,0.0,1.08,0.0,0.0,
0.775,77.11234212918247,130.14466185997895,-1.06,-1.5,0.88,0.0,0.0,1.0,0.0,3.0,0.0,0.0,1.08,0.0,0.0,
0.798,77.64123421291825,130.7794661859979,-1.96,-1.47,-5.46,0.0,0.0,1.0,0.0,3.0,0.0,0.0,1.18,0.0,0.0,
0.822,78.60312342129183,131.1579466185998,-1.89,0.3,-1.82,0.0,0.0,1.0,0.0,3.0,0.0,0.0,1.18,0.0,0.0,
0.845,79.47331234212918,131.50179466185998,-4.56,1.34,3.78,0.0,0.0,1.0,0.0,3.0,0.0,0.0,1.18,0.0,0.0,
0.87,79.72233123421292,131.860179466186,-6.33,-0.4,2.5,0.0,0.0,1.0,0.0,3.0,0.0,0.0,1.18,0.0,0.0,
0.893,79.81923312342128,132.3730179466186,-6.44,-2.4,-0.6,0.0,0.0,1.0,0.0,3.0,0.0,0.0,1.08,0.0,0.0,
0.917,79.99992331234213,132.87430179466187,-5.79,-3.6,-4.36,0.0,0.0,1.0,0.0,3.0,0.0,0.0,1.18,0.0,0.0,
0.941,80.41399233123421,133.0684301794662,-6.89,-3.74,-3.07,0.0,0.0,1.0,0.0,3.0,0.0,0.0,1.18,0.0,0.0,
0.964,80.77939923312341,133.36684301794662,-5.85,-0.61,0.56,0.0,0.0,1.0,0.0,3.0,0.0,0.0,1.18,0.0,0.0,
0.989,80.84293992331234,133.94568430179464,-3.63,-0.43,1.77,0.0,0.0,1.0,0.0,3.0,0.0,0.0,1.08,0.0,0.0,
1.012,80.69629399233125,134.34556843017947,-2.18,-0.94,2.28,0.0,0.0,1.0,0.0,3.0,0.0,0.0,1.08,0.0,0.0,
1.036,80.68162939923313,134.40355684301795,-2.59,-0.06,-1.07,0.0,0.0,1.0,0.0,3.0,0.0,0.0,1.18,0.0,0.0,
1.059,80.71616293992331,134.3913556843018,-4.09,-0.73,-0.47,0.0,0.0,1.0,0.0,3.0,0.0,0.0,1.18,0.0,0.0,
1.083,80.77361629399233,134.32713556843018,-3.38,0.85,0.31,0.0,0.0,1.0,0.0,3.0,0.0,0.0,1.18,0.0,0.0,
1.106,80.90536162939924,134.518713556843,-4.15,-0.53,2.19,0.0,0.0,1.0,0.0,3.0,0.0,0.0,1.28,0.0,0.0,
1.131,80.72953616293992,134.73587135568428,-1.96,-1.69,2.52,0.0,0.0,1.0,0.0,3.0,0.0,0.0,1.18,0.0,0.0,
1.155,80.73895361629398,134.76658713556844,-0.56,-0.39,0.42,0.0,0.0,1.0,0.0,3.0,0.0,0.0,1.18,0.0,0.0,
1.178,81.04589536162939,134.62565871355685,-2.95,-0.92,0.52,0.0,0.0,1.0,0.0,3.0,0.0,0.0,1.18,0.1,0.0,
1.202,81.25658953616293,134.4765658713557,-4.04,0.63,0.12,0.0,0.0,1.0,0.0,3.0,0.0,0.0,1.18,0.39,0.0,
1.225,81.1336589536163,134.80365658713558,-4.8,-1.29,-0.71,0.0,0.0,1.0,0.0,3.0,0.0,0.0,1.18,1.18,0.0,
1.25,81.06736589536163,135.00736565871355,-6.1,-6.84,0.92,0.0,0.0,1.0,0.0,3.0,0.0,0.0,1.28,1.77,0.0,
1.273,81.16873658953617,134.83873656587136,-2.44,-2.73,-1.82,0.0,0.0,1.0,0.0,3.0,0.0,0.0,1.18,2.26,0.0,
1.297,81.50287365895363,134.77687365658713,-3.05,0.5,-0.98,0.0,0.0,1.0,0.0,3.0,0.0,0.0,1.18,1.37,0.0,
1.32,81.41928736589537,134.75268736565872,-3.92,-0.67,1.41,0.0,0.0,1.0,0.0,3.0,0.0,0.0,1.18,2.45,0.0,
1.344,81.38392873658954,134.90326873656588,-2.78,-0.47,-0.6,0.0,0.0,1.0,0.0,3.0,0.0,0.0,1.18,2.75,0.0,
1.369,81.02939287365895,135.1253268736566,-2.92,-1.6,-3.06,0.0,0.0,1.0,0.0,3.0,0.0,0.0,1.18,1.77,0.0,
1.392,80.8319392873659,135.23753268736567,-3.93,-6.87,3.68,0.0,0.0,1.0,0.0,3.0,0.0,0.0,1.18,2.35,0.0,
1.416,81.0191939287366,134.88875326873656,2.42,3.06,-2.39,0.0,0.0,1.0,0.0,3.0,0.0,0.0,0.98,2.75,0.0,
1.439,81.41591939287365,134.80887532687365,0.6,7.74,-4.42,0.0,0.0,1.0,0.0,3.0,0.0,0.0,1.08,1.86,0.0,
1.463,81.35659193928737,134.9718875326874,-7.36,-1.28,1.21,0.0,0.0,1.0,0.0,3.0,0.0,0.0,0.88,2.35,0.0,
1.486,81.33265919392873,134.98818875326876,-5.41,-0.32,1.5,0.0,0.0,1.0,0.0,3.0,0.0,0.0,0.69,2.65,0.0,
1.511,81.29426591939287,134.75581887532687,-3.69,1.9,-1.11,0.0,0.0,1.0,0.0,3.0,0.0,0.0,0.39,0.88,0.0,
1.534,81.47042659193929,134.70558188753267,-5.04,3.77,-6.07,0.0,0.0,1.0,0.0,3.0,0.0,0.0,0.1,0.59,0.0,
1.558,81.77604265919393,134.67355818875325,-4.89,2.66,-6.87,0.0,0.0,1.0,0.0,3.0,0.0,0.0,0.0,0.49,0.0,
1.583,81.32960426591939,134.90435581887533,-15.04,-10.55,-6.36,0.0,0.0,2.0,0.0,3.0,0.0,0.0,0.0,0.49,0.0,
1.606,80.66396042659194,134.75643558188753,-19.61,-16.84,1.21,0.0,0.0,2.0,0.0,3.0,0.0,0.0,0.0,0.49,0.0,
1.631,81.01139604265919,134.00364355818874,-22.08,-7.95,-8.63,0.0,0.0,2.0,0.0,3.0,0.0,0.0,0.0,0.49,0.0,
1.654,81.99113960426592,133.46036435581888,-44.61,-7.19,18.79,0.0,0.0,2.0,0.0,3.0,0.0,0.0,0.0,0.49,0.0,
1.678,81.9361139604266,133.72103643558188,-44.7,-8.4,24.68,0.0,0.0,2.0,0.0,3.0,0.0,1.0,0.0,0.59,0.0,
1.702,81.16561139604265,131.9111036435582,-44.8,-11.63,37.24,0.0,0.0,2.0,0.0,3.0,0.0,1.0,0.0,0.69,0.0,
1.726,82.32156113960426,130.26311036435584,-49.31,-7.9,41.64,0.0,0.0,2.0,0.0,3.0,0.0,1.0,0.0,0.88,0.0,
1.751,81.14115611396043,128.2443110364356,-60.2,-13.2,36.43,0.0,0.0,2.0,0.0,3.0,0.0,1.0,0.0,0.88,0.0,
1.774,80.57311561139605,126.13443110364356,-60.87,-10.87,25.05,0.0,0.0,2.0,0.0,3.0,0.0,1.0,0.0,1.18,0.0,
1.799,81.2723115611396,124.08744311036436,-62.73,-24.24,10.53,0.0,0.0,2.0,0.0,3.0,0.0,1.0,0.0,3.24,0.0,
1.822,79.92023115611396,122.51474431103644,-74.98,-37.56,3.08,0.0,0.0,3.0,0.0,3.0,0.0,1.0,0.0,4.71,0.0,
1.847,77.9490231156114,122.58247443110365,-77.04,-17.15,-0.53,0.0,0.0,3.0,0.0,3.0,0.0,1.0,0.0,2.26,0.0,
1.87,77.49090231156114,123.40824744311037,-34.66,-33.73,-31.02,0.0,0.0,3.0,0.0,3.0,0.0,2.0,0.0,3.73,0.0,
1.895,76.91409023115611,123.57182474431104,-30.79,-51.16,-33.76,0.0,0.0,3.0,0.0,4.0,0.0,2.0,0.0,1.67,0.0,
1.92,77.97240902311562,122.91318247443111,-25.36,-30.84,-37.27,0.0,0.0,3.0,0.0,4.0,0.0,2.0,0.0,1.37,0.0,
1.943,78.44724090231156,122.29831824744312,-34.02,-33.24,-23.82,0.0,0.0,3.0,0.0,4.0,0.0,2.0,0.0,1.67,0.0,
1.968,77.45972409023115,121.50783182474431,-44.82,-28.73,-17.24,0.0,0.0,3.0,0.0,4.0,0.0,2.0,0.0,1.77,0.0,
1.991,75.02997240902312,121.00578318247443,-39.3,-48.48,-33.79,0.0,0.0,3.0,0.0,4.0,0.0,3.0,0.0,1.47,0.0,
2.016,73.08599724090232,120.10057831824744,-12.98,-54.39,-61.24,0.0,0.0,3.0,0.0,4.0,0.0,3.0,0.0,0.78,0.0,
2.039,73.41359972409023,119.65905783182474,0.89,-54.98,-64.58,0.0,0.0,3.0,0.0,4.0,0.0,3.0,0.0,0.98,0.0,
2.064,74.62535997240903,118.19290578318248,-2.74,-37.45,-35.55,0.0,0.0,3.0,0.0,4.0,0.0,3.0,0.0,1.86,0.0,
2.087,75.45753599724091,116.82229057831825,-18.85,-21.78,-15.15,0.0,0.0,3.0,0.0,4.0,0.0,3.0,0.0,2.55,0.0,
2.112,75.01875359972409,116.30722905783182,-36.75,-18.17,-21.84,0.0,0.0,3.0,0.0,4.0,0.0,3.0,0.0,4.12,0.0,
2.137,74.07487535997241,115.57172290578318,-30.93,-27.53,-31.14,0.0,0.0,3.0,0.0,4.0,0.0,3.0,0.0,4.12,0.0,
2.16,73.21548753599724,114.04917229057833,-22.4,-38.85,-40.17,0.0,0.0,3.0,0.0,4.0,0.0,3.0,0.0,4.81,0.0,
2.185,72.91354875359973,112.56491722905784,-31.64,-29.76,-53.08,0.0,0.0,3.0,0.0,4.0,0.0,3.0,0.0,3.73,0.0,
2.208,73.47735487535998,111.43549172290578,-41.89,-6.62,-38.32,0.0,0.0,3.0,0.0,4.0,0.0,3.0,0.0,3.24,0.0,
2.233,74.451735487536,109.94554917229058,-35.12,2.79,-17.75,0.0,0.0,3.0,0.0,4.0,0.0,2.0,0.0,1.77,0.0,
2.256,72.1641735487536,110.53455491722904,-26.83,-36.76,-51.37,0.0,0.0,3.0,0.0,4.0,0.0,2.0,0.0,2.65,0.0,
2.281,70.12641735487536,111.2234554917229,-34.2,1.97,-13.61,0.0,0.0,2.0,0.0,4.0,0.0,2.0,0.0,2.55,0.0,
2.305,69.47264173548754,110.63534554917229,-5.73,4.59,0.98,0.0,0.0,2.0,0.0,3.0,0.0,2.0,0.0,2.94,0.0,
2.329,70.45126417354876,109.22653455491722,1.84,30.99,31.27,0.0,0.0,2.0,0.0,3.0,0.0,1.0,0.0,3.14,0.0,
2.353,72.11512641735487,107.23165345549174,-25.86,64.49,37.62,0.0,0.0,2.0,0.0,3.0,0.0,1.0,0.0,3.14,0.0,
2.376,73.82951264173548,104.85416534554918,-75.9,85.1,58.44,0.0,0.0,2.0,0.0,3.0,0.0,1.0,0.0,3.43,0.0,
2.401,71.95795126417354,97.36241653455492,-106.39,33.09,64.49,0.0,0.0,1.0,0.0,3.0,0.0,1.0,0.0,4.71,0.0,
2.424,68.90879512641735,90.0072416534555,-89.99,0.21,29.44,0.0,0.0,1.0,0.0,3.0,0.0,1.0,0.0,3.92,0.0,
2.448,67.49687951264174,84.94272416534554,-72.53,24.28,-15.88,0.0,0.0,1.0,0.0,2.0,0.0,1.0,0.0,2.75,0.0,
2.472,66.59068795126417,82.16827241653456,-47.6,34.02,-72.61,0.0,0.0,1.0,0.0,2.0,0.0,1.0,0.0,4.32,0.0,
2.496,65.58206879512642,81.28782724165345,-51.85,28.06,-90.05,0.0,0.0,1.0,0.0,2.0,0.0,1.0,0.0,3.43,0.0,
2.521,65.53520687951264,82.40578272416535,-58.35,30.37,-110.47,0.0,0.0,1.0,0.0,1.0,0.0,0.0,0.0,6.38,0.0,
2.544,66.08852068795127,86.03657827241653,-65.37,29.02,-100.77,0.0,0.0,0.0,0.0,1.0,0.0,0.0,0.0,3.92,0.0,
2.569,66.10785206879513,89.99965782724165,-70.47,-2.95,-76.44,0.0,0.0,0.0,0.0,1.0,0.0,0.0,0.0,2.06,0.0,
2.592,64.8317852068795,92.24996578272416,-76.64,-48.73,-44.46,0.0,0.0,0.0,0.0,1.0,0.0,0.0,0.0,0.78,0.0,
2.617,63.210178520687954,92.93399657827241,-71.81,-45.97,-47.77,0.0,0.0,0.0,0.0,1.0,0.0,0.0,0.0,0.2,0.0,
2.64,60.65401785206879,94.15439965782724,-4.88,50.79,-26.96,0.0,0.0,1.0,0.0,2.0,0.0,1.0,0.0,0.49,0.0,
2.665,63.134401785206876,100.70243996578273,120.2,-79.35,-3.08,0.0,0.0,1.0,0.0,1.0,0.0,0.0,0.0,0.0,0.0,
2.689,61.94244017852069,105.86624399657828,8.75,-53.9,-7.69,0.0,0.0,0.0,0.0,0.0,0.0,0.0,0.0,0.98,0.0,
2.712,62.255244017852064,101.84662439965783,-86.77,-13.76,150.97,0.0,0.0,0.0,0.0,0.0,0.0,0.0,0.0,1.67,0.0,
2.737,62.808524401785206,92.94866243996577,-22.98,174.0,79.48,0.0,0.0,0.0,0.0,0.0,0.0,0.0,0.0,0.0,0.0,
2.76,65.76185244017852,91.81586624399658,37.1,-32.84,-26.22,0.0,0.0,0.0,0.0,0.0,0.0,0.0,0.0,0.0,0.0,
2.784,66.60618524401785,93.03458662439967,11.4,13.81,9.21,0.0,0.0,0.0,0.0,0.0,0.0,0.0,0.0,0.0,0.0,
2.807,67.20361852440178,93.64245866243996,-30.06,39.31,46.73,0.0,0.0,0.0,0.0,0.0,0.0,0.0,0.0,0.39,0.0,
2.831,67.49736185244018,93.172245866244,-25.22,19.5,4.17,0.0,0.0,0.0,0.0,0.0,0.0,0.0,0.0,2.26,0.0,
2.854,68.67873618524402,92.27022458662441,-27.17,-19.57,5.79,0.0,0.0,0.0,0.0,0.0,0.0,0.0,0.0,1.77,0.0,
2.878,69.5708736185244,89.48002245866243,-33.9,-32.82,37.6,0.0,0.0,0.0,0.0,0.0,0.0,0.0,0.39,1.47,0.0,
2.902,69.60608736185245,90.44300224586624,-3.91,-31.17,-26.18,0.0,0.0,0.0,0.0,0.0,0.0,0.0,1.08,0.69,0.0,
2.925,68.25960873618524,88.91930022458662,-1.14,-46.67,-25.79,0.0,0.0,0.0,0.0,0.0,0.0,0.0,1.18,2.35,0.0,
2.95,66.63996087361852,88.34393002245866,7.64,-73.44,-41.45,0.0,0.0,0.0,0.0,1.0,0.0,0.0,1.67,2.84,0.0,
2.973,63.79599608736185,85.67639300224586,-10.93,-57.52,-12.67,0.0,0.0,0.0,0.0,2.0,0.0,0.0,1.37,3.34,0.0,
2.998,61.15359960873619,81.43163930022457,-2.02,-37.51,-26.85,0.0,0.0,1.0,0.0,2.0,0.0,0.0,1.28,1.18,0.0,
3.021,61.13235996087362,80.76416393002245,22.11,32.83,-110.97,0.0,0.0,1.0,0.0,2.0,0.0,0.0,0.98,1.18,0.0,
3.045,63.45223599608736,83.88341639300225,6.89,-24.42,-56.47,0.0,0.0,1.0,0.0,2.0,0.0,0.0,1.37,1.47,0.0,
3.069,64.02622359960874,83.98834163930023,-0.5,-3.26,-40.07,0.0,0.0,1.0,0.0,2.0,0.0,0.0,1.67,1.67,0.0,
3.093,64.65062235996086,84.32283416393003,11.63,28.9,-31.1,0.0,0.0,1.0,0.0,2.0,0.0,0.0,1.86,0.0,0.0,
3.117,67.17006223599608,86.12028341639301,5.98,22.3,-4.05,0.0,0.0,0.0,0.0,2.0,0.0,0.0,1.67,3.14,0.0,
3.141,70.5630062235996,88.7030283416393,-2.54,101.4,10.56,0.0,0.0,0.0,0.0,1.0,0.0,0.0,1.37,1.67,0.0,
3.165,71.38830062235996,88.76330283416392,-14.09,21.09,29.65,0.0,0.0,0.0,0.0,1.0,0.0,0.0,0.88,0.0,0.0,
3.188,70.00383006223599,88.62533028341639,-27.74,-43.53,51.4,0.0,0.0,0.0,0.0,0.0,0.0,0.0,0.49,0.0,0.0,
3.212,66.9763830062236,84.28253302834165,20.11,31.28,-25.86,0.0,0.0,0.0,0.0,0.0,0.0,0.0,0.49,0.0,0.0,
3.235,67.55563830062236,80.65325330283417,-3.99,41.89,8.99,0.0,0.0,0.0,0.0,0.0,0.0,0.0,0.29,0.0,0.0,
3.259,68.74756383006223,82.59432533028343,36.48,16.32,-57.91,0.0,0.0,0.0,0.0,0.0,0.0,0.0,0.1,0.0,0.0,
3.282,70.20775638300623,83.66143253302835,-11.26,-3.02,24.31,0.0,0.0,0.0,0.0,0.0,0.0,0.0,0.0,0.0,0.0,
3.306,70.56977563830063,84.23614325330284,-2.45,-5.55,9.92,0.0,0.0,0.0,0.0,0.0,0.0,0.0,0.0,0.0,0.0,
3.33,70.32697756383006,84.59061432533028,-9.78,-12.55,22.57,0.0,0.0,0.0,0.0,0.0,0.0,0.0,0.0,0.29,0.0,
3.353,70.113697756383,84.88706143253302,-2.27,0.05,1.58,0.0,0.0,0.0,0.0,0.0,0.0,0.0,0.0,0.69,0.0,
3.377,70.2093697756383,85.4657061432533,-7.51,-0.91,3.59,0.0,0.0,0.0,0.0,0.0,0.0,0.0,0.0,2.06,0.0,
3.4,70.14693697756383,85.64057061432533,-2.95,-10.41,-4.66,0.0,0.0,0.0,0.0,0.0,0.0,0.0,0.0,0.59,0.0,
3.424,70.12269369775639,86.05405706143253,-6.76,-13.69,-5.34,0.0,0.0,0.0,0.0,0.0,0.0,0.0,0.0,0.69,0.0,
3.448,70.21026936977563,85.74440570614325,-11.41,7.88,17.88,0.0,0.0,0.0,0.0,0.0,0.0,0.0,0.0,0.88,0.0,
3.472,69.96702693697756,85.50644057061433,10.68,5.6,0.92,0.0,0.0,0.0,0.0,0.0,0.0,0.0,0.0,0.98,0.0,
3.494,70.22170269369775,86.08564405706144,7.18,11.32,-0.01,0.0,0.0,0.0,0.0,0.0,0.0,0.0,0.0,0.0,0.0,
3.518,70.29217026936976,86.66556440570615,3.41,4.65,-3.81,0.0,0.0,0.0,0.0,0.0,0.0,0.0,0.0,1.18,0.0,
3.542,70.53321702693698,87.26355644057061,-6.64,-5.53,-1.16,0.0,0.0,0.0,0.0,0.0,0.0,0.0,0.0,1.37,0.0,
3.565,70.32332170269369,87.33235564405707,-14.46,-22.42,4.65,0.0,0.0,0.0,0.0,0.0,0.0,0.0,0.0,0.0,0.0,
3.589,69.97833217026937,87.5192355644057,-12.88,-35.87,-9.69,0.0,0.0,0.0,0.0,0.0,0.0,0.0,0.0,0.0,0.0,
3.613,69.97083321702694,87.15092355644057,-18.57,-10.23,11.32,0.0,0.0,0.0,0.0,0.0,0.0,0.0,0.0,0.0,0.0,
3.637,69.61908332170269,86.70909235564406,-5.42,-13.22,1.11,0.0,0.0,0.0,0.0,0.0,0.0,0.0,0.29,0.0,0.0,
3.66,69.44890833217028,86.9169092355644,0.11,-9.42,-2.42,0.0,0.0,0.0,0.0,0.0,0.0,0.0,0.39,0.0,0.0,
3.684,71.74489083321703,88.20669092355644,-5.08,30.56,12.23,0.0,0.0,0.0,0.0,0.0,0.0,0.0,0.39,0.0,0.0,
3.707,71.41648908332171,88.24566909235564,-7.14,2.08,8.18,0.0,0.0,0.0,0.0,0.0,0.0,0.0,0.49,1.08,0.0,
3.731,70.72664890833218,87.86256690923555,-4.82,-7.76,6.19,0.0,0.0,0.0,0.0,0.0,0.0,0.0,0.49,0.59,0.0,
3.755,70.52266489083323,87.61725669092355,-2.98,4.68,-0.82,0.0,0.0,0.0,0.0,0.0,0.0,0.0,0.49,1.57,0.0,
3.777,70.44826648908332,87.61972566909236,-4.47,-1.95,-2.49,0.0,0.0,0.0,0.0,0.0,0.0,0.0,0.49,1.77,0.0,
3.802,70.90882664890833,87.61097256690924,-8.23,11.91,1.85,0.0,0.0,0.0,0.0,0.0,0.0,0.0,0.49,0.88,0.0,
3.825,71.07188266489084,87.45709725669091,-13.36,4.7,14.59,0.0,0.0,0.0,0.0,0.0,0.0,0.0,0.59,1.86,0.0,
3.849,71.34918826648908,87.2977097256691,-10.85,2.35,6.19,0.0,0.0,0.0,0.0,0.0,0.0,0.0,0.78,2.45,0.0,
3.872,70.78291882664891,86.9757709725669,-7.99,-2.36,3.68,0.0,0.0,0.0,0.0,0.0,0.0,0.0,1.08,0.78,0.0,
3.896,70.79829188266488,86.56557709725668,-6.59,-1.08,-0.76,0.0,0.0,0.0,0.0,0.0,0.0,0.0,1.18,1.37,0.0,
3.919,70.86282918826649,86.56955770972566,-2.78,2.64,-1.69,0.0,0.0,0.0,0.0,0.0,0.0,0.0,1.18,2.26,0.0,
3.943,70.81528291882665,86.60595577097256,-2.02,-5.24,-1.78,0.0,0.0,0.0,0.0,0.0,0.0,0.0,1.18,2.06,0.0,
3.966,70.76552829188267,86.65459557709725,-3.46,0.24,-3.66,0.0,0.0,0.0,0.0,0.0,0.0,0.0,1.18,0.88,0.0,
3.99,70.67955282918827,86.63245955770972,-7.23,-0.91,3.28,0.0,0.0,0.0,0.0,0.0,0.0,0.0,1.28,0.69,0.0,
4.014,70.94095528291882,86.69324595577098,-7.63,-0.46,6.17,0.0,0.0,0.0,0.0,0.0,0.0,0.0,1.47,0.2,0.0,
4.037,70.56209552829188,86.3663245955771,-6.8,-4.08,6.06,0.0,0.0,0.0,0.0,0.0,0.0,0.0,1.57,0.49,0.0,
4.061,70.37120955282919,86.3516324595577,0.39,2.22,-6.58,0.0,0.0,0.0,0.0,0.0,0.0,0.0,1.67,0.59,0.0,
4.084,70.78412095528292,86.40416324595577,-0.11,10.7,-1.19,0.0,0.0,0.0,0.0,0.0,0.0,0.0,1.67,0.78,0.0,
4.108,70.73541209552829,86.40041632459558,-2.59,-2.07,4.73,0.0,0.0,0.0,0.0,0.0,0.0,0.0,1.37,1.47,0.0,
4.131,70.55954120955283,86.33704163245956,-1.6,-2.72,-0.24,0.0,0.0,0.0,0.0,0.0,0.0,0.0,1.37,1.96,0.0,
4.155,70.39795412095528,86.24970416324595,-1.25,-3.94,-4.72,0.0,0.0,0.0,0.0,0.0,0.0,0.0,1.18,0.59,0.0,
4.178,70.39079541209553,86.3039704163246,-0.05,-6.97,-8.27,0.0,0.0,0.0,0.0,0.0,0.0,0.0,1.18,1.28,0.0,
4.203,70.25507954120954,86.32739704163247,-1.12,-15.94,-5.89,0.0,0.0,0.0,0.0,0.0,0.0,0.0,0.88,1.28,0.0,
4.227,70.23250795412096,86.41973970416325,0.48,-10.56,-7.28,0.0,0.0,0.0,0.0,0.0,0.0,0.0,0.78,1.18,0.0,
4.25,70.3292507954121,86.44697397041634,-2.88,-7.67,-2.17,0.0,0.0,0.0,0.0,0.0,0.0,0.0,0.69,1.18,0.0,
4.274,70.35692507954121,86.49469739704165,-2.51,-8.2,0.07,0.0,0.0,0.0,0.0,1.0,0.0,0.0,0.59,0.98,0.0,
4.297,70.16169250795413,86.62546973970416,-4.02,-9.02,3.02,0.0,0.0,0.0,0.0,1.0,0.0,0.0,0.49,0.0,0.0,
4.321,70.0791692507954,86.64754697397044,-4.13,-3.39,1.86,0.0,0.0,0.0,0.0,1.0,0.0,0.0,0.59,0.0,0.0,
4.345,70.07991692507954,86.58675469739704,-4.21,-2.5,1.76,0.0,0.0,0.0,0.0,1.0,0.0,0.0,0.59,0.29,0.0,
4.369,69.97199169250796,86.5806754697397,-3.9,-5.5,1.14,0.0,0.0,0.0,0.0,1.0,0.0,0.0,0.59,0.49,0.0,
4.392,69.8261991692508,86.59806754697397,-2.13,-0.6,0.95,0.0,0.0,0.0,0.0,1.0,0.0,0.0,0.59,1.28,0.0,
4.416,69.78461991692508,86.6898067546974,-3.63,-2.28,0.5,0.0,0.0,0.0,0.0,1.0,0.0,0.0,0.69,0.2,0.0,
4.44,70.34746199169251,86.60898067546974,-5.21,18.34,-2.18,0.0,0.0,0.0,0.0,1.0,0.0,0.0,0.69,0.29,0.0,
4.464,70.24174619916926,86.49289806754697,-4.74,-3.47,6.16,0.0,0.0,0.0,0.0,1.0,0.0,0.0,0.69,0.0,0.0,
4.488,70.23117461991693,86.3822898067547,-4.62,-0.29,1.97,0.0,0.0,0.0,0.0,1.0,0.0,0.0,0.78,0.0,0.0,
4.511,70.1491174619917,86.47922898067546,-3.07,-3.6,-0.47,0.0,0.0,0.0,0.0,1.0,0.0,0.0,0.69,0.0,0.0,
4.535,70.03291174619918,86.48892289806754,-2.73,-0.63,-1.0,0.0,0.0,0.0,0.0,1.0,0.0,0.0,0.69,0.1,0.0,
4.559,69.97629117461992,86.53489228980676,-2.07,-1.78,-1.61,0.0,0.0,0.0,0.0,1.0,0.0,0.0,0.69,0.0,0.0,
4.583,69.961629117462,86.57548922898067,-3.46,-0.25,0.86,0.0,0.0,0.0,0.0,1.0,0.0,0.0,0.78,0.0,0.0,
4.606,69.97816291174621,86.65154892289806,-4.26,-2.22,1.85,0.0,0.0,0.0,0.0,1.0,0.0,0.0,0.78,0.0,0.0,
4.63,69.83581629117461,86.51515489228981,-4.35,-2.66,2.18,0.0,0.0,0.0,0.0,1.0,0.0,0.0,0.69,0.0,0.0,
4.654,69.85758162911746,86.50151548922899,-2.59,-1.22,-0.61,0.0,0.0,0.0,0.0,1.0,0.0,0.0,0.69,0.0,0.0,
4.678,69.85075816291175,86.59015154892289,-2.79,-1.93,-0.15,0.0,0.0,0.0,0.0,1.0,0.0,0.0,0.69,0.0,0.0,
4.702,69.80507581629118,86.5900151548923,-4.59,-1.9,2.43,0.0,0.0,0.0,0.0,1.0,0.0,0.0,0.69,0.0,0.0,
4.725,69.75550758162912,86.59000151548923,-4.22,-1.2,1.38,0.0,0.0,0.0,0.0,1.0,0.0,0.0,0.69,0.0,0.0,
4.749,69.71455075816291,86.56300015154893,-2.53,-0.79,-1.33,0.0,0.0,0.0,0.0,1.0,0.0,0.0,0.78,0.0,0.0,
4.773,69.6744550758163,86.61430001515491,-2.81,-0.34,-0.99,0.0,0.0,0.0,0.0,1.0,0.0,0.0,0.78,0.0,0.0,
4.797,69.49944550758163,86.45743000151549,-3.73,2.66,-4.21,0.0,0.0,0.0,0.0,1.0,0.0,0.0,0.78,0.0,0.0,
4.82,69.65294455075816,86.23474300015155,-2.79,-2.8,-1.26,0.0,0.0,0.0,0.0,1.0,0.0,0.0,0.78,0.0,0.0,
4.845,69.68629445507581,86.20347430001516,-3.98,-0.73,1.46,0.0,0.0,0.0,0.0,1.0,0.0,0.0,0.69,0.0,0.0,
4.869,69.72562944550758,86.23634743000152,-3.31,-0.52,0.56,0.0,0.0,0.0,0.0,1.0,0.0,0.0,0.69,0.0,0.0,
4.892,69.78356294455077,86.33863474300016,-2.73,-1.44,-0.93,0.0,0.0,0.0,0.0,1.0,0.0,0.0,0.78,0.0,0.0,
4.916,69.85235629445508,86.32186347430002,-1.45,-1.42,-2.11,0.0,0.0,0.0,0.0,1.0,0.0,0.0,0.69,0.49,0.0,
4.939,69.93123562944551,86.41018634743,-2.11,-1.91,-0.44,0.0,0.0,0.0,0.0,1.0,0.0,0.0,0.78,0.0,0.0,
4.964,69.95712356294455,86.401018634743,-3.21,-1.99,0.11,0.0,0.0,0.0,0.0,1.0,0.0,0.0,0.78,0.0,0.0,
4.987,69.95971235629445,86.49910186347431,-4.11,-2.03,1.26,0.0,0.0,0.0,0.0,1.0,0.0,0.0,0.69,0.0,0.0,
5.011,69.99597123562944,86.58091018634744,-3.66,-1.02,0.47,0.0,0.0,0.0,0.0,1.0,0.0,0.0,0.78,0.0,0.0,
5.035,69.95459712356295,86.55309101863475,-2.81,-1.34,-0.15,0.0,0.0,0.0,0.0,1.0,0.0,0.0,0.78,0.0,0.0,
5.059,69.96845971235629,86.56830910186346,-2.82,-1.05,-0.11,0.0,0.0,0.0,0.0,1.0,0.0,0.0,0.78,0.0,0.0,
5.083,69.90684597123563,86.54283091018635,-2.76,-0.73,-0.41,0.0,0.0,0.0,0.0,1.0,0.0,0.0,0.69,0.0,0.0,
5.106,69.91868459712356,86.52228309101864,-2.45,-0.52,-0.68,0.0,0.0,0.0,0.0,1.0,0.0,0.0,0.78,0.0,0.0,
5.13,69.95586845971235,86.61022830910187,-3.15,-1.44,0.05,0.0,0.0,0.0,0.0,1.0,0.0,0.0,0.78,0.0,0.0,
5.154,69.99558684597123,86.55602283091018,-3.47,-0.76,0.27,0.0,0.0,0.0,0.0,1.0,0.0,0.0,0.78,0.0,0.0,
5.178,69.96355868459712,86.61360228309103,-2.76,-2.03,-0.78,0.0,0.0,0.0,0.0,1.0,0.0,0.0,0.88,0.0,0.0,
5.201,70.02335586845972,86.64636022830912,-2.31,-2.64,-1.27,0.0,0.0,0.0,0.0,1.0,0.0,0.0,0.78,0.0,0.0,
5.225,70.04733558684597,86.73963602283091,-3.4,-1.79,-0.37,0.0,0.0,0.0,0.0,1.0,0.0,0.0,0.69,0.0,0.0,
5.25,70.0857335586846,86.7039636022831,-3.96,-1.82,0.17,0.0,0.0,0.0,0.0,1.0,0.0,0.0,0.78,0.0,0.0,
5.273,69.99957335586846,86.63739636022831,-3.55,-2.34,0.0,0.0,0.0,0.0,0.0,1.0,0.0,0.0,0.78,0.0,0.0,
5.297,69.97295733558684,86.59473963602284,-2.73,-1.27,-0.79,0.0,0.0,0.0,0.0,1.0,0.0,0.0,0.69,0.0,0.0,
5.32,69.93429573355868,86.60847396360228,-2.75,-0.94,-1.02,0.0,0.0,0.0,0.0,1.0,0.0,0.0,0.78,0.0,0.0,
5.344,69.88542957335586,86.62784739636022,-2.73,-1.94,-0.44,0.0,0.0,0.0,0.0,1.0,0.0,0.0,0.69,0.0,0.0,
5.368,69.86254295733559,86.60278473963602,-3.02,-1.03,-0.47,0.0,0.0,0.0,0.0,1.0,0.0,0.0,0.69,0.0,0.0,
5.392,69.88725429573356,86.54627847396361,-2.98,-1.2,-0.48,0.0,0.0,0.0,0.0,1.0,0.0,0.0,0.69,0.0,0.0,
5.415,69.87172542957336,86.61262784739637,-3.02,-1.18,-0.43,0.0,0.0,0.0,0.0,1.0,0.0,0.0,0.78,0.0,0.0,
5.44,69.85217254295733,86.66426278473963,-3.07,-1.03,-0.63,0.0,0.0,0.0,0.0,1.0,0.0,0.0,0.69,0.0,0.0,
5.464,69.89521725429573,86.65142627847398,-3.37,-0.98,-0.3,0.0,0.0,0.0,0.0,1.0,0.0,0.0,0.69,0.0,0.0,
5.487,69.81852172542958,86.59614262784741,-2.75,-1.79,-0.34,0.0,0.0,0.0,0.0,1.0,0.0,0.0,0.69,0.0,0.0,
5.511,69.81085217254295,86.62661426278474,-2.67,-1.16,-0.62,0.0,0.0,0.0,0.0,1.0,0.0,0.0,0.59,0.0,0.0,
5.535,69.7470852172543,86.66566142627848,-3.21,-1.66,-0.45,0.0,0.0,0.0,0.0,1.0,0.0,0.0,0.69,0.0,0.0,
5.559,69.70470852172544,86.62456614262786,-3.86,-2.39,0.71,0.0,0.0,0.0,0.0,1.0,0.0,0.0,0.69,0.0,0.0,
5.582,69.70947085217254,86.62045661426279,-3.1,-1.23,-0.37,0.0,0.0,0.0,0.0,1.0,0.0,0.0,0.69,0.0,0.0,
5.606,69.69194708521725,86.60204566142627,-2.9,-1.54,-0.44,0.0,0.0,0.0,0.0,1.0,0.0,0.0,0.59,0.0,0.0,
5.63,69.70819470852172,86.62720456614262,-2.84,-1.44,-0.42,0.0,0.0,0.0,0.0,1.0,0.0,0.0,0.69,0.0,0.0,
5.654,69.78181947085218,86.59372045661428,-2.71,-1.19,-0.9,0.0,0.0,0.0,0.0,1.0,0.0,0.0,0.69,0.0,0.0,
5.678,69.80718194708521,86.59937204566143,-3.04,-1.79,-0.09,0.0,0.0,0.0,0.0,1.0,0.0,0.0,0.69,0.0,0.0,
5.701,69.78271819470852,86.59993720456615,-2.75,-1.29,-0.98,0.0,0.0,0.0,0.0,1.0,0.0,0.0,0.69,0.0,0.0,
5.726,69.69927181947085,86.57299372045661,-2.93,-2.13,-1.3,0.0,0.0,0.0,0.0,1.0,0.0,0.0,0.69,0.0,0.0,
5.749,69.67292718194709,86.42629937204566,-1.35,-0.31,-3.46,0.0,0.0,0.0,0.0,1.0,0.0,0.0,0.69,0.0,0.0,
5.773,69.67029271819472,86.55562993720456,-0.58,2.16,-5.15,0.0,0.0,0.0,0.0,1.0,0.0,0.0,0.59,0.0,0.0,
5.796,69.74202927181946,86.61356299372046,-1.03,-0.21,-3.92,0.0,0.0,0.0,0.0,1.0,0.0,0.0,0.49,0.0,0.0,
5.821,69.73120292718195,86.80835629937205,-1.71,-1.3,-3.5,0.0,0.0,0.0,0.0,1.0,0.0,0.0,0.59,0.0,0.0,
5.844,69.7571202927182,86.78283562993721,-3.14,0.01,-1.26,0.0,0.0,0.0,0.0,1.0,0.0,0.0,0.49,0.0,0.0,
5.868,69.72371202927181,86.71728356299371,-3.27,-2.77,-0.73,0.0,0.0,0.0,0.0,1.0,0.0,0.0,0.39,0.0,0.0,
5.892,69.75637120292718,86.67472835629937,-2.56,-0.41,-1.75,0.0,0.0,0.0,0.0,1.0,0.0,0.0,0.49,0.0,0.0,
5.915,69.72363712029272,86.59847283562995,-2.06,-1.33,-2.78,0.0,0.0,0.0,0.0,1.0,0.0,0.0,0.39,0.0,0.0,
5.939,69.75636371202927,86.635847283563,-0.61,-2.62,-4.14,0.0,0.0,0.0,0.0,1.0,0.0,0.0,0.29,0.0,0.0,
5.963,69.77763637120293,86.7115847283563,-3.12,-0.68,-0.89,0.0,0.0,0.0,0.0,1.0,0.0,0.0,0.39,0.0,0.0,
5.987,69.86976363712029,86.79115847283563,-3.56,-2.09,0.29,0.0,0.0,0.0,0.0,1.0,0.0,0.0,0.49,0.0,0.0,
6.01,69.86997636371203,86.71811584728357,-4.42,-2.8,1.07,0.0,0.0,0.0,0.0,1.0,0.0,0.0,0.39,0.0,0.0,
6.034,69.8519976363712,86.70181158472836,-2.98,-2.46,-0.96,0.0,0.0,0.0,0.0,1.0,0.0,0.0,0.39,0.0,0.0,
6.059,69.77819976363712,86.70018115847283,-2.48,-2.25,-1.13,0.0,0.0,0.0,0.0,1.0,0.0,0.0,0.49,0.0,0.0,
6.082,69.76181997636371,86.70901811584729,-3.45,-1.24,-0.34,0.0,0.0,0.0,0.0,1.0,0.0,0.0,0.39,0.0,0.0,
6.106,69.80518199763637,86.69190181158473,-3.87,-1.78,0.44,0.0,0.0,0.0,0.0,1.0,0.0,0.0,0.49,0.0,0.0,
6.129,69.82751819976363,86.68119018115848,-4.25,-1.47,0.69,0.0,0.0,0.0,0.0,1.0,0.0,0.0,0.49,0.0,0.0,
6.154,69.74875181997636,86.66211901811585,-3.2,-1.37,0.29,0.0,0.0,0.0,0.0,1.0,0.0,0.0,0.49,0.0,0.0,
6.177,69.71387518199764,86.60621190181158,-3.54,-1.3,0.27,0.0,0.0,0.0,0.0,1.0,0.0,0.0,0.49,0.0,0.0,
6.201,69.71938751819977,86.57362119018116,-2.63,-2.1,-0.66,0.0,0.0,0.0,0.0,1.0,0.0,0.0,0.59,0.0,0.0,
6.224,69.67493875181998,86.63336211901812,-2.18,-1.73,-1.47,0.0,0.0,0.0,0.0,1.0,0.0,0.0,0.59,0.0,0.0,
6.249,69.63449387518199,86.70233621190181,-3.08,-2.52,-0.16,0.0,0.0,0.0,0.0,1.0,0.0,0.0,0.59,0.0,0.0,
6.273,69.6574493875182,86.67323362119018,-2.69,-1.6,-0.85,0.0,0.0,0.0,0.0,1.0,0.0,0.0,0.49,0.0,0.0,
6.296,69.63274493875181,86.67932336211904,-3.08,-1.68,-0.41,0.0,0.0,0.0,0.0,1.0,0.0,0.0,0.49,0.0,0.0,
6.32,69.65727449387518,86.6979323362119,-2.31,-1.4,-1.37,0.0,0.0,0.0,0.0,1.0,0.0,0.0,0.59,0.0,0.0,
6.344,69.56972744938753,86.67279323362119,-2.15,-2.53,-0.88,0.0,0.0,0.0,0.0,1.0,0.0,0.0,0.59,0.0,0.0,
6.368,69.52497274493875,86.67027932336212,-1.18,-3.85,-3.02,0.0,0.0,0.0,0.0,1.0,0.0,0.0,0.49,0.0,0.0,
6.391,69.52949727449388,86.69702793233621,0.06,-0.48,-5.35,0.0,0.0,0.0,0.0,1.0,0.0,0.0,0.49,0.0,0.0,
6.415,69.61994972744938,86.80770279323362,0.11,-0.84,-5.25,0.0,0.0,0.0,0.0,1.0,0.0,0.0,0.49,0.0,0.0,
6.438,69.67399497274495,86.87277027932335,-2.48,-5.98,0.19,0.0,0.0,0.0,0.0,1.0,0.0,0.0,0.39,0.0,0.0,
6.463,69.58039949727448,86.84327702793234,-2.53,-5.01,-0.04,0.0,0.0,0.0,0.0,1.0,0.0,0.0,0.29,0.0,0.0,
6.487,69.47203994972745,86.75932770279323,-0.3,0.43,-3.49,0.0,0.0,0.0,0.0,1.0,0.0,0.0,0.39,0.0,0.0,
6.51,69.53320399497275,86.84093277027931,2.09,-1.72,-7.44,0.0,0.0,0.0,0.0,1.0,0.0,0.0,0.39,0.0,0.0,
6.534,69.61132039949729,87.02909327702793,-1.17,-2.39,-3.16,0.0,0.0,0.0,0.0,1.0,0.0,0.0,0.2,0.0,0.0,
6.557,69.54713203994973,86.9939093277028,-2.6,-3.54,-0.73,0.0,0.0,0.0,0.0,1.0,0.0,0.0,0.39,0.0,0.0,
6.581,69.49571320399497,86.96339093277027,-0.5,-5.84,-2.72,0.0,0.0,0.0,0.0,1.0,0.0,0.0,0.29,1.47,0.0,
6.604,69.39157132039949,87.05933909327703,-0.69,-6.12,-1.5,0.0,0.0,0.0,0.0,0.0,0.0,0.0,0.2,2.45,0.0,
6.628,69.08415713203995,86.95193390932769,-0.47,-10.34,-0.95,0.0,0.0,0.0,0.0,0.0,0.0,0.0,0.2,0.2,0.0,
6.651,69.11641571320399,86.90519339093278,3.14,-3.34,-5.3,0.0,0.0,0.0,0.0,0.0,0.0,0.0,0.1,0.0,0.0,
6.675,69.1826415713204,87.28751933909327,2.53,-3.15,-4.89,0.0,0.0,0.0,0.0,0.0,0.0,0.0,0.1,0.29,0.0,
6.699,69.20726415713203,87.53275193390932,-6.31,-13.42,8.0,0.0,0.0,0.0,0.0,0.0,0.0,0.0,0.0,0.78,0.0,
6.722,68.87672641571321,87.33227519339094,-6.6,-13.73,10.0,0.0,0.0,0.0,0.0,0.0,0.0,0.0,0.0,0.0,0.0,
6.746,68.42067264157133,87.2312275193391,0.94,-10.55,-0.84,0.0,0.0,0.0,0.0,0.0,0.0,0.0,0.0,0.0,0.0,
6.769,68.21306726415713,87.35612275193392,0.3,-3.09,-0.44,0.0,0.0,0.0,0.0,0.0,0.0,0.0,0.0,0.0,0.0,
6.793,68.22830672641571,87.52161227519339,-1.78,-5.81,3.02,0.0,0.0,0.0,0.0,0.0,0.0,0.0,0.0,0.49,0.0,
6.816,68.13983067264157,87.55616122751934,-3.32,-7.42,5.89,0.0,0.0,0.0,0.0,0.0,0.0,0.0,0.0,0.39,0.0,
6.84,68.15798306726415,87.59561612275193,-3.83,5.53,4.45,0.0,0.0,0.0,0.0,0.0,0.0,0.0,0.0,1.37,0.0,
6.863,68.15979830672642,87.6625616122752,-1.89,5.95,-0.02,0.0,0.0,0.0,0.0,0.0,0.0,0.0,0.0,1.37,0.0,
6.887,67.99797983067265,87.74125616122753,-6.13,4.69,2.85,0.0,0.0,0.0,0.0,0.0,0.0,0.0,0.0,0.69,0.0,
6.91,68.15279798306726,87.67712561612275,-5.27,35.21,-5.06,0.0,0.0,0.0,0.0,0.0,0.0,0.0,0.0,0.1,0.0,
6.934,68.61827979830673,87.60771256161227,-2.72,40.42,-14.37,0.0,0.0,0.0,0.0,0.0,0.0,0.0,0.0,0.0,0.0,
6.958,69.21382797983068,88.05077125616121,-6.39,36.63,-20.4,0.0,0.0,0.0,0.0,0.0,0.0,0.0,0.0,0.0,0.0,
6.981,69.72338279798306,87.66307712561613,-6.28,42.24,-17.15,0.0,0.0,0.0,0.0,0.0,0.0,0.0,0.0,0.0,0.0,
7.005,70.6293382797983,87.67830771256162,-5.73,-1.81,-6.57,0.0,0.0,0.0,0.0,0.0,0.0,0.0,0.0,0.0,0.0,
7.028,71.05293382797983,87.41883077125615,-9.07,13.47,-2.1,0.0,0.0,0.0,0.0,0.0,0.0,0.0,0.29,0.0,0.0,
7.052,71.66229338279798,87.76188307712562,-8.29,14.99,-11.65,0.0,0.0,0.0,0.0,0.0,0.0,0.0,0.29,0.0,0.0,
7.075,72.1102293382798,87.81418830771256,-24.95,10.4,21.73,0.0,0.0,0.0,0.0,0.0,0.0,0.0,0.29,0.0,0.0,
7.1,71.90302293382797,87.11741883077127,-18.46,19.27,13.36,0.0,0.0,0.0,0.0,0.0,0.0,0.0,0.49,0.0,0.0,
7.123,72.5663022933828,86.85874188307713,-15.56,23.61,2.44,0.0,0.0,0.0,0.0,0.0,0.0,0.0,0.69,0.69,0.0,
7.147,75.88163022933828,80.1278741883077,17.08,-5.59,-19.61,0.0,0.0,0.0,0.0,0.0,0.0,0.0,1.08,1.37,0.0,
7.171,74.98916302293382,85.88978741883078,-19.47,10.85,25.45,0.0,0.0,0.0,0.0,0.0,0.0,0.0,1.57,1.77,0.0,
7.194,75.12491630229339,87.56397874188309,4.13,10.34,-15.97,0.0,0.0,0.0,0.0,0.0,0.0,0.0,1.96,2.26,0.0,
7.218,75.38149163022933,87.2993978741883,-8.34,59.27,6.76,0.0,0.0,0.0,0.0,0.0,0.0,0.0,2.84,1.96,0.0,
7.241,76.01914916302295,86.70593978741883,-4.66,18.71,0.54,0.0,0.0,0.0,0.0,0.0,0.0,0.0,3.63,1.28,0.0,
7.265,76.62291491630229,86.40359397874188,-4.38,12.66,2.65,0.0,0.0,0.0,0.0,0.0,0.0,0.0,4.12,0.98,0.0,
7.288,77.40329149163023,86.9763593978742,-8.79,6.7,1.61,0.0,0.0,0.0,0.0,1.0,0.0,0.0,4.81,0.2,0.0,
7.312,77.49032914916302,86.54763593978743,-12.18,1.52,4.98,0.0,0.0,0.0,0.0,1.0,0.0,0.0,5.0,0.0,0.0,
7.336,78.0480329149163,86.08176359397875,-10.11,3.1,0.25,0.0,0.0,1.0,0.0,2.0,0.0,0.0,5.4,0.2,0.0,
7.36,77.79780329149162,85.86417635939787,-9.95,3.37,-2.07,0.0,0.0,1.0,0.0,2.0,0.0,0.0,5.79,0.39,0.0,
7.384,77.82678032914916,85.75241763593978,-10.77,-1.47,-1.48,0.0,0.0,2.0,0.0,3.0,0.0,1.0,6.38,0.69,0.0,
7.408,77.92867803291492,85.20124176359398,-8.5,5.61,-1.56,0.0,0.0,2.0,0.0,3.0,0.0,1.0,7.16,0.0,0.0,
7.432,77.8758678032915,85.1101241763594,-5.95,-0.69,-0.89,0.0,0.0,2.0,0.0,3.0,0.0,1.0,7.65,0.0,0.0,
7.455,78.13158678032914,85.01101241763594,-7.11,-0.06,-0.49,0.0,0.0,2.0,0.0,3.0,0.0,1.0,7.85,0.0,0.0,
7.479,78.10315867803291,84.86610124176359,-7.5,-4.23,-3.24,0.0,0.0,2.0,0.0,3.0,0.0,1.0,7.85,0.0,0.0,
7.503,78.27131586780331,84.70761012417636,-9.04,-2.52,-1.53,0.0,0.0,2.0,0.0,3.0,0.0,1.0,7.95,0.0,0.0,
7.527,78.11713158678032,84.61976101241764,-4.63,-13.12,1.95,0.0,0.0,2.0,0.0,3.0,0.0,1.0,8.53,0.0,0.0,
7.55,77.71471315867804,84.50297610124176,1.87,-34.56,-1.22,0.0,0.0,2.0,0.0,3.0,0.0,1.0,8.53,0.0,0.0,
7.575,77.2064713158678,84.58129761012418,5.08,-42.91,3.05,0.0,0.0,1.0,0.0,3.0,0.0,0.0,8.14,0.0,0.0,
7.599,76.57964713158678,84.67912976101242,5.6,-44.23,6.24,0.0,0.0,1.0,0.0,3.0,0.0,0.0,7.55,0.0,0.0,
7.622,75.60796471315868,84.68891297610125,8.63,-56.91,5.37,0.0,0.0,1.0,0.0,3.0,0.0,0.0,6.87,0.0,0.0,
7.646,74.46679647131587,84.85189129761014,7.83,-50.37,3.25,0.0,0.0,1.0,0.0,3.0,0.0,0.0,6.18,0.0,0.0,
7.669,74.28967964713159,83.98618912976102,6.59,-22.29,2.84,0.0,0.0,1.0,0.0,3.0,0.0,0.0,5.69,0.0,0.0,
7.693,73.47096796471315,84.0976189129761,6.71,-42.25,-2.5,0.0,0.0,0.0,0.0,3.0,0.0,0.0,5.49,0.0,0.0,
7.717,72.59709679647132,84.57676189129761,5.82,-43.97,-3.02,0.0,0.0,0.0,0.0,3.0,0.0,0.0,5.59,0.0,0.0,
7.741,71.86170967964713,84.89467618912977,0.95,-34.73,2.67,0.0,0.0,0.0,0.0,3.0,0.0,0.0,5.3,0.0,0.0,
7.764,71.02317096796472,84.82746761891298,-3.1,-13.48,-1.04,0.0,0.0,0.0,0.0,3.0,0.0,0.0,5.4,0.0,0.0,
7.788,70.30931709679648,85.17174676189128,-10.41,2.98,6.03,0.0,0.0,1.0,0.0,3.0,0.0,0.0,5.69,0.0,0.0,
7.812,69.59893170967965,85.01717467618913,-12.15,12.39,4.17,0.0,0.0,0.0,0.0,3.0,0.0,0.0,5.98,0.0,0.0,
7.835,69.27589317096796,84.40771746761892,-11.56,13.73,-0.61,0.0,0.0,0.0,0.0,3.0,0.0,0.0,6.18,0.0,0.0,
7.86,68.9375893170968,83.8787717467619,0.44,9.37,-8.85,0.0,0.0,0.0,0.0,3.0,0.0,0.0,6.57,0.0,0.0,
7.882,68.99375893170968,84.16787717467619,-1.53,16.76,-9.76,0.0,0.0,1.0,0.0,3.0,0.0,0.0,6.97,0.0,0.0,
7.907,69.45837589317097,84.10678771746761,1.3,29.24,-16.71,0.0,0.0,1.0,0.0,4.0,0.0,0.0,7.55,0.0,0.0,
7.93,70.5578375893171,86.14367877174676,-5.32,41.49,-13.18,0.0,0.0,1.0,0.0,4.0,0.0,0.0,8.24,0.0,0.0,
7.954,69.67778375893171,81.37936787717467,-5.08,38.97,-17.24,0.0,0.0,1.0,0.0,5.0,0.0,0.0,9.61,0.0,0.0,
7.979,70.13877837589317,81.19993678771748,-9.61,27.26,1.42,0.0,0.0,2.0,0.0,5.0,0.0,0.0,10.59,0.0,0.0,
8.002,71.64287783758932,82.41499367877175,-4.53,12.96,0.89,0.0,0.0,2.0,0.0,5.0,0.0,0.0,11.38,0.0,0.0,
8.027,71.83828778375894,82.52749936787717,2.51,17.85,-15.78,0.0,0.0,2.0,0.0,6.0,0.0,0.0,12.16,0.0,0.0,
8.05,72.3168287783759,82.56574993678771,-8.79,4.23,6.11,0.0,0.0,2.0,0.0,6.0,0.0,0.0,12.46,0.0,0.0,
8.075,72.67968287783759,82.84857499367877,-2.22,8.67,-7.72,0.0,0.0,3.0,0.0,6.0,0.0,1.0,12.95,0.0,0.0,
8.098,73.91296828778376,84.70385749936787,-7.13,7.48,4.82,0.0,0.0,3.0,0.0,6.0,0.0,1.0,13.24,0.0,0.0,
8.122,74.16229682877838,85.70838574993678,-0.07,2.05,-5.6,0.0,0.0,3.0,0.0,6.0,0.0,1.0,13.34,0.0,0.0,
8.146,73.96222968287785,85.74583857499367,-4.31,-8.98,6.1,0.0,0.0,3.0,0.0,7.0,0.0,0.0,12.85,0.0,0.0,
8.17,74.14922296828779,85.57858385749937,-3.88,-8.73,10.69,0.0,0.0,3.0,0.0,7.0,0.0,0.0,11.87,0.0,0.0,
8.194,73.87092229682878,85.36385838574995,-2.34,-21.46,16.79,0.0,0.0,2.0,0.0,7.0,0.0,0.0,10.3,0.0,0.0,
8.217,73.46509222968288,85.23438583857501,3.93,-16.77,10.66,0.0,0.0,1.0,0.0,7.0,0.0,0.0,8.24,0.0,0.0,
8.242,73.21750922296829,85.2214385838575,6.89,-13.4,6.49,0.0,0.0,0.0,0.0,6.0,0.0,0.0,6.97,0.0,0.0,
8.265,72.93175092229684,85.38214385838576,9.27,-17.32,6.37,0.0,0.0,0.0,0.0,5.0,0.0,0.0,6.08,0.0,0.0,
8.289,72.7951750922297,85.50621438583858,3.99,-14.73,9.72,0.0,0.0,0.0,0.0,4.0,0.0,0.0,5.89,0.0,0.0,
8.312,72.35851750922298,85.63562143858387,4.0,-8.66,9.01,0.0,0.0,0.0,0.0,3.0,0.0,0.0,5.2,0.0,0.0,
8.336,72.32385175092229,86.08956214385839,-3.37,-7.93,5.28,0.0,0.0,0.0,0.0,3.0,0.0,0.0,4.81,0.0,0.0,
8.358,72.32938517509223,86.27895621438584,-11.06,-11.73,8.61,0.0,0.0,0.0,0.0,3.0,0.0,0.0,4.61,0.0,0.0,
8.383,72.21293851750923,86.22589562143858,-8.13,-11.05,-2.34,0.0,0.0,0.0,0.0,3.0,0.0,0.0,5.1,0.0,0.0,
8.407,72.10229385175091,85.95058956214386,-4.47,-3.81,-18.43,0.0,0.0,0.0,0.0,3.0,0.0,0.0,5.69,0.0,0.0,
8.43,72.0012293851751,85.98605895621438,1.18,8.14,-19.95,0.0,0.0,0.0,0.0,3.0,0.0,0.0,6.08,0.0,0.0,
8.454,71.6221229385175,85.80960589562144,-2.82,-11.71,0.32,0.0,0.0,0.0,0.0,3.0,0.0,0.0,5.98,0.0,0.0,
8.477,71.04421229385176,85.52196058956214,-3.7,-12.69,-0.38,0.0,0.0,0.0,0.0,3.0,0.0,0.0,6.28,0.0,0.0,
8.502,70.92342122938517,85.40319605895621,-0.31,-2.27,-4.6,0.0,0.0,0.0,0.0,3.0,0.0,0.0,6.38,0.0,0.0,
8.525,70.77634212293852,85.40931960589562,0.11,-14.35,0.24,0.0,0.0,0.0,0.0,3.0,0.0,0.0,6.57,0.0,0.0,
8.549,70.59963421229385,85.43693196058956,-1.21,-8.74,0.33,0.0,0.0,0.0,0.0,2.0,0.0,0.0,6.97,0.0,0.0,
8.572,70.54596342122939,85.50269319605896,-1.03,-3.36,-2.2,0.0,0.0,0.0,0.0,2.0,0.0,0.0,7.26,0.0,0.0,
8.596,70.52259634212294,85.41926931960589,-2.73,-3.56,1.76,0.0,0.0,0.0,0.0,2.0,0.0,0.0,7.26,0.0,0.0,
8.62,70.36725963421229,85.35692693196059,-4.6,-2.08,1.12,0.0,0.0,0.0,0.0,1.0,0.0,0.0,7.55,0.0,0.0,
8.643,70.15372596342122,85.25169269319605,2.28,7.98,-9.94,0.0,0.0,0.0,0.0,1.0,0.0,0.0,7.85,0.0,0.0,
8.667,70.25837259634211,85.30416926931962,-1.6,3.04,-17.38,0.0,0.0,0.0,0.0,1.0,0.0,0.0,8.04,0.0,0.0,
8.69,70.40383725963422,85.48941692693197,-0.89,10.76,-6.6,0.0,0.0,0.0,0.0,1.0,0.0,0.0,8.63,0.0,0.0,
8.714,70.49938372596343,85.4899416926932,-3.85,2.52,-0.18,0.0,0.0,0.0,0.0,0.0,0.0,0.0,8.93,0.0,0.0,
8.737,70.54493837259633,85.48099416926932,-6.07,-1.48,4.28,0.0,0.0,0.0,0.0,0.0,0.0,0.0,9.52,0.0,0.0,
8.762,70.44149383725964,85.48009941692693,-5.59,-3.28,3.56,0.0,0.0,0.0,0.0,0.0,0.0,0.0,10.1,0.0,0.0,
8.785,70.37714938372596,85.43500994169271,-4.85,-2.29,1.92,0.0,0.0,0.0,0.0,1.0,0.0,0.0,10.89,0.0,0.0,
8.809,70.3977149383726,85.43050099416928,-2.73,-2.59,-4.47,0.0,0.0,0.0,0.0,1.0,0.0,0.0,11.18,0.0,0.0,
8.833,70.52577149383727,85.35805009941693,-4.5,-3.58,-0.28,0.0,0.0,0.0,0.0,1.0,0.0,0.0,11.09,0.0,0.0,
8.856,70.61057714938373,85.1618050099417,-4.84,-10.33,2.31,0.0,0.0,0.0,0.0,1.0,0.0,0.0,10.99,0.0,0.0,
8.881,70.46605771493837,85.08818050099417,-3.62,-8.56,2.86,0.0,0.0,0.0,0.0,2.0,0.0,0.0,10.69,0.0,0.0,
8.904,70.25360577149384,85.08081805009942,-2.56,-8.52,1.69,0.0,0.0,0.0,0.0,2.0,0.0,1.0,10.4,0.0,0.0,
8.929,70.07936057714939,85.13408180500994,-2.95,-9.23,2.93,0.0,0.0,0.0,0.0,2.0,0.0,2.0,9.91,0.0,0.0,
8.952,69.90893605771494,85.139408180501,-2.99,-7.28,2.16,0.0,0.0,0.0,0.0,2.0,0.0,2.0,9.61,0.0,0.0,
8.976,69.8108936057715,85.18494081805011,-4.21,-8.07,4.32,0.0,0.0,0.0,0.0,2.0,0.0,2.0,9.32,0.0,0.0,
8.999,69.74708936057715,85.14449408180502,-6.27,-5.42,6.95,0.0,0.0,0.0,0.0,2.0,0.0,2.0,9.03,0.0,0.0,
9.023,69.58770893605771,85.1044494081805,-4.56,-3.73,1.85,0.0,0.0,0.0,0.0,2.0,0.0,2.0,9.03,0.0,0.0,
9.048,69.43677089360577,85.17244494081805,-4.02,-1.53,0.81,0.0,0.0,0.0,0.0,2.0,0.0,3.0,9.03,0.0,0.0,
9.071,69.28667708936057,85.15224449408181,-2.99,1.61,-1.69,0.0,0.0,0.0,0.0,2.0,0.0,3.0,9.03,0.0,0.0,
9.095,69.36166770893607,85.14122444940818,-2.58,2.01,-2.67,0.0,0.0,0.0,0.0,2.0,0.0,3.0,9.32,0.0,0.0,
9.118,69.4141667708936,85.17612244494083,-3.3,1.84,-2.14,0.0,0.0,0.0,0.0,2.0,0.0,3.0,9.32,0.0,0.0,
9.142,69.49141667708936,85.1346122444941,-2.65,3.07,-3.65,0.0,0.0,0.0,0.0,2.0,0.0,3.0,9.52,0.0,0.0,
9.165,69.48114166770894,85.1394612244494,-2.02,0.78,-2.74,0.0,0.0,0.0,0.0,2.0,0.0,3.0,9.71,0.0,0.0,
9.19,69.51611416677089,85.15794612244494,-1.97,-1.72,-1.62,0.0,0.0,0.0,0.0,2.0,0.0,3.0,9.71,0.0,0.0,
9.213,69.54661141667708,85.2227946122445,-3.22,-0.61,-0.51,0.0,0.0,0.0,0.0,2.0,0.0,3.0,9.61,0.0,0.0,
9.237,69.53166114166771,85.27427946122445,-3.31,-0.37,-0.91,0.0,0.0,0.0,0.0,2.0,0.0,4.0,9.61,0.0,0.0,
9.261,69.50316611416677,85.26142794612245,-2.66,-0.53,-1.91,0.0,0.0,0.0,0.0,2.0,0.0,4.0,9.61,0.0,0.0,
9.285,69.50031661141668,85.30514279461225,-3.55,0.73,-1.02,0.0,0.0,0.0,0.0,3.0,0.0,4.0,9.52,0.0,0.0,
9.309,69.49103166114166,85.30051427946123,-3.0,4.85,-2.71,0.0,0.0,0.0,0.0,3.0,0.0,4.0,9.52,0.0,0.0,
9.332,69.58910316611416,85.22805142794613,-2.41,3.66,-2.77,0.0,0.0,0.0,0.0,3.0,0.0,4.0,9.42,0.0,0.0,
9.356,69.70691031661141,85.27480514279462,-1.42,6.34,-5.16,0.0,0.0,0.0,0.0,3.0,0.0,4.0,9.42,0.0,0.0,
9.379,69.95269103166115,85.37848051427946,-5.57,9.29,-0.03,0.0,0.0,0.0,0.0,3.0,0.0,3.0,9.32,0.0,0.0,
9.404,69.95926910316611,85.20884805142795,-4.33,5.05,-0.93,0.0,0.0,0.0,0.0,3.0,0.0,3.0,9.52,0.0,0.0,
9.427,70.12192691031662,85.3448848051428,-2.82,9.79,-5.76,0.0,0.0,0.0,0.0,3.0,0.0,2.0,9.71,0.0,0.0,
9.451,70.30019269103165,85.30448848051428,-6.71,3.56,2.47,0.0,0.0,0.0,0.0,3.0,0.0,2.0,10.01,0.0,0.0,
9.476,70.47101926910315,85.30044884805142,-5.01,5.5,-0.31,0.0,0.0,0.0,0.0,3.0,0.0,1.0,10.4,0.0,0.0,
9.499,70.61410192691031,85.16504488480514,-5.27,1.79,1.45,0.0,0.0,0.0,0.0,3.0,0.0,0.0,10.79,0.0,0.0,
9.523,70.81741019269104,85.22350448848051,-3.69,1.23,0.37,0.0,0.0,0.0,0.0,3.0,0.0,0.0,11.28,0.0,0.0,
9.547,70.8287410192691,85.09435044884805,-5.01,-2.12,2.91,0.0,0.0,0.0,0.0,3.0,0.0,0.0,11.48,0.0,0.0,
9.571,70.79387410192692,85.06343504488481,-3.24,0.4,0.47,0.0,0.0,0.0,0.0,3.0,0.0,0.0,11.87,0.0,0.0,
9.594,70.8623874101927,85.03334350448849,-2.37,1.75,-1.66,0.0,0.0,0.0,0.0,3.0,0.0,0.0,12.16,0.0,0.0,
9.618,70.94123874101928,84.98533435044885,-2.68,-0.44,-2.38,0.0,0.0,0.0,0.0,3.0,0.0,0.0,12.46,0.0,0.0,
9.643,71.07512387410193,85.07953343504488,-3.33,-1.16,-1.08,0.0,0.0,0.0,0.0,3.0,0.0,0.0,12.65,0.0,0.0,
9.666,71.0165123874102,84.98095334350448,-3.27,-4.73,-0.13,0.0,0.0,0.0,0.0,3.0,0.0,0.0,12.56,0.0,-2180.37,
9.691,71.04665123874102,84.97109533435045,-1.98,-3.56,-2.3,0.0,0.0,1.0,0.0,3.0,0.0,0.0,12.65,0.0,0.0,
9.714,71.0676651238741,84.97010953343505,-2.68,-3.16,-0.63,0.0,0.0,1.0,0.0,3.0,0.0,1.0,12.65,0.0,0.0,
9.739,71.04276651238742,84.9430109533435,-2.31,-2.29,-1.4,0.0,0.0,1.0,0.0,3.0,0.0,1.0,12.56,0.0,0.0,
9.762,71.08527665123874,85.02130109533435,-2.98,-2.24,-1.31,0.0,0.0,1.0,0.0,3.0,0.0,1.0,12.36,0.0,0.0,
9.787,71.01752766512388,85.04713010953344,-4.0,-3.96,0.75,0.0,0.0,1.0,0.0,3.0,0.0,1.0,12.36,0.0,0.0,
9.81,71.0377527665124,85.00471301095334,-3.53,-1.16,-0.21,0.0,0.0,1.0,0.0,3.0,0.0,2.0,12.36,0.0,0.0,
9.835,71.04877527665124,85.00947130109533,-2.97,0.16,-1.59,0.0,0.0,1.0,0.0,3.0,0.0,2.0,12.36,0.0,0.0,
9.859,71.09487752766512,84.98294713010954,-3.2,0.04,-0.82,0.0,0.0,1.0,0.0,3.0,0.0,2.0,12.36,0.0,0.0,
9.882,71.0544877527665,84.98929471301095,-3.83,-1.11,1.34,0.0,0.0,1.0,0.0,3.0,0.0,2.0,12.36,0.0,0.0,
9.907,71.03244877527665,84.9989294713011,-3.58,0.84,-0.76,0.0,0.0,1.0,0.0,3.0,0.0,3.0,12.56,0.0,0.0,
9.93,71.01224487752766,84.9908929471301,-1.55,2.51,-3.41,0.0,0.0,1.0,0.0,3.0,0.0,3.0,12.75,0.0,0.0,
9.955,71.07322448775277,84.999089294713,-2.79,-0.56,-1.18,0.0,0.0,1.0,0.0,3.0,0.0,3.0,12.85,0.0,0.0,
9.978,71.07932244877527,85.0179089294713,-3.47,-2.08,0.06,0.0,0.0,1.0,0.0,3.0,0.0,3.0,12.75,0.0,0.0,
10.002,71.02593224487752,85.01079089294713,-2.23,-0.06,-1.84,0.0,0.0,1.0,0.0,3.0,0.0,3.0,12.75,0.0,0.0,
10.027,70.96659322448775,85.13607908929471,-2.92,6.31,-0.44,0.0,0.0,1.0,0.0,3.0,0.0,3.0,12.85,0.0,0.0,
10.05,71.20365932244877,85.09460790892948,-3.85,1.64,3.51,0.0,0.0,1.0,0.0,3.0,0.0,3.0,12.46,0.0,0.0,
10.075,71.21836593224488,84.87446079089294,3.27,3.65,-9.96,0.0,0.0,1.0,0.0,3.0,0.0,3.0,12.16,0.0,0.0,
10.098,71.48983659322448,85.0864460790893,2.17,2.49,-11.88,0.0,0.0,1.0,0.0,3.0,0.0,3.0,11.97,0.0,0.0,
10.123,71.21998365932245,84.65764460790894,5.84,-0.76,-15.47,0.0,0.0,1.0,0.0,3.0,0.0,3.0,11.67,0.0,0.0,
10.146,71.22899836593224,84.6777644607909,-3.57,-3.72,-1.77,0.0,0.0,1.0,0.0,3.0,0.0,3.0,11.67,0.0,0.0,
10.171,71.53589983659322,84.81477644607908,-6.91,-3.11,1.75,0.0,0.0,1.0,0.0,3.0,0.0,3.0,11.67,0.0,0.0,
10.194,71.44958998365932,84.70247764460791,-7.18,-4.31,5.36,0.0,0.0,1.0,0.0,3.0,0.0,3.0,12.07,0.0,0.0,
10.219,71.29695899836594,84.6282477644608,-6.35,-5.08,4.11,0.0,0.0,1.0,0.0,3.0,0.0,3.0,12.16,0.0,0.0,
10.243,71.22769589983659,84.5488247764461,-2.89,-3.1,-1.14,0.0,0.0,1.0,0.0,3.0,0.0,4.0,12.26,0.0,0.0,
10.267,71.14876958998366,84.5948824776446,-1.91,-2.27,-2.64,0.0,0.0,1.0,0.0,3.0,0.0,4.0,12.26,0.0,0.0,
10.291,71.08687695899836,84.67148824776446,-1.75,-3.77,-1.68,0.0,0.0,1.0,0.0,3.0,0.0,4.0,12.07,0.0,0.0,
10.315,71.15268769589983,84.77814882477645,-3.36,-8.23,1.46,0.0,0.0,1.0,0.0,3.0,0.0,4.0,11.97,0.0,0.0,
10.339,71.06026876958998,84.87881488247764,-3.5,-8.27,5.63,0.0,0.0,1.0,0.0,3.0,0.0,3.0,11.87,0.0,0.0,
10.363,70.736026876959,84.81688148824777,-6.15,-11.34,9.01,0.0,0.0,1.0,0.0,3.0,0.0,3.0,11.58,0.0,0.0,
10.387,70.75760268769591,84.85568814882477,-2.79,2.61,0.81,0.0,0.0,1.0,0.0,3.0,0.0,3.0,11.28,0.0,0.0,
10.412,70.7507602687696,84.79656881488248,-5.39,-7.03,5.17,0.0,0.0,1.0,0.0,3.0,0.0,3.0,10.99,0.0,0.0,
10.435,70.62407602687696,84.87165688148824,-2.66,-2.79,0.96,0.0,0.0,1.0,0.0,3.0,0.0,3.0,10.79,0.0,0.0,
10.46,70.57540760268769,84.91516568814882,-4.14,-1.5,2.37,0.0,0.0,1.0,0.0,3.0,0.0,2.0,10.5,0.0,0.0,
10.483,70.63354076026877,84.91951656881488,-3.44,0.83,-0.44,0.0,0.0,1.0,0.0,3.0,0.0,2.0,10.2,0.0,0.0,
10.507,70.57635407602687,84.91995165688148,-4.79,-1.41,2.47,0.0,0.0,1.0,0.0,3.0,0.0,2.0,10.01,0.0,0.0,
10.531,70.5436354076027,84.84799516568816,-4.24,-2.1,3.38,0.0,0.0,1.0,0.0,3.0,0.0,2.0,9.81,0.0,0.0,
10.555,70.54936354076027,84.75979951656882,-2.41,0.37,-0.89,0.0,0.0,1.0,0.0,3.0,0.0,2.0,9.81,0.0,0.0,
10.578,70.59493635407603,84.84997995165688,-2.54,1.82,-1.53,0.0,0.0,1.0,0.0,3.0,0.0,2.0,9.61,0.0,0.0,
10.602,70.64449363540761,84.84999799516568,-4.49,-1.86,1.98,0.0,0.0,1.0,0.0,3.0,0.0,2.0,9.42,0.0,0.0,
10.627,70.48744936354076,84.72399979951656,-2.19,0.69,-1.34,0.0,0.0,1.0,0.0,3.0,0.0,2.0,9.42,0.0,0.0,
10.65,70.62474493635408,84.75639997995167,-3.31,2.34,-0.35,0.0,0.0,1.0,0.0,3.0,0.0,2.0,9.52,0.0,0.0,
10.674,70.65647449363541,84.72363999799516,-2.73,1.21,-0.92,0.0,0.0,1.0,0.0,3.0,0.0,2.0,9.22,0.0,0.0,
10.697,70.67764744936355,84.7923639997995,-4.02,0.05,0.95,0.0,0.0,1.0,0.0,3.0,0.0,2.0,9.22,0.0,0.0,
10.722,70.71576474493635,84.76323639997996,-3.3,5.76,-1.31,0.0,0.0,1.0,0.0,3.0,0.0,2.0,9.22,0.0,0.0,
10.745,70.78257647449364,84.83232363999801,-3.26,2.31,-0.24,0.0,0.0,1.0,0.0,3.0,0.0,2.0,9.22,0.0,0.0,
10.769,70.84325764744935,84.83923236399981,-3.71,1.63,0.27,0.0,0.0,1.0,0.0,3.0,0.0,2.0,9.12,0.0,0.0,
10.792,70.84032576474495,84.83092323639997,-2.4,3.53,-2.44,0.0,0.0,1.0,0.0,3.0,0.0,2.0,9.12,0.0,0.0,
10.817,70.8670325764745,84.88409232363999,-1.99,6.06,-1.77,0.0,0.0,1.0,0.0,3.0,0.0,2.0,9.03,0.0,0.0,
10.841,71.04070325764745,84.95240923236399,-2.85,5.61,0.01,0.0,0.0,1.0,0.0,3.0,0.0,2.0,8.93,0.0,0.0,
10.864,71.21107032576474,84.94124092323639,-3.62,2.22,0.3,0.0,0.0,1.0,0.0,3.0,0.0,2.0,8.73,0.0,0.0,
10.888,71.17410703257647,84.85912409232364,-3.02,4.79,0.08,0.0,0.0,1.0,0.0,3.0,0.0,2.0,8.53,0.0,0.0,
10.911,71.22441070325765,84.80591240923235,-3.34,14.79,4.36,0.0,0.0,1.0,0.0,2.0,0.0,2.0,8.44,0.0,0.0,
10.936,71.42744107032577,84.71059124092324,0.58,10.42,-1.98,0.0,0.0,1.0,0.0,2.0,0.0,2.0,7.95,0.0,0.0,
10.959,71.77174410703257,84.76405912409231,2.41,10.76,-6.42,0.0,0.0,0.0,0.0,2.0,0.0,2.0,7.36,0.0,0.0,
10.983,72.13017441070326,84.98540591240923,-1.69,7.27,-5.45,0.0,0.0,1.0,0.0,2.0,0.0,2.0,6.97,0.0,0.0,
11.006,72.21101744107033,85.15154059124093,-4.6,0.6,-1.83,0.0,0.0,1.0,0.0,2.0,0.0,2.0,6.87,0.0,0.0,
11.031,72.15610174410703,85.10515405912409,1.09,13.04,-5.94,0.0,0.0,1.0,0.0,2.0,0.0,2.0,6.97,0.0,0.0,
11.055,72.4206101744107,85.0285154059124,4.9,18.73,-2.73,0.0,0.0,0.0,0.0,2.0,0.0,2.0,6.77,0.0,0.0,
11.078,72.17706101744108,85.30885154059125,6.08,-22.57,2.44,0.0,0.0,0.0,0.0,1.0,0.0,1.0,6.18,0.0,0.0,
11.103,72.8097061017441,85.71488515405913,1.99,14.72,-8.5,0.0,0.0,0.0,0.0,1.0,0.0,1.0,5.69,0.0,0.0,
11.126,72.98997061017441,85.63848851540591,-10.95,-15.15,-3.22,0.0,0.0,1.0,0.0,2.0,0.0,2.0,5.59,0.0,0.0,
11.15,73.53899706101744,85.49584885154059,-18.68,6.22,-0.69,0.0,0.0,1.0,0.0,3.0,0.0,4.0,6.38,0.0,0.0,
11.174,73.62089970610174,85.10358488515406,-15.65,4.69,4.54,0.0,0.0,2.0,0.0,3.0,0.0,4.0,7.95,0.0,0.0,
11.198,73.87208997061018,85.06435848851541,-11.71,-2.49,9.11,0.0,0.0,2.0,0.0,4.0,0.0,4.0,9.32,0.0,0.0,
11.223,73.64520899706102,84.68243584885154,-7.34,-4.38,5.86,0.0,0.0,2.0,0.0,4.0,0.0,4.0,10.2,0.0,0.0,
11.247,73.4785208997061,84.35624358488515,0.44,3.19,1.52,0.0,0.0,2.0,0.0,3.0,0.0,4.0,10.99,0.0,0.0,
11.271,73.7318520899706,84.49462435848852,5.98,10.2,-1.5,0.0,0.0,1.0,0.0,3.0,0.0,3.0,10.5,0.0,0.0,
11.294,74.23418520899706,84.50846243584886,6.8,3.01,6.56,0.0,0.0,1.0,0.0,2.0,0.0,3.0,9.42,0.0,0.0,
11.319,74.5994185208997,84.95984624358488,-4.09,-1.09,-1.24,0.0,0.0,1.0,0.0,2.0,0.0,2.0,8.44,0.0,0.0,
11.342,74.81594185208998,84.97798462435848,-14.7,-0.73,-10.6,0.0,0.0,2.0,0.0,3.0,0.0,3.0,8.14,0.0,0.0,
11.367,75.74659418520899,85.62779846243586,-16.36,-12.79,-8.28,1.0,0.0,2.0,0.0,4.0,0.0,5.0,10.1,0.0,0.0,
11.392,75.72265941852089,85.62977984624358,-20.5,-23.94,9.89,1.0,0.0,3.0,0.0,4.0,0.0,6.0,14.32,0.0,0.0,
11.416,75.09926594185208,85.23397798462436,-14.56,-13.34,11.3,1.0,0.0,3.0,0.0,4.0,0.0,7.0,16.19,0.0,0.0,
11.441,74.46092659418521,84.76239779846243,-6.92,2.18,-0.37,1.0,0.0,3.0,0.0,4.0,0.0,5.0,15.89,0.0,0.0,
11.464,74.59509265941853,84.79623977984623,-2.36,4.49,-7.49,0.0,0.0,3.0,0.0,4.0,0.0,5.0,15.11,0.0,0.0,
11.489,74.64450926594185,84.89862397798461,-8.73,-5.95,8.29,0.0,0.0,3.0,0.0,4.0,1.0,5.0,13.93,0.0,0.0,
11.513,73.73145092659418,84.46786239779847,-4.8,-3.9,3.97,0.0,0.0,3.0,0.0,3.0,1.0,6.0,12.07,0.1,0.0,
11.537,73.52314509265942,84.20878623977985,5.85,6.85,-3.23,0.0,0.0,3.0,0.0,3.0,1.0,6.0,10.3,0.49,0.0,
11.561,74.13231450926594,84.14687862397798,8.45,-6.89,8.36,0.0,0.0,2.0,0.0,2.0,0.0,5.0,7.06,1.08,0.0,
11.585,74.0672314509266,84.4556878623978,-9.15,-17.24,12.0,0.0,0.0,2.0,0.0,2.0,0.0,6.0,5.59,2.06,0.0,
11.61,73.68272314509265,84.33356878623977,-10.14,0.46,-3.22,0.0,0.0,3.0,0.0,3.0,1.0,7.0,5.59,1.28,0.0,
11.634,73.49127231450927,84.22235687862397,-8.29,11.61,-6.5,0.0,0.0,3.0,0.0,3.0,1.0,8.0,6.57,1.28,0.0,
11.658,73.52612723145093,84.2832356878624,-9.94,-11.37,8.15,0.0,0.0,3.0,0.0,3.0,1.0,9.0,7.36,0.0,0.0,
11.682,73.02561272314509,83.74032356878625,-9.59,-10.85,10.21,0.0,0.0,3.0,0.0,3.0,1.0,9.0,8.04,0.0,0.0,
11.707,73.01156127231451,83.55103235687864,-1.7,-7.28,6.18,0.0,0.0,3.0,0.0,3.0,1.0,8.0,8.24,0.0,0.0,
11.73,72.08315612723146,79.96810323568786,25.76,-13.4,-30.0,0.0,0.0,2.0,0.0,3.0,1.0,7.0,8.04,0.0,0.0,
11.755,71.83731561272315,80.57281032356879,11.82,-2.39,-4.42,0.0,0.0,2.0,0.0,2.0,0.0,6.0,7.36,0.0,0.0,
11.779,71.68673156127231,81.32628103235689,4.2,30.28,4.56,0.0,0.0,1.0,0.0,1.0,0.0,4.0,7.06,0.59,0.0,
11.803,75.82967315612723,78.62962810323569,34.64,-33.64,-91.08,0.0,0.0,0.0,0.0,0.0,0.0,2.0,6.77,1.37,0.0,
11.827,77.69296731561273,77.30696281032357,9.37,-13.89,-4.77,0.0,0.0,0.0,0.0,0.0,0.0,0.0,5.3,2.55,0.0,
11.85,79.79629673156127,80.92769628103235,-3.85,-18.47,0.63,0.0,0.0,0.0,0.0,0.0,0.0,0.0,3.24,3.24,0.0,
11.875,80.33062967315612,83.21576962810323,6.56,-94.7,10.25,0.0,0.0,0.0,0.0,0.0,0.0,0.0,1.08,1.77,0.0,
11.898,80.11406296731562,86.67557696281033,-71.27,-116.13,43.98,0.0,0.0,0.0,0.0,0.0,0.0,0.0,0.0,0.29,0.0,
11.923,78.17540629673157,90.36055769628103,-87.6,10.47,23.08,0.0,0.0,0.0,0.0,0.0,0.0,0.0,0.0,0.69,0.0,
11.947,76.15454062967316,95.94005576962812,-61.47,162.11,-27.15,0.0,0.0,0.0,0.0,0.0,0.0,0.0,0.0,1.18,0.0,
11.971,77.32045406296731,104.62500557696282,-32.27,136.6,-9.01,0.0,0.0,0.0,0.0,0.0,0.0,0.0,0.0,2.65,0.0,
11.995,75.34004540629674,112.32450055769628,0.5,26.77,15.72,0.0,0.0,0.0,0.0,0.0,0.0,0.0,0.0,2.94,0.0,
12.019,72.86500454062967,118.45845005576962,25.57,6.07,44.95,0.0,0.0,0.0,0.0,0.0,0.0,0.0,0.0,2.55,0.0,
12.043,69.80050045406296,122.42884500557697,63.05,-27.45,63.16,0.0,0.0,0.0,0.0,0.0,0.0,0.0,0.0,3.53,0.0,
12.066,68.16205004540629,123.90588450055769,86.5,-3.69,64.62,0.0,0.0,1.0,0.0,0.0,0.0,0.0,0.0,3.24,0.0,
12.091,67.08920500454063,127.62658845005575,171.34,-8.21,77.73,0.0,0.0,1.0,0.0,1.0,0.0,0.0,0.0,2.16,0.0,
12.114,63.408920500454066,121.61765884500558,62.92,-82.73,-31.21,0.0,0.0,1.0,0.0,1.0,0.0,0.0,0.0,2.16,0.0,
12.139,60.6378920500454,115.13076588450055,-3.37,250.14,120.07,0.0,0.0,1.0,0.0,1.0,0.0,0.0,0.0,1.57,0.0,
12.163,60.34278920500454,113.26707658845005,32.95,2.2,-33.38,0.0,0.0,1.0,0.0,1.0,0.0,0.0,0.0,2.75,0.0,
12.186,59.35027892050046,111.271707658845,73.5,-103.48,26.37,0.0,0.0,1.0,0.0,1.0,0.0,0.0,0.0,3.73,0.0,
12.211,59.044027892050046,109.4341707658845,95.86,-50.15,-4.02,0.0,0.0,1.0,0.0,1.0,0.0,0.0,0.0,1.96,0.0,
12.234,57.375402789205,105.79441707658845,79.55,-62.03,56.06,0.0,0.0,1.0,0.0,1.0,0.0,0.0,0.0,0.0,0.0,
12.259,56.0385402789205,100.57944170765884,31.01,-120.1,69.89,0.0,0.0,1.0,0.0,1.0,0.0,0.0,0.0,0.0,0.0,
12.282,53.84385402789205,94.10894417076588,37.75,-100.86,-7.28,0.0,0.0,1.0,0.0,1.0,0.0,0.0,0.0,0.0,0.0,
12.306,53.95738540278921,90.6448944170766,22.82,-29.37,-35.5,0.0,0.0,1.0,0.0,2.0,0.0,0.0,0.0,0.0,0.0,
12.331,52.69973854027892,79.87648944170766,-12.56,-13.37,-0.21,0.0,0.0,1.0,0.0,2.0,0.0,0.0,0.0,0.0,0.0,
12.354,54.31097385402789,71.65364894417075,-25.17,-25.07,-44.59,0.0,0.0,1.0,0.0,2.0,0.0,0.0,0.0,1.47,0.0,
12.379,61.672097385402786,64.81936489441708,-129.64,73.17,-43.73,0.0,0.0,1.0,0.0,2.0,0.0,0.0,0.0,0.2,0.0,
12.402,66.81820973854028,72.2989364894417,-227.92,-200.34,-107.62,0.0,0.0,1.0,0.0,2.0,0.0,0.0,0.0,2.45,0.0,
12.427,68.84482097385403,67.43989364894418,-202.23,239.07,37.0,1.0,0.0,2.0,0.0,5.0,0.0,0.0,0.2,0.0,0.0,
12.451,64.99748209738539,70.67098936489441,-20.6,-36.99,-12.15,1.0,0.0,2.0,1.0,6.0,0.0,1.0,11.38,13.05,0.0,
12.476,68.32974820973854,71.79509893648945,18.75,250.14,-62.9,1.0,0.0,3.0,0.0,7.0,0.0,2.0,15.4,11.77,0.0,
12.5,76.04297482097385,67.86650989364895,-0.6,236.05,-59.99,0.0,0.0,3.0,0.0,9.0,1.0,3.0,14.72,10.4,0.0,
12.525,75.98629748209738,70.4976509893649,-13.46,-5.09,17.15,0.0,0.0,4.0,0.0,9.0,1.0,3.0,14.91,16.87,0.0,
12.55,74.95462974820974,71.7597650989365,-20.88,-18.96,42.96,0.0,0.0,3.0,0.0,10.0,0.0,4.0,15.7,24.92,0.0,
12.574,75.72446297482097,74.39697650989365,12.99,103.24,-39.56,0.0,0.0,3.0,0.0,10.0,0.0,3.0,16.38,31.69,0.0,
12.599,78.85244629748209,75.23669765098936,-17.09,-20.6,18.11,0.0,0.0,3.0,0.0,10.0,0.0,3.0,16.78,25.6,0.0,
12.623,78.9492446297482,75.92366976509894,-4.76,21.85,-4.32,0.0,0.0,3.0,0.0,11.0,0.0,2.0,17.56,26.88,0.0,
12.648,79.78692446297481,77.63936697650989,-5.76,22.88,-5.79,0.0,0.0,3.0,0.0,10.0,0.0,2.0,17.56,27.57,0.0,
12.672,80.47369244629749,78.82793669765098,-18.79,-1.53,23.94,0.0,0.0,3.0,0.0,10.0,0.0,2.0,17.07,26.49,0.0,
12.696,78.60736924462975,73.2227936697651,31.51,-19.02,-94.78,0.0,0.0,4.0,0.0,10.0,0.0,2.0,17.27,26.29,0.0,
12.721,80.18473692446297,77.8012793669765,-19.75,24.08,7.31,0.0,0.0,4.0,0.0,10.0,0.0,2.0,18.93,26.39,0.0,
12.745,80.8734736924463,78.52012793669765,-8.15,-7.83,-16.24,0.0,0.0,4.0,0.0,10.0,0.0,2.0,21.97,25.11,0.0,
12.77,62.02434736924462,63.82301279366976,250.13,-250.13,239.11,0.0,0.0,4.0,1.0,10.0,0.0,3.0,25.11,23.74,0.0,
12.794,81.90143473692446,88.45330127936697,199.18,35.56,-250.14,1.0,0.0,4.0,2.0,9.0,0.0,3.0,26.98,21.58,0.0,
12.819,82.41314347369244,87.7303301279367,-10.2,-51.32,-8.98,1.0,0.0,4.0,3.0,8.0,0.0,3.0,28.55,19.42,0.0,
12.844,81.58231434736923,86.90203301279368,-14.02,35.63,-13.63,2.0,0.0,4.0,4.0,8.0,0.0,3.0,34.43,18.84,0.0,
12.868,82.00323143473692,86.25220330127938,-17.22,-12.17,-6.55,2.0,0.0,5.0,4.0,8.0,1.0,3.0,41.4,18.25,0.0,
12.894,81.5593231434737,85.92622033012793,-19.56,11.92,-4.71,2.0,0.0,5.0,5.0,9.0,1.0,4.0,50.03,18.25,0.0,
12.917,81.43393231434737,85.56062203301279,-17.44,-9.64,-1.04,2.0,0.0,5.0,6.0,9.0,2.0,7.0,57.19,18.64,0.0,
12.942,81.00739323143472,84.94806220330128,-15.53,-5.81,1.38,2.0,0.0,6.0,6.0,10.0,3.0,7.0,72.79,18.93,0.0,
12.966,80.64073932314346,84.66180622033013,-14.99,-13.48,5.42,2.0,0.0,6.0,7.0,10.0,3.0,7.0,84.56,19.33,0.0,
12.991,79.73107393231435,84.74118062203301,-15.11,4.05,3.57,2.0,0.0,7.0,7.0,10.0,4.0,9.0,97.22,19.62,0.0,
13.016,79.90110739323143,84.5781180622033,-17.8,13.3,9.08,2.0,0.0,7.0,7.0,10.0,5.0,6.0,110.85,19.91,0.0,
13.04,80.02611073932314,84.93081180622033,-27.21,-9.9,17.28,1.0,0.0,8.0,6.0,10.0,5.0,10.0,123.8,20.99,0.0,
13.066,79.73261107393232,84.93008118062204,-54.48,-45.01,3.66,1.0,0.0,8.0,4.0,10.0,6.0,12.0,139.11,21.58,0.0,
13.09,77.66026110739324,81.04200811806221,-102.08,-12.32,-19.37,1.0,0.0,8.0,1.0,9.0,6.0,7.0,148.13,22.76,0.0,
13.115,77.17402611073932,81.79620081180622,-120.85,-71.56,12.42,1.0,0.0,7.0,1.0,7.0,6.0,6.0,154.12,17.95,0.0,
13.139,77.98040261107393,83.62662008118062,-180.18,-28.15,10.02,1.0,0.0,6.0,1.0,6.0,5.0,8.0,153.33,7.06,0.0,
13.164,77.56604026110739,82.32466200811807,-196.56,-121.63,-44.77,1.0,0.0,5.0,1.0,6.0,5.0,10.0,138.22,0.88,0.0,
13.189,75.95860402611073,78.93646620081181,-238.72,-121.73,-31.95,1.0,0.0,4.0,1.0,6.0,5.0,10.0,105.26,0.0,0.0,
13.213,73.06186040261106,73.67464662008119,-223.88,-40.26,10.37,1.0,0.0,2.0,1.0,4.0,3.0,5.0,37.47,7.26,0.0,
13.238,71.72818604026111,77.67546466200812,-75.06,28.47,-74.87,1.0,0.0,0.0,1.0,2.0,3.0,0.0,16.38,9.32,0.0,
13.261,71.08181860402611,87.69654646620081,-38.27,250.14,44.91,1.0,0.0,0.0,1.0,1.0,3.0,0.0,5.59,5.4,0.0,
13.286,84.49018186040261,100.47965464662009,51.1,225.54,66.57,1.0,0.0,0.0,1.0,1.0,3.0,0.0,0.29,6.28,0.0,
13.309,86.62301818604027,109.04796546466201,86.24,85.07,54.36,1.0,0.0,1.0,1.0,1.0,3.0,0.0,0.0,5.49,0.0,
13.333,89.33830181860402,113.6217965464662,101.01,-49.68,78.46,1.0,0.0,1.0,1.0,1.0,3.0,0.0,0.0,7.26,0.0,
13.358,86.3158301818604,112.11717965464663,113.94,-125.53,104.35,1.0,0.0,1.0,1.0,1.0,3.0,0.0,0.0,0.0,0.0,
13.381,81.90958301818604,107.77271796546466,120.26,-47.05,57.05,1.0,0.0,2.0,1.0,1.0,3.0,0.0,0.0,0.0,0.0,
13.406,83.1789583018186,100.57927179654646,119.52,5.08,43.3,1.0,0.0,2.0,1.0,2.0,3.0,0.0,0.0,0.0,0.0,
13.429,81.20889583018185,95.78292717965465,140.66,-11.68,31.5,1.0,0.0,2.0,1.0,2.0,3.0,0.0,0.0,0.0,0.0,
13.453,79.51788958301819,92.03629271796548,139.81,-40.0,45.0,1.0,0.0,3.0,1.0,3.0,3.0,0.0,0.0,0.0,0.0,
13.477,78.21478895830181,87.66562927179655,117.45,-15.99,27.46,1.0,0.0,3.0,1.0,3.0,3.0,0.0,0.0,0.0,0.0,
13.501,78.6064788958302,83.22356292717966,72.88,-20.65,-14.24,1.0,0.0,3.0,1.0,3.0,3.0,0.0,0.0,3.63,0.0,
13.526,78.24964788958302,79.52135629271797,37.22,-40.77,-16.53,1.0,0.0,4.0,1.0,4.0,3.0,0.0,0.0,1.67,0.0,
13.549,75.4779647889583,76.0371356292718,47.36,-49.7,41.15,1.0,0.0,4.0,1.0,4.0,3.0,0.0,0.0,2.75,0.0,
13.573,70.22379647889584,73.24971356292718,5.46,-155.49,112.39,1.0,0.0,3.0,1.0,3.0,3.0,0.0,0.0,35.41,0.0,
13.597,65.34237964788959,68.02997135629272,24.56,-12.84,41.39,1.0,0.0,3.0,1.0,3.0,3.0,0.0,0.0,69.95,0.0,
13.621,62.10023796478896,65.05999713562927,46.58,67.42,-74.12,1.0,0.0,3.0,1.0,3.0,3.0,0.0,0.0,117.23,0.0,
13.645,56.5650237964789,59.57899971356293,33.27,-36.02,-65.21,1.0,0.0,2.0,1.0,3.0,3.0,0.0,0.0,68.67,0.0,
13.669,56.983502379647895,61.946899971356295,135.52,0.31,-201.15,1.0,0.0,2.0,1.0,2.0,3.0,0.0,0.0,4.32,0.0,
13.693,61.92135023796479,69.30268999713563,92.82,147.11,-167.93,1.0,0.0,1.0,1.0,2.0,3.0,0.0,0.0,3.14,0.0,
13.717,61.65013502379647,67.92326899971356,-22.96,1.86,-37.33,1.0,0.0,1.0,1.0,1.0,3.0,0.0,0.0,1.86,0.0,
13.741,61.155013502379646,69.88232689997135,-42.03,-56.89,42.63,1.0,0.0,1.0,1.0,1.0,3.0,0.0,0.0,2.06,0.0,
13.765,60.82650135023796,72.72423268999714,-3.27,-53.73,-4.5,1.0,0.0,1.0,1.0,1.0,3.0,0.0,0.98,2.26,0.0,
13.789,60.793650135023796,73.86342326899971,2.26,-38.39,11.35,1.0,0.0,1.0,1.0,1.0,3.0,0.0,2.55,0.0,0.0,
13.813,60.68236501350238,75.38134232689997,7.34,-8.92,-11.53,1.0,0.0,1.0,1.0,2.0,3.0,0.0,3.73,0.0,0.0,
13.837,61.50823650135024,76.96413423269,-1.72,6.66,4.83,1.0,0.0,1.0,1.0,1.0,3.0,0.0,4.71,0.0,0.0,
13.861,61.72582365013503,78.89541342326899,-8.98,-2.12,12.4,1.0,0.0,1.0,2.0,1.0,3.0,0.0,5.49,0.0,0.0,
13.885,61.117582365013504,79.73654134232689,-12.22,-21.47,18.33,1.0,0.0,1.0,1.0,2.0,3.0,0.0,6.08,0.0,0.0,
13.91,58.94175823650136,78.3086541342327,-24.93,102.45,-65.12,1.0,0.0,1.0,1.0,2.0,3.0,0.0,6.77,0.0,0.0,
13.933,58.45417582365014,79.34486541342326,3.19,-3.32,-7.5,1.0,0.0,1.0,1.0,3.0,3.0,0.0,7.06,0.0,0.0,
13.958,59.32341758236501,80.26748654134234,-0.32,6.13,-2.07,1.0,0.0,2.0,1.0,3.0,3.0,0.0,7.26,0.0,0.0,
13.981,60.3463417582365,81.13374865413424,-4.41,-3.95,-2.67,1.0,0.0,2.0,1.0,3.0,3.0,1.0,7.06,0.0,0.0,
14.006,60.718634175823645,81.66137486541342,1.66,0.15,-7.24,1.0,0.0,2.0,1.0,4.0,3.0,1.0,7.36,0.0,0.0,
14.029,61.214863417582364,82.38013748654134,3.62,8.34,-9.59,1.0,0.0,2.0,1.0,4.0,3.0,1.0,7.75,0.0,0.0,
14.053,61.642486341758236,83.19001374865414,-2.4,4.56,-2.55,0.0,0.0,2.0,2.0,4.0,3.0,1.0,8.14,0.0,0.0,
14.077,62.04524863417583,83.83800137486541,-7.37,1.71,4.34,0.0,0.0,2.0,1.0,4.0,3.0,1.0,8.73,0.0,0.0,
14.101,62.166524863417585,83.97480013748654,-8.17,-1.23,6.89,0.0,0.0,2.0,1.0,4.0,3.0,1.0,8.63,0.0,0.0,
14.125,62.77265248634176,84.33048001374866,-4.14,2.51,-0.23,0.0,0.0,2.0,1.0,4.0,3.0,1.0,8.34,0.0,0.0,
14.149,62.91426524863417,84.59104800137487,-4.53,-7.11,1.66,0.0,0.0,2.0,1.0,4.0,3.0,1.0,8.34,0.0,0.0,
14.173,62.94642652486342,84.76110480013749,-4.76,-0.84,0.54,0.0,0.0,2.0,1.0,4.0,3.0,1.0,8.24,0.0,0.0,
14.197,62.97664265248633,84.94911048001374,-1.42,2.63,1.27,0.0,0.0,2.0,1.0,4.0,3.0,1.0,8.44,0.0,0.0,
14.221,63.096664265248634,85.10291104800137,-2.14,-7.05,0.11,0.0,0.0,2.0,1.0,4.0,3.0,1.0,8.53,0.0,0.0,
14.244,63.03666642652487,85.13629110480014,-1.9,-5.02,-1.86,0.0,0.0,2.0,2.0,3.0,3.0,1.0,8.63,0.0,0.0,
14.269,62.94066664265249,85.22062911048002,6.22,2.73,-12.53,0.0,0.0,2.0,2.0,4.0,3.0,1.0,8.73,0.0,0.0,
14.292,63.27306666426525,85.796062911048,5.44,11.82,-15.45,0.0,0.0,2.0,2.0,4.0,3.0,2.0,8.83,0.0,0.0,
14.317,63.39630666642652,86.2856062911048,-3.98,4.42,-8.85,0.0,0.0,3.0,2.0,4.0,3.0,3.0,8.83,0.0,0.0,
14.342,63.53463066664265,86.38856062911049,-3.61,4.61,-3.89,0.0,0.0,3.0,2.0,4.0,3.0,3.0,8.93,0.0,0.0,
14.365,63.53046306666426,86.58785606291104,-18.05,51.19,-9.64,0.0,0.0,3.0,2.0,4.0,3.0,3.0,9.22,0.0,0.0,
14.39,63.96204630666644,87.16578560629111,-3.27,7.02,2.2,0.0,0.0,3.0,2.0,4.0,3.0,3.0,9.32,0.0,0.0,
14.413,64.14020463066664,86.89057856062911,-0.85,-9.24,-3.57,0.0,0.0,3.0,2.0,4.0,3.0,3.0,9.32,0.0,0.0,
14.438,67.02002046306666,85.27005785606292,1.31,-5.18,-17.05,0.0,0.0,3.0,2.0,4.0,3.0,3.0,9.12,0.0,0.0,
14.461,67.56900204630666,85.2250057856063,-1.66,-2.05,-2.07,0.0,0.0,3.0,2.0,4.0,3.0,3.0,8.83,0.0,0.0,
14.486,67.65990020463067,85.28350057856063,-3.62,-6.49,3.42,0.0,0.0,3.0,2.0,4.0,3.0,3.0,8.73,0.0,0.0,
14.51,67.61499002046307,85.13635005785606,-2.75,-3.44,-3.26,0.0,0.0,3.0,2.0,4.0,3.0,3.0,8.73,0.0,0.0,
14.534,67.6014990020463,85.3646350057856,-1.11,2.56,-2.75,0.0,0.0,3.0,2.0,4.0,3.0,3.0,8.83,0.0,0.0,
14.559,67.54614990020464,85.37846350057856,-4.95,-5.0,5.31,0.0,0.0,3.0,2.0,4.0,3.0,3.0,8.93,0.0,0.0,
14.582,67.45061499002045,85.42484635005786,-5.78,-1.44,0.1,0.0,0.0,3.0,2.0,4.0,3.0,3.0,8.93,0.0,0.0,
14.607,67.51306149900205,85.42948463500579,-4.68,0.33,-0.07,0.0,0.0,3.0,2.0,4.0,3.0,3.0,9.12,0.0,0.0,
14.63,67.51030614990022,85.36694846350058,-5.75,-1.68,1.9,0.0,0.0,3.0,2.0,4.0,3.0,3.0,9.32,0.0,0.0,
14.655,67.45603061499003,85.33369484635006,-6.32,0.25,2.15,0.0,0.0,3.0,2.0,4.0,3.0,3.0,9.42,0.0,0.0,
14.679,67.387603061499,85.303369484635,-2.23,0.33,-2.28,0.0,0.0,3.0,2.0,4.0,3.0,3.0,9.61,0.0,0.0,
14.702,67.4257603061499,85.3183369484635,0.65,0.71,-4.71,0.0,0.0,3.0,2.0,4.0,3.0,3.0,9.71,0.0,0.0,
14.727,67.528576030615,85.48183369484636,-1.85,2.23,-3.68,0.0,0.0,3.0,2.0,4.0,3.0,4.0,9.81,0.0,0.0,
14.75,67.9348576030615,85.22818336948464,-4.72,-1.83,-2.74,0.0,0.0,3.0,2.0,4.0,3.0,4.0,9.81,0.0,0.0,
14.775,67.88548576030615,85.19381833694847,-2.76,-2.13,-1.36,0.0,0.0,3.0,2.0,3.0,3.0,4.0,9.81,0.0,0.0,
14.799,67.88954857603062,85.19938183369486,-2.95,-0.15,-0.99,0.0,0.0,3.0,2.0,3.0,0.0,4.0,9.91,0.0,0.0,
14.823,67.86295485760306,85.1729381833695,-1.78,-2.39,-1.01,0.0,0.0,3.0,2.0,3.0,0.0,4.0,9.91,0.0,0.0,
14.848,67.66229548576031,85.25129381833696,-3.58,-3.1,-0.25,0.0,0.0,3.0,2.0,3.0,0.0,4.0,9.71,0.0,0.0,
14.871,67.60622954857602,85.3311293818337,-1.34,-1.06,-2.67,0.0,0.0,3.0,2.0,3.0,0.0,4.0,9.52,0.0,0.0,
14.896,67.5826229548576,85.22211293818336,-2.68,0.42,0.45,0.0,0.0,3.0,2.0,3.0,0.0,4.0,9.32,0.0,0.0,
14.919,67.55326229548577,85.37321129381833,-3.45,-4.65,-0.53,0.0,0.0,3.0,2.0,3.0,0.0,3.0,9.12,0.0,0.0,
14.944,67.56832622954857,85.27132112938185,-2.19,-4.76,0.33,0.0,0.0,3.0,2.0,3.0,0.0,3.0,9.03,0.0,0.0,
14.967,67.59683262295485,85.2341321129382,-3.2,1.31,-0.97,0.0,0.0,3.0,2.0,3.0,0.0,3.0,8.93,0.0,0.0,
14.992,67.63568326229549,85.29341321129381,-2.06,-4.37,0.89,0.0,0.0,3.0,2.0,3.0,0.0,3.0,8.93,0.0,0.0,
15.015,67.52256832622956,85.30834132112939,-2.0,-4.44,0.21,0.0,0.0,3.0,2.0,3.0,0.0,3.0,8.93,0.0,0.0,
15.04,67.43925683262296,85.25583413211295,-2.0,4.71,-2.02,0.0,0.0,3.0,2.0,3.0,0.0,3.0,8.93,0.0,0.0,
15.064,67.53892568326229,85.32258341321129,-1.93,0.2,-1.99,0.0,0.0,3.0,2.0,3.0,0.0,3.0,8.93,0.0,0.0,
15.088,67.51289256832624,85.35625834132112,-3.44,-4.24,1.37,0.0,0.0,3.0,2.0,3.0,0.0,3.0,8.73,0.0,0.0,
15.112,67.47428925683262,85.3236258341321,-1.59,-0.63,-0.96,0.0,0.0,3.0,1.0,3.0,0.0,3.0,8.63,0.0,0.0,
15.136,67.47942892568327,85.33836258341321,-2.15,-1.31,-0.1,0.0,0.0,3.0,1.0,3.0,0.0,3.0,8.53,0.0,0.0,
15.161,67.51594289256832,85.32183625834132,0.27,-1.65,-2.36,0.0,0.0,3.0,1.0,3.0,0.0,3.0,8.34,0.0,0.0,
15.184,67.60059428925683,85.40118362583414,-1.5,-2.02,-0.44,0.0,0.0,3.0,1.0,3.0,0.0,3.0,8.24,0.0,0.0,
15.209,67.65405942892568,85.49911836258342,-2.58,-4.37,0.76,0.0,0.0,3.0,1.0,3.0,0.0,3.0,8.04,0.0,0.0,
15.233,68.43340594289256,85.16691183625835,-2.91,-1.75,-0.73,0.0,0.0,3.0,1.0,3.0,0.0,3.0,7.95,0.0,0.0,
15.257,68.42134059428926,85.35869118362584,0.82,-1.49,-2.02,0.0,0.0,3.0,1.0,3.0,0.0,3.0,7.85,0.0,0.0,
15.281,68.33913405942893,85.47686911836259,-1.44,-2.58,1.27,0.0,0.0,3.0,1.0,3.0,0.0,3.0,7.65,0.0,0.0,
15.305,68.3129134059429,85.42568691183625,-2.64,-8.36,3.23,0.0,0.0,2.0,1.0,3.0,0.0,3.0,7.46,0.0,0.0,
15.329,68.1122913405943,85.40256869118363,-2.64,-0.88,0.89,0.0,0.0,2.0,1.0,3.0,0.0,3.0,7.16,0.0,0.0,
15.353,68.06522913405944,85.46325686911837,-1.07,-0.75,-1.76,0.0,0.0,2.0,1.0,3.0,0.0,3.0,7.06,0.0,0.0,
15.377,68.03352291340595,85.50532568691185,-1.31,-2.94,-0.23,0.0,0.0,2.0,1.0,3.0,0.0,3.0,7.06,0.0,0.0,
15.401,67.94935229134059,85.50053256869118,-0.95,-2.7,-1.14,0.0,0.0,2.0,1.0,3.0,0.0,3.0,6.97,0.0,0.0,
15.426,67.90493522913407,85.55405325686912,-2.21,-1.49,-0.41,0.0,0.0,2.0,1.0,3.0,0.0,3.0,6.97,0.0,0.0,
15.45,67.77449352291342,85.6944053256869,-2.64,-2.23,-0.27,0.0,0.0,2.0,1.0,3.0,0.0,3.0,6.87,0.0,0.0,
15.474,67.67144935229133,85.69044053256869,-1.42,0.56,-0.96,0.0,0.0,2.0,1.0,3.0,0.0,3.0,6.87,0.0,0.0,
15.498,67.74214493522913,85.83404405325686,-2.78,-1.48,0.48,0.0,0.0,2.0,1.0,3.0,0.0,3.0,6.87,0.0,0.0,
15.522,67.68621449352293,85.76740440532569,-3.11,-3.47,2.04,0.0,0.0,2.0,0.0,3.0,0.0,3.0,6.87,0.0,0.0,
15.546,67.70762144935229,85.79674044053257,-1.85,-1.05,-0.94,0.0,0.0,2.0,0.0,3.0,0.0,3.0,6.77,0.0,0.0,
15.57,67.67376214493524,85.78167404405326,-3.14,-2.0,-0.47,0.0,0.0,2.0,0.0,3.0,0.0,3.0,6.77,0.0,0.0,
15.594,67.62537621449353,85.78916740440533,-2.24,-1.95,-1.2,0.0,0.0,2.0,1.0,3.0,0.0,3.0,6.77,0.0,0.0,
15.619,67.61153762144936,85.81691674044053,-3.79,-0.85,-0.47,0.0,0.0,2.0,1.0,3.0,0.0,3.0,6.87,0.0,0.0,
15.642,67.60115376214493,85.85569167404405,-3.17,-0.51,-1.76,0.0,0.0,2.0,1.0,3.0,0.0,3.0,6.87,0.0,0.0,
15.667,67.58211537621449,85.8955691674044,-4.05,-1.2,-0.36,0.0,0.0,2.0,1.0,3.0,0.0,3.0,6.97,0.0,0.0,
15.691,67.57121153762144,85.95355691674042,-2.51,-0.94,-1.37,0.0,0.0,2.0,1.0,3.0,0.0,3.0,7.16,0.0,0.0,
15.715,67.54312115376214,85.94135569167405,-2.66,-0.38,-1.47,0.0,0.0,2.0,1.0,3.0,0.0,3.0,7.16,0.0,0.0,
15.739,67.54031211537622,85.96713556916741,-3.65,-2.72,0.04,0.0,0.0,2.0,1.0,3.0,0.0,3.0,7.16,0.0,0.0,
15.763,67.49503121153762,85.93371355691674,-2.9,-2.21,-0.11,0.0,0.0,2.0,1.0,3.0,0.0,3.0,7.26,0.0,0.0,
15.788,67.43650312115376,85.93937135569168,-3.62,-1.76,0.24,0.0,0.0,2.0,1.0,3.0,0.0,3.0,7.16,0.0,0.0,
15.811,67.39465031211537,85.96693713556917,-3.35,-1.35,-0.51,0.0,0.0,2.0,1.0,3.0,0.0,3.0,7.16,0.0,0.0,
15.836,67.39046503121153,85.92469371355692,-3.35,-0.35,-0.67,0.0,0.0,2.0,1.0,3.0,0.0,3.0,7.26,0.0,0.0,
15.86,67.51604650312115,86.0014693713557,-4.08,-1.08,0.08,0.0,0.0,2.0,1.0,3.0,0.0,3.0,7.36,0.0,0.0,
15.884,67.46560465031212,85.97314693713557,-4.14,-3.66,3.17,0.0,0.0,2.0,1.0,3.0,0.0,3.0,7.46,0.0,0.0,
15.908,67.40656046503122,85.91631469371356,-3.07,-2.35,-0.06,0.0,0.0,2.0,1.0,3.0,0.0,3.0,7.46,0.0,0.0,
15.932,67.48165604650312,85.92863146937135,-2.85,-0.53,-1.3,0.0,0.0,2.0,1.0,3.0,0.0,3.0,7.36,0.0,0.0,
15.956,67.45316560465031,85.96586314693714,-3.24,-2.21,0.27,0.0,0.0,2.0,1.0,3.0,0.0,3.0,7.36,0.0,0.0,
15.98,67.39631656046504,85.95158631469371,-4.24,-1.16,0.15,0.0,0.0,2.0,1.0,3.0,0.0,3.0,7.26,0.0,0.0,
16.005,67.4806316560465,85.92315863146938,-3.61,0.31,-1.12,0.0,0.0,2.0,1.0,3.0,0.0,3.0,7.36,0.0,0.0,
16.028,67.46206316560465,85.90231586314694,-4.8,-3.5,2.31,0.0,0.0,2.0,1.0,3.0,0.0,3.0,7.55,0.0,0.0,
16.053,67.43320631656047,85.81923158631469,-3.31,-1.51,0.8,0.0,0.0,2.0,1.0,3.0,0.0,3.0,7.55,0.0,0.0,
16.076,67.55632063165604,85.85592315863147,-2.64,-0.69,-1.01,0.0,0.0,2.0,1.0,3.0,0.0,3.0,7.46,0.0,0.0,
16.101,67.4966320631656,85.85059231586314,-2.85,-2.73,0.48,0.0,0.0,2.0,1.0,3.0,0.0,3.0,7.36,0.0,0.0,
16.124,67.47266320631655,85.88605923158632,-2.92,-2.69,0.16,0.0,0.0,2.0,1.0,3.0,0.0,3.0,7.16,0.0,0.0,
16.149,67.47026632063165,85.84460592315862,-3.43,-0.36,-1.18,0.0,0.0,2.0,1.0,3.0,0.0,3.0,7.16,0.0,0.0,
16.173,67.48802663206317,85.81346059231586,-2.34,-1.56,-0.71,0.0,0.0,2.0,1.0,3.0,0.0,3.0,7.16,0.0,0.0,
16.197,67.43580266320632,85.78334605923158,-3.24,-0.24,-0.11,0.0,0.0,2.0,1.0,3.0,0.0,3.0,7.26,0.0,0.0,
16.222,67.43958026632063,85.82533460592316,-2.78,-1.4,-0.62,0.0,0.0,2.0,1.0,3.0,0.0,3.0,7.26,0.0,0.0,
16.245,67.45795802663206,85.89253346059232,-3.94,-2.56,1.58,0.0,0.0,2.0,1.0,3.0,0.0,3.0,7.06,0.0,0.0,
16.27,67.3517958026632,85.88125334605922,-2.2,-1.79,-0.48,0.0,0.0,2.0,1.0,3.0,0.0,3.0,7.06,0.0,0.0,
16.293,67.38617958026632,85.90712533460592,-1.93,-0.92,-1.45,0.0,0.0,2.0,1.0,3.0,0.0,3.0,6.87,0.0,0.0,
16.318,67.36261795802663,85.9727125334606,-2.71,-2.24,0.95,0.0,0.0,2.0,1.0,2.0,0.0,3.0,6.77,0.0,0.0,
16.342,67.30626179580267,85.97927125334607,-3.01,-2.81,1.21,0.0,0.0,2.0,1.0,2.0,0.0,3.0,6.67,0.0,0.0,
16.365,67.31862617958026,85.97992712533461,-2.92,-0.89,-0.62,0.0,0.0,2.0,1.0,2.0,0.0,3.0,6.57,0.0,0.0,
16.39,67.40086261795803,85.96199271253344,-3.66,-1.36,-0.29,0.0,0.0,2.0,1.0,2.0,0.0,3.0,6.47,0.0,0.0,
16.414,67.3460862617958,85.93319927125334,-3.12,-0.93,-0.98,0.0,0.0,2.0,1.0,2.0,0.0,3.0,6.57,0.0,0.0,
16.438,67.32260862617957,85.93931992712534,-2.67,1.02,-2.53,0.0,0.0,2.0,1.0,3.0,0.0,3.0,6.67,0.0,0.0,
16.462,67.36526086261796,85.95793199271252,-4.03,-1.04,-0.14,0.0,0.0,2.0,1.0,3.0,0.0,3.0,6.67,0.0,0.0,
16.486,67.35152608626179,85.97779319927126,-3.47,-1.92,0.17,0.0,0.0,2.0,1.0,3.0,0.0,3.0,6.67,0.0,0.0,
16.51,67.36815260862618,85.93477931992713,-3.28,0.37,-1.44,0.0,0.0,2.0,1.0,3.0,0.0,3.0,6.77,0.0,0.0,
16.534,67.41481526086262,85.9844779319927,-2.25,-0.22,-1.98,0.0,0.0,2.0,1.0,3.0,0.0,3.0,6.87,0.0,0.0,
16.559,67.41948152608626,85.96244779319926,-4.41,-1.73,0.65,0.0,0.0,2.0,1.0,3.0,0.0,3.0,6.97,0.0,0.0,
16.582,67.39294815260862,85.96024477931991,-2.98,-0.39,-1.05,0.0,0.0,2.0,1.0,3.0,0.0,3.0,7.16,0.0,0.0,
16.607,67.39929481526086,85.996024477932,-3.6,0.27,-0.83,0.0,0.0,2.0,1.0,3.0,0.0,3.0,7.16,0.0,0.0,
16.63,67.40892948152609,85.99960244779321,-2.68,-1.13,-1.01,0.0,0.0,2.0,1.0,3.0,0.0,3.0,7.26,0.0,0.0,
16.655,67.39189294815262,85.93696024477933,-2.4,-0.05,-1.56,0.0,0.0,2.0,1.0,3.0,0.0,3.0,7.26,0.0,0.0,
16.678,67.46218929481526,85.95769602447793,-2.43,0.27,-1.79,0.0,0.0,2.0,1.0,3.0,0.0,3.0,7.36,0.0,0.0,
16.703,67.50521892948153,85.9957696024478,-3.4,-0.79,-0.53,0.0,0.0,2.0,1.0,3.0,0.0,3.0,7.36,0.0,0.0,
16.728,67.47352189294816,85.94557696024478,-3.34,-0.83,-0.63,0.0,0.0,2.0,1.0,3.0,0.0,3.0,7.36,0.0,0.0,
16.751,67.41635218929481,85.95855769602447,-1.16,0.63,-3.4,0.0,0.0,2.0,1.0,3.0,0.0,3.0,7.46,0.0,0.0,
16.776,67.51863521892948,85.97785576960246,-2.37,1.34,-2.17,0.0,0.0,2.0,1.0,3.0,0.0,3.0,7.55,0.0,0.0,
16.799,67.55586352189295,85.97978557696025,-1.7,-0.94,-1.84,0.0,0.0,2.0,1.0,3.0,0.0,3.0,7.55,0.0,0.0,
16.824,67.5775863521893,86.01597855769602,-2.47,-0.56,-1.29,0.0,0.0,2.0,1.0,3.0,0.0,3.0,7.65,0.0,0.0,
16.847,67.64275863521894,86.0015978557696,-2.47,0.49,-2.2,0.0,0.0,2.0,1.0,3.0,0.0,3.0,7.55,0.0,0.0,
16.872,67.6582758635219,86.02715978557697,-2.38,-0.42,-1.08,0.0,0.0,2.0,1.0,3.0,0.0,3.0,7.65,0.0,0.0,
16.896,67.71382758635218,86.06571597855769,-2.16,-0.89,-0.74,0.0,0.0,2.0,1.0,3.0,0.0,3.0,7.85,0.0,0.0,
16.92,67.72838275863522,86.12357159785576,-3.28,-1.73,0.32,0.0,0.0,2.0,1.0,3.0,0.0,3.0,7.85,0.0,0.0,
16.944,67.71183827586351,86.05735715978557,-3.6,-2.78,0.97,0.0,0.0,2.0,1.0,3.0,0.0,3.0,7.85,0.0,0.0,
16.968,67.69218382758635,85.97873571597856,-3.02,-0.74,-0.72,0.0,0.0,2.0,1.0,3.0,0.0,3.0,7.85,0.0,0.0,
16.993,67.74421838275863,85.94387357159786,-3.17,-0.39,-0.78,0.0,0.0,2.0,1.0,3.0,0.0,3.0,7.85,0.0,0.0,
17.016,67.84842183827585,85.95838735715978,-2.69,-1.69,-0.34,0.0,0.0,2.0,1.0,3.0,0.0,3.0,7.85,0.0,0.0,
17.041,67.87684218382758,85.96883873571598,-2.9,-0.59,-0.56,0.0,0.0,2.0,1.0,3.0,0.0,3.0,7.95,0.0,0.0,
17.064,67.93368421838275,85.9248838735716,-3.35,-1.02,0.03,0.0,0.0,2.0,1.0,3.0,0.0,3.0,7.95,0.0,0.0,
17.089,67.98436842183827,85.88448838735717,-3.67,-0.6,-0.53,0.0,0.0,2.0,1.0,3.0,0.0,3.0,7.95,0.0,0.0,
17.113,68.02543684218384,85.87144883873572,-2.58,0.66,-1.73,0.0,0.0,2.0,1.0,3.0,0.0,3.0,8.14,0.0,0.0,
17.137,68.03854368421838,85.94214488387357,-3.23,0.85,-1.25,0.0,0.0,2.0,1.0,3.0,0.0,3.0,8.24,0.0,0.0,
17.161,68.00385436842184,85.94921448838736,-3.26,0.08,-0.79,0.0,0.0,2.0,1.0,3.0,0.0,3.0,8.24,0.0,0.0,
17.185,68.05438543684218,85.97692144883874,-4.21,0.16,0.23,0.0,0.0,2.0,1.0,3.0,0.0,3.0,8.34,0.0,0.0,
17.209,67.9694385436842,85.91669214488388,-4.04,-0.63,0.44,0.0,0.0,2.0,1.0,3.0,0.0,3.0,8.44,0.0,0.0,
17.233,67.97894385436842,85.9196692144884,-3.02,1.1,-1.05,0.0,0.0,2.0,2.0,3.0,0.0,3.0,8.63,0.0,0.0,
17.257,68.02489438543685,85.94696692144885,-5.63,0.96,1.15,0.0,0.0,2.0,2.0,3.0,0.0,3.0,8.73,0.0,0.0,
17.282,68.02048943854368,85.85069669214488,-4.24,-0.39,0.18,0.0,0.0,2.0,2.0,3.0,0.0,3.0,8.83,0.0,0.0,
17.305,68.07404894385436,85.85906966921449,-4.74,-0.46,0.89,0.0,0.0,2.0,2.0,3.0,0.0,3.0,9.12,0.0,0.0,
17.33,68.05240489438543,85.81490696692144,-4.3,-0.3,0.24,0.0,0.0,2.0,2.0,3.0,0.0,3.0,9.22,0.0,0.0,
17.353,68.05024048943854,85.72949069669214,-4.53,-0.73,0.63,0.0,0.0,2.0,2.0,3.0,0.0,3.0,9.22,0.0,0.0,
17.378,68.11302404894386,85.7209490696692,-2.69,0.64,-1.0,0.0,0.0,2.0,2.0,3.0,0.0,3.0,9.42,0.0,0.0,
17.401,68.16430240489439,85.67509490696693,-3.54,-2.08,0.44,0.0,0.0,2.0,2.0,3.0,0.0,3.0,9.52,0.0,0.0,
17.426,68.15143024048945,85.63450949069669,-3.58,-0.69,-0.12,0.0,0.0,2.0,2.0,3.0,0.0,3.0,9.52,0.0,0.0,
17.449,68.23114302404895,85.64845094906967,-2.77,0.5,-1.31,0.0,0.0,2.0,2.0,3.0,0.0,3.0,9.61,0.0,0.0,
17.474,68.23911430240489,85.66784509490698,-3.86,-1.72,0.94,0.0,0.0,2.0,2.0,3.0,0.0,3.0,9.52,0.0,0.0,
17.498,68.21291143024048,85.67878450949071,-4.23,-2.19,0.96,0.0,0.0,2.0,2.0,3.0,0.0,3.0,9.61,0.0,0.0,
17.522,68.20129114302405,85.73387845094906,-2.64,0.39,-1.63,0.0,0.0,2.0,2.0,3.0,0.0,3.0,9.71,0.0,0.0,
17.546,68.22712911430241,85.7123878450949,-3.39,-2.78,0.5,0.0,0.0,2.0,2.0,3.0,0.0,3.0,9.71,0.0,0.0,
17.57,68.23871291143024,85.6562387845095,-3.34,-2.86,0.83,0.0,0.0,2.0,2.0,3.0,0.0,3.0,9.81,0.0,0.0,
17.594,68.21287129114302,85.69562387845096,-3.11,-2.66,-0.04,0.0,0.0,2.0,2.0,3.0,0.0,3.0,9.91,0.0,0.0,
17.618,68.1832871291143,85.6725623878451,-3.73,-2.99,0.89,0.0,0.0,2.0,2.0,3.0,0.0,3.0,9.71,0.0,0.0,
17.642,68.12632871291143,85.6342562387845,-2.53,-2.26,-0.5,0.0,0.0,2.0,2.0,3.0,0.0,3.0,9.71,0.0,0.0,
17.667,68.13863287129114,85.63042562387844,-2.31,-2.31,-0.76,0.0,0.0,2.0,2.0,3.0,0.0,3.0,9.71,0.0,0.0,
17.691,68.10386328712912,85.67504256238786,-2.69,-4.37,0.66,0.0,0.0,2.0,2.0,3.0,0.0,3.0,9.71,0.0,0.0,
17.715,68.06438632871291,85.70650425623879,-3.63,-4.77,1.31,0.0,0.0,2.0,2.0,3.0,0.0,3.0,9.61,0.0,0.0,
17.739,68.0424386328713,85.70065042562389,-3.25,-4.07,1.08,0.0,0.0,2.0,2.0,3.0,0.0,3.0,9.42,0.0,0.0,
17.763,68.01324386328713,85.79006504256239,-3.02,-4.79,1.02,0.0,0.0,2.0,1.0,3.0,0.0,3.0,9.32,0.0,0.0,
17.787,67.9653243863287,85.82600650425624,-3.69,-5.02,1.89,0.0,0.0,2.0,1.0,3.0,0.0,3.0,9.12,0.0,0.0,
17.811,67.83453243863286,85.75760065042562,-2.85,-4.25,0.21,0.0,0.0,2.0,1.0,3.0,0.0,3.0,9.03,0.0,0.0,
17.836,67.76745324386329,85.76876006504256,-1.98,-3.1,-1.11,0.0,0.0,2.0,1.0,3.0,0.0,3.0,8.93,0.0,0.0,
17.859,67.84174532438632,85.88687600650425,-2.92,-2.74,-0.46,0.0,0.0,2.0,1.0,3.0,0.0,3.0,8.83,0.0,0.0,
17.884,67.77717453243862,85.88068760065042,-5.25,-5.39,2.7,0.0,0.0,2.0,1.0,3.0,0.0,3.0,8.63,0.0,0.0,
17.907,67.60871745324387,85.84406876006504,-4.34,-5.3,2.13,0.0,0.0,2.0,1.0,3.0,0.0,3.0,8.53,0.0,0.0,
17.932,67.56487174532438,85.8764068760065,-4.01,-3.18,2.09,0.0,0.0,2.0,1.0,3.0,0.0,3.0,8.34,0.0,0.0,
17.955,67.54248717453244,85.87064068760066,-5.11,-3.27,3.08,0.0,0.0,2.0,1.0,3.0,0.0,3.0,8.34,0.0,0.0,
17.98,67.43224871745325,85.84306406876007,-5.89,-6.03,5.47,0.0,0.0,2.0,1.0,3.0,0.0,3.0,8.34,0.0,0.0,
18.003,67.34022487174532,85.79530640687602,-5.12,-5.27,5.53,0.0,0.0,2.0,1.0,3.0,0.0,3.0,8.34,0.0,0.0,
18.028,67.32202248717452,85.8085306406876,-5.43,-4.94,5.13,0.0,0.0,2.0,1.0,3.0,0.0,3.0,8.34,0.0,0.0,
18.052,67.18520224871746,85.76485306406877,-6.89,-6.2,7.8,0.0,0.0,2.0,1.0,3.0,0.0,3.0,8.24,0.0,0.0,
18.076,66.86552022487174,85.72448530640688,-7.26,-8.34,9.28,0.0,0.0,2.0,1.0,3.0,0.0,3.0,8.14,0.0,0.0,
18.1,66.61755202248717,85.63944853064068,-5.16,-4.89,4.56,0.0,0.0,2.0,1.0,3.0,0.0,3.0,8.14,0.0,0.0,
18.124,66.48475520224872,85.54094485306408,-5.27,-7.88,4.89,0.0,0.0,2.0,0.0,3.0,0.0,3.0,8.04,0.0,0.0,
18.148,66.40847552022487,85.55809448530641,-5.42,-7.3,5.82,0.0,0.0,2.0,0.0,3.0,0.0,3.0,7.95,0.0,0.0,
18.172,66.22984755202248,85.48780944853064,-4.56,-6.34,6.83,0.0,0.0,2.0,0.0,3.0,0.0,3.0,7.75,0.0,0.0,
18.196,65.41098475520224,86.13778094485306,1.97,83.82,-13.34,0.0,0.0,2.0,0.0,3.0,0.0,3.0,7.75,0.0,0.0,
18.221,66.04909847552022,86.1037780944853,-2.28,-0.79,1.94,0.0,0.0,2.0,0.0,3.0,0.0,3.0,7.65,0.0,0.0,
18.244,66.20290984755202,86.10037780944853,-4.44,-6.97,3.11,0.0,0.0,2.0,0.0,2.0,0.0,3.0,7.55,0.0,0.0,
18.269,66.1642909847552,85.94703778094485,-5.23,-3.98,3.4,0.0,0.0,2.0,0.0,2.0,0.0,3.0,7.46,0.0,0.0,
18.292,66.19642909847552,85.89570377809449,-4.34,-5.15,3.04,0.0,0.0,2.0,0.0,2.0,0.0,3.0,7.46,0.0,0.0,
18.316,66.19964290984755,85.87257037780945,-2.95,-4.24,0.74,0.0,0.0,2.0,0.0,2.0,0.0,3.0,7.46,0.0,0.0,
18.34,66.29896429098476,85.84325703778094,-5.02,-4.24,4.33,0.0,0.0,2.0,0.0,2.0,0.0,3.0,7.36,0.0,0.0,
18.364,66.30889642909848,85.6963257037781,-0.84,52.65,-10.57,0.0,0.0,2.0,0.0,2.0,0.0,3.0,7.36,0.0,0.0,
18.388,66.80488964290984,85.89763257037781,-2.37,8.05,-1.41,0.0,0.0,2.0,0.0,2.0,0.0,3.0,7.26,0.0,0.0,
18.412,66.93548896429098,85.90876325703778,-2.87,-3.7,0.79,0.0,0.0,2.0,0.0,2.0,0.0,2.0,7.06,0.0,0.0,
18.436,67.0475488964291,85.74787632570379,-6.27,-6.46,4.89,0.0,0.0,2.0,0.0,2.0,0.0,2.0,6.87,0.0,0.0,
18.46,66.77975488964292,85.57878763257038,-4.27,-4.0,0.98,0.0,0.0,2.0,0.0,2.0,0.0,2.0,6.87,0.0,0.0,
18.484,66.65397548896429,85.07587876325704,-3.44,-3.98,3.47,0.0,0.0,2.0,0.0,2.0,0.0,2.0,6.87,0.0,0.0,
18.508,66.67739754889644,85.2235878763257,-4.35,-5.77,3.52,0.0,0.0,2.0,0.0,2.0,0.0,2.0,6.77,0.0,0.0,
18.532,66.61673975488964,85.22935878763258,-3.82,-5.61,3.15,0.0,0.0,2.0,0.0,2.0,0.0,2.0,6.77,0.0,0.0,
18.555,66.61967397548896,85.36493587876325,-1.82,-3.79,-0.02,0.0,0.0,2.0,0.0,2.0,0.0,2.0,6.67,0.0,0.0,
18.58,66.6469673975489,85.45949358787632,-4.56,-5.98,3.1,0.0,0.0,2.0,0.0,2.0,0.0,2.0,6.47,0.0,0.0,
18.604,66.64069673975489,85.47794935878764,-4.53,-4.24,2.66,0.0,0.0,2.0,0.0,2.0,0.0,2.0,6.38,0.0,0.0,
18.627,68.45806967397549,85.86679493587877,-11.74,14.85,1.75,0.0,0.0,2.0,0.0,2.0,0.0,2.0,6.28,0.0,0.0,
18.651,68.47780696739756,85.97767949358787,-2.37,6.85,0.89,0.0,0.0,2.0,0.0,2.0,0.0,2.0,6.18,0.0,0.0,
18.675,68.33578069673975,85.97076794935879,-3.17,-4.13,1.34,0.0,0.0,2.0,0.0,2.0,0.0,2.0,6.18,0.0,0.0,
18.699,68.14157806967398,85.86207679493587,-3.89,-4.49,2.46,0.0,0.0,2.0,0.0,2.0,0.0,2.0,6.18,0.0,0.0,
18.722,67.97815780696739,85.76120767949358,-4.64,-4.88,3.47,0.0,0.0,2.0,0.0,2.0,0.0,2.0,5.98,0.0,0.0,
18.746,67.78181578069675,85.64312076794936,-4.66,-3.23,2.15,0.0,0.0,2.0,0.0,2.0,0.0,2.0,5.89,0.0,0.0,
18.77,67.91518157806968,85.09131207679494,-5.78,-6.79,3.23,0.0,0.0,2.0,0.0,2.0,0.0,2.0,5.89,0.0,0.0,
18.794,67.79351815780697,85.04513120767949,-5.02,-2.24,2.7,0.0,0.0,2.0,0.0,2.0,0.0,2.0,5.89,0.0,0.0,
18.818,67.6823518157807,85.05851312076796,-5.34,-3.33,3.41,0.0,0.0,2.0,0.0,2.0,0.0,2.0,5.89,0.0,0.0,
18.841,67.65323518157807,85.0868513120768,-4.21,-4.26,2.29,0.0,0.0,2.0,0.0,2.0,0.0,2.0,5.89,0.0,0.0,
18.866,67.5963235181578,85.06268513120769,-4.05,-2.76,1.24,0.0,0.0,2.0,0.0,2.0,0.0,2.0,5.79,0.0,0.0,
18.889,67.54563235181578,85.15926851312078,-3.89,-2.7,1.33,0.0,0.0,2.0,0.0,2.0,0.0,2.0,5.79,0.0,0.0,
18.913,69.35856323518158,86.09592685131207,-4.66,18.76,-4.64,0.0,0.0,2.0,0.0,2.0,0.0,2.0,5.69,0.0,0.0,
18.937,69.04485632351816,86.0725926851312,-2.31,-0.95,0.67,0.0,0.0,2.0,0.0,2.0,0.0,2.0,5.69,0.0,0.0,
18.961,68.79748563235182,85.98925926851312,-2.4,-1.37,0.6,0.0,0.0,2.0,0.0,2.0,0.0,2.0,5.69,0.0,0.0,
18.984,68.56574856323519,85.89092592685131,-3.93,-0.48,1.01,0.0,0.0,2.0,0.0,2.0,0.0,2.0,5.49,0.0,0.0,
19.008,68.46157485632352,85.77309259268515,-3.52,-2.22,0.9,0.0,0.0,2.0,0.0,2.0,0.0,2.0,5.4,0.0,0.0,
19.033,68.32515748563236,85.76130925926853,-3.31,-2.08,1.14,0.0,0.0,2.0,0.0,2.0,0.0,2.0,5.4,0.0,0.0,
19.056,68.18551574856323,85.70613092592686,-3.26,-2.33,0.83,0.0,0.0,2.0,0.0,2.0,0.0,2.0,5.3,0.0,0.0,
19.08,68.01855157485633,85.68261309259269,-3.39,-2.21,0.57,0.0,0.0,2.0,0.0,2.0,0.0,2.0,5.2,0.0,0.0,
19.103,67.85785515748563,85.68026130925928,-2.74,-1.71,-0.24,0.0,0.0,2.0,0.0,2.0,0.0,2.0,5.2,0.0,0.0,
19.128,67.80578551574855,85.66202613092592,-2.22,-0.6,-1.06,0.0,0.0,2.0,0.0,2.0,0.0,2.0,5.2,0.0,0.0,
19.151,67.81857855157484,85.66020261309258,-2.89,-1.42,-0.74,0.0,0.0,2.0,0.0,2.0,0.0,2.0,5.1,0.0,0.0,
19.176,67.69385785515749,85.61502026130927,-4.08,-2.14,0.94,0.0,0.0,2.0,0.0,2.0,0.0,2.0,5.2,0.0,0.0,
19.2,67.59138578551575,85.49350202613093,-4.17,-1.2,0.71,0.0,0.0,2.0,0.0,2.0,0.0,2.0,5.2,0.0,0.0,
19.223,67.53613857855157,85.4093502026131,-3.14,0.01,-1.09,0.0,0.0,2.0,0.0,2.0,0.0,2.0,5.2,0.0,0.0,
19.247,67.53061385785516,85.40993502026132,-2.03,-0.85,-1.81,0.0,0.0,2.0,0.0,2.0,0.0,2.0,5.2,0.0,0.0,
19.271,67.53906138578552,85.49999350202613,-2.86,-1.05,-0.58,0.0,0.0,2.0,0.0,2.0,0.0,2.0,5.2,0.0,0.0,
19.295,67.42290613857855,85.40099935020261,-4.65,0.11,1.95,0.0,0.0,2.0,0.0,2.0,0.0,2.0,5.3,0.0,0.0,
19.318,67.33029061385784,85.35509993502026,-4.86,-1.68,3.21,0.0,0.0,2.0,0.0,2.0,0.0,2.0,5.1,0.0,0.0,
19.342,67.21302906138578,85.29650999350204,-5.69,-0.68,3.43,0.0,0.0,2.0,0.0,2.0,0.0,2.0,5.0,0.0,0.0,
19.366,66.88630290613858,84.77765099935021,-2.13,15.29,-4.97,0.0,0.0,2.0,0.0,2.0,0.0,2.0,5.0,0.0,0.0,
19.39,66.96163029061385,84.73476509993503,-2.82,-1.53,-0.21,0.0,0.0,2.0,0.0,2.0,0.0,2.0,4.91,0.0,0.0,
19.414,67.09516302906138,84.78447650999351,-5.15,-2.3,2.52,0.0,0.0,2.0,0.0,2.0,0.0,2.0,5.1,0.0,0.0,
19.438,67.21651630290614,84.79844765099935,-4.45,-2.85,1.58,0.0,0.0,2.0,0.0,2.0,0.0,2.0,5.0,0.0,0.0,
19.462,67.28265163029062,84.83584476509995,-7.13,-3.14,4.62,0.0,0.0,2.0,0.0,2.0,0.0,2.0,5.0,0.0,0.0,
19.485,67.50526516302907,84.74958447650998,-10.42,-2.28,4.54,0.0,0.0,2.0,0.0,2.0,0.0,2.0,5.1,0.0,0.0,
19.51,67.6085265163029,84.884958447651,-4.56,-1.32,0.35,0.0,0.0,2.0,0.0,2.0,0.0,2.0,5.2,0.0,0.0,
19.533,67.72685265163028,84.9074958447651,-4.11,-2.06,1.21,0.0,0.0,2.0,0.0,2.0,0.0,2.0,5.3,0.0,0.0,
19.557,67.81968526516303,85.0087495844765,-6.08,-2.51,3.3,0.0,0.0,2.0,0.0,2.0,0.0,2.0,5.3,0.0,0.0,
19.58,67.8829685265163,85.00087495844765,-7.31,-2.0,6.47,0.0,0.0,2.0,0.0,2.0,0.0,2.0,5.3,0.0,0.0,
19.605,67.81729685265164,84.73008749584477,-10.39,-1.7,12.31,0.0,0.0,2.0,0.0,2.0,0.0,2.0,5.2,0.0,0.0,
19.629,67.73872968526517,84.68500874958448,-5.94,-3.15,3.44,0.0,0.0,2.0,0.0,2.0,0.0,2.0,5.1,0.0,0.0,
19.652,67.77587296852651,84.75250087495846,-5.63,-2.63,3.47,0.0,0.0,2.0,0.0,2.0,0.0,2.0,5.1,0.0,0.0,
19.677,67.95058729685265,84.79525008749584,-5.86,-3.79,3.98,0.0,0.0,2.0,0.0,2.0,0.0,2.0,5.1,0.0,0.0,
19.7,67.23905872968525,84.78152500874958,2.05,40.05,-5.46,0.0,0.0,2.0,0.0,2.0,0.0,2.0,5.1,0.0,0.0,
19.724,67.52790587296853,84.55515250087495,-5.14,-3.98,-0.49,0.0,0.0,2.0,0.0,2.0,0.0,2.0,5.1,0.0,0.0,
19.748,67.70979058729687,84.54151525008751,-4.87,-3.05,3.3,0.0,0.0,2.0,0.0,2.0,0.0,2.0,5.1,0.0,0.0,
19.772,67.78197905872969,84.56715152500875,-4.74,-2.34,2.9,0.0,0.0,2.0,0.0,2.0,0.0,2.0,5.1,0.0,0.0,
19.795,67.81619790587297,84.56971515250088,-3.71,-4.04,2.0,0.0,0.0,2.0,0.0,2.0,0.0,2.0,5.1,0.0,0.0,
19.819,67.99961979058729,84.60597151525009,-2.44,-0.1,-0.78,0.0,0.0,2.0,0.0,2.0,0.0,2.0,5.1,0.0,0.0,
19.844,68.18896197905872,84.76259715152501,-5.37,-1.05,3.24,0.0,0.0,2.0,0.0,2.0,0.0,2.0,5.1,0.0,0.0,
19.867,68.18989619790587,84.6972597151525,-7.95,-3.12,5.54,0.0,0.0,2.0,0.0,2.0,0.0,2.0,5.2,0.0,0.0,
19.891,68.45998961979058,84.11472597151524,-6.95,-3.05,3.48,0.0,0.0,2.0,0.0,2.0,0.0,2.0,5.2,0.0,0.0,
19.914,68.57699896197906,84.16447259715153,-4.05,1.04,2.85,0.0,0.0,2.0,0.0,2.0,0.0,2.0,5.3,0.0,0.0,
19.939,68.64269989619791,84.25044725971516,-3.79,-0.23,1.56,0.0,0.0,2.0,0.0,2.0,0.0,2.0,5.3,0.0,0.0,
19.962,68.75726998961979,84.35804472597152,-6.72,0.97,1.44,0.0,0.0,2.0,0.0,2.0,0.0,2.0,5.3,0.0,0.0,
19.986,68.85872699896198,84.41380447259716,-8.84,-0.44,7.38,0.0,0.0,2.0,0.0,2.0,0.0,2.0,5.3,0.0,0.0,
20.009,67.5998726998962,83.52838044725972,-2.74,14.44,-7.66,0.0,0.0,2.0,0.0,2.0,0.0,2.0,5.3,0.0,0.0,
20.034,67.59998726998961,83.30483804472597,-3.46,-3.15,-0.12,0.0,0.0,2.0,0.0,2.0,0.0,2.0,5.49,0.0,0.0,
20.058,67.71699872699897,83.3994838044726,-1.75,-3.76,-0.69,0.0,0.0,2.0,0.0,2.0,0.0,2.0,5.69,0.0,0.0,
20.081,67.8186998726999,83.55294838044725,-0.75,-2.56,-1.9,0.0,0.0,2.0,0.0,2.0,0.0,2.0,5.79,0.0,0.0,
20.106,68.07186998726999,83.76629483804473,-2.01,-2.19,-2.34,0.0,0.0,2.0,0.0,2.0,0.0,2.0,5.98,0.0,0.0,
20.129,68.286186998727,83.88662948380448,-4.99,-1.45,1.32,0.0,0.0,2.0,0.0,2.0,0.0,2.0,5.89,0.0,0.0,
20.153,68.43361869987271,83.88066294838045,-6.53,-0.76,1.52,0.0,0.0,2.0,0.0,2.0,0.0,2.0,5.98,0.0,0.0,
20.177,68.49336186998727,83.93406629483805,-4.94,0.8,-1.11,0.0,0.0,2.0,0.0,2.0,0.0,2.0,5.79,0.0,0.0,
20.201,68.44533618699872,84.02940662948382,-3.5,0.06,-0.56,0.0,0.0,2.0,0.0,2.0,0.0,2.0,5.59,0.0,0.0,
20.225,68.45853361869987,84.06594066294838,-2.21,-0.24,-1.34,0.0,0.0,2.0,0.0,2.0,0.0,2.0,5.49,0.0,0.0,
20.249,68.67585336187,84.18659406629484,-2.89,-1.61,-0.46,0.0,0.0,2.0,0.0,2.0,0.0,2.0,5.4,0.0,0.0,
20.273,68.742585336187,84.29765940662949,-5.02,-5.34,3.31,0.0,0.0,2.0,0.0,2.0,0.0,2.0,5.4,0.0,0.0,
20.296,68.83925853361869,84.20076594066295,-6.87,-5.73,5.97,0.0,0.0,2.0,0.0,2.0,0.0,2.0,5.3,0.0,0.0,
20.321,68.81292585336188,84.20007659406629,-4.77,-1.98,3.48,0.0,0.0,2.0,0.0,2.0,0.0,2.0,5.49,0.0,0.0,
20.344,68.75629258533618,84.20000765940662,-5.0,-3.31,1.77,0.0,0.0,2.0,0.0,2.0,0.0,2.0,5.49,0.0,0.0,
20.368,68.68762925853362,84.20000076594066,-3.36,-2.04,0.34,0.0,0.0,2.0,0.0,2.0,0.0,2.0,5.59,0.0,0.0,
20.391,68.67176292585336,84.21800007659407,-2.53,-2.69,-2.07,0.0,0.0,2.0,0.0,2.0,0.0,2.0,5.49,0.0,0.0,
20.416,68.73317629258534,84.1748000076594,-2.56,-0.75,-0.89,0.0,0.0,2.0,0.0,2.0,0.0,2.0,5.49,0.0,0.0,
20.44,68.72131762925854,84.26948000076594,-4.25,-0.89,1.3,0.0,0.0,2.0,0.0,2.0,0.0,2.0,5.49,0.0,0.0,
20.463,68.76513176292585,84.2519480000766,-5.87,-2.08,4.08,0.0,0.0,2.0,0.0,2.0,0.0,2.0,5.4,0.0,0.0,
20.488,68.65251317629259,84.12419480000766,-4.73,-0.09,3.25,0.0,0.0,2.0,0.0,2.0,0.0,2.0,5.4,0.0,0.0,
20.511,68.66825131762926,84.09341948000078,-2.96,-1.0,-0.54,0.0,0.0,2.0,0.0,2.0,0.0,2.0,5.3,0.0,0.0,
20.535,68.67882513176293,84.11734194800009,-3.4,-0.82,0.64,0.0,0.0,2.0,0.0,2.0,0.0,2.0,5.2,0.0,0.0,
20.558,68.6978825131763,84.11973419480002,-3.96,0.41,0.12,0.0,0.0,2.0,0.0,2.0,0.0,2.0,5.3,0.0,0.0,
20.583,69.02378825131763,84.14697341948002,-4.53,-2.4,-0.18,0.0,0.0,2.0,0.0,2.0,0.0,2.0,5.2,0.0,0.0,
20.606,69.05637882513176,84.65369734194799,-0.59,27.81,-5.06,0.0,0.0,2.0,0.0,2.0,0.0,2.0,5.2,0.0,0.0,
20.63,69.08663788251317,84.55136973419481,-1.54,-1.7,-2.88,0.0,0.0,2.0,0.0,2.0,0.0,3.0,5.4,0.0,0.0,
20.655,69.05366378825131,84.47813697341948,-1.72,-0.12,-2.86,0.0,0.0,2.0,0.0,2.0,0.0,3.0,5.59,0.0,0.0,
20.678,69.09536637882513,84.56081369734194,-2.8,0.89,-1.15,0.0,0.0,2.0,0.0,2.0,0.0,3.0,5.69,0.0,0.0,
20.702,69.14453663788252,84.4880813697342,-3.08,0.5,-0.51,0.0,0.0,2.0,0.0,2.0,0.0,3.0,5.69,0.0,0.0,
20.726,69.18545366378825,84.44480813697342,-2.92,0.51,-1.63,0.0,0.0,2.0,0.0,2.0,0.0,3.0,5.69,0.0,0.0,
20.75,69.16254536637882,84.43148081369735,-1.89,1.55,-3.12,0.0,0.0,2.0,0.0,2.0,0.0,3.0,5.69,0.0,0.0,
20.773,68.29625453663789,83.89914808136973,-1.37,12.37,-11.33,0.0,0.0,2.0,0.0,2.0,0.0,3.0,5.69,0.0,0.0,
20.798,68.09262545366379,83.71091480813698,-0.03,5.17,-8.48,0.0,0.0,2.0,0.0,3.0,0.0,3.0,5.79,0.0,0.0,
20.822,68.34226254536638,83.89009148081371,1.35,3.68,-8.69,0.0,0.0,2.0,0.0,3.0,0.0,3.0,5.89,0.0,0.0,
20.845,68.72722625453663,83.98900914808138,-0.71,2.95,-7.31,0.0,0.0,2.0,0.0,3.0,0.0,3.0,5.98,0.0,0.0,
20.869,68.99072262545366,84.06190091480813,-0.79,2.8,-6.06,0.0,0.0,2.0,0.0,3.0,0.0,3.0,6.28,0.0,0.0,
20.893,69.24207226254536,84.12319009148081,-2.66,3.37,-4.82,0.0,0.0,2.0,0.0,3.0,0.0,3.0,6.47,0.0,0.0,
20.917,69.45620722625453,84.15631900914808,-2.53,4.33,-3.7,0.0,0.0,2.0,0.0,3.0,0.0,3.0,6.67,0.0,0.0,
20.94,69.61262072262545,84.15063190091482,-2.45,3.11,-4.03,0.0,0.0,2.0,0.0,3.0,0.0,3.0,6.87,0.0,0.0,
20.964,69.81726207226255,84.18606319009149,-1.97,4.69,-5.09,0.0,0.0,3.0,0.0,3.0,0.0,3.0,6.97,0.0,0.0,
20.988,69.97272620722626,84.27960631900915,-3.18,2.34,-1.53,0.0,0.0,3.0,0.0,3.0,0.0,3.0,7.06,0.0,0.0,
21.012,70.18627262072262,84.36096063190092,-3.13,1.52,-2.01,0.0,0.0,3.0,0.0,3.0,0.0,3.0,7.26,0.0,0.0,
21.036,70.37862726207227,84.3870960631901,-3.42,0.56,-0.81,0.0,0.0,3.0,0.0,3.0,0.0,3.0,7.36,0.0,0.0,
21.06,70.41586272620722,84.29070960631901,-2.32,0.1,-0.46,0.0,0.0,3.0,0.0,3.0,0.0,3.0,7.46,0.0,0.0,
21.084,70.52758627262072,84.29007096063191,-1.61,-0.76,-2.31,0.0,0.0,3.0,0.0,3.0,0.0,3.0,7.55,0.0,0.0,
21.107,70.67375862726207,84.30800709606319,-2.85,-1.28,-0.57,0.0,0.0,3.0,0.0,3.0,0.0,3.0,7.46,0.0,0.0,
21.132,70.7243758627262,84.27380070960632,-2.76,-1.81,-0.77,0.0,0.0,3.0,0.0,3.0,0.0,3.0,7.46,0.0,0.0,
21.155,70.73843758627261,84.23438007096064,-1.29,-2.54,-1.24,0.0,0.0,3.0,0.0,3.0,0.0,3.0,7.46,0.0,0.0,
21.179,70.81184375862725,84.26643800709607,-1.37,-2.08,-2.56,0.0,0.0,3.0,0.0,3.0,0.0,3.0,7.46,0.0,0.0,
21.203,70.84618437586272,84.32364380070962,-1.18,-0.64,-3.63,0.0,0.0,3.0,0.0,3.0,0.0,3.0,7.36,0.0,0.0,
21.227,70.94861843758626,84.37436438007096,-1.24,-1.71,-2.85,0.0,0.0,3.0,0.0,3.0,0.0,3.0,7.26,0.0,0.0,
21.251,70.98586184375863,84.4244364380071,-2.54,-0.66,-1.42,0.0,0.0,3.0,0.0,3.0,0.0,3.0,7.26,0.0,0.0,
21.275,71.05258618437585,84.49244364380071,-3.37,-1.65,-0.65,0.0,0.0,3.0,0.0,3.0,0.0,3.0,7.26,0.0,0.0,
21.299,71.0142586184376,84.49924436438006,-3.69,-0.82,0.17,0.0,0.0,3.0,0.0,3.0,0.0,3.0,7.26,0.0,0.0,
21.322,70.99242586184376,84.45492443643802,-2.63,-0.56,-1.53,0.0,0.0,3.0,0.0,3.0,0.0,3.0,7.16,0.0,0.0,
21.347,71.02624258618437,84.4414924436438,-2.5,0.96,-1.92,0.0,0.0,3.0,0.0,3.0,0.0,3.0,7.16,0.0,0.0,
21.37,71.06562425861843,84.55714924436438,-2.63,-0.03,-1.55,0.0,0.0,3.0,0.0,3.0,0.0,3.0,7.06,0.0,0.0,
21.394,71.06956242586183,84.58671492443644,-2.77,-1.26,-0.9,0.0,0.0,3.0,0.0,3.0,0.0,3.0,7.26,0.0,0.0,
21.419,71.03395624258619,84.59867149244364,-2.72,-2.19,-0.21,0.0,0.0,3.0,0.0,3.0,0.0,3.0,7.26,0.0,0.0,
21.442,71.02139562425862,84.59986714924436,-1.98,-1.23,-0.3,0.0,0.0,3.0,0.0,3.0,0.0,3.0,7.26,0.0,0.0,
21.466,71.02913956242585,84.59098671492444,-2.21,0.25,-1.47,0.0,0.0,3.0,0.0,3.0,0.0,3.0,7.26,0.0,0.0,
21.49,71.1109139562426,84.58109867149244,-2.3,0.09,-1.47,0.0,0.0,3.0,0.0,3.0,0.0,3.0,7.16,0.0,0.0,
21.514,71.17309139562427,84.62510986714925,-3.31,-0.77,-0.07,0.0,0.0,3.0,0.0,3.0,0.0,3.0,7.16,0.0,0.0,
21.537,71.19730913956242,84.54851098671493,-3.38,-1.3,-0.22,0.0,0.0,3.0,0.0,3.0,0.0,3.0,7.06,0.0,0.0,
21.562,71.22673091395625,84.48685109867151,-2.64,-0.08,-0.97,0.0,0.0,3.0,0.0,3.0,0.0,3.0,7.16,0.0,0.0,
21.585,71.23867309139563,84.49868510986715,-1.85,-0.72,-1.31,0.0,0.0,3.0,0.0,3.0,0.0,3.0,7.16,0.0,0.0,
21.609,71.23086730913955,84.55386851098672,-2.91,-1.75,-0.6,0.0,0.0,3.0,0.0,3.0,0.0,3.0,6.97,0.0,0.0,
21.634,71.23008673091395,84.51438685109868,-2.95,-1.53,-0.24,0.0,0.0,3.0,0.0,3.0,0.0,3.0,7.06,0.0,0.0,
21.657,71.24800867309139,84.52843868510986,-2.78,-1.63,-0.35,0.0,0.0,3.0,0.0,3.0,0.0,3.0,7.16,0.0,0.0,
21.681,71.31280086730914,84.58384386851098,-3.39,-2.6,0.36,0.0,0.0,3.0,0.0,3.0,0.0,3.0,7.06,0.0,0.0,
21.705,71.30128008673091,84.53538438685109,-3.5,-3.47,0.08,0.0,0.0,3.0,0.0,3.0,0.0,3.0,6.97,0.0,0.0,
21.729,71.2551280086731,84.49453843868511,-2.41,-4.85,0.24,0.0,0.0,3.0,0.0,3.0,0.0,3.0,6.97,0.0,0.0,
21.752,71.22351280086731,84.55345384386851,-2.59,-5.6,0.86,0.0,0.0,3.0,0.0,3.0,0.0,3.0,6.87,0.0,0.0,
21.776,71.15735128008674,84.53234538438684,-2.78,-5.07,1.42,0.0,0.0,3.0,0.0,3.0,0.0,3.0,6.87,0.0,0.0,
21.8,71.02473512800867,84.49423453843868,-2.36,-5.54,1.57,0.0,0.0,3.0,0.0,3.0,0.0,3.0,6.87,0.0,0.0,
21.824,70.91247351280087,84.51742345384386,-1.73,-2.68,-0.53,0.0,0.0,3.0,0.0,3.0,0.0,3.0,6.77,0.0,0.0,
21.848,70.82924735128007,84.54674234538439,-1.8,-1.1,-1.07,0.0,0.0,3.0,0.0,3.0,0.0,3.0,6.67,0.0,0.0,
21.872,70.86592473512802,84.56767423453843,-1.53,0.03,-2.37,0.0,0.0,3.0,0.0,3.0,0.0,3.0,6.77,0.0,0.0,
21.896,70.9325924735128,84.57876742345384,-2.83,0.44,-2.7,0.0,0.0,3.0,0.0,3.0,0.0,3.0,6.67,0.0,0.0,
21.919,71.08325924735128,84.70587674234538,-3.95,-0.01,-1.39,0.0,0.0,3.0,0.0,3.0,0.0,3.0,6.77,0.0,0.0,
21.944,71.04432592473513,84.70058767423454,-4.19,-2.39,-0.07,0.0,0.0,3.0,0.0,3.0,0.0,3.0,6.77,0.0,0.0,
21.967,71.03143259247351,84.70905876742344,-3.21,-3.25,2.47,0.0,0.0,3.0,0.0,3.0,0.0,3.0,6.67,0.0,0.0,
21.991,70.88614325924736,84.61990587674234,-1.87,-4.73,-0.24,0.0,0.0,3.0,0.0,3.0,0.0,3.0,6.67,0.0,0.0,
22.016,70.84461432592474,84.72799058767423,-1.7,-5.71,0.88,0.0,0.0,3.0,0.0,3.0,0.0,3.0,6.57,0.0,0.0,
22.039,70.81346143259248,84.74779905876743,-2.21,-4.79,1.67,0.0,0.0,3.0,0.0,3.0,0.0,3.0,6.57,0.0,0.0,
22.063,70.73834614325925,84.75877990587675,-2.66,-5.19,1.75,0.0,0.0,2.0,0.0,3.0,0.0,3.0,6.38,0.0,0.0,
22.086,70.69483461432593,84.84987799058767,-2.31,-4.56,1.81,0.0,0.0,2.0,0.0,3.0,0.0,3.0,6.38,0.0,0.0,
22.111,70.6274834614326,84.88598779905877,-3.27,-3.81,1.55,0.0,0.0,2.0,0.0,3.0,0.0,3.0,6.18,0.0,0.0,
22.134,70.44974834614327,84.87159877990588,-1.72,-5.02,-0.82,0.0,0.0,2.0,0.0,3.0,0.0,3.0,6.08,0.0,0.0,
22.158,70.42297483461432,84.88815987799059,-0.98,-3.58,-1.57,0.0,0.0,2.0,0.0,3.0,0.0,3.0,5.98,0.0,0.0,
22.182,70.41129748346142,84.94381598779906,-1.85,-2.79,0.82,0.0,0.0,2.0,0.0,3.0,0.0,3.0,5.79,0.0,0.0,
22.206,70.28412974834613,84.93138159877992,-1.56,-4.37,0.19,0.0,0.0,2.0,0.0,3.0,0.0,3.0,5.79,0.0,0.0,
22.23,70.16341297483461,84.930138159878,-1.31,-3.31,-1.31,0.0,0.0,2.0,0.0,3.0,0.0,3.0,5.59,0.0,0.0,
22.254,70.06134129748347,85.0020138159878,-1.33,-2.82,-1.84,0.0,0.0,2.0,0.0,3.0,0.0,3.0,5.59,0.0,0.0,
22.278,69.95213412974834,85.00920138159879,-1.29,-2.85,-1.62,0.0,0.0,2.0,0.0,3.0,0.0,3.0,5.49,0.0,0.0,
22.301,69.94121341297483,85.05492013815987,-1.56,-3.81,-1.54,0.0,0.0,2.0,0.0,3.0,0.0,3.0,5.4,0.0,0.0,
22.326,69.94912134129748,85.14049201381599,-1.85,-3.53,-1.24,0.0,0.0,2.0,0.0,3.0,0.0,3.0,5.4,0.0,0.0,
22.349,69.94991213412975,85.1940492013816,-2.26,-4.62,-0.68,0.0,0.0,2.0,0.0,2.0,0.0,3.0,5.3,0.0,0.0,
22.373,69.84199121341297,85.18140492013816,-2.11,-5.19,-0.38,0.0,0.0,2.0,0.0,2.0,0.0,3.0,5.2,0.0,0.0,
22.397,69.7681991213413,85.27914049201382,-1.21,-3.87,-0.44,0.0,0.0,2.0,0.0,2.0,0.0,3.0,5.1,0.0,0.0,
22.421,69.71581991213412,85.36991404920138,-1.69,-4.17,-0.34,0.0,0.0,2.0,0.0,2.0,0.0,2.0,5.0,0.0,0.0,
22.445,69.68358199121342,85.28899140492015,-2.73,-2.34,0.73,0.0,0.0,2.0,0.0,2.0,0.0,2.0,4.91,0.0,0.0,
22.469,69.58135819912133,85.33489914049203,-1.08,-3.71,-1.38,0.0,0.0,2.0,0.0,2.0,0.0,2.0,4.71,0.0,0.0,
22.493,69.47213581991213,85.3484899140492,-1.43,-3.49,0.31,0.0,0.0,2.0,0.0,2.0,0.0,2.0,4.81,0.0,0.0,
22.516,69.45221358199122,85.38584899140491,-0.73,-3.27,-0.31,0.0,0.0,2.0,0.0,2.0,0.0,2.0,4.71,0.0,0.0,
22.541,69.36922135819913,85.41658489914049,-1.08,-1.34,0.82,0.0,0.0,2.0,0.0,2.0,0.0,2.0,4.61,0.0,0.0,
22.564,69.3789221358199,85.47365848991404,-1.52,-1.98,1.01,0.0,0.0,2.0,0.0,2.0,0.0,2.0,4.41,0.0,0.0,
22.588,69.307892213582,85.4793658489914,-1.5,-3.21,0.08,0.0,0.0,2.0,0.0,2.0,0.0,2.0,4.22,0.0,0.0,
22.611,69.16578922135821,85.48893658489914,-1.24,-3.82,-0.18,0.0,0.0,2.0,0.0,2.0,0.0,2.0,4.22,0.0,0.0,
22.636,69.11557892213582,85.51689365848992,-0.26,-3.54,-2.48,0.0,0.0,2.0,0.0,2.0,0.0,2.0,4.02,0.0,0.0,
22.66,69.06555789221359,85.55568936584899,-0.56,-2.67,-2.6,0.0,0.0,2.0,0.0,2.0,0.0,2.0,3.92,0.0,0.0,
22.683,69.03355578922137,85.6135689365849,-0.69,-2.61,-1.31,0.0,0.0,2.0,0.0,2.0,0.0,2.0,3.83,0.0,0.0,
22.708,68.95835557892214,85.60135689365848,-1.6,-2.49,-0.99,0.0,0.0,2.0,0.0,2.0,0.0,2.0,3.83,0.0,0.0,
22.731,68.9598355578922,85.64513568936586,-0.64,-2.98,-1.7,0.0,0.0,2.0,0.0,2.0,0.0,2.0,3.83,0.0,0.0,
22.755,68.98698355578921,85.7485135689366,-1.19,-1.7,-2.24,0.0,0.0,2.0,0.0,2.0,0.0,2.0,3.83,0.0,0.0,
22.779,69.06169835557891,85.81285135689366,-0.4,-2.37,-2.82,0.0,0.0,2.0,0.0,2.0,0.0,2.0,3.92,0.0,0.0,
22.803,69.06916983555789,85.90028513568937,-1.45,-1.97,-1.89,0.0,0.0,2.0,0.0,2.0,0.0,2.0,3.92,0.0,0.0,
22.828,69.06091698355579,85.91802851356894,-2.37,-2.1,-0.92,0.0,0.0,2.0,0.0,2.0,0.0,2.0,4.02,0.0,0.0,
22.851,69.05109169835558,85.92880285135689,-2.63,-1.87,-0.59,0.0,0.0,2.0,0.0,2.0,0.0,2.0,4.02,0.0,0.0,
22.875,69.02310916983555,85.9208802851357,-2.58,-1.14,-0.78,0.0,0.0,2.0,0.0,2.0,0.0,2.0,4.02,0.0,0.0,
22.899,69.05631091698356,85.92908802851358,-2.59,-1.38,-0.13,0.0,0.0,2.0,0.0,2.0,0.0,2.0,4.02,0.0,0.0,
22.923,69.09563109169835,85.95690880285134,-3.44,-2.21,-0.05,0.0,0.0,2.0,0.0,2.0,0.0,2.0,4.12,0.0,0.0,
22.946,69.06356310916983,85.96869088028514,-3.88,-2.03,0.44,0.0,0.0,2.0,0.0,2.0,0.0,2.0,4.12,0.0,0.0,
22.971,68.97035631091697,85.9878690880285,-3.44,-1.41,-0.17,0.0,0.0,2.0,0.0,2.0,0.0,2.0,4.12,0.0,0.0,
22.994,68.97003563109169,85.92678690880285,-2.84,-1.19,-0.49,0.0,0.0,2.0,0.0,2.0,0.0,2.0,4.12,0.0,0.0,
23.018,68.95200356310917,85.96567869088028,-3.9,-1.73,0.95,0.0,0.0,2.0,0.0,2.0,0.0,2.0,4.12,17.66,0.0,
23.043,68.93220035631091,85.96056786908801,-3.68,-1.49,1.56,0.0,0.0,2.0,0.0,2.0,0.0,2.0,4.02,23.25,0.0,
23.066,68.9212200356311,85.9240567869088,-3.84,-0.76,0.98,0.0,0.0,2.0,0.0,2.0,0.0,2.0,4.12,23.25,0.0,
23.09,68.8661220035631,85.91140567869088,-4.32,-1.31,1.2,0.0,0.0,2.0,0.0,2.0,0.0,2.0,4.12,22.96,0.0,
23.114,68.86961220035631,85.84714056786909,-3.75,-0.3,0.27,0.0,0.0,2.0,0.0,2.0,0.0,2.0,4.22,24.13,0.0,
23.138,68.95996122003564,85.93971405678691,-3.56,0.24,-1.11,0.0,0.0,2.0,0.0,2.0,0.0,2.0,4.22,22.56,0.0,
23.161,69.02299612200356,85.93997140567869,-5.15,-0.05,1.78,0.0,0.0,2.0,0.0,2.0,0.0,2.0,4.22,20.7,0.0,
23.186,69.10129961220035,85.96699714056787,-6.21,0.08,3.7,0.0,0.0,2.0,0.0,2.0,0.0,2.0,4.32,20.7,0.0,
23.209,69.08212996122003,85.82569971405678,-6.05,-1.94,3.5,0.0,0.0,2.0,0.0,2.0,0.0,2.0,4.32,20.5,0.0,
23.233,68.981212996122,85.82956997140568,-2.54,-2.2,0.5,0.0,0.0,2.0,0.0,2.0,0.0,2.0,4.22,21.29,0.0,
23.258,68.86312129961219,85.76695699714058,-1.38,-3.45,-0.29,0.0,0.0,2.0,0.0,2.0,0.0,2.0,4.12,20.5,0.0,
23.281,68.78831212996121,85.74269569971405,-0.41,-5.81,-1.59,0.0,0.0,2.0,0.0,2.0,0.0,2.0,4.12,19.72,0.0,
23.306,68.71783121299612,85.7672695699714,-0.18,-5.18,-1.68,0.0,0.0,2.0,0.0,2.0,0.0,2.0,3.92,21.39,0.0,
23.329,68.58478312129961,85.82372695699713,0.67,-5.45,-2.03,0.0,0.0,2.0,0.0,2.0,0.0,2.0,3.83,21.39,0.0,
23.353,68.52647831212995,85.86537269569972,1.33,-5.0,-4.14,0.0,0.0,2.0,0.0,2.0,0.0,2.0,3.83,22.27,0.0,
23.377,68.475647831213,85.92353726956998,0.96,-4.88,-5.06,0.0,0.0,2.0,0.0,2.0,0.0,2.0,3.73,20.31,0.0,
23.401,68.4525647831213,85.98335372695699,0.29,-3.24,-3.16,0.0,0.0,2.0,0.0,2.0,0.0,2.0,3.63,20.31,0.0,
23.425,68.40525647831214,86.03433537269571,0.26,-3.31,-4.11,0.0,0.0,2.0,0.0,2.0,0.0,2.0,3.63,18.25,0.0,
23.449,68.4095256478312,86.20143353726957,0.21,-2.42,-5.02,0.0,0.0,2.0,0.0,2.0,0.0,2.0,3.53,18.64,0.0,
23.473,68.43695256478311,86.21814335372696,-0.9,-1.9,-4.03,0.0,0.0,2.0,0.0,2.0,0.0,2.0,3.63,17.36,0.0,
23.497,68.4396952564783,86.30981433537269,-1.79,-1.85,-3.21,0.0,0.0,2.0,0.0,2.0,0.0,2.0,3.63,17.36,0.0,
23.521,68.35896952564782,86.37298143353728,-1.94,-0.45,-1.69,0.0,0.0,2.0,0.0,2.0,0.0,2.0,3.53,18.84,0.0,
23.544,68.32389695256478,86.38829814335374,-1.68,-0.85,-1.4,0.0,0.0,2.0,0.0,2.0,0.0,2.0,3.63,19.82,0.0,
23.569,68.27538969525648,86.41682981433537,-1.81,-1.74,-2.16,0.0,0.0,2.0,0.0,2.0,0.0,2.0,3.53,17.36,0.0,
23.592,68.22553896952564,86.44668298143354,-2.08,-2.66,-1.53,0.0,0.0,2.0,0.0,2.0,0.0,2.0,3.53,16.68,0.0,
23.617,68.20255389695257,86.45866829814335,-2.42,-2.72,-1.53,0.0,0.0,2.0,0.0,2.0,0.0,2.0,3.43,16.09,0.0,
23.641,68.24525538969526,86.49586682981435,-2.61,-1.48,-1.59,0.0,0.0,2.0,0.0,2.0,0.0,2.0,3.53,16.19,0.0,
23.665,68.22252553896953,86.47258668298144,-1.57,-1.97,-2.57,0.0,0.0,2.0,0.0,2.0,0.0,2.0,3.63,15.11,0.0,
23.689,68.11225255389695,86.46125866829814,-2.48,-0.76,-1.78,0.0,0.0,2.0,0.0,2.0,0.0,2.0,3.53,15.4,0.0,
23.712,68.14622525538971,86.44212586682983,-2.05,-0.63,-2.92,0.0,0.0,2.0,0.0,2.0,0.0,2.0,3.63,15.4,0.0,
23.737,68.17662252553897,86.47621258668299,-1.22,-0.24,-4.89,0.0,0.0,2.0,0.0,2.0,0.0,2.0,3.53,15.7,0.0,
23.76,68.2336622525539,86.60562125866831,-2.95,2.32,-5.32,0.0,0.0,2.0,0.0,2.0,0.0,2.0,3.63,17.07,0.0,
23.785,68.2753662252554,86.52856212586683,-3.43,2.25,-3.98,0.0,0.0,2.0,0.0,2.0,0.0,2.0,3.73,16.68,0.0,
23.809,68.32453662252554,86.52085621258668,-3.4,0.76,-3.16,0.0,0.0,2.0,0.0,2.0,0.0,2.0,3.83,15.6,0.0,
23.832,68.41045366225255,86.49308562125866,-3.25,0.89,-2.91,0.0,0.0,2.0,0.0,2.0,0.0,2.0,3.92,16.38,0.0,
23.857,68.42804536622526,86.50830856212588,-3.85,0.1,-0.98,0.0,0.0,2.0,0.0,2.0,0.0,2.0,3.92,15.99,0.0,
23.88,68.42080453662253,86.4198308562126,-5.0,1.37,-0.6,0.0,0.0,2.0,0.0,2.0,0.0,2.0,4.02,16.87,0.0,
23.904,68.46508045366225,86.37498308562127,-3.1,1.2,-1.65,0.0,0.0,2.0,0.0,2.0,0.0,2.0,4.02,16.87,0.0,
23.928,68.55950804536621,86.41549830856214,-5.53,0.74,1.08,0.0,0.0,2.0,0.0,2.0,0.0,2.0,4.02,16.87,0.0,
23.952,68.53295080453663,86.32954983085621,-5.29,0.7,1.77,0.0,0.0,2.0,0.0,2.0,0.0,2.0,4.02,16.19,0.0,
23.975,68.57529508045366,86.30295498308563,-4.76,1.42,0.26,0.0,0.0,2.0,0.0,2.0,0.0,2.0,4.02,15.79,0.0,
24.0,68.68752950804537,86.32729549830856,-4.82,1.88,0.02,0.0,0.0,2.0,0.0,2.0,0.0,2.0,4.12,16.97,0.0,
24.024,68.80675295080454,86.35672954983086,-4.81,1.45,0.3,0.0,0.0,2.0,0.0,2.0,0.0,3.0,4.12,16.58,0.0,
24.047,68.85467529508045,86.28767295498308,-5.04,0.27,1.79,0.0,0.0,2.0,0.0,2.0,0.0,3.0,4.32,16.87,0.0,
24.071,68.89546752950805,86.2537672954983,-6.21,-0.03,3.86,0.0,0.0,2.0,0.0,2.0,0.0,3.0,4.32,15.89,0.0,
24.095,68.8815467529508,86.25937672954983,-5.63,-0.68,3.21,0.0,0.0,2.0,0.0,2.0,0.0,3.0,4.22,15.21,0.0,
24.119,68.89815467529509,86.16993767295497,-4.6,-0.87,2.44,0.0,0.0,2.0,0.0,2.0,0.0,3.0,4.32,14.42,0.0,
24.143,68.99881546752951,86.17899376729551,-4.25,-1.04,1.86,0.0,0.0,2.0,0.0,2.0,0.0,3.0,4.41,14.62,0.0,
24.167,69.03588154675296,86.18889937672955,-5.41,-0.04,3.02,0.0,0.0,2.0,0.0,2.0,0.0,3.0,4.41,14.81,0.0,
24.19,68.9765881546753,86.09988993767297,-4.84,-1.11,2.82,0.0,0.0,2.0,0.0,2.0,0.0,3.0,4.32,15.5,0.0,
24.215,68.95265881546753,86.06398899376731,-4.79,-1.11,3.37,0.0,0.0,2.0,0.0,2.0,0.0,3.0,4.32,16.09,0.0,
24.239,68.91426588154675,86.09639889937672,-5.06,-0.8,3.21,0.0,0.0,2.0,0.0,2.0,0.0,3.0,4.32,14.62,0.0,
24.262,68.87442658815468,86.02763988993766,-4.19,-1.52,2.85,0.0,0.0,2.0,0.0,2.0,0.0,3.0,4.41,15.5,0.0,
24.287,68.84344265881546,85.95776398899378,-3.37,-1.99,1.28,0.0,0.0,2.0,0.0,2.0,0.0,2.0,4.61,16.78,0.0,
24.31,68.86734426588154,85.98677639889937,-3.54,-1.6,0.81,0.0,0.0,2.0,0.0,2.0,0.0,2.0,4.61,15.99,0.0,
24.334,68.87873442658815,85.98967763988992,-3.41,-1.46,0.88,0.0,0.0,2.0,0.0,2.0,0.0,3.0,4.81,15.4,0.0,
24.358,68.94287344265882,86.007967763989,-3.43,-2.08,0.91,0.0,0.0,2.0,0.0,2.0,0.0,2.0,4.71,14.91,0.0,
24.382,68.99428734426589,86.0097967763989,-4.19,-0.34,0.78,0.0,0.0,2.0,0.0,2.0,0.0,3.0,4.81,14.52,0.0,
24.407,69.02642873442659,85.99197967763988,-3.7,-0.13,0.84,0.0,0.0,2.0,0.0,2.0,0.0,3.0,4.91,13.93,0.0,
24.43,69.01164287344267,85.94519796776399,-3.21,-1.11,0.15,0.0,0.0,2.0,0.0,2.0,0.0,3.0,4.91,13.83,0.0,
24.454,69.02816428734427,85.9135197967764,-3.04,-0.53,-0.21,0.0,0.0,2.0,0.0,2.0,0.0,3.0,5.0,14.91,0.0,
24.478,69.02081642873442,85.92835197967764,-3.34,-0.98,-0.35,0.0,0.0,2.0,0.0,2.0,0.0,3.0,5.2,16.09,0.0,
24.502,69.00208164287343,85.93883519796776,-3.25,-1.23,-0.24,0.0,0.0,2.0,0.0,2.0,0.0,3.0,5.2,16.97,0.0,
24.526,69.00920816428734,85.94888351979678,-3.4,0.43,-0.2,0.0,0.0,2.0,0.0,2.0,0.0,3.0,5.3,15.79,0.0,
24.55,69.06392081642873,85.94988835197968,-2.89,0.05,-0.93,0.0,0.0,2.0,0.0,2.0,0.0,3.0,5.4,15.4,0.0,
24.573,69.04239208164289,85.94998883519797,-3.31,0.05,-0.52,0.0,0.0,2.0,0.0,2.0,0.0,3.0,5.49,15.3,0.0,
24.598,69.1392392081643,85.9679988835198,-2.95,-0.03,-0.66,0.0,0.0,2.0,0.0,2.0,0.0,3.0,5.49,15.7,0.0,
24.622,69.18492392081643,85.93379988835198,-3.59,-0.47,-0.46,0.0,0.0,2.0,0.0,2.0,0.0,3.0,5.49,14.91,0.0,
24.646,69.18949239208165,85.95737998883519,-3.62,-0.05,-0.47,0.0,0.0,2.0,0.0,2.0,0.0,3.0,5.69,14.32,0.0,
24.67,69.18094923920818,85.86973799888352,-4.21,0.02,0.08,0.0,0.0,3.0,0.0,2.0,0.0,3.0,5.69,15.5,0.0,
24.693,69.22509492392082,85.77097379988837,-3.72,-0.62,0.18,0.0,0.0,3.0,0.0,2.0,0.0,3.0,5.79,15.89,0.0,
24.718,69.25650949239208,85.80609737998884,-3.0,-0.31,-1.27,0.0,0.0,3.0,0.0,2.0,0.0,3.0,5.89,15.21,0.0,
24.741,69.25965094923922,85.7916097379989,-3.51,-0.77,-0.45,0.0,0.0,3.0,0.0,3.0,0.0,3.0,5.89,15.21,0.0,
24.766,69.27796509492393,85.84416097379989,-3.31,-1.23,0.01,0.0,0.0,3.0,0.0,3.0,0.0,3.0,5.89,14.32,0.0,
24.79,69.3067965094924,85.86741609737999,-4.11,-0.99,0.57,0.0,0.0,3.0,0.0,3.0,0.0,3.0,5.79,12.85,0.0,
24.813,69.31867965094924,85.851741609738,-4.56,-1.31,0.93,0.0,0.0,3.0,0.0,3.0,0.0,3.0,5.79,12.75,0.0,
24.838,69.26586796509493,85.80517416097379,-3.27,-0.73,0.47,0.0,0.0,3.0,0.0,3.0,0.0,3.0,5.69,14.42,0.0,
24.861,69.2875867965095,85.79151741609739,-2.85,-1.4,-0.68,0.0,0.0,3.0,0.0,3.0,0.0,3.0,5.69,14.52,0.0,
24.885,69.32575867965095,85.85315174160974,-3.16,-1.43,-0.2,0.0,0.0,3.0,0.0,2.0,0.0,3.0,5.59,13.83,0.0,
24.909,69.3385758679651,85.81431517416097,-3.5,-1.69,0.68,0.0,0.0,3.0,0.0,2.0,0.0,3.0,5.49,14.13,0.0,
24.933,69.30385758679651,85.7384315174161,-3.39,-1.58,0.66,0.0,0.0,3.0,0.0,2.0,0.0,3.0,5.49,13.15,0.0,
24.957,69.30038575867965,85.71284315174161,-2.47,-1.58,-0.33,0.0,0.0,3.0,0.0,2.0,0.0,3.0,5.49,13.15,0.0,
24.981,69.37203857586796,85.76428431517415,-2.64,-0.88,-0.73,0.0,0.0,3.0,0.0,2.0,0.0,3.0,5.49,13.15,0.0,
25.005,69.4062038575868,85.79642843151741,-3.11,-1.53,-0.18,0.0,0.0,3.0,0.0,2.0,0.0,3.0,5.4,14.03,0.0,
25.029,69.35562038575868,85.73664284315176,-3.45,-1.8,0.75,0.0,0.0,2.0,0.0,2.0,0.0,3.0,5.49,14.52,0.0,
25.053,69.27856203857587,85.76666428431517,-2.51,-2.34,-0.22,0.0,0.0,2.0,0.0,2.0,0.0,3.0,5.4,14.13,0.0,
25.077,69.25285620385759,85.76966642843152,-2.21,-1.96,-0.57,0.0,0.0,2.0,0.0,2.0,0.0,3.0,5.3,14.22,0.0,
25.101,69.15128562038575,85.77896664284314,-2.42,-1.41,-0.54,0.0,0.0,2.0,0.0,2.0,0.0,3.0,5.3,14.52,0.0,
25.125,69.11412856203857,85.7438966642843,-3.04,-0.95,-0.16,0.0,0.0,2.0,0.0,2.0,0.0,3.0,5.2,14.52,0.0,
25.149,69.05641285620385,85.71338966642843,-2.42,-1.07,-1.49,0.0,0.0,2.0,0.0,2.0,0.0,3.0,5.3,12.95,0.0,
25.172,69.08664128562039,85.79133896664284,-2.59,-1.22,-1.54,0.0,0.0,2.0,0.0,2.0,0.0,3.0,5.4,12.46,0.0,
25.197,69.02666412856203,85.7901338966643,-2.4,-1.4,-1.05,0.0,0.0,2.0,0.0,2.0,0.0,3.0,5.3,12.26,0.0,
25.221,69.0656664128562,85.79001338966644,-1.81,-1.99,-1.21,0.0,0.0,2.0,0.0,2.0,0.0,3.0,5.2,13.15,0.0,
25.245,69.07856664128562,85.82600133896665,-2.45,-1.53,-1.2,0.0,0.0,2.0,0.0,2.0,0.0,3.0,5.2,11.97,0.0,
25.269,69.07985666412856,85.86560013389666,-2.58,-2.21,-0.56,0.0,0.0,2.0,0.0,2.0,0.0,3.0,5.1,11.18,0.0,
25.293,69.03498566641285,85.88756001338967,-3.27,-1.99,0.36,0.0,0.0,2.0,0.0,2.0,0.0,3.0,5.1,11.28,0.0,
25.317,69.03049856664128,85.91675600133897,-2.89,-2.24,-0.15,0.0,0.0,2.0,0.0,2.0,0.0,3.0,5.0,11.77,0.0,
25.34,69.04804985666412,85.8836756001339,-2.25,-2.11,-0.79,0.0,0.0,2.0,0.0,2.0,0.0,3.0,5.0,11.28,0.0,
25.365,69.08580498566641,85.8713675600134,-2.17,-2.15,-0.5,0.0,0.0,2.0,0.0,2.0,0.0,2.0,5.0,11.09,0.0,
25.389,69.08958049856665,85.87913675600134,-2.41,-2.12,-0.13,0.0,0.0,2.0,0.0,2.0,0.0,2.0,4.91,12.07,0.0,
25.413,69.06295804985666,85.96091367560014,-2.76,-1.95,-0.57,0.0,0.0,2.0,0.0,2.0,0.0,2.0,4.91,12.07,0.0,
25.437,69.08729580498567,85.95109136756001,-3.6,-1.73,-0.15,0.0,0.0,2.0,0.0,2.0,0.0,2.0,4.91,12.07,0.0,
25.461,69.05372958049855,85.95910913675598,-3.07,-1.63,-0.57,0.0,0.0,2.0,0.0,2.0,0.0,2.0,4.91,12.26,0.0,
25.485,69.02337295804985,86.0049109136756,-1.97,-1.13,-1.18,0.0,0.0,2.0,0.0,2.0,0.0,2.0,4.91,12.56,0.0,
25.509,68.99333729580498,85.94649109136756,-2.39,-1.89,-0.52,0.0,0.0,2.0,0.0,2.0,0.0,2.0,4.91,12.46,0.0,
25.533,69.01733372958049,86.02164910913676,-3.86,-1.51,0.51,0.0,0.0,2.0,0.0,2.0,0.0,2.0,5.0,12.56,0.0,
25.556,68.94773337295804,86.01116491091368,-4.86,-1.4,1.21,0.0,0.0,2.0,0.0,2.0,0.0,2.0,5.0,13.05,0.0,
25.581,68.90477333729581,85.92911649109136,-4.45,-1.87,1.1,0.0,0.0,2.0,0.0,2.0,0.0,2.0,5.0,12.16,0.0,
25.605,68.90047733372958,85.95691164910913,-3.4,-1.36,0.37,0.0,0.0,2.0,0.0,2.0,0.0,2.0,5.0,11.18,0.0,
25.628,68.88204773337296,85.90569116491092,-3.56,-1.74,1.05,0.0,0.0,2.0,0.0,2.0,0.0,2.0,5.0,11.09,0.0,
25.653,68.8802047733373,85.9725691164911,-4.46,-2.02,1.93,0.0,0.0,2.0,0.0,2.0,0.0,2.0,5.0,11.18,0.0,
25.676,68.88902047733373,86.0152569116491,-4.08,-2.08,2.09,0.0,0.0,2.0,0.0,2.0,0.0,2.0,4.91,11.77,0.0,
25.7,68.86290204773337,86.00152569116491,-3.85,-1.99,1.34,0.0,0.0,2.0,0.0,2.0,0.0,2.0,4.91,10.99,0.0,
25.724,68.86029020477334,85.9731525691165,-3.18,-3.01,1.53,0.0,0.0,2.0,0.0,2.0,0.0,2.0,4.71,11.18,0.0,
25.748,68.77902902047734,85.99731525691165,-4.31,-2.63,3.35,0.0,0.0,2.0,0.0,2.0,0.0,2.0,4.61,11.18,0.0,
25.773,68.72590290204774,85.92773152569117,-3.08,-3.66,1.49,0.0,0.0,2.0,0.0,2.0,0.0,2.0,4.51,12.36,0.0,
25.796,68.71159029020477,85.91177315256911,-2.35,-2.63,0.2,0.0,0.0,2.0,0.0,2.0,0.0,2.0,4.41,12.46,0.0,
25.82,68.65615902902047,85.9551773152569,-2.62,-3.21,0.63,0.0,0.0,2.0,0.0,2.0,0.0,2.0,4.41,12.85,0.0,
25.844,68.60561590290204,85.92351773152569,-2.75,-2.06,0.96,0.0,0.0,2.0,0.0,2.0,0.0,2.0,4.32,13.44,0.0,
25.868,68.6005615902902,85.93835177315258,-2.79,-1.83,-0.34,0.0,0.0,2.0,0.0,2.0,0.0,2.0,4.32,13.05,0.0,
25.891,68.60905615902902,85.99383517731526,-3.98,-1.71,0.98,0.0,0.0,2.0,0.0,2.0,0.0,2.0,4.22,12.85,0.0,
25.916,68.5829056159029,85.94538351773153,-3.52,-1.99,0.87,0.0,0.0,2.0,0.0,2.0,0.0,2.0,4.22,12.26,0.0,
25.939,68.61629056159029,85.93153835177316,-2.57,-1.04,-0.57,0.0,0.0,2.0,0.0,2.0,0.0,2.0,4.12,12.75,0.0,
25.964,68.61062905615903,85.92115383517732,-3.26,0.05,-0.78,0.0,0.0,2.0,0.0,2.0,0.0,2.0,4.22,12.46,0.0,
25.988,68.6100629056159,85.96511538351774,-1.98,-1.46,-1.48,0.0,0.0,2.0,0.0,2.0,0.0,2.0,4.22,11.87,0.0,
26.011,68.66400629056159,86.02351153835178,-4.48,-1.35,0.66,0.0,0.0,2.0,0.0,2.0,0.0,2.0,4.32,12.07,0.0,
26.036,68.64240062905616,86.03835115383518,-4.56,-2.5,0.69,0.0,0.0,2.0,0.0,2.0,0.0,2.0,4.32,12.95,0.0,
26.059,68.59524006290562,85.99483511538351,-3.84,-1.27,0.81,0.0,0.0,2.0,0.0,2.0,0.0,2.0,4.41,13.54,0.0,
26.083,68.55452400629056,85.99048351153834,-2.69,-0.31,-0.29,0.0,0.0,2.0,0.0,2.0,0.0,2.0,4.41,13.05,0.0,
26.107,68.58645240062906,85.94504835115384,-4.17,1.02,-0.6,0.0,0.0,2.0,0.0,2.0,0.0,2.0,4.51,12.75,0.0,
26.131,68.5806452400629,85.97650483511539,-4.38,-1.49,0.75,0.0,0.0,2.0,0.0,2.0,0.0,2.0,4.61,12.65,0.0,
26.156,68.53506452400629,86.03365048351155,-4.83,-0.52,1.05,0.0,0.0,2.0,0.0,2.0,0.0,2.0,4.71,12.56,0.0,
26.179,68.50350645240063,86.02136504835114,-3.98,-1.02,-0.11,0.0,0.0,2.0,0.0,2.0,0.0,2.0,4.71,12.07,0.0,
26.203,68.54535064524006,85.95713650483512,-4.41,-0.79,1.24,0.0,0.0,2.0,0.0,2.0,0.0,2.0,4.81,12.07,0.0,
26.227,68.504535064524,85.97771365048351,-4.63,-0.47,0.45,0.0,0.0,2.0,0.0,2.0,0.0,2.0,4.81,12.07,0.0,
26.251,68.5004535064524,85.88977136504835,-4.85,0.47,0.11,0.0,0.0,2.0,0.0,2.0,0.0,2.0,4.81,11.58,0.0,
26.274,68.53604535064525,85.83597713650484,-3.32,-1.68,-0.47,0.0,0.0,2.0,0.0,2.0,0.0,2.0,5.0,10.69,0.0,
26.299,68.60260453506453,85.86659771365048,-3.51,-0.35,-0.39,0.0,0.0,2.0,0.0,2.0,0.0,2.0,5.1,10.69,0.0,
26.322,68.63626045350645,85.83365977136505,-4.66,-0.37,1.13,0.0,0.0,2.0,0.0,2.0,0.0,2.0,5.2,10.4,0.0,
26.347,68.63962604535065,85.81236597713651,-4.51,-1.24,0.99,0.0,0.0,2.0,0.0,2.0,0.0,2.0,5.1,10.2,0.0,
26.371,68.63996260453507,85.83723659771366,-3.89,-0.6,0.03,0.0,0.0,2.0,0.0,2.0,0.0,2.0,5.2,10.3,0.0,
26.394,68.66699626045352,85.86672365977137,-4.15,0.49,-0.19,0.0,0.0,2.0,0.0,2.0,0.0,2.0,5.3,10.69,0.0,
26.419,68.68769962604534,85.79767236597715,-3.37,-0.08,-0.87,0.0,0.0,2.0,0.0,2.0,0.0,2.0,5.3,10.5,0.0,
26.442,68.73476996260453,85.83576723659772,-2.5,0.03,-1.52,0.0,0.0,2.0,0.0,2.0,0.0,2.0,5.4,10.89,0.0,
26.467,68.77547699626045,85.82157672365977,-4.04,-0.47,-0.13,0.0,0.0,2.0,0.0,2.0,0.0,2.0,5.49,11.09,0.0,
26.49,68.73454769962605,85.75715767236598,-3.66,0.74,-1.04,0.0,0.0,2.0,0.0,2.0,0.0,2.0,5.49,11.38,0.0,
26.514,68.78445476996261,85.7147157672366,-2.41,1.13,-2.39,0.0,0.0,2.0,0.0,2.0,0.0,2.0,5.59,11.58,0.0,
26.539,68.82544547699626,85.72847157672366,-2.66,0.2,-2.13,0.0,0.0,2.0,0.0,2.0,0.0,3.0,5.69,11.87,0.0,
26.562,68.91954454769963,85.74784715767237,-3.27,-0.17,-0.82,0.0,0.0,2.0,0.0,2.0,0.0,3.0,5.69,12.56,0.0,
26.587,68.98295445476995,85.76778471576723,-3.56,0.83,-1.11,0.0,0.0,2.0,0.0,2.0,0.0,3.0,5.69,12.56,0.0,
26.61,68.953295445477,85.81477847157672,-2.53,-0.85,-1.73,0.0,0.0,2.0,0.0,2.0,0.0,3.0,5.69,12.65,0.0,
26.634,68.9413295445477,85.82847784715767,-3.95,0.99,-0.45,0.0,0.0,2.0,0.0,2.0,0.0,3.0,5.69,12.46,0.0,
26.658,68.97613295445478,85.73984778471578,-3.17,0.42,-1.5,0.0,0.0,2.0,0.0,2.0,0.0,3.0,5.69,12.16,0.0,
26.682,68.97961329544549,85.71298477847157,-2.69,-0.31,-1.84,0.0,0.0,2.0,0.0,2.0,0.0,3.0,5.69,12.16,0.0,
26.706,69.06096132954454,85.66529847784714,-2.69,-0.77,-1.31,0.0,0.0,2.0,0.0,2.0,0.0,3.0,5.89,12.26,0.0,
26.73,69.07809613295444,85.66952984778472,-3.21,-0.27,-1.04,0.0,0.0,2.0,0.0,2.0,0.0,3.0,5.89,12.85,0.0,
26.755,69.08880961329545,85.60695298477846,-2.93,-1.23,-0.64,0.0,0.0,2.0,0.0,2.0,0.0,3.0,5.79,12.85,0.0,
26.778,69.08988096132956,85.61869529847785,-2.3,-0.15,-2.14,0.0,0.0,2.0,0.0,2.0,0.0,3.0,5.79,12.75,0.0,
26.802,69.11698809613296,85.55686952984779,-1.09,0.91,-4.6,0.0,0.0,2.0,0.0,2.0,0.0,3.0,5.89,12.46,0.0,
26.826,69.1106988096133,85.65868695298478,-1.25,-1.66,-3.54,0.0,0.0,2.0,0.0,2.0,0.0,3.0,5.79,12.95,0.0,
26.85,69.10106988096132,85.69586869529849,-3.04,-2.46,0.01,0.0,0.0,2.0,0.0,2.0,0.0,3.0,5.59,12.56,0.0,
26.874,69.10010698809613,85.69958686952985,-2.24,-0.85,-1.83,0.0,0.0,2.0,0.0,2.0,0.0,3.0,5.49,12.16,0.0,
26.898,69.05501069880961,85.73595868695298,-2.03,-1.58,-1.15,0.0,0.0,2.0,0.0,2.0,0.0,3.0,5.4,12.56,0.0,
26.923,69.08650106988097,85.76659586869529,-1.66,-0.52,-2.85,0.0,0.0,2.0,0.0,2.0,0.0,3.0,5.4,12.16,0.0,
26.946,69.16165010698809,85.76065958686954,-2.53,0.09,-2.29,0.0,0.0,2.0,0.0,2.0,0.0,3.0,5.4,12.36,0.0,
26.97,69.2141650106988,85.69706595868695,-2.18,-0.45,-2.52,0.0,0.0,2.0,0.0,2.0,0.0,3.0,5.4,12.46,0.0,
26.994,69.26441650106987,85.7537065958687,-2.09,-0.29,-3.08,0.0,0.0,2.0,0.0,2.0,0.0,3.0,5.4,12.56,0.0,
27.018,69.31444165010699,85.75037065958686,-2.65,-0.5,-1.4,0.0,0.0,2.0,0.0,2.0,0.0,3.0,5.4,12.85,0.0,
27.042,69.3014441650107,85.79503706595868,-2.89,-0.76,-1.18,0.0,0.0,2.0,0.0,2.0,0.0,3.0,5.3,12.26,0.0,
27.066,69.30014441650107,85.77250370659587,-3.11,0.08,-1.04,0.0,0.0,2.0,0.0,2.0,0.0,3.0,5.3,12.16,0.0,
27.089,69.36301444165011,85.77025037065958,-2.21,-0.68,-1.69,0.0,0.0,2.0,0.0,2.0,0.0,3.0,5.4,12.26,0.0,
27.114,69.36930144416502,85.78802503706596,-3.65,-2.66,1.08,0.0,0.0,2.0,0.0,2.0,0.0,3.0,5.3,12.07,0.0,
27.138,69.36993014441651,85.8078025037066,-3.26,-2.33,0.31,0.0,0.0,2.0,0.0,2.0,0.0,3.0,5.3,12.07,0.0,
27.162,69.36099301444165,85.81878025037065,-3.46,-1.75,0.08,0.0,0.0,2.0,0.0,2.0,0.0,3.0,5.3,12.56,0.0,
27.186,69.39609930144417,85.79287802503708,-3.34,-2.88,0.47,0.0,0.0,2.0,0.0,2.0,0.0,3.0,5.2,12.56,0.0,
27.209,69.31860993014442,85.73628780250371,-2.97,-0.56,-1.1,0.0,0.0,2.0,0.0,2.0,0.0,3.0,5.1,13.05,0.0,
27.234,69.31986099301444,85.71262878025037,-1.66,-1.92,-1.76,0.0,0.0,2.0,0.0,2.0,0.0,3.0,5.0,12.75,0.0,
27.257,69.39198609930145,85.87226287802504,-2.66,-2.32,0.36,0.0,0.0,2.0,0.0,2.0,0.0,2.0,5.1,13.64,0.0,
27.282,69.40819860993014,85.82522628780251,-2.72,-2.47,-0.08,0.0,0.0,2.0,0.0,2.0,0.0,2.0,5.1,13.34,0.0,
27.305,69.40981986099301,85.80252262878025,-2.96,-2.34,-0.27,0.0,0.0,2.0,0.0,2.0,0.0,2.0,5.0,12.95,0.0,
27.329,69.3559819860993,85.77325226287802,-3.3,-2.02,0.03,0.0,0.0,2.0,0.0,2.0,0.0,2.0,4.91,12.16,0.0,
27.354,69.30559819860993,85.76132522628781,-2.88,-1.31,-0.54,0.0,0.0,2.0,0.0,2.0,0.0,2.0,5.0,11.67,0.0,
27.377,69.327559819861,85.72413252262878,-2.5,-1.75,-0.7,0.0,0.0,2.0,0.0,2.0,0.0,2.0,4.91,11.38,0.0,
27.402,69.3207559819861,85.79241325226288,-2.79,-3.23,-0.05,0.0,0.0,2.0,0.0,2.0,0.0,2.0,5.0,11.77,0.0,
27.425,69.3200755981986,85.7632413252263,-5.04,-3.44,2.56,0.0,0.0,2.0,0.0,2.0,0.0,2.0,5.0,12.26,0.0,
27.449,69.36500755981987,85.76932413252263,-3.6,-1.62,1.89,0.0,0.0,2.0,0.0,2.0,0.0,2.0,5.0,12.75,0.0,
27.473,69.38750075598199,85.81493241325227,-3.45,-1.71,0.51,0.0,0.0,2.0,0.0,2.0,0.0,2.0,5.0,12.46,0.0,
27.497,69.3627500755982,85.81949324132522,-3.99,-1.55,1.45,0.0,0.0,2.0,0.0,2.0,0.0,2.0,4.91,12.46,0.0,
27.522,69.32427500755982,85.79294932413254,-3.73,-1.43,0.73,0.0,0.0,2.0,0.0,2.0,0.0,2.0,4.81,12.07,0.0,
27.545,69.30242750075598,85.75429493241325,-2.89,-2.59,0.05,0.0,0.0,2.0,0.0,2.0,0.0,2.0,4.91,11.67,0.0,
27.569,69.3182427500756,85.78642949324134,-4.2,-1.94,1.38,0.0,0.0,2.0,0.0,2.0,0.0,2.0,4.91,11.67,0.0,
27.593,69.29282427500756,85.81664294932413,-3.33,-2.26,0.26,0.0,0.0,2.0,0.0,2.0,0.0,2.0,4.91,11.77,0.0,
27.617,69.29028242750076,85.83766429493241,-3.58,-1.45,-0.05,0.0,0.0,2.0,0.0,2.0,0.0,2.0,4.81,11.97,0.0,
27.64,69.28102824275008,85.86676642949324,-3.71,-1.49,0.28,0.0,0.0,2.0,0.0,2.0,0.0,2.0,4.81,12.36,0.0,
27.665,69.271102824275,85.81567664294933,-4.03,-1.27,0.2,0.0,0.0,2.0,0.0,2.0,0.0,2.0,4.91,12.36,0.0,
27.688,69.2791102824275,85.79256766429495,-3.15,-2.11,-0.06,0.0,0.0,2.0,0.0,2.0,0.0,2.0,4.91,12.46,0.0,
27.713,69.21691102824275,85.79025676642951,-3.82,-2.39,0.82,0.0,0.0,2.0,0.0,2.0,0.0,2.0,4.91,12.56,0.0,
27.737,69.12069110282427,85.79002567664295,-3.18,-2.79,0.54,0.0,0.0,2.0,0.0,2.0,0.0,2.0,5.0,12.46,0.0,
27.76,69.12006911028243,85.80800256766429,-3.62,-1.49,0.54,0.0,0.0,2.0,0.0,2.0,0.0,2.0,4.91,12.46,0.0,
27.785,69.06600691102824,85.82780025676642,-3.73,-1.96,0.85,0.0,0.0,2.0,0.0,2.0,0.0,2.0,4.91,12.56,0.0,
27.808,69.02460069110282,85.80278002567664,-3.58,-2.37,0.56,0.0,0.0,2.0,0.0,2.0,0.0,2.0,4.81,12.07,0.0,
27.832,69.05646006911029,85.81827800256767,-3.05,-1.35,0.06,0.0,0.0,2.0,0.0,2.0,0.0,2.0,4.81,11.67,0.0,
27.856,69.11364600691104,85.73882780025677,-3.84,-0.75,-0.27,0.0,0.0,2.0,0.0,2.0,0.0,2.0,4.81,11.58,0.0,
27.88,69.1013646006911,85.69488278002567,-3.84,-2.29,0.4,0.0,0.0,2.0,0.0,2.0,0.0,2.0,4.81,11.38,0.0,
27.905,69.04613646006912,85.73548827800256,-3.24,-1.65,-0.18,0.0,0.0,2.0,0.0,2.0,0.0,2.0,4.81,10.89,0.0,
27.928,69.03161364600692,85.67654882780026,-2.77,-1.0,-0.63,0.0,0.0,2.0,0.0,2.0,0.0,2.0,4.91,10.59,0.0,
27.952,69.0121613646007,85.65265488278003,-3.12,-1.51,-0.17,0.0,0.0,2.0,0.0,2.0,0.0,2.0,4.81,10.99,0.0,
27.976,68.95621613646007,85.57826548827799,-3.89,-1.08,0.18,0.0,0.0,2.0,0.0,2.0,0.0,2.0,4.81,11.18,0.0,
28.0,68.914621613646,85.48082654882779,-3.16,-0.79,-0.9,0.0,0.0,2.0,0.0,2.0,0.0,2.0,4.71,11.67,0.0,
28.024,68.91046216136459,85.48008265488278,-3.24,-1.29,-0.85,0.0,0.0,2.0,0.0,2.0,0.0,2.0,4.81,11.87,0.0,
28.048,68.94604621613647,85.56100826548827,-2.95,-1.5,-0.54,0.0,0.0,2.0,0.0,2.0,0.0,2.0,4.81,11.97,0.0,
28.072,68.94060462161364,85.57810082654883,-3.7,-0.77,0.05,0.0,0.0,2.0,0.0,2.0,0.0,2.0,4.81,11.77,0.0,
28.096,68.96706046216136,85.60681008265489,-2.79,-1.26,-0.94,0.0,0.0,2.0,0.0,2.0,0.0,2.0,4.71,11.58,0.0,
28.12,68.98770604621613,85.60068100826548,-2.87,-1.34,-0.48,0.0,0.0,2.0,0.0,2.0,0.0,2.0,4.91,12.16,0.0,
28.144,68.98977060462161,85.64506810082655,-3.34,-2.08,0.03,0.0,0.0,2.0,0.0,2.0,0.0,2.0,4.71,11.97,0.0,
28.168,68.96297706046215,85.61350681008265,-3.82,-0.81,0.33,0.0,0.0,2.0,0.0,2.0,0.0,3.0,4.81,11.97,0.0,
28.191,68.9872977060462,85.63735068100827,-3.42,-1.05,-0.63,0.0,0.0,2.0,0.0,2.0,0.0,3.0,4.81,12.65,0.0,
28.216,69.01672977060461,85.57673506810082,-2.98,-0.81,-0.24,0.0,0.0,2.0,0.0,2.0,0.0,3.0,4.71,12.56,0.0,
28.239,68.98367297706046,85.60667350681008,-2.95,-0.91,-0.31,0.0,0.0,2.0,0.0,2.0,0.0,3.0,4.81,12.46,0.0,
28.264,68.97136729770605,85.627667350681,-2.52,-1.56,-0.87,0.0,0.0,2.0,0.0,2.0,0.0,3.0,4.81,13.93,0.0,
28.288,68.9701367297706,85.6117667350681,-3.09,-0.73,-0.46,0.0,0.0,2.0,0.0,2.0,0.0,3.0,4.91,13.83,0.0,
28.312,68.96101367297705,85.5741766735068,-3.74,-1.51,0.4,0.0,0.0,2.0,0.0,2.0,0.0,3.0,4.81,13.54,0.0,
28.336,68.9151013672977,85.57941766735068,-3.16,-1.02,-0.34,0.0,0.0,2.0,0.0,2.0,0.0,3.0,4.81,13.44,0.0,
28.359,68.91051013672977,85.56194176673507,-2.96,0.28,-0.87,0.0,0.0,2.0,0.0,2.0,0.0,3.0,4.81,13.73,0.0,
28.384,68.95505101367297,85.5781941766735,-3.11,-0.67,-0.7,0.0,0.0,2.0,0.0,2.0,0.0,3.0,4.91,13.73,0.0,
28.407,68.9505051013673,85.62481941766734,-3.27,-1.08,-0.56,0.0,0.0,2.0,0.0,2.0,0.0,3.0,4.91,13.05,0.0,
28.432,68.88705051013673,85.55748194176674,-3.37,-1.04,0.12,0.0,0.0,2.0,0.0,2.0,0.0,3.0,5.0,12.36,0.0,
