time,pitch,roll,gyrx,gyry,gyrz,f1,f2,f3,f4,f5,f6,f7,g1,g2,g3
0.372,79.21,51.83,0.0,0.0,-4.0,0,0,0,0,0,0,0,0.00,0.69,0.00,
0.386,85.47399999999999,56.069,1.0,0.0,-4.0,0,0,0,0,0,0,0,0.10,0.00,0.00,
0.398,91.2574,60.2279,4.0,0.0,-2.0,0,0,0,0,0,0,0,0.10,0.00,0.00,
0.411,96.41673999999999,63.93779,4.0,0.0,0.0,0,0,0,0,0,0,0,0.00,0.10,0.00,
0.424,100.856674,67.00877899999999,3.0,1.0,1.0,0,0,0,0,0,0,0,0.00,0.00,0.00,
0.438,104.9186674,69.5118779,2.0,-1.0,0.0,0,0,0,0,0,0,0,0.00,0.00,0.00,
0.451,108.25886673999999,71.43618779000002,1.0,-2.0,-1.0,0,0,0,0,0,0,0,0.10,0.78,0.00,
0.464,111.022886674,73.14961877900001,0.0,-3.0,-2.0,0,0,0,0,0,0,0,0.00,0.00,0.00,
0.478,113.2972886674,74.4729618779,0.0,0.0,-2.0,0,0,0,0,0,0,0,0.00,0.39,0.00,
0.491,115.14472886674,75.55029618779001,0.0,1.0,-2.0,0,0,0,0,0,0,0,0.00,0.00,0.00,
0.503,116.607472886674,76.48602961877901,0.0,1.0,-2.0,0,0,0,0,0,0,0,0.00,0.00,0.00,
0.517,118.0137472886674,77.2636029618779,0.0,1.0,-1.0,0,0,0,0,0,0,0,0.00,0.00,0.00,
0.53,119.21637472886673,77.80036029618779,-1.0,1.0,-1.0,0,0,0,0,0,0,0,0.00,0.98,0.00,
0.543,120.30863747288669,78.10603602961879,-2.0,0.0,-2.0,0,0,0,0,0,0,0,0.00,0.00,0.00,
0.557,121.09286374728867,78.40660360296188,-3.0,-2.0,-2.0,0,0,0,0,0,0,0,0.00,0.78,0.00,
0.57,121.85528637472886,78.79666036029619,-5.0,0.0,0.0,0,0,0,0,0,0,0,0.00,0.00,0.00,
0.583,122.49852863747289,79.06066603602963,-8.0,0.0,2.0,0,0,0,0,0,0,0,0.00,0.00,0.00,
0.596,123.21985286374729,79.10506660360296,-12.0,-2.0,0.0,0,0,0,0,0,0,0,0.00,0.29,0.00,
0.61,123.63398528637474,79.2895066603603,-12.0,-6.0,0.0,0,0,0,0,0,0,0,0.00,0.69,0.00,
0.623,123.94539852863748,79.50595066603603,-10.0,-9.0,0.0,0,0,0,0,0,0,0,0.10,0.00,0.00,
0.636,124.30953985286374,79.81559506660359,-7.0,-4.0,0.0,0,0,0,0,0,0,0,0.10,0.78,0.00,
0.65,124.61595398528637,80.29655950666036,-7.0,-1.0,0.0,0,0,0,0,0,0,0,0.10,0.00,0.00,
0.663,124.72759539852862,80.80365595066604,-6.0,-1.0,1.0,0,0,0,0,0,0,0,0.00,0.00,0.00,
0.676,124.90975953985287,81.18736559506661,-6.0,1.0,2.0,0,0,0,0,0,0,0,0.10,0.00,0.00,
0.69,125.17097595398529,81.51373655950665,-4.0,0.0,1.0,0,0,0,0,0,0,0,0.20,0.00,0.00,
0.703,125.43109759539853,81.87037365595066,-3.0,0.0,0.0,0,0,0,0,0,0,0,0.20,0.00,0.00,
0.716,125.61010975953984,82.24803736559507,-3.0,0.0,-1.0,0,0,0,0,0,0,0,0.10,0.00,0.00,
0.73,125.96101097595398,82.63680373655951,-5.0,2.0,-1.0,0,0,0,0,0,0,0,0.10,0.69,0.00,
0.743,126.2481010975954,83.06268037365595,-6.0,-2.0,-3.0,0,0,0,0,0,0,0,0.10,0.00,0.00,
0.756,126.33081010975954,83.44726803736559,-5.0,-2.0,-2.0,0,0,0,0,0,0,0,0.10,0.00,0.00,
0.77,126.50108101097595,83.76472680373656,-3.0,-2.0,-3.0,0,0,0,0,0,0,0,0.10,0.00,0.00,
0.783,126.68010810109759,84.12047268037365,-1.0,0.0,-2.0,0,0,0,0,0,0,0,0.10,0.00,0.00,
0.796,126.79701081010975,84.36304726803738,0.0,1.0,-2.0,0,0,0,0,0,0,0,0.10,0.00,0.00,
0.809,126.89870108101097,84.47730472680374,2.0,2.0,-2.0,0,0,0,0,0,0,0,0.10,0.00,0.00,
0.823,126.82787010810108,84.52473047268037,4.0,2.0,-2.0,0,0,0,0,0,0,0,0.00,0.00,0.00,
0.836,126.7847870108101,84.59247304726804,4.0,2.0,-2.0,0,0,0,0,0,0,0,0.10,0.69,0.00,
0.849,126.63647870108102,84.6622473047268,3.0,4.0,0.0,0,0,0,0,0,0,0,0.10,0.39,0.00,
0.863,126.7926478701081,84.42622473047268,2.0,6.0,0.0,0,0,0,0,0,0,0,0.00,0.00,0.00,
0.876,126.9252647870108,84.05162247304727,0.0,1.0,-2.0,0,0,0,0,0,0,0,0.10,0.29,0.00,
0.889,126.79452647870109,83.75316224730473,0.0,0.0,-4.0,0,0,0,0,0,0,0,0.10,0.00,0.00,
0.902,126.53845264787012,83.48031622473047,0.0,0.0,-2.0,0,0,0,0,0,0,0,0.10,0.00,0.00,
0.915,126.35984526478701,83.23703162247304,-1.0,1.0,-1.0,0,0,0,0,0,0,0,0.00,0.00,0.00,
0.928,126.2609845264787,82.9157031622473,-2.0,0.0,-1.0,0,0,0,0,0,0,0,0.10,0.00,0.00,
0.942,126.11609845264786,82.76657031622474,-3.0,1.0,-1.0,0,0,0,0,0,0,0,0.10,0.00,0.10,
0.955,126.15560984526478,82.75165703162249,-3.0,0.0,0.0,0,0,0,0,0,0,0,0.10,0.39,0.00,
0.968,126.13256098452646,82.75916570316225,-2.0,-2.0,-1.0,0,0,0,0,0,0,0,0.10,0.00,0.00,
0.982,126.11225609845263,82.85891657031624,-1.0,-2.0,-1.0,0,0,0,0,0,0,0,0.20,0.00,0.00,
0.995,126.08322560984526,83.02189165703163,0.0,-1.0,0.0,0,0,0,0,0,0,0,0.10,0.00,0.10,
1.008,126.16132256098452,83.11918916570315,-1.0,0.0,2.0,0,0,0,0,0,0,0,0.10,0.00,0.00,
1.021,126.36713225609846,82.94891891657034,-2.0,-1.0,2.0,0,0,0,0,0,0,0,0.10,0.00,0.00,
1.035,126.47771322560983,82.70689189165704,-2.0,-3.0,0.0,0,0,0,0,0,0,0,0.00,0.59,0.00,
1.048,126.56977132256098,82.53868918916571,-2.0,-4.0,-1.0,0,0,0,0,0,0,0,0.00,0.39,0.00,
1.061,126.47097713225608,82.51286891891657,0.0,-2.0,0.0,0,0,0,0,0,0,0,0.00,0.00,0.00,
1.075,126.33509771322561,82.55528689189165,0.0,0.0,0.0,0,0,0,0,0,0,0,0.00,0.00,0.00,
1.088,126.33050977132257,82.76652868918917,-1.0,0.0,2.0,0,0,0,0,0,0,0,0.00,0.00,0.00,
1.101,126.47405097713225,82.91365286891893,-3.0,1.0,3.0,0,0,0,0,0,0,0,0.10,0.00,0.00,
1.115,126.64140509771322,82.78436528689188,-4.0,-2.0,1.0,0,0,0,0,0,0,0,0.00,0.00,0.00,
1.128,126.73014050977132,82.69043652868919,-4.0,-2.0,0.0,0,0,0,0,0,0,0,0.00,0.00,0.00,
1.141,126.66701405097713,82.78904365286891,-3.0,-7.0,0.0,0,0,0,0,0,0,0,0.00,0.00,0.00,
1.155,126.57970140509771,83.04190436528688,-2.0,-1.0,0.0,0,0,0,0,0,0,0,0.00,0.29,0.00,
1.168,126.58897014050979,83.2111904365287,-2.0,0.0,0.0,0,0,0,0,0,0,0,0.00,0.00,0.00,
1.181,126.67989701405098,83.33611904365287,-1.0,1.0,0.0,0,0,0,0,0,0,0,0.00,0.10,0.10,
1.195,126.7429897014051,83.27661190436528,0.0,0.0,-1.0,0,0,0,0,0,0,0,0.10,0.00,0.00,
1.208,126.85729897014052,83.27966119043653,0.0,0.0,-2.0,0,0,0,0,0,0,0,0.10,0.00,0.10,
1.22,126.81472989701405,83.40596611904365,0.0,0.0,-3.0,0,0,0,0,0,0,0,0.10,0.00,0.10,
1.233,126.81047298970141,83.69759661190436,0.0,2.0,-2.0,0,0,0,0,0,0,0,0.10,0.10,0.10,
1.247,126.82804729897015,84.04175966119043,-1.0,1.0,-1.0,0,0,0,0,0,0,0,0.00,0.00,0.00,
1.26,126.95580472989701,84.19317596611904,-2.0,0.0,-1.0,0,0,0,0,0,0,0,0.00,0.00,0.00,
1.273,126.9595804729897,84.2263175966119,-2.0,-1.0,-2.0,0,0,0,0,0,0,0,0.00,0.00,0.00,
1.287,126.93295804729898,84.1576317596612,-1.0,0.0,-2.0,0,0,0,0,0,0,0,0.00,0.00,0.00,
1.3,126.7862958047299,84.05176317596613,-1.0,1.0,-1.0,0,0,0,0,0,0,0,0.10,0.00,0.00,
1.313,126.64562958047298,83.96017631759662,-1.0,1.0,0.0,0,0,0,0,0,0,0,0.00,0.00,0.00,
1.327,126.56856295804731,83.72601763175966,-1.0,0.0,-1.0,0,0,0,0,0,0,0,0.10,0.00,0.00,
1.34,126.51585629580474,83.39660176317597,0.0,-1.0,-3.0,0,0,0,0,0,0,0,0.10,0.00,0.00,
1.353,126.39358562958047,83.21066017631759,0.0,-1.0,-2.0,0,0,0,0,0,0,0,0.10,0.49,0.00,
1.367,126.35435856295805,83.10206601763176,1.0,0.0,-1.0,0,0,0,0,0,0,0,0.10,0.00,0.00,
1.38,126.4314358562958,83.08220660176318,0.0,1.0,-1.0,0,0,0,0,0,0,0,0.10,0.29,0.00,
1.393,126.34014358562958,83.21522066017633,-1.0,1.0,0.0,0,0,0,0,0,0,0,0.00,0.00,0.10,
1.406,126.25901435856295,83.40852206601764,-3.0,0.0,0.0,0,0,0,0,0,0,0,0.00,0.00,0.00,
1.42,126.0529014358563,83.43685220660177,-3.0,-1.0,0.0,0,0,0,0,0,0,0,0.10,0.00,0.00,
1.433,125.94229014358564,83.35868522066018,-3.0,-3.0,-1.0,0,0,0,0,0,0,0,0.00,0.10,0.00,
1.446,125.73322901435856,83.26086852206602,0.0,-3.0,-1.0,0,0,0,0,0,0,0,0.00,0.00,0.00,
1.46,125.47832290143586,83.3230868522066,0.0,-2.0,-1.0,0,0,0,0,0,0,0,0.00,0.00,0.00,
1.473,125.3088322901436,83.50030868522065,0.0,-2.0,0.0,0,0,0,0,0,0,0,0.10,0.00,0.00,
1.486,125.17488322901437,83.71603086852207,0.0,-3.0,0.0,0,0,0,0,0,0,0,0.20,0.00,0.00,
1.5,125.20648832290142,83.87260308685221,1.0,-5.0,0.0,0,0,0,0,0,0,0,0.10,0.20,0.00,
1.513,125.34464883229013,84.00526030868521,2.0,-8.0,-2.0,0,0,0,0,0,0,0,0.10,0.10,0.00,
1.526,125.628464883229,84.26152603086852,2.0,-8.0,-3.0,0,0,0,0,0,0,0,0.00,0.49,0.00,
1.54,125.98984648832291,84.66515260308684,2.0,-7.0,-2.0,0,0,0,0,0,0,0,0.00,0.00,0.00,
1.553,126.38598464883229,85.00251526030868,1.0,-6.0,-1.0,0,0,0,0,0,0,0,0.00,0.20,0.00,
1.566,126.70459846488323,85.14425152603087,0.0,-8.0,-1.0,0,0,0,0,0,0,0,0.10,0.00,0.00,
1.579,126.99745984648831,85.27542515260309,0.0,-6.0,0.0,0,0,0,0,0,0,0,0.00,0.49,0.00,
1.592,127.24274598464882,85.26154251526032,2.0,-5.0,0.0,0,0,0,0,0,0,0,0.10,0.00,0.00,
1.605,127.35727459846488,85.39515425152604,4.0,-4.0,0.0,0,0,0,0,0,0,0,0.00,0.00,0.00,
1.618,127.38672745984648,85.37251542515261,6.0,-1.0,-1.0,0,0,0,0,0,0,0,0.00,0.00,0.00,
1.632,127.47967274598464,85.25325154251526,8.0,1.0,-2.0,0,0,0,0,0,0,0,0.00,0.00,0.00,
1.645,127.50696727459847,85.06132515425152,8.0,3.0,-3.0,0,0,0,0,0,0,0,0.00,0.00,0.00,
1.658,127.44669672745984,84.90713251542515,7.0,3.0,-3.0,0,0,0,0,0,0,0,0.00,0.59,0.00,
1.672,127.20666967274599,84.82871325154251,7.0,5.0,-3.0,0,0,0,0,0,0,0,0.00,0.69,0.00,
1.685,127.0206669672746,84.84787132515424,5.0,4.0,-4.0,0,0,0,0,0,0,0,0.10,0.00,0.00,
1.698,126.61506669672745,85.04778713251542,3.0,1.0,-4.0,0,0,0,0,0,0,0,0.00,0.00,0.00,
1.712,126.10650666967274,85.13077871325154,2.0,0.0,-3.0,0,0,0,0,0,0,0,0.00,0.00,0.10,
1.725,125.53365066696728,85.11207787132516,1.0,-2.0,-4.0,0,0,0,0,0,0,0,0.00,0.00,0.00,
1.738,124.97236506669672,85.13720778713252,1.0,-3.0,-4.0,0,0,0,0,0,0,0,0.10,0.00,0.00,
1.752,124.55623650666968,85.28372077871325,2.0,-3.0,-4.0,0,0,0,0,0,0,0,0.10,0.29,0.00,
1.765,124.24462365066697,85.52337207787133,4.0,-3.0,-3.0,0,0,0,0,0,0,0,0.10,0.00,0.00,
1.778,124.0064623650667,85.90733720778714,5.0,-2.0,-2.0,0,0,0,0,0,0,0,0.00,0.10,0.00,
1.792,124.30664623650668,86.32373372077872,5.0,-3.0,-2.0,0,0,0,0,0,0,0,0.00,0.00,0.00,
1.805,124.28266462365067,86.64437337207788,6.0,-7.0,-3.0,0,0,0,0,0,0,0,0.10,0.00,0.00,
1.818,124.14526646236506,87.04543733720779,8.0,-7.0,-4.0,0,0,0,0,0,0,0,0.00,0.00,0.00,
1.831,124.4555266462365,87.59854373372079,10.0,-7.0,-4.0,0,0,0,0,0,0,0,0.00,0.00,0.00,
1.845,124.41455266462364,88.33785437337208,10.0,-4.0,-4.0,0,0,0,0,0,0,0,0.00,0.00,0.20,
1.858,124.63545526646236,88.8797854373372,9.0,-6.0,-4.0,0,0,0,0,0,0,0,0.00,0.00,0.10,
1.871,124.75654552664622,89.17697854373372,9.0,-6.0,-6.0,0,0,0,0,0,0,0,0.00,0.20,0.00,
1.885,124.84065455266462,89.35069785437338,8.0,-7.0,-8.0,0,0,0,0,0,0,0,0.00,0.00,0.00,
1.898,125.07406545526646,89.42206978543734,8.0,-8.0,-9.0,0,0,0,0,0,0,0,0.00,0.00,0.00,
1.911,125.41240654552665,89.50120697854375,10.0,-7.0,-8.0,0,0,0,0,0,0,0,0.10,0.00,0.10,
1.925,125.55424065455266,89.50012069785437,11.0,-6.0,-8.0,0,0,0,0,0,0,0,0.00,0.00,0.10,
1.938,125.71242406545528,89.49101206978543,12.0,-4.0,-8.0,0,0,0,0,0,0,0,0.00,0.00,0.10,
1.951,125.91724240654553,89.45410120697855,13.0,-3.0,-6.0,0,0,0,0,0,0,0,0.00,0.29,0.00,
1.965,126.18072424065454,89.38741012069785,13.0,-2.0,-5.0,0,0,0,0,0,0,0,0.00,0.00,0.00,
1.978,126.36007242406545,89.36274101206979,12.0,-1.0,-4.0,0,0,0,0,0,0,0,0.00,0.29,0.10,
1.991,126.37800724240654,89.35127410120697,11.0,0.0,-4.0,0,0,0,0,0,0,0,0.00,0.00,0.10,
2.004,126.44280072424066,89.2151274101207,10.0,-1.0,-3.0,0,0,0,0,0,0,0,0.00,0.00,0.10,
2.018,126.33228007242407,89.03051274101207,9.0,0.0,-2.0,0,0,0,0,0,0,0,0.00,0.00,0.00,
2.031,126.0782280072424,88.7600512741012,10.0,5.0,-2.0,0,0,0,0,0,0,0,0.00,0.29,0.00,
2.044,125.89982280072424,88.41800512741011,9.0,2.0,-4.0,0,0,0,0,0,0,0,0.00,0.00,0.10,
2.058,125.62998228007241,88.28480051274101,9.0,5.0,-5.0,0,0,0,0,0,0,0,0.00,0.39,0.00,
2.071,125.13499822800725,88.3884800512741,9.0,6.0,-5.0,0,0,0,0,0,0,0,0.00,1.77,0.00,
2.084,124.70749982280073,88.3718480051274,8.0,4.0,-4.0,0,0,0,0,0,0,0,0.00,0.29,0.00,
2.098,124.32274998228007,88.45118480051272,7.0,2.0,-4.0,0,0,0,0,0,0,0,0.00,0.98,0.00,
2.111,124.01427499822802,88.54011848005126,5.0,-1.0,-5.0,0,0,0,0,0,0,0,0.00,0.00,0.00,
2.124,123.65942749982281,88.68401184800513,4.0,-1.0,-5.0,0,0,0,0,0,0,0,0.00,0.00,0.00,
2.138,123.22794274998229,88.96840118480051,2.0,-3.0,-4.0,0,0,0,0,0,0,0,0.00,0.00,0.10,
2.151,123.11279427499822,89.14984011848006,1.0,-1.0,-3.0,0,0,0,0,0,0,0,0.00,0.49,0.10,
2.164,122.83127942749982,89.572984011848,1.0,-5.0,-2.0,0,0,0,0,0,0,0,0.00,0.00,0.00,
2.178,122.46112794274998,90.2992984011848,3.0,-5.0,-2.0,0,0,0,0,0,0,0,0.00,0.00,0.00,
2.191,122.325112794275,90.86692984011847,5.0,-6.0,-1.0,0,0,0,0,0,0,0,0.00,0.00,0.10,
2.204,122.36551127942751,91.40969298401185,7.0,-6.0,-1.0,0,0,0,0,0,0,0,0.00,0.00,0.00,
2.217,122.53155112794275,91.8509692984012,8.0,-4.0,-2.0,0,0,0,0,0,0,0,0.10,0.00,0.00,
2.231,122.81815511279427,92.2010969298401,7.0,-7.0,-3.0,0,0,0,0,0,0,0,0.00,0.10,0.00,
2.244,123.05381551127942,92.236109692984,6.0,-5.0,-4.0,0,0,0,0,0,0,0,0.00,0.00,0.00,
2.257,123.44638155112793,92.25761096929841,4.0,-6.0,-6.0,0,0,0,0,0,0,0,0.00,1.18,0.00,
2.271,124.03463815511279,92.16076109692985,4.0,-7.0,-8.0,0,0,0,0,0,0,0,0.00,0.00,0.00,
2.284,124.15646381551127,92.31307610969297,5.0,-3.0,-6.0,0,0,0,0,0,0,0,0.00,0.00,0.00,
2.297,124.37564638155114,92.6613076109693,6.0,-1.0,-5.0,0,0,0,0,0,0,0,0.00,0.00,0.00,
2.311,124.71256463815511,92.83113076109693,7.0,-1.0,-4.0,0,0,0,0,0,0,0,0.00,0.00,0.10,
2.324,124.5212564638155,92.94711307610969,7.0,0.0,-3.0,0,0,0,0,0,0,0,0.00,0.00,0.10,
2.337,124.46612564638154,93.29171130761097,7.0,1.0,-3.0,0,0,0,0,0,0,0,0.00,0.00,0.00,
2.351,124.55061256463816,93.61417113076111,7.0,0.0,-1.0,0,0,0,0,0,0,0,0.00,0.69,0.00,
2.364,124.8200612564638,93.65541711307611,7.0,0.0,-1.0,0,0,0,0,0,0,0,0.00,0.00,0.00,
2.377,125.12600612564638,93.43454171130762,5.0,-3.0,-5.0,0,0,0,0,0,0,0,0.00,0.88,0.00,
2.391,125.23760061256465,93.25045417113077,4.0,-4.0,-9.0,0,0,0,0,0,0,0,0.00,0.00,0.00,
2.404,125.00576006125647,93.14204541711307,5.0,0.0,-8.0,0,0,0,0,0,0,0,0.00,0.00,0.00,
2.416,124.57757600612564,93.2302045417113,6.0,2.0,-6.0,0,0,0,0,0,0,0,0.00,0.00,0.00,
2.429,124.25575760061257,93.47302045417113,6.0,0.0,-4.0,0,0,0,0,0,0,0,0.00,0.29,0.00,
2.443,124.02557576006126,93.6413020454171,6.0,0.0,-3.0,0,0,0,0,0,0,0,0.00,0.00,0.00,
2.456,123.85855757600612,93.83813020454171,5.0,-2.0,-2.0,0,0,0,0,0,0,0,0.00,0.88,0.00,
2.469,123.74285575760061,93.92981302045418,6.0,-6.0,-3.0,0,0,0,0,0,0,0,0.00,0.98,0.10,
2.483,123.65028557576005,93.85798130204542,6.0,-5.0,-4.0,0,0,0,0,0,0,0,0.00,0.00,-3,
2.926,123.686028557576,95.51579813020454,-1.0,-1.0,-2.0,0,0,0,0,0,0,0,3.92,10.79,1.67,
2.94,123.6896028557576,95.73557981302046,-1.0,0.0,-1.0,0,0,0,0,0,0,0,3.92,14.91,1.67,
2.954,123.78896028557575,95.64055798130204,-1.0,-1.0,-1.0,0,0,0,0,0,0,0,3.92,13.34,1.67,
2.968,123.87989602855758,95.7030557981302,-1.0,-1.0,-1.0,0,0,0,0,0,0,0,4.02,10.20,1.57,
2.981,123.91598960285576,95.664305579813,-2.0,-2.0,-2.0,0,0,0,0,0,0,0,4.02,4.91,1.67,
2.996,123.86559896028558,95.54343055798131,-2.0,-1.0,-2.0,0,0,0,0,0,0,0,4.12,7.75,1.67,
3.009,123.79755989602856,95.60334305579813,-2.0,0.0,-2.0,0,0,0,0,0,0,0,4.12,8.34,1.67,
3.023,123.66475598960287,95.6003343055798,-2.0,-1.0,-2.0,0,0,0,0,0,0,0,4.12,9.12,1.77,
3.037,123.46247559896028,95.50103343055798,-2.0,0.0,-2.0,0,0,0,0,0,0,0,4.22,2.94,1.77,
3.051,123.27124755989603,95.5541033430558,-2.0,0.0,-2.0,0,0,0,0,0,0,0,4.22,3.34,1.86,
3.064,123.26112475598961,95.64041033430559,-1.0,1.0,-2.0,0,0,0,0,0,0,0,4.41,0.69,1.77,
3.079,123.20611247559897,95.69404103343057,-1.0,2.0,-2.0,0,0,0,0,0,0,0,4.41,1.08,1.77,
3.092,123.21861124755989,95.78040410334307,-1.0,2.0,-2.0,0,0,0,0,0,0,0,4.51,6.18,1.77,
3.105,123.37286112475599,95.93304041033431,-2.0,2.0,-1.0,0,0,0,0,0,1,0,4.51,7.75,1.77,
3.12,123.5232861124756,95.96630404103344,-2.0,0.0,0.0,0,0,0,0,0,1,0,4.81,5.30,1.77,
3.133,123.56532861124755,95.92463040410334,-2.0,0.0,-1.0,0,0,0,0,0,1,0,4.91,4.91,1.77,
3.147,123.52453286112474,95.89346304041034,-1.0,0.0,-1.0,0,0,0,0,0,1,0,4.91,6.77,1.77,
3.161,123.52045328611246,95.85434630404103,-1.0,0.0,-1.0,0,0,0,0,0,1,0,5.00,6.47,1.67,
3.175,123.56504532861123,95.91343463040411,-1.0,0.0,-1.0,0,0,0,0,0,1,0,5.00,6.47,1.67,
3.188,123.50650453286113,95.9373434630404,0.0,0.0,-1.0,0,0,0,0,0,1,0,4.91,3.14,1.67,
3.202,123.5456504532861,96.02073434630404,-1.0,0.0,-1.0,0,0,0,0,0,1,0,4.91,4.71,1.67,
3.216,123.78356504532861,96.04707343463039,-2.0,-1.0,0.0,0,0,0,0,0,1,0,4.91,4.41,1.57,
3.229,123.74435650453286,95.96870734346302,-2.0,-1.0,-1.0,0,0,0,0,0,1,0,5.00,4.91,1.47,
3.244,123.71343565045328,95.9698707343463,-2.0,-1.0,-1.0,0,0,0,1,0,1,0,5.10,3.83,1.57,
3.257,123.66534356504532,95.88898707343463,-1.0,-1.0,-1.0,0,0,0,1,0,1,0,5.20,6.97,1.47,
3.271,123.60653435650453,95.81789870734346,0.0,-1.0,-2.0,0,0,0,1,0,1,0,5.20,6.47,1.47,
3.284,123.49265343565045,95.87378987073434,0.0,-1.0,-2.0,0,0,0,1,0,2,0,5.30,3.63,1.28,
3.299,123.37326534356504,95.94237898707344,0.0,0.0,-2.0,0,0,0,1,0,2,0,5.30,4.61,1.28,
3.312,123.37032653435651,96.04823789870736,0.0,0.0,-2.0,0,0,0,1,0,2,0,5.40,4.22,1.28,
3.326,123.46003265343565,96.05882378987074,0.0,0.0,-1.0,0,0,0,1,0,2,0,5.40,7.36,1.18,
3.34,123.65800326534358,96.14988237898707,-1.0,0.0,-1.0,0,0,0,1,0,2,0,5.30,3.43,1.18,
3.353,123.60580032653435,96.2039882378987,-2.0,-1.0,-1.0,0,0,0,1,0,2,0,5.40,2.35,1.08,
3.367,123.52858003265342,96.22739882378987,-2.0,-1.0,0.0,0,0,0,1,0,2,0,5.49,2.35,1.18,
3.381,123.48485800326534,96.14873988237898,-2.0,0.0,-1.0,0,0,0,1,0,2,0,5.40,2.84,0.98,
3.395,123.67848580032653,96.23987398823789,-1.0,0.0,0.0,0,0,0,1,0,2,0,5.40,3.04,0.98,
3.408,123.59884858003267,96.11398739882378,0.0,0.0,-2.0,0,0,0,1,0,2,0,5.40,3.73,1.08,
3.423,123.57288485800326,96.16439873988237,0.0,0.0,-2.0,0,1,0,1,0,2,0,5.40,1.96,1.08,
3.436,123.48028848580033,96.25943987398824,-1.0,0.0,-1.0,0,1,0,1,0,2,0,5.30,0.00,1.08,
3.45,123.54302884858002,96.25094398739883,-2.0,0.0,-1.0,0,1,0,1,0,2,0,5.30,5.59,0.88,
3.464,123.55830288485801,96.26809439873988,-2.0,-1.0,-1.0,0,1,0,1,0,2,0,5.20,7.55,0.88,
3.478,123.5508302884858,96.29680943987398,-2.0,-1.0,-1.0,0,1,0,1,0,2,0,5.20,7.85,0.88,
3.492,123.54108302884859,96.3356809439874,-2.0,-1.0,-1.0,0,1,0,1,0,2,0,5.30,5.00,0.98,
3.506,123.41410830288486,96.35756809439874,-2.0,0.0,-1.0,0,1,0,1,0,2,0,5.20,3.53,0.88,
3.52,123.35641083028848,96.38675680943987,-2.0,0.0,-1.0,0,1,0,1,0,2,0,5.20,2.94,0.88,
3.533,123.39564108302885,96.362675680944,-2.0,0.0,0.0,0,1,0,1,0,2,0,5.10,2.75,0.98,
3.548,123.46256410830289,96.4052675680944,-2.0,0.0,-1.0,0,1,0,1,0,2,0,5.20,3.24,0.88,
3.561,123.47825641083028,96.32852675680944,-2.0,0.0,-1.0,0,1,0,1,0,2,0,5.10,1.47,0.88,
3.575,123.42582564108302,96.34785267568094,-2.0,0.0,-1.0,0,1,0,1,0,2,0,5.10,1.96,0.88,
3.59,123.3935825641083,96.3137852675681,-2.0,1.0,-1.0,0,1,0,1,0,2,0,5.20,1.18,0.98,
3.603,123.45335825641082,96.2113785267568,-2.0,0.0,-1.0,0,1,0,1,0,2,0,5.30,1.77,0.88,
3.617,123.54033582564108,96.20113785267567,-2.0,0.0,-1.0,0,1,0,1,0,2,0,5.20,1.77,0.88,
3.631,123.5310335825641,96.14611378526756,-2.0,0.0,-1.0,0,1,0,1,0,3,0,5.10,1.77,0.98,
3.645,123.4041033582564,96.15861137852676,-2.0,0.0,-1.0,0,1,0,1,0,3,0,5.20,1.08,0.98,
3.658,123.43641033582564,96.15086113785269,-2.0,0.0,-1.0,0,1,0,1,0,3,0,5.20,1.47,0.98,
3.673,123.51164103358255,96.15908611378526,-2.0,0.0,-1.0,0,1,0,1,0,3,0,5.10,2.84,0.98,
3.687,123.56416410335825,96.14190861137853,-1.0,0.0,-1.0,0,1,0,1,0,3,0,5.10,1.96,0.98,
3.7,123.49741641033582,96.09519086113787,-1.0,0.0,-1.0,0,1,0,1,0,3,0,5.00,2.35,0.88,
3.715,123.50874164103358,96.11751908611379,-1.0,0.0,-2.0,0,1,0,1,0,3,0,5.20,2.06,0.98,
3.728,123.52787416410337,96.15575190861138,-1.0,0.0,-2.0,0,1,0,1,0,3,0,5.20,2.75,0.88,
3.742,123.47578741641034,96.19557519086113,-1.0,0.0,-1.0,0,1,0,1,0,3,0,5.10,2.16,0.88,
3.756,123.49757874164104,96.27155751908612,-1.0,0.0,-1.0,0,1,0,1,0,3,0,5.10,3.04,0.88,
3.77,123.4817578741641,96.32415575190862,-1.0,0.0,-1.0,0,1,0,1,0,3,0,5.10,2.65,0.98,
3.783,123.5701757874164,96.29341557519086,-1.0,0.0,-1.0,0,1,0,1,0,3,0,5.00,1.67,0.98,
3.798,123.63301757874163,96.25434155751908,-2.0,0.0,-1.0,0,1,0,1,0,3,0,4.91,1.37,0.88,
3.812,123.60330175787415,96.2684341557519,-2.0,0.0,-1.0,0,1,0,1,0,3,0,5.10,1.08,0.78,
3.825,123.59133017578742,96.2698434155752,-2.0,0.0,-1.0,0,1,0,1,0,3,0,5.10,4.81,0.88,
3.84,123.60813301757874,96.25198434155752,-2.0,0.0,-1.0,0,1,0,1,0,3,0,5.10,2.65,0.88,
3.853,123.65481330175787,96.27719843415575,-2.0,0.0,-1.0,0,1,0,1,0,3,0,5.00,2.65,0.88,
3.867,123.59648133017579,96.32471984341558,-2.0,0.0,-1.0,0,1,0,1,0,3,0,5.00,1.67,0.88,
3.88,123.59964813301757,96.33847198434157,-2.0,0.0,-1.0,0,1,0,1,0,3,0,5.20,1.08,0.88,
3.895,123.70796481330176,96.32184719843416,-2.0,0.0,-1.0,0,1,0,1,0,3,0,5.20,1.77,0.88,
3.908,123.68279648133019,96.30218471984341,-2.0,0.0,-1.0,0,1,0,1,0,3,0,5.10,1.67,0.88,
3.922,123.62627964813302,96.39921847198434,-1.0,0.0,-1.0,0,1,0,1,0,3,0,5.10,2.06,0.88,
3.937,123.62062796481331,96.39992184719844,-2.0,0.0,-1.0,0,1,0,1,0,3,0,5.10,1.28,0.88,
3.95,123.59306279648133,96.32799218471985,-2.0,0.0,-1.0,0,1,0,1,0,3,0,5.10,2.45,0.88,
3.964,123.56330627964815,96.455799218472,-2.0,0.0,-1.0,0,1,0,1,0,3,0,5.10,1.96,0.88,
3.978,123.5243306279648,96.46857992184721,-2.0,0.0,-1.0,0,1,0,1,0,3,0,5.00,1.67,0.88,
3.992,123.52943306279649,96.50585799218473,-2.0,0.0,0.0,0,1,0,1,0,3,0,5.00,0.00,0.98,
4.005,123.49394330627963,96.48258579921848,-2.0,0.0,0.0,0,1,0,1,0,3,0,5.10,0.78,0.88,
4.02,123.62539433062796,96.46225857992184,-2.0,0.0,-1.0,0,1,0,1,0,3,0,5.10,2.35,0.98,
4.033,123.57553943306279,96.46922585799219,-1.0,0.0,-1.0,0,1,0,1,0,3,0,5.10,2.55,0.98,
4.047,123.57955394330627,96.44292258579922,-2.0,0.0,-1.0,0,1,0,1,0,3,0,5.10,2.26,0.88,
4.062,123.57095539433061,96.48529225857992,-2.0,-1.0,-1.0,0,1,0,1,0,3,0,5.00,1.96,0.88,
4.075,123.59709553943306,96.43552922585799,-2.0,-1.0,0.0,0,1,0,1,0,3,0,4.91,1.86,0.98,
4.089,123.50970955394331,96.3585529225858,-2.0,0.0,-1.0,0,1,0,1,0,3,0,5.00,0.29,0.88,
4.103,123.49197095539432,96.38685529225859,-2.0,0.0,-1.0,0,1,0,1,0,3,0,5.00,0.29,0.88,
4.117,123.56219709553942,96.38068552922586,-2.0,-1.0,-1.0,0,1,0,1,0,3,0,4.91,0.69,0.88,
4.131,123.52421970955393,96.29906855292259,-2.0,0.0,-1.0,0,1,0,1,0,3,0,4.91,1.37,0.88,
4.145,123.4754219709554,96.37190685529227,-2.0,0.0,-1.0,0,1,0,1,0,3,0,5.00,0.49,0.88,
4.159,123.54254219709553,96.37019068552922,-2.0,0.0,0.0,0,1,0,1,0,3,0,5.00,0.49,0.98,
4.172,123.54025421970955,96.38801906855292,-2.0,-1.0,-1.0,0,1,0,1,0,3,0,5.00,1.28,0.98,
4.187,123.45902542197095,96.3088019068553,-2.0,0.0,-1.0,0,1,0,1,0,3,0,5.00,0.20,0.98,
4.2,123.3879025421971,96.36388019068553,-2.0,0.0,-1.0,0,1,0,1,0,3,0,5.10,1.08,0.88,
4.214,123.4437902542197,96.31538801906855,-2.0,0.0,-1.0,0,1,0,1,0,3,0,5.10,0.59,0.88,
4.229,123.38637902542197,96.30153880190686,-2.0,0.0,-1.0,0,1,0,1,0,3,0,5.10,0.98,0.98,
4.242,123.42563790254219,96.30015388019069,-2.0,0.0,0.0,0,1,0,1,0,3,0,5.10,0.78,0.98,
4.256,123.41156379025422,96.26401538801906,-2.0,0.0,0.0,0,1,0,1,0,3,0,5.10,1.67,1.08,
4.27,123.41015637902542,96.1974015388019,-2.0,0.0,-1.0,0,1,0,1,0,3,0,5.20,0.59,0.98,
4.284,123.41901563790255,96.32574015388019,-1.0,0.0,-1.0,0,1,0,1,0,3,0,5.20,0.00,0.98,
4.297,123.37490156379025,96.34757401538802,-1.0,0.0,-1.0,0,1,0,1,0,3,0,5.20,0.78,0.98,
4.312,123.46049015637902,96.35875740153881,-2.0,0.0,-1.0,0,1,0,1,0,3,0,5.10,0.78,0.88,
4.325,123.52304901563791,96.32387574015388,-2.0,0.0,-1.0,0,1,0,1,0,3,0,5.10,1.28,0.88,
4.339,123.45730490156379,96.36538757401539,-2.0,0.0,-1.0,0,1,0,1,0,3,0,5.10,1.18,0.98,
4.353,123.37873049015637,96.36053875740154,-2.0,0.0,-1.0,0,1,0,1,0,3,0,5.00,2.55,0.78,
4.367,123.29887304901564,96.40505387574015,-2.0,0.0,-1.0,0,1,0,1,0,3,0,5.10,1.37,0.78,
4.381,123.23688730490157,96.49050538757402,-2.0,0.0,-1.0,0,1,0,1,0,3,0,5.00,2.84,0.69,
4.395,123.26668873049016,96.5440505387574,-2.0,0.0,-1.0,0,1,0,1,0,3,0,4.91,3.63,0.78,
4.409,123.27866887304901,96.51340505387574,-2.0,0.0,-2.0,0,1,0,1,0,3,0,4.91,2.55,0.69,
4.422,123.4598668873049,96.54634050538758,-2.0,-1.0,-2.0,0,1,0,1,0,2,0,5.00,1.77,0.69,
4.436,123.36998668873049,96.55863405053877,-2.0,-1.0,0.0,0,1,0,1,0,2,0,5.00,0.69,0.88,
4.451,123.35199866887305,96.57786340505388,-2.0,0.0,-1.0,0,1,0,1,0,2,0,5.00,1.28,0.78,
4.464,123.2781998668873,96.52578634050538,-2.0,-1.0,-1.0,0,1,0,1,0,3,0,5.10,0.39,0.78,
4.478,123.27081998668872,96.55657863405054,-2.0,0.0,-2.0,0,1,0,1,0,3,0,5.10,0.78,0.69,
4.492,123.45008199866888,96.60465786340505,-1.0,0.0,0.0,0,1,0,1,0,3,0,5.00,0.00,0.78,
4.506,123.61200819986688,96.6364657863405,-2.0,-1.0,-2.0,0,1,0,1,0,3,0,4.91,0.59,0.69,
4.519,123.4932008199867,96.63964657863404,-1.0,0.0,-1.0,0,1,0,1,0,2,0,5.00,1.77,0.69,
4.534,123.58932008199866,96.6669646578634,-1.0,0.0,0.0,0,1,0,1,0,2,0,5.00,2.65,0.69,
4.547,123.62593200819985,96.66069646578634,-2.0,0.0,-1.0,0,1,0,1,0,2,0,5.10,1.96,0.69,
4.561,123.61159320081998,96.68706964657864,-2.0,0.0,-1.0,0,1,0,1,0,2,0,5.10,1.37,0.69,
4.576,123.691159320082,96.63570696465786,-1.0,-1.0,-1.0,0,1,0,1,0,2,0,5.00,2.35,0.69,
4.589,123.6091159320082,96.68457069646578,-1.0,0.0,0.0,0,1,0,1,0,2,0,5.00,1.37,0.69,
4.603,123.6009115932008,96.65345706964659,-2.0,0.0,0.0,0,1,0,1,0,2,0,5.00,1.77,0.69,
4.617,123.64509115932009,96.62334570696467,-2.0,-1.0,-1.0,0,1,0,1,0,2,0,5.00,0.98,0.69,
4.631,123.56850911593202,96.55733457069647,-2.0,-2.0,-1.0,0,1,0,1,0,2,0,5.00,1.08,0.69,
4.645,123.5158509115932,96.49673345706964,-2.0,0.0,0.0,0,1,0,1,0,2,0,5.00,0.39,0.78,
4.659,123.44758509115933,96.49967334570697,-2.0,0.0,0.0,0,1,0,1,0,2,0,5.00,0.00,0.88,
4.673,123.48575850911593,96.4549673345707,-2.0,0.0,-1.0,0,1,0,1,0,2,0,5.00,0.78,0.78,
4.686,123.43557585091159,96.49549673345707,-2.0,0.0,-1.0,0,1,0,1,0,2,0,5.00,0.59,0.78,
4.701,123.46655758509117,96.5895496733457,-2.0,0.0,0.0,0,1,0,1,0,2,0,4.91,1.37,0.78,
4.714,123.50565575850912,96.57195496733456,-2.0,0.0,-1.0,0,1,0,1,0,2,0,4.91,1.86,0.78,
4.728,123.50056557585091,96.55219549673345,-2.0,-2.0,-1.0,0,1,0,1,0,2,0,4.91,1.67,0.78,
4.742,123.4460565575851,96.52321954967334,-2.0,-1.0,0.0,0,1,0,1,0,2,0,5.00,0.39,0.88,
4.756,123.4406056557585,96.49332195496733,-2.0,-1.0,-1.0,0,1,0,1,0,2,0,5.00,0.20,0.88,
4.77,123.26906056557584,96.45433219549673,-2.0,0.0,0.0,0,1,0,1,0,2,0,5.00,0.20,0.78,
4.784,123.39590605655758,96.50443321954968,-2.0,0.0,-1.0,0,1,0,1,0,2,0,5.00,0.00,0.78,
4.798,123.50759060565575,96.50944332195498,-1.0,-2.0,-1.0,0,1,0,1,0,2,0,5.10,0.10,0.78,
4.811,123.47375906056558,96.46494433219549,-1.0,0.0,0.0,0,1,0,1,0,2,0,5.00,0.00,0.78,
4.826,123.48837590605655,96.52349443321955,-1.0,0.0,0.0,0,1,0,1,0,2,0,5.00,0.00,0.88,
4.839,123.49883759060566,96.66434944332197,-1.0,0.0,-1.0,0,1,0,1,0,2,0,5.10,0.00,0.78,
4.852,123.44588375906056,96.7054349443322,-1.0,0.0,-1.0,0,1,0,1,0,2,0,5.00,0.00,0.78,
4.867,123.42258837590606,96.70954349443322,-2.0,0.0,-1.0,0,1,0,1,0,2,0,5.00,0.00,0.78,
4.88,123.44725883759061,96.74595434944332,-2.0,0.0,-1.0,0,1,0,1,0,2,0,5.00,5.79,0.78,
4.894,123.38672588375906,96.76759543494433,-2.0,0.0,-1.0,0,1,0,1,0,2,0,5.10,5.00,0.78,
4.908,123.4166725883759,96.76975954349443,-2.0,0.0,-1.0,0,1,0,1,0,2,0,5.10,3.73,0.78,
4.922,123.5006672588376,96.76097595434945,-2.0,0.0,-1.0,0,1,0,1,0,2,0,5.00,3.83,0.69,
5.362,123.32906672588376,96.74209759543494,-2.0,0.0,-1.0,0,1,0,1,0,2,0,5.00,0.78,0.78,
5.376,123.31190667258838,96.71320975954349,-2.0,0.0,-1.0,0,1,0,1,0,2,0,5.10,1.77,0.78,
5.39,123.32819066725884,96.71932097595435,-2.0,0.0,0.0,0,1,0,1,0,2,0,5.10,357.38,0.78,
5.403,123.28481906672587,96.70193209759543,-2.0,0.0,0.0,0,1,0,1,0,2,0,5.20,798.63,0.88,
5.417,123.37948190667258,96.65519320975956,-2.0,0.0,0.0,0,1,0,1,0,2,0,5.20,0.49,0.88,
5.431,123.43394819066725,96.60551932097596,-2.0,0.0,-1.0,0,1,0,1,0,2,0,5.10,0.49,0.78,
5.444,123.46639481906672,96.5465519320976,-2.0,0.0,-1.0,0,1,0,1,0,2,0,5.10,0.69,0.78,
5.458,123.45163948190667,96.57665519320976,-2.0,0.0,-1.0,0,1,0,1,0,2,0,5.20,0.29,0.78,
5.472,123.44116394819066,96.57966551932097,-2.0,0.0,-1.0,0,1,0,1,0,2,0,5.10,0.98,0.78,
5.486,123.46711639481907,96.5889665519321,-2.0,0.0,0.0,0,1,0,1,0,2,0,5.10,0.29,0.88,
5.499,123.47871163948192,96.5988966551932,-2.0,0.0,-1.0,0,1,0,1,0,2,0,5.20,0.98,0.88,
5.514,123.47087116394819,96.60888966551931,-2.0,0.0,-1.0,0,1,0,1,0,2,0,5.20,0.39,0.78,
5.527,123.47908711639482,96.64588896655195,-2.0,0.0,-1.0,0,1,0,1,0,2,0,5.10,0.49,0.88,
5.54,123.47090871163948,96.63158889665519,-2.0,0.0,-1.0,0,1,0,1,0,2,0,5.10,0.49,0.88,
5.555,123.45209087116395,96.60315888966551,-2.0,0.0,-1.0,0,1,0,1,0,2,0,5.10,1.18,0.78,
5.568,123.47720908711639,96.66331588896655,-2.0,0.0,-1.0,0,1,0,1,0,2,0,5.10,1.08,0.78,
5.582,123.49772090871164,96.60633158889665,-2.0,0.0,-1.0,0,1,0,1,0,2,0,5.10,0.29,0.78,
5.596,123.49077209087115,96.53763315888968,-2.0,0.0,-1.0,0,1,0,1,0,2,0,5.10,1.08,0.78,
5.61,123.44507720908712,96.52176331588896,-2.0,0.0,-1.0,0,1,0,1,0,2,0,5.10,0.69,0.78,
5.623,123.41350772090871,96.5291763315889,-2.0,0.0,-1.0,0,1,0,1,0,2,0,5.10,0.88,0.78,
5.638,123.42835077209087,96.5839176331589,-2.0,0.0,-1.0,0,1,0,1,0,2,0,5.10,0.39,0.78,
5.651,123.42083507720909,96.58039176331589,-2.0,0.0,-1.0,0,1,0,1,0,2,0,5.20,0.98,0.78,
5.664,123.4740835077209,96.5890391763316,-2.0,0.0,-1.0,0,1,0,1,0,2,0,5.10,0.39,0.78,
5.679,123.45240835077209,96.61690391763317,-2.0,0.0,-1.0,0,1,0,1,0,2,0,5.10,0.49,0.69,
5.692,123.41424083507721,96.64669039176333,-2.0,0.0,-1.0,0,1,0,1,0,2,0,5.10,1.08,0.78,
5.706,123.41942408350772,96.64066903917633,-2.0,0.0,-1.0,0,1,0,1,0,2,0,5.10,0.88,0.78,
5.72,123.34794240835078,96.68506690391763,-2.0,0.0,-1.0,0,1,0,1,0,2,0,5.10,0.88,0.78,
5.734,123.38579424083508,96.67150669039177,-2.0,0.0,-1.0,0,1,0,1,0,2,0,5.00,0.88,0.78,
5.747,123.4525794240835,96.69715066903917,-2.0,0.0,-1.0,0,1,0,1,0,2,0,5.10,1.18,0.88,
5.762,123.51325794240834,96.69071506690392,-2.0,0.0,-1.0,0,1,0,1,0,2,0,5.00,0.49,0.88,
5.775,123.51932579424083,96.70807150669039,-2.0,0.0,-1.0,0,1,0,1,0,2,0,5.00,1.28,0.69,
5.789,123.42993257942408,96.67380715066903,-2.0,0.0,-1.0,0,1,0,1,0,2,0,5.00,0.69,0.69,
5.803,123.41199325794241,96.6433807150669,-2.0,0.0,-1.0,0,1,0,1,0,2,0,5.10,0.69,0.78,
5.816,123.42819932579424,96.64033807150669,-1.0,0.0,-1.0,0,1,0,1,0,2,0,5.10,0.59,0.78,
5.83,123.4568199325794,96.61303380715066,-2.0,0.0,-1.0,0,1,0,1,0,2,0,5.10,0.20,0.69,
5.843,123.42368199325794,96.64630338071508,-2.0,0.0,-1.0,0,1,0,1,0,2,0,5.00,0.00,0.78,
5.858,123.53736819932578,96.6316303380715,-2.0,0.0,-1.0,0,1,0,1,0,2,0,5.10,0.20,0.88,
5.871,123.55773681993259,96.63916303380715,-2.0,0.0,-1.0,0,1,0,1,0,2,0,5.00,1.08,0.78,
5.885,123.55977368199326,96.61291630338071,-2.0,0.0,-1.0,0,1,0,1,0,2,0,5.10,0.59,0.78,
5.899,123.48797736819932,96.64629163033808,-2.0,0.0,-1.0,0,1,0,1,0,2,0,5.10,1.08,0.88,
5.913,123.47179773681994,96.64962916303382,-2.0,0.0,-1.0,0,1,0,1,0,2,0,5.00,0.39,0.88,
5.926,123.47917977368199,96.66796291630338,-2.0,0.0,-1.0,0,1,0,1,0,2,0,5.00,0.59,0.88,
5.94,123.46191797736819,96.62479629163035,-2.0,0.0,-1.0,0,1,0,1,0,2,0,5.00,0.39,0.88,
5.954,123.43319179773682,96.61147962916303,-2.0,0.0,-1.0,0,1,0,1,0,2,0,5.10,0.98,0.78,
5.967,123.32231917977367,96.6101479629163,-2.0,0.0,-1.0,0,1,0,1,0,2,0,5.20,0.98,0.88,
5.982,123.32923191797737,96.62801479629162,-2.0,0.0,-1.0,0,1,0,1,0,2,0,5.20,0.49,0.88,
5.995,123.29392319179775,96.63880147962917,-2.0,0.0,-1.0,0,1,0,1,0,2,0,5.10,0.98,0.88,
6.009,123.27239231917977,96.59488014796293,-2.0,0.0,-1.0,0,1,0,1,0,2,0,5.10,0.59,0.88,
6.023,123.29723923191797,96.64448801479631,-2.0,0.0,-1.0,0,1,0,1,0,2,0,5.20,0.00,0.88,
6.037,123.30872392319179,96.65844880147964,-2.0,0.0,-1.0,0,1,0,1,0,2,0,5.20,0.20,0.88,
6.05,123.29187239231919,96.64184488014796,-2.0,0.0,-1.0,0,1,0,1,0,2,0,5.20,1.28,0.78,
6.065,123.25418723923191,96.6311844880148,-2.0,0.0,-1.0,0,1,0,1,0,2,0,5.20,0.69,0.88,
6.078,123.21441872392319,96.63011844880148,-2.0,0.0,-1.0,0,1,0,1,0,2,0,5.20,0.59,0.98,
6.091,123.22844187239232,96.68401184488015,-2.0,0.0,-1.0,0,1,0,1,0,2,0,5.20,0.78,0.98,
6.106,123.26584418723922,96.68940118448802,-2.0,0.0,-1.0,0,1,0,1,0,2,0,5.20,0.59,0.88,
6.119,123.38658441872393,96.6899401184488,-2.0,0.0,-1.0,0,1,0,1,0,2,0,5.10,0.98,0.88,
6.133,123.36265844187238,96.71699401184487,-2.0,0.0,-1.0,0,1,0,1,0,2,0,5.10,0.88,0.88,
6.147,123.27026584418725,96.6836994011845,-2.0,0.0,0.0,0,1,0,1,0,2,0,5.20,1.28,0.78,
6.161,123.25202658441872,96.59936994011846,-2.0,0.0,0.0,0,1,0,1,0,2,0,5.10,1.37,0.78,
6.174,123.34020265844187,96.61793699401186,-2.0,0.0,0.0,0,1,0,1,0,2,0,5.10,2.06,0.78,
6.188,123.44802026584418,96.55679369940118,-2.0,-1.0,0.0,0,1,0,1,0,2,0,5.00,0.98,0.78,
6.202,123.44080202658442,96.53267936994013,-3.0,-1.0,0.0,0,1,0,1,0,2,0,5.00,0.78,0.88,
6.215,123.44008020265844,96.53026793699402,-3.0,0.0,0.0,0,1,0,1,0,2,0,4.91,0.49,0.88,
6.23,123.44000802026585,96.4760267936994,-3.0,0.0,0.0,0,1,0,1,0,2,0,4.91,0.39,0.88,
6.243,123.41300080202659,96.43460267936995,-3.0,0.0,0.0,0,1,0,1,0,2,0,4.91,0.00,0.88,
6.256,123.37430008020266,96.475460267937,-3.0,-1.0,0.0,0,1,0,1,0,2,0,4.91,0.00,0.88,
6.27,123.42443000802027,96.47954602679371,-3.0,0.0,0.0,0,1,0,1,0,1,0,4.81,0.69,0.88,
6.284,123.34844300080202,96.48895460267937,-3.0,0.0,0.0,0,1,0,1,0,1,0,4.81,0.59,0.78,
6.298,123.30484430008019,96.45389546026794,-4.0,0.0,0.0,0,1,0,1,0,1,0,4.71,0.49,0.88,
6.311,123.27348443000801,96.3693895460268,-3.0,0.0,0.0,0,1,0,1,0,1,0,4.71,0.00,0.88,
6.325,123.2433484430008,96.32493895460269,-3.0,0.0,0.0,0,1,0,1,0,1,0,4.71,0.00,0.88,
6.339,123.22233484430008,96.32049389546027,-3.0,0.0,-1.0,0,1,0,1,0,1,0,4.61,0.00,0.88,
6.352,123.22923348443001,96.35604938954603,-3.0,0.0,0.0,0,1,0,1,0,1,0,4.51,0.10,0.88,
6.366,123.346923348443,96.3956049389546,-3.0,0.0,0.0,0,1,0,1,0,1,0,4.51,0.00,0.78,
6.38,123.3766923348443,96.40856049389546,-4.0,0.0,0.0,0,1,0,1,0,1,0,4.51,0.00,0.88,
6.393,123.41566923348444,96.34685604938954,-4.0,0.0,0.0,0,1,0,1,0,1,0,4.51,0.00,0.78,
6.407,123.39256692334844,96.31368560493895,-3.0,0.0,0.0,0,1,0,1,0,1,0,4.32,0.00,0.78,
6.421,123.37225669233484,96.2563685604939,-3.0,0.0,0.0,0,1,0,1,0,1,0,4.32,0.00,0.78,
6.434,123.41522566923348,96.21463685604938,-3.0,0.0,0.0,0,1,0,1,0,1,0,4.32,0.00,0.78,
6.449,123.43752256692335,96.21046368560494,-3.0,0.0,0.0,0,1,0,1,0,1,0,4.32,0.00,0.78,
6.462,123.42175225669233,96.21004636856048,-4.0,0.0,0.0,0,1,0,1,0,1,0,4.41,0.00,0.88,
6.475,123.39317522566924,96.14700463685604,-4.0,1.0,0.0,0,1,0,1,0,1,0,4.41,0.00,0.78,
6.49,123.36331752256692,96.1497004636856,-5.0,1.0,0.0,0,1,0,0,0,1,0,4.41,0.00,0.78,
6.503,123.45933175225669,96.10497004636855,-5.0,1.0,0.0,0,1,0,0,0,1,0,4.32,0.00,0.78,
6.516,123.61293317522566,96.03749700463686,-6.0,0.0,0.0,0,1,0,0,0,1,0,4.32,0.00,0.78,
6.531,123.72729331752257,96.01274970046369,-6.0,0.0,0.0,0,1,0,0,0,1,0,4.41,0.00,0.69,
6.544,123.81072933175226,95.98327497004637,-7.0,0.0,1.0,0,1,0,0,0,1,0,4.51,0.00,0.69,
6.557,123.97207293317521,95.87232749700463,-8.0,-1.0,0.0,0,1,0,0,0,0,0,4.51,0.00,0.78,
6.572,124.00620729331753,95.64523274970047,-8.0,-2.0,1.0,0,1,0,0,0,0,0,4.51,0.00,0.78,
6.585,124.13562072933176,95.49652327497004,-8.0,-3.0,1.0,0,1,0,0,0,0,0,4.71,0.29,0.69,
6.599,124.08556207293317,95.292652327497,-8.0,-5.0,1.0,0,1,0,0,0,0,0,4.71,2.45,0.69,
6.612,123.97255620729331,95.0832652327497,-8.0,-6.0,1.0,0,1,0,0,0,0,0,4.71,0.00,0.59,
6.627,123.96125562072932,94.87332652327495,-8.0,-7.0,1.0,0,1,0,0,0,0,0,4.71,0.00,0.69,
6.64,123.81612556207293,94.7713326523275,-7.0,-7.0,1.0,0,1,0,0,0,0,0,4.71,0.00,0.69,
6.654,123.5856125562073,94.77013326523274,-6.0,-8.0,1.0,0,1,0,0,0,0,0,4.71,0.00,0.59,
6.668,123.38256125562073,94.83301332652329,-5.0,-6.0,2.0,0,1,0,0,0,0,0,4.71,3.73,0.59,
6.681,123.10125612556206,94.75830133265234,-4.0,-6.0,1.0,0,1,0,0,0,0,0,4.71,6.67,0.69,
6.695,122.86612561255622,94.63383013326523,-2.0,-5.0,0.0,0,1,0,0,0,0,0,4.81,5.00,0.59,
6.709,122.71661256125563,94.51338301332652,-3.0,-5.0,0.0,0,1,0,0,0,0,0,4.81,3.53,0.59,
6.723,122.71066125612555,94.60033830133266,-3.0,-5.0,1.0,0,1,0,0,0,0,0,4.81,0.98,0.78,
6.736,122.56606612561255,94.69903383013326,-4.0,-4.0,1.0,0,1,0,0,0,0,0,4.91,0.59,0.78,
6.751,122.45260661256125,94.63690338301333,-4.0,-6.0,0.0,0,1,0,0,0,0,0,5.00,1.57,0.59,
6.764,122.24326066125613,94.64869033830134,-3.0,-3.0,0.0,0,1,0,0,0,0,0,5.00,1.86,0.59,
6.778,122.23132606612562,94.63186903383013,-5.0,-2.0,2.0,0,1,0,0,0,0,0,5.10,0.00,0.49,
6.792,122.21213260661256,94.34218690338301,-5.0,-2.0,0.0,0,1,0,0,0,0,0,5.40,0.00,0.59,
6.806,122.25521326066126,94.2862186903383,-4.0,-2.0,0.0,0,1,0,0,0,0,0,5.49,0.00,0.59,
6.819,122.29552132606612,94.12762186903383,-2.0,-3.0,-1.0,0,1,0,0,0,0,0,5.59,0.00,0.49,
6.834,122.2995521326066,94.25576218690338,-2.0,-5.0,-1.0,0,1,0,0,0,0,0,5.69,0.00,445.08,
6.855,122.22795521326066,94.22357621869034,-2.0,-5.0,-2.0,0,1,0,0,0,0,0,5.79,0.00,0.49,
6.87,122.12179552132606,94.34635762186903,-2.0,-6.0,-2.0,0,1,0,0,0,0,0,6.08,0.00,0.49,
6.883,121.9761795521326,94.2056357621869,-2.0,-6.0,-2.0,0,1,0,0,0,0,0,6.18,0.00,0.49,
6.897,121.72761795521326,94.19156357621868,-1.0,-4.0,-3.0,0,1,0,0,0,0,0,6.38,0.00,0.59,
6.912,121.52276179552133,94.12715635762189,-2.0,-3.0,-2.0,0,1,0,0,0,0,0,6.38,0.00,0.49,
6.925,121.48427617955214,93.49071563576219,0.0,-4.0,-1.0,0,1,0,0,0,0,0,6.47,0.00,0.59,
6.939,121.8944276179552,93.51707156357621,3.0,-6.0,-3.0,0,1,0,0,0,0,0,6.57,2.06,0.49,
6.952,122.16944276179552,93.51970715635761,5.0,-8.0,-4.0,0,1,0,0,0,0,0,6.67,3.04,0.69,
6.966,121.93594427617954,93.45697071563576,7.0,-7.0,-6.0,0,1,0,0,0,0,0,6.87,10.10,0.69,
6.98,121.71459442761795,93.63069707156359,10.0,-7.0,-7.0,0,1,0,0,0,0,0,6.87,11.58,0.78,
6.994,121.4764594427618,94.14306970715636,10.0,-5.0,-10.0,0,1,0,0,0,0,0,7.06,10.59,0.98,
7.008,121.04764594427618,94.43730697071562,8.0,-3.0,-7.0,0,1,0,0,0,0,0,7.16,5.89,1.08,
7.022,120.99576459442761,94.53873069707156,6.0,-5.0,-7.0,0,1,0,0,0,1,0,7.36,3.24,1.18,
7.035,120.81057645944277,94.74687306970715,5.0,-6.0,-7.0,1,1,1,0,0,1,0,7.55,4.32,1.47,
7.05,120.64805764594426,95.02868730697071,4.0,-5.0,-6.0,1,1,1,0,0,1,0,7.55,8.34,1.47,
7.063,120.64980576459443,95.62386873069707,2.0,-4.0,-4.0,1,1,1,0,0,1,0,7.95,12.36,1.57,
7.077,120.44298057645943,95.73738687306971,-1.0,-4.0,-3.0,1,2,1,0,0,1,0,8.53,9.91,1.77,
7.091,120.28729805764594,95.90173868730697,-1.0,-3.0,-2.0,1,2,1,1,0,1,0,8.83,8.83,1.77,
7.105,120.2807298057646,95.91817386873069,0.0,-4.0,-3.0,1,2,1,1,0,1,0,9.22,7.85,1.86,
7.118,120.32507298057645,96.05481738687305,-1.0,-4.0,-2.0,1,2,1,1,0,1,0,9.52,10.40,1.96,
7.133,120.37450729805764,96.2214817386873,-2.0,-4.0,-1.0,1,2,1,1,0,1,0,10.01,10.30,1.96,
7.147,120.34345072980577,96.14814817386872,-2.0,-6.0,-1.0,1,2,1,1,0,1,0,10.20,15.70,1.86,
7.16,120.05234507298057,96.12281481738688,-2.0,-5.0,0.0,1,2,1,1,0,1,0,10.40,18.64,1.86,
7.175,119.87923450729805,96.05728148173868,-2.0,-3.0,0.0,1,2,1,1,0,2,0,10.50,20.90,1.96,
7.189,120.01492345072981,96.10472814817386,0.0,-4.0,0.0,1,2,1,1,0,2,0,10.79,25.90,1.86,
7.202,119.88449234507299,96.05547281481738,0.0,-3.0,0.0,1,2,1,1,0,2,0,10.79,27.17,1.86,
7.217,119.8264492345073,96.14954728148173,1.0,-4.0,0.0,1,2,1,1,0,2,0,10.79,31.49,1.86,
7.23,119.79364492345073,96.18595472814818,1.0,-3.0,0.0,1,2,1,1,0,2,0,10.79,35.90,2.06,
7.244,119.86236449234508,96.09959547281483,3.0,-3.0,0.0,1,2,1,1,0,2,0,10.79,35.12,2.26,
7.258,119.73423644923452,96.01895954728148,4.0,-1.0,-1.0,1,2,1,1,0,2,0,10.69,30.90,2.35,
7.272,119.65842364492345,95.98389595472815,6.0,0.0,-2.0,1,3,1,1,0,2,0,10.69,25.51,2.45,
7.286,119.71384236449235,96.29538959547281,4.0,0.0,-2.0,0,3,1,1,0,2,0,10.79,13.93,2.55,
7.3,119.70138423644923,96.56053895954729,1.0,1.0,-1.0,1,3,1,1,0,2,0,10.89,25.60,3.14,
7.314,119.76313842364492,96.80305389595473,0.0,0.0,-1.0,0,3,1,1,0,2,0,11.18,27.27,3.14,
7.328,119.76931384236448,96.84530538959547,-1.0,1.0,-1.0,1,3,2,1,0,2,0,11.28,26.49,3.14,
7.342,120.01293138423645,96.80453053895955,-2.0,1.0,-1.0,1,3,1,1,0,2,0,11.48,23.15,3.04,
7.356,120.15429313842365,96.68345305389596,-2.0,0.0,-2.0,1,3,1,1,0,3,0,11.67,18.64,3.04,
7.37,120.34842931384237,96.4733453053896,0.0,0.0,-4.0,1,3,1,1,0,3,0,11.48,18.64,3.14,
7.385,120.40384293138423,96.39833453053896,1.0,-1.0,-6.0,1,3,1,1,0,3,0,11.48,15.79,3.14,
7.398,120.36438429313841,96.5168334530539,3.0,-1.0,-6.0,1,3,1,1,0,3,0,11.28,13.34,3.24,
7.412,120.37843842931383,96.60068334530538,2.0,-2.0,-7.0,1,3,1,1,0,3,0,10.89,14.32,3.53,
7.427,120.28084384293138,96.75306833453054,1.0,0.0,-7.0,1,3,1,2,0,3,0,10.20,17.46,3.83,
7.44,120.10008438429314,96.90330683345306,-1.0,0.0,-5.0,1,3,1,2,0,3,0,10.10,15.50,4.12,
7.883,120.69400843842932,95.8833306833453,2.0,-3.0,-8.0,0,2,1,1,0,2,0,8.34,0.00,4.41,
7.897,120.76240084384293,95.95233306833453,2.0,-4.0,-7.0,0,2,1,2,0,2,0,8.34,0.00,4.51,
7.911,120.67024008438429,96.11223330683345,1.0,-4.0,-7.0,0,2,1,2,0,2,0,8.44,0.00,4.71,
7.924,120.49902400843843,96.24522333068334,2.0,-2.0,-7.0,1,2,1,2,0,2,0,8.44,3.53,4.61,
7.939,120.30190240084384,96.27652233306833,3.0,-1.0,-8.0,1,2,1,2,0,2,0,8.73,6.57,4.71,
7.952,120.34519024008438,96.19865223330683,4.0,0.0,-9.0,1,2,1,2,0,2,0,8.93,6.97,4.81,
7.965,120.37651902400843,96.37086522333068,3.0,-1.0,-9.0,1,3,1,2,0,2,0,9.12,12.56,4.91,
7.98,120.35265190240084,96.59508652233308,2.0,-1.0,-8.0,1,3,1,2,0,2,0,9.42,8.53,5.00,
7.993,120.35026519024008,96.81550865223332,2.0,-1.0,-7.0,1,3,1,2,0,3,0,9.71,10.10,5.10,
8.007,120.386026519024,96.98155086522333,2.0,0.0,-7.0,1,3,1,2,0,3,0,9.81,11.28,5.10,
8.02,120.42560265190241,97.25015508652234,1.0,-1.0,-6.0,1,3,1,2,0,3,0,9.91,12.26,5.10,
8.035,120.34856026519024,97.38501550865224,0.0,0.0,-6.0,1,3,1,2,0,3,0,10.10,7.55,5.10,
8.048,120.12485602651903,97.44350155086522,0.0,0.0,-4.0,1,3,1,2,0,3,0,10.30,6.18,5.20,
8.062,120.2554856026519,97.58435015508653,0.0,0.0,-3.0,1,3,1,2,0,3,0,10.50,4.71,5.20,
8.076,120.1785485602652,97.60743501550866,1.0,1.0,-3.0,1,3,1,2,0,3,0,10.69,5.89,5.10,
8.09,120.16185485602652,97.71774350155087,0.0,1.0,-3.0,1,3,1,2,0,3,0,10.79,5.98,5.00,
8.104,120.16918548560265,97.81877435015508,0.0,2.0,-2.0,1,3,1,2,0,3,0,10.89,3.53,5.10,
8.118,120.23291854856026,98.0178774350155,-1.0,2.0,-1.0,1,3,1,2,0,3,0,11.38,5.00,5.10,
8.132,120.30229185485604,98.02878774350155,-2.0,3.0,-1.0,1,3,1,2,0,3,0,11.48,5.00,5.00,
8.145,120.41722918548561,97.93087877435015,-1.0,3.0,-2.0,1,3,1,2,0,3,0,11.77,5.59,5.00,
8.16,120.49172291854856,97.87608787743503,-1.0,3.0,-3.0,1,3,1,2,0,4,0,12.07,4.41,5.10,
8.174,120.52617229185486,98.00560878774351,0.0,3.0,-3.0,1,3,1,2,0,4,0,12.46,4.91,5.10,
8.187,120.61961722918548,98.12656087877436,-1.0,4.0,-2.0,1,3,1,3,0,4,0,13.05,0.00,5.10,
8.202,120.73696172291854,98.25565608787743,-3.0,4.0,0.0,1,3,1,3,0,4,0,13.44,0.00,5.30,
8.215,120.71269617229184,98.40356560878774,-4.0,5.0,0.0,1,3,1,3,0,4,0,13.73,0.00,5.30,
8.229,120.68326961722919,98.37335656087878,-5.0,6.0,1.0,1,3,1,3,0,4,0,13.93,0.00,5.30,
8.243,120.73432696172291,98.35233565608787,-5.0,7.0,1.0,1,3,1,3,0,4,0,14.62,0.00,5.20,
8.256,120.83843269617229,98.27823356560879,-5.0,7.0,2.0,1,3,1,3,0,4,0,14.91,0.00,4.91,
8.27,120.97484326961722,98.26182335656088,-5.0,6.0,2.0,1,3,1,3,0,4,0,15.30,0.00,4.81,
8.284,121.24948432696172,98.26918233565608,-5.0,5.0,2.0,1,3,1,3,0,4,0,15.70,0.00,4.71,
8.298,121.25894843269617,98.07191823356561,-4.0,7.0,0.0,1,4,1,3,0,4,0,16.09,0.00,4.71,
8.311,121.33189484326962,97.88119182335656,-3.0,6.0,-2.0,1,4,1,3,0,4,0,16.78,11.38,4.41,
8.326,121.37518948432697,97.84411918233566,-2.0,5.0,-1.0,1,3,1,3,0,4,0,17.36,3.04,4.32,
8.339,121.62251894843271,97.91241191823356,-3.0,5.0,-1.0,1,3,1,3,0,4,0,17.85,0.00,4.22,
8.353,121.64725189484328,97.98224119182336,-3.0,3.0,-2.0,1,3,1,3,0,4,0,18.25,0.00,4.02,
8.368,121.72172518948433,97.94422411918234,-3.0,3.0,-2.0,1,3,1,3,0,4,0,18.84,3.83,3.92,
8.381,121.72017251894843,97.90442241191825,-3.0,2.0,-2.0,1,3,1,3,0,4,0,19.13,11.77,4.02,
8.395,121.83701725189484,97.92744224119184,-2.0,1.0,-1.0,1,4,1,3,0,4,0,19.23,10.10,4.02,
8.41,121.86670172518949,97.91174422411919,-2.0,1.0,-1.0,1,4,1,3,0,4,0,19.23,5.69,4.12,
8.424,121.86067017251895,97.81117442241191,-2.0,0.0,-2.0,1,4,1,3,0,4,0,19.23,4.91,4.02,
8.437,121.83306701725189,97.6931174422412,0.0,0.0,-3.0,1,4,1,3,0,4,0,19.03,6.28,4.12,
8.452,121.80330670172519,97.68131174422413,0.0,-1.0,-3.0,1,4,1,3,0,5,0,18.93,6.77,4.32,
8.465,121.87233067017252,97.72513117442242,0.0,-1.0,-4.0,1,4,1,3,0,5,0,18.93,7.95,4.51,
8.479,121.90623306701724,97.84651311744224,0.0,-2.0,-4.0,1,4,1,3,0,5,0,18.84,6.08,4.71,
8.494,121.92762330670173,97.84065131174424,0.0,-3.0,-5.0,1,4,1,3,0,5,0,18.64,5.89,5.00,
8.507,121.95676233067016,97.85806513117441,1.0,-4.0,-5.0,1,4,1,3,0,5,0,18.44,4.12,5.30,
8.521,122.00467623306703,97.94980651311744,0.0,-5.0,-5.0,1,4,1,3,0,5,0,18.15,2.84,5.79,
8.536,121.96446762330669,98.15698065131176,0.0,-6.0,-3.0,1,4,1,3,0,5,0,17.76,2.26,5.98,
8.549,121.86144676233066,98.26769806513117,-1.0,-7.0,-3.0,1,4,1,3,0,5,0,16.87,3.43,6.18,
8.563,121.80614467623306,98.23376980651312,0.0,-6.0,-3.0,1,4,1,3,0,5,0,16.38,2.45,6.28,
8.578,121.6746144676233,98.1943769806513,0.0,-7.0,-4.0,1,4,1,3,0,5,0,15.79,1.18,6.38,
8.591,121.51746144676234,98.26243769806513,0.0,-6.0,-4.0,1,4,1,3,0,5,0,15.30,2.94,6.47,
8.605,121.35774614467624,98.26924376980651,-1.0,-6.0,-3.0,1,4,1,3,0,5,0,14.32,2.06,6.57,
8.62,121.27877461446762,98.33292437698066,-1.0,-6.0,-3.0,1,4,1,3,0,5,0,14.03,2.75,6.67,
8.634,121.29787746144676,98.39329243769807,-1.0,-6.0,-3.0,1,4,1,3,0,5,0,13.64,1.77,6.87,
8.647,121.21878774614467,98.43532924376981,-1.0,-6.0,-3.0,1,4,1,3,0,5,0,13.24,2.55,6.97,
8.662,121.07587877461447,98.46653292437699,-1.0,-6.0,-3.0,1,4,1,3,0,5,0,12.85,2.26,6.97,
8.676,120.94458787746144,98.48765329243768,-1.0,-5.0,-3.0,1,4,1,3,0,5,0,12.07,3.73,7.06,
8.69,120.88645878774614,98.57076532924376,-1.0,-5.0,-2.0,1,4,1,3,0,5,0,11.67,3.34,6.97,
8.704,120.83564587877461,98.61507653292438,-2.0,-5.0,-2.0,0,4,1,3,0,5,0,11.38,1.96,7.06,
8.718,120.82156458787746,98.65550765329243,-3.0,-6.0,-2.0,0,4,1,3,0,5,0,11.09,3.73,6.97,
8.732,120.59515645878773,98.54255076532925,-2.0,-5.0,-2.0,0,4,1,3,0,5,0,10.30,4.81,6.67,
8.747,120.50951564587878,98.60325507653292,-2.0,-4.0,-2.0,0,4,1,3,0,5,0,10.01,5.30,6.67,
8.76,120.41095156458789,98.5913255076533,-2.0,-4.0,-2.0,0,3,1,3,0,5,0,9.81,3.73,6.57,
8.774,120.32009515645879,98.61713255076533,-2.0,-3.0,-2.0,0,3,1,3,0,4,0,9.61,4.51,6.47,
8.788,120.27500951564588,98.61971325507653,-3.0,-3.0,-1.0,0,4,1,3,0,4,0,9.22,3.83,6.18,
8.802,120.2255009515646,98.62897132550765,-3.0,-3.0,-1.0,0,3,1,2,0,4,0,9.03,1.86,5.98,
8.816,120.14855009515647,98.62989713255075,-3.0,-2.0,-1.0,0,3,1,2,0,4,0,8.83,2.65,5.89,
8.83,120.11385500951565,98.69298971325507,-2.0,-2.0,0.0,0,3,1,2,0,4,0,8.63,1.77,5.69,
8.844,120.02038550095156,98.6362989713255,-2.0,-2.0,0.0,0,3,1,2,0,4,0,8.53,0.00,5.59,
8.858,119.95703855009515,98.58562989713255,-2.0,-2.0,0.0,0,3,1,2,0,4,0,8.44,0.00,5.40,
8.871,119.9237038550095,98.54456298971326,-2.0,-2.0,-1.0,0,3,1,2,0,4,0,8.34,0.00,5.30,
8.886,119.88437038550094,98.53145629897134,-2.0,-1.0,-1.0,0,3,1,2,0,4,0,8.24,0.00,5.30,
8.9,119.85343703855008,98.50314562989713,-2.0,-1.0,-1.0,0,3,1,2,0,4,0,8.14,0.00,5.20,
8.913,119.832343703855,98.4643145629897,-2.0,-1.0,-1.0,0,3,1,2,0,4,0,8.14,0.00,5.20,
8.928,119.79423437038551,98.52343145629898,-2.0,-1.0,0.0,0,3,1,2,0,4,0,8.14,0.00,5.20,
8.942,119.77242343703854,98.5653431456299,-2.0,0.0,0.0,0,3,1,2,0,4,0,8.14,0.00,5.10,
8.955,119.76124234370386,98.515534314563,-2.0,-1.0,0.0,0,3,1,2,0,4,0,7.95,0.00,5.10,
8.969,119.65212423437039,98.4385534314563,-2.0,-1.0,0.0,0,3,1,2,0,4,0,7.95,0.00,5.00,
8.983,119.66821242343704,98.40385534314564,-1.0,0.0,0.0,0,3,1,2,0,4,0,7.95,0.00,5.00,
8.996,119.7148212423437,98.44538553431457,-1.0,0.0,0.0,0,3,1,2,0,4,0,7.95,0.00,5.00,
9.011,119.74648212423438,98.48553855343144,-1.0,0.0,0.0,0,3,1,2,0,4,0,7.95,0.00,4.81,
9.024,119.73164821242344,98.51655385534313,-2.0,0.0,0.0,0,3,1,2,0,4,0,7.95,0.00,4.81,
9.038,119.72116482124234,98.43865538553432,-1.0,0.0,0.0,0,3,1,2,0,4,0,7.85,0.00,4.81,
9.052,119.77411648212424,98.37686553855343,-1.0,0.0,-1.0,0,3,1,2,0,4,0,7.95,0.00,4.81,
9.066,119.77041164821242,98.34368655385535,-1.0,0.0,-1.0,0,3,1,2,0,4,0,8.04,2.06,4.81,
9.08,119.84204116482124,98.37636865538553,-1.0,0.0,-1.0,0,3,1,2,0,4,0,8.04,2.55,4.81,
9.094,119.79520411648213,98.34363686553856,-1.0,0.0,-1.0,0,3,1,2,0,4,0,8.24,5.10,4.91,
9.108,119.7995204116482,98.38536368655386,-1.0,0.0,-1.0,0,3,1,2,0,4,0,8.24,3.92,4.91,
9.121,119.83595204116483,98.44353636865539,-1.0,0.0,-1.0,0,3,1,2,0,4,0,8.24,2.35,4.81,
9.136,119.85759520411648,98.51235363686553,-1.0,0.0,0.0,0,3,1,2,0,4,0,8.34,2.26,4.81,
9.149,119.86875952041166,98.53723536368656,-2.0,0.0,0.0,0,3,1,2,0,4,0,8.44,3.83,4.91,
9.163,119.94187595204116,98.55772353636866,-2.0,0.0,0.0,0,3,1,2,0,4,0,8.44,2.26,5.00,
9.177,119.94018759520411,98.57777235363686,-2.0,0.0,0.0,0,3,1,2,0,4,0,8.44,0.39,5.00,
9.191,119.87701875952041,98.52577723536368,-2.0,0.0,-1.0,0,3,1,2,0,4,0,8.44,1.18,4.91,
9.204,119.74470187595205,98.49357772353636,-1.0,0.0,-1.0,0,3,1,2,0,4,0,8.44,0.00,5.00,
9.219,119.7944701875952,98.49935777235365,-1.0,0.0,0.0,0,3,1,2,0,4,0,8.63,0.29,4.91,
9.232,119.83544701875952,98.55393577723537,-2.0,0.0,0.0,0,3,1,2,0,4,0,8.83,0.98,5.10,
9.246,119.85754470187595,98.59539357772353,-2.0,0.0,0.0,0,3,1,2,0,4,0,8.83,2.26,5.10,
9.26,119.93175447018758,98.59053935777236,-2.0,1.0,0.0,0,3,1,2,0,4,0,8.83,0.59,5.00,
9.274,119.93917544701875,98.60805393577724,-2.0,0.0,0.0,0,3,1,3,0,4,0,965.79,1.96,5.00,
9.296,119.94891754470187,98.60080539357772,-2.0,1.0,0.0,0,3,1,3,0,4,0,9.03,2.35,4.91,
9.31,119.99489175447019,98.62708053935776,-2.0,0.0,0.0,0,3,1,3,0,4,0,9.12,0.78,5.00,
9.324,119.95448917544701,98.62070805393579,-2.0,0.0,0.0,1,3,1,3,0,4,0,9.32,1.47,5.00,
9.337,120.00444891754469,98.62907080539357,-2.0,0.0,0.0,1,4,1,3,0,4,0,9.32,0.98,5.00,
9.352,119.96444489175447,98.64790708053937,-2.0,1.0,0.0,1,3,1,3,0,4,0,9.42,2.06,4.91,
9.365,120.01444448917545,98.68579070805393,-2.0,1.0,1.0,1,3,1,3,0,4,0,9.52,0.00,4.91,
9.379,120.12744444891754,98.6535790708054,-3.0,2.0,1.0,1,4,1,3,0,4,0,9.52,0.00,4.81,
9.393,120.34574444489176,98.73135790708054,-4.0,0.0,2.0,1,4,1,3,0,4,0,9.52,0.00,4.71,
9.407,120.40357444448918,98.64013579070804,-4.0,0.0,2.0,1,4,1,3,0,4,0,9.71,0.00,4.51,
9.42,120.43635744444892,98.50501357907079,-4.0,0.0,2.0,1,4,1,2,0,4,0,9.71,0.00,4.02,
9.434,120.39463574444488,98.38350135790708,-4.0,0.0,1.0,1,4,1,2,0,4,0,9.71,0.00,3.92,
9.448,120.35446357444448,98.3083501357907,-3.0,0.0,0.0,1,4,1,2,0,4,0,9.61,0.00,3.92,
9.461,120.33244635744444,98.27383501357906,-3.0,0.0,1.0,1,4,1,2,0,4,0,9.61,0.00,3.83,
9.475,120.32124463574443,98.2523835013579,-4.0,1.0,0.0,1,4,1,2,0,4,0,9.71,0.00,3.83,
9.489,120.20312446357445,98.16923835013579,-3.0,1.0,0.0,1,4,1,2,0,4,0,9.71,0.00,3.92,
9.502,120.29031244635743,98.07992383501357,-3.0,2.0,0.0,1,4,1,2,0,4,0,9.61,0.00,3.83,
9.517,120.36203124463576,98.11599238350136,-3.0,2.0,1.0,1,4,1,2,0,4,0,9.71,8.04,3.83,
9.53,120.33320312446357,98.10159923835013,-3.0,2.0,1.0,1,4,1,2,0,4,0,9.81,10.30,3.92,
9.543,120.35732031244635,98.04615992383502,-3.0,2.0,1.0,1,4,1,2,0,4,0,9.91,7.55,3.92,
9.558,120.40473203124463,98.0226159923835,-3.0,2.0,1.0,1,4,1,2,0,4,0,10.10,5.00,3.92,
9.571,120.35547320312446,97.95726159923835,-3.0,2.0,0.0,1,4,1,2,0,4,0,10.10,5.79,3.92,
9.585,120.46754732031245,97.89672615992383,-3.0,2.0,0.0,1,4,1,2,0,4,0,10.20,4.02,3.92,
9.598,120.55075473203125,97.84567261599238,-3.0,2.0,0.0,1,4,1,2,0,3,0,10.30,3.43,3.92,
9.613,120.66707547320313,97.85856726159923,-3.0,1.0,0.0,1,4,1,2,0,3,0,10.40,4.71,3.92,
9.626,120.6877075473203,97.85085672615992,-3.0,1.0,0.0,1,4,1,2,0,3,0,10.59,3.92,3.92,
9.64,120.74377075473203,97.796085672616,-3.0,1.0,0.0,1,3,1,2,0,3,0,10.69,3.92,4.02,
9.654,120.8123770754732,97.68260856726161,-3.0,1.0,0.0,1,3,1,2,0,3,0,10.59,2.94,3.92,
9.668,120.9452377075473,97.68026085672616,-3.0,1.0,0.0,1,3,1,2,0,3,0,10.69,4.22,3.92,
9.681,120.97652377075474,97.68902608567262,-2.0,0.0,0.0,1,3,1,2,0,3,0,10.79,2.26,4.02,
9.695,120.94365237707548,97.66290260856726,-2.0,0.0,0.0,1,3,1,2,0,3,0,10.79,3.73,4.02,
9.709,120.93136523770755,97.63329026085673,-2.0,0.0,0.0,1,3,1,2,0,3,0,10.69,2.26,3.92,
9.722,120.90313652377075,97.62132902608568,-2.0,0.0,0.0,1,3,1,2,0,3,0,10.79,3.14,4.02,
9.737,120.91831365237708,97.69213290260858,-2.0,0.0,0.0,1,4,1,2,0,3,0,10.89,3.53,4.02,
9.75,120.88383136523771,97.64521329026086,-2.0,0.0,0.0,1,4,1,2,0,3,0,10.79,3.83,3.92,
9.764,120.90738313652378,97.64952132902609,-2.0,0.0,0.0,1,3,1,2,0,3,0,10.79,2.55,445.28,
9.786,120.91873831365238,97.55095213290261,-3.0,0.0,0.0,1,3,1,2,0,3,0,10.79,1.57,3.83,
9.8,120.90187383136524,97.45109521329026,-2.0,0.0,0.0,1,3,1,2,0,3,0,10.79,2.26,3.83,
9.814,120.97218738313653,97.42310952132902,-2.0,0.0,0.0,1,3,1,2,0,3,0,10.79,3.43,3.92,
9.828,121.04221873831364,97.4113109521329,-2.0,0.0,0.0,1,3,1,2,0,3,0,10.79,2.26,3.92,
9.841,121.10322187383136,97.47313109521329,-2.0,0.0,0.0,1,3,1,2,0,3,0,10.69,2.65,3.83,
9.856,121.07332218738313,97.44331310952133,-2.0,0.0,0.0,1,3,1,2,0,3,0,10.69,2.26,3.83,
9.869,121.06133221873831,97.50333131095213,-2.0,0.0,0.0,1,3,1,2,0,3,0,10.69,3.53,3.73,
9.883,121.06913322187383,97.50933313109522,-2.0,0.0,0.0,1,3,1,2,0,3,0,10.59,1.37,3.73,
9.896,121.06991332218738,97.51893331310953,-2.0,0.0,0.0,1,3,1,2,0,3,0,10.59,2.94,3.83,
9.911,120.99799133221873,97.51989333131095,-2.0,0.0,0.0,1,3,1,2,0,3,0,10.50,2.45,3.83,
9.924,120.99979913322187,97.49298933313109,-2.0,0.0,-1.0,1,3,1,2,0,3,0,10.50,1.67,3.83,
9.938,121.0089799133222,97.49029893331311,-1.0,0.0,-1.0,1,3,1,2,0,3,0,10.40,2.35,3.83,
9.952,121.02789799133222,97.44502989333131,-1.0,0.0,-1.0,1,3,1,2,0,3,0,10.40,2.75,3.92,
9.966,121.05678979913323,97.47650298933313,-1.0,-1.0,-2.0,1,4,1,2,0,3,0,10.30,2.94,3.83,
9.979,121.13167897991332,97.48865029893331,-1.0,-1.0,-1.0,1,4,1,2,0,3,0,10.20,1.37,3.83,
9.994,121.12116789799134,97.55286502989333,-1.0,-2.0,-1.0,1,3,1,2,0,3,0,10.20,3.53,3.83,
10.008,121.03011678979912,97.55028650298934,-1.0,-1.0,-2.0,1,3,1,2,0,3,0,10.10,1.96,3.92,
10.021,120.9670116789799,97.54102865029893,-2.0,-1.0,-1.0,1,3,1,2,0,3,0,9.91,1.67,3.83,
10.036,121.077701167898,97.47710286502989,-2.0,-1.0,-1.0,1,3,1,2,0,3,0,9.71,1.86,3.92,
10.049,120.9627701167898,97.542710286503,-2.0,-2.0,-1.0,1,3,1,2,0,3,0,9.61,2.16,3.83,
10.063,120.92427701167898,97.6122710286503,-3.0,-2.0,0.0,1,3,1,2,0,3,0,9.52,1.37,3.83,
10.078,120.8664277011679,97.63722710286504,-3.0,-2.0,0.0,1,3,1,2,0,3,0,9.32,2.35,3.92,
10.091,120.80664277011678,97.5227227102865,-3.0,-1.0,0.0,1,3,1,2,0,3,0,9.12,3.83,3.92,
10.105,120.77366427701168,97.43027227102864,-3.0,0.0,0.0,1,3,1,2,0,3,0,9.03,2.06,3.92,
10.119,120.72536642770116,97.43002722710287,-3.0,0.0,0.0,1,3,1,2,0,3,0,8.93,2.84,3.92,
10.133,120.69353664277011,97.42100272271028,-3.0,0.0,0.0,1,3,1,2,0,2,0,8.83,2.06,3.83,
10.146,120.708353664277,97.45610027227103,-3.0,0.0,0.0,1,3,1,2,0,2,0,8.63,2.35,3.83,
10.161,120.7458353664277,97.4506100272271,-3.0,0.0,0.0,1,3,1,2,0,2,0,8.63,1.67,3.83,
10.174,120.65958353664277,97.3870610027227,-3.0,0.0,0.0,1,3,1,2,0,2,0,8.53,3.24,3.83,
10.188,120.65995835366427,97.39870610027228,-3.0,0.0,0.0,1,3,1,2,0,2,0,8.53,3.73,3.83,
10.202,120.63299583536642,97.39087061002722,-3.0,0.0,0.0,1,3,1,2,0,2,0,8.53,1.86,3.92,
10.215,120.75629958353663,97.40808706100272,-3.0,0.0,0.0,1,3,1,2,0,2,0,8.73,2.94,3.83,
10.229,120.73262995835367,97.31080870610026,-3.0,0.0,0.0,1,3,1,2,0,2,0,8.63,1.37,3.83,
10.243,120.69426299583536,97.26508087061003,-2.0,0.0,0.0,1,3,1,2,0,2,0,8.53,0.98,3.73,
10.257,120.70842629958352,97.269508087061,-2.0,0.0,0.0,1,3,1,2,0,2,0,8.53,0.49,3.63,
10.27,120.73684262995835,97.2609508087061,-2.0,0.0,-1.0,1,3,1,2,0,2,0,8.53,2.55,3.63,
10.285,120.76668426299582,97.15209508087061,-1.0,0.0,-1.0,1,3,1,2,0,2,0,8.73,1.47,3.63,
10.298,120.71566842629957,97.09620950808706,-1.0,0.0,-1.0,1,3,1,2,0,2,0,8.73,2.06,3.63,
10.312,120.73756684262995,97.1626209508087,-1.0,0.0,-1.0,1,3,1,2,0,2,0,8.73,3.63,3.63,
10.326,120.784756684263,97.18726209508087,-1.0,0.0,-1.0,1,3,1,2,0,2,0,8.73,2.55,3.53,
10.34,120.79847566842629,97.1447262095081,-1.0,0.0,-1.0,1,3,1,2,0,2,0,8.83,2.55,3.53,
10.354,120.80884756684263,97.1674726209508,-1.0,0.0,-2.0,1,3,1,2,0,3,0,8.93,2.06,3.63,
10.368,120.70188475668425,97.16074726209509,-1.0,0.0,-3.0,1,3,1,2,0,3,0,9.03,3.24,3.63,
10.382,120.62818847566842,97.2500747262095,-1.0,0.0,-2.0,1,3,1,2,0,3,0,9.03,1.67,3.63,
10.395,120.55781884756685,97.27700747262095,-1.0,1.0,-2.0,1,3,1,2,0,3,0,9.12,3.83,3.73,
10.409,120.59578188475668,97.31570074726208,-1.0,1.0,-2.0,1,3,1,2,0,3,0,9.22,1.67,3.73,
10.423,120.62657818847566,97.3465700747262,0.0,2.0,-2.0,1,3,1,2,0,3,0,9.42,0.98,3.83,
10.437,120.66565781884758,97.40365700747262,-1.0,1.0,-1.0,1,3,1,2,0,3,0,9.61,2.45,3.83,
10.45,120.75956578188476,97.49036570074726,-1.0,1.0,-1.0,1,3,1,2,0,3,0,9.71,2.84,3.83,
10.465,120.80495657818847,97.51703657007472,-1.0,0.0,-1.0,1,3,1,2,0,3,0,10.01,3.83,3.92,
10.478,120.77349565781884,97.54670365700747,-1.0,0.0,-2.0,1,3,1,2,0,3,0,10.10,2.84,4.02,
10.492,120.72534956578188,97.51367036570075,-1.0,0.0,-1.0,1,3,1,2,0,3,0,10.10,4.81,4.02,
10.507,120.7835349565782,97.49236703657007,-1.0,0.0,-1.0,1,3,1,2,0,3,0,10.20,3.43,4.02,
10.52,120.76235349565783,97.427236703657,-2.0,0.0,-1.0,1,3,1,2,0,3,0,965.89,3.53,4.12,
10.534,120.71523534956577,97.4207236703657,-2.0,0.0,0.0,1,3,1,2,0,3,0,80.25,3.53,4.22,
10.549,120.71952353495656,97.43807236703657,-2.0,1.0,0.0,1,3,1,2,0,3,0,10.20,3.73,4.12,
10.562,120.80995235349565,97.43080723670367,-2.0,0.0,0.0,1,3,1,2,0,3,0,10.10,3.53,4.12,
10.576,120.92699523534957,97.39408072367036,-2.0,0.0,-1.0,1,3,1,2,0,3,0,10.20zitch,121.51,98.69,
11.024,121.47869952353497,98.24540807236704,-17.0,-12.0,5.0,1,2,0,2,0,2,0,10.40,0.00,1.77,
11.038,121.29986995235349,97.8715408072367,-17.0,-14.0,2.0,0,2,0,1,0,2,0,9.81,0.00,1.96,
11.052,121.14698699523534,97.41115408072366,-17.0,-13.0,0.0,0,2,0,1,0,1,0,9.32,0.00,445.18,
11.074,120.68169869952352,97.13111540807236,-18.0,-12.0,2.0,0,2,0,1,0,1,0,8.93,0.00,1.67,
11.088,120.21216986995236,96.89611154080724,-13.0,-5.0,4.0,0,2,0,0,0,0,0,8.63,0.00,1.28,
11.102,119.58021698699524,96.87261115408073,-12.0,0.0,7.0,0,2,0,0,0,0,0,8.44,0.00,0.98,
11.116,118.89602169869953,96.52826111540807,-6.0,12.0,11.0,0,2,0,0,0,0,0,8.24,0.00,0.78,
11.129,118.63860216986994,97.0158261115408,-5.0,18.0,16.0,0,2,0,0,0,0,0,8.14,0.00,0.39,
11.144,118.801860216987,97.00158261115408,-6.0,24.0,18.0,1,2,0,0,0,0,0,8.14,0.00,0.20,
11.158,119.02518602169869,96.46015826111541,-1.0,30.0,19.0,1,2,0,0,0,0,0,9.12,0.00,0.20,
11.171,119.56051860216986,96.64001582611154,0.0,33.0,20.0,1,2,0,1,0,0,0,9.61,9.71,0.10,
11.186,119.62305186021699,96.97300158261116,-2.0,41.0,23.0,1,2,1,1,0,0,0,10.20,17.17,0.10,
11.2,120.6823051860217,96.75430015826112,2.0,49.0,28.0,1,2,1,1,0,1,0,10.69,19.03,0.00,
11.213,121.71523051860217,96.1654300158261,3.0,44.0,26.0,1,2,1,1,0,1,0,12.26,20.01,0.00,
11.228,122.65552305186023,94.81054300158262,7.0,37.0,18.0,1,3,1,1,0,1,0,13.34,11.67,0.20,
11.242,123.60455230518602,94.28805430015827,8.0,29.0,12.0,1,3,1,1,0,1,0,14.32,10.40,0.29,
11.255,124.9954552305186,93.97480543001583,11.0,19.0,8.0,1,3,1,2,0,2,0,15.40,11.87,0.29,
11.27,126.05254552305186,94.01548054300157,14.0,5.0,3.0,1,3,2,2,0,2,0,17.56,22.96,0.20,
11.284,126.45525455230519,93.83054805430015,17.0,-3.0,0.0,1,3,2,2,0,3,0,18.15,25.31,0.20,
11.298,126.30652545523051,93.99205480543003,18.0,-8.0,-1.0,1,4,2,2,0,3,0,18.05,20.11,0.69,
11.313,126.01265254552305,94.40420548054301,17.0,-9.0,-2.0,1,4,2,2,0,4,0,17.56,22.17,2.84,
11.327,125.75826525455231,94.71542054805431,15.0,-12.0,-1.0,1,4,2,2,0,4,0,15.70,19.91,6.97,
11.341,126.00282652545523,95.25054205480544,14.0,-15.0,-2.0,1,4,2,2,0,4,0,14.42,15.79,18.93,
11.356,125.82928265254552,95.67305420548054,10.0,-18.0,-1.0,1,5,2,2,0,4,0,12.95,13.83,25.80,
11.37,125.34392826525456,96.20130542054805,8.0,-19.0,-1.0,1,5,2,2,0,4,0,11.58,20.80,32.57,
11.384,124.78239282652545,96.4071305420548,8.0,-16.0,-2.0,1,5,2,2,0,5,0,9.12,23.25,39.53,
11.399,124.38423928265254,96.57171305420549,7.0,-13.0,-3.0,1,5,2,2,0,5,0,8.24,33.35,53.96,
11.412,123.51642392826525,96.14717130542054,6.0,-11.0,-6.0,1,5,2,2,0,5,1,7.55,39.14,60.53,
11.426,123.35764239282652,96.49171713054206,7.0,-11.0,-7.0,0,6,2,2,0,5,1,7.16,43.75,66.32,
11.441,123.11676423928266,96.7961717130542,8.0,-11.0,-6.0,1,6,2,2,0,6,1,6.67,51.40,75.34,
11.455,122.94867642392828,97.09661717130543,8.0,-11.0,-5.0,1,6,2,2,0,6,1,6.57,47.87,79.07,
11.469,122.95886764239283,97.40566171713054,8.0,-12.0,-4.0,1,7,2,2,0,7,1,6.47,45.62,82.01,
11.484,123.02288676423929,97.76956617171307,6.0,-12.0,-4.0,1,7,2,2,0,7,1,6.38,41.99,84.17,
11.498,123.20028867642392,97.8419566171713,5.0,-14.0,-6.0,1,7,2,2,0,7,1,6.28,36.40,86.33,
11.512,123.0200288676424,97.95719566171712,3.0,-13.0,-8.0,1,7,2,2,0,7,1,6.28,36.20,86.23,
11.527,122.79500288676424,98.41871956617172,2.0,-12.0,-8.0,1,7,2,3,0,7,1,6.18,35.41,85.35,
11.541,122.34050028867642,98.70787195661717,2.0,-15.0,-8.0,1,7,2,3,0,7,1,6.18,38.26,82.60,
11.555,121.56605002886765,98.53878719566171,1.0,-10.0,-7.0,1,8,2,3,0,7,1,6.38,37.18,80.83,
11.57,121.13760500288677,98.34187871956617,3.0,-5.0,-9.0,1,8,2,3,0,8,1,6.38,35.22,78.97,
11.583,120.90576050028868,98.07018787195662,3.0,-1.0,-13.0,1,8,2,3,0,8,1,6.57,31.69,77.11,
11.597,121.03557605002885,98.13301878719567,3.0,-2.0,-18.0,1,8,2,3,0,8,1,7.26,29.04,73.67,
11.612,120.97655760500288,98.02230187871956,4.0,-3.0,-23.0,1,8,2,3,0,9,1,7.75,27.08,71.81,
11.626,120.92565576050029,98.06523018787195,5.0,-7.0,-29.0,1,8,2,3,0,9,1,8.34,22.96,70.34,
11.64,121.05556557605001,98.23152301878719,7.0,-13.0,-36.0,1,8,2,3,0,10,1,9.03,20.11,70.83,
11.655,120.780556557605,98.54515230187872,9.0,-18.0,-44.0,1,8,2,3,0,10,1,10.79,17.85,72.40,
11.669,120.6810556557605,98.94551523018787,15.0,-25.0,-50.0,1,8,2,3,0,11,1,11.97,18.25,74.46,
11.683,120.58110556557604,98.9225515230188,17.0,-29.0,-50.0,1,8,2,3,0,12,2,13.34,13.64,77.40,
11.699,119.8421105565576,98.98325515230187,25.0,-35.0,-50.0,0,8,1,4,0,0,2,14.81,0.00,85.35,
11.713,119.19221105565578,99.4303255152302,43.0,-30.0,-62.0,0,7,1,4,0,2,2,16.09,0.00,89.27,
11.727,118.97422110556558,98.45803255152302,96.0,-4.0,-94.0,0,6,0,4,0,3,2,15.89,4.32,92.90,
11.741,117.17042211055656,96.20080325515231,108.0,-15.0,-97.0,0,6,0,4,0,3,2,15.01,0.00,98.30,
11.755,116.53104221105565,96.87508032551524,120.0,46.0,-60.0,0,5,0,3,0,4,2,13.34,0.00,99.67,
11.769,116.00810422110557,97.95050803255151,148.0,66.0,-86.0,0,4,0,3,0,3,2,10.20,0.00,100.36,
11.784,116.15381042211055,99.35405080325516,183.0,75.0,-81.0,0,3,0,3,0,2,2,8.63,0.00,100.55,
11.798,116.33038104221106,99.0804050803255,241.0,122.0,-103.0,0,2,0,2,0,0,2,6.38,0.00,98.39,
11.812,118.4270381042211,102.12204050803254,250.0,135.0,-147.0,0,2,0,2,0,11,2,4.02,0.00,92.12,
11.827,121.67870381042212,104.09120405080326,250.0,14.0,-91.0,0,2,0,1,0,8,2,1.57,0.00,80.25,
11.841,125.49587038104221,103.99112040508032,250.0,4.0,-94.0,0,2,0,1,0,6,2,1.28,0.00,49.25,
11.855,127.25458703810422,105.41211204050802,244.0,23.0,-106.0,0,2,0,1,0,4,2,1.18,0.00,32.37,
11.87,132.05645870381042,102.55721120405079,214.0,1.0,-99.0,0,2,0,1,0,2,1,1.18,3.34,14.42,
11.883,139.87164587038106,88.59172112040508,151.0,15.0,-106.0,0,2,0,0,0,1,0,1.37,0.78,2.84,
11.897,136.1171645870381,80.04017211204052,68.0,43.0,-113.0,0,2,0,0,0,0,0,1.77,0.00,0.49,
11.912,124.5007164587038,69.38401721120405,-132.0,29.0,-63.0,0,2,0,0,0,0,0,2.55,0.00,1.28,
11.925,129.44107164587038,58.076401721120405,-162.0,10.0,23.0,0,2,0,0,0,1,0,3.04,0.00,0.78,
11.939,124.26510716458704,50.15064017211204,-184.0,-54.0,16.0,0,2,0,0,0,0,0,0.78,0.00,0.20,
11.953,123.3875107164587,44.5340640172112,-155.0,-90.0,34.0,0,2,0,0,0,0,0,0.29,0.00,0.00,
11.967,127.07975107164587,38.23040640172112,-122.0,-147.0,27.0,0,2,0,0,0,0,0,0.20,0.00,0.00,
11.981,127.42197510716458,36.331040640172105,-104.0,-91.0,63.0,0,2,0,0,0,0,0,0.00,11.09,0.00,
11.995,129.36419751071648,34.34110406401721,-111.0,-37.0,47.0,0,1,0,0,0,0,0,0.39,23.84,0.00,
12.009,129.08141975107165,38.68711040640172,-140.0,-8.0,77.0,0,1,0,0,0,0,0,0.69,32.37,0.00,
12.023,126.56914197510716,43.08171104064017,-147.0,2.0,96.0,0,1,0,0,0,0,0,0.78,14.52,0.00,
12.037,124.5449141975107,48.66017110406402,-157.0,7.0,107.0,0,1,0,0,0,0,0,0.98,0.00,0.00,
12.051,122.94749141975106,54.3120171104064,-166.0,9.0,123.0,0,1,0,0,0,0,0,1.37,0.00,0.00,
12.064,121.7707491419751,59.233201711040635,-177.0,29.0,146.0,0,1,0,0,0,0,0,1.47,0.00,0.00,
12.079,122.78707491419752,63.35232017110406,-186.0,42.0,137.0,0,1,0,0,0,0,0,1.37,0.00,0.00,
12.092,122.82570749141975,67.0762320171104,-180.0,59.0,135.0,0,1,0,0,0,0,0,1.18,8.24,0.00,
12.106,122.73957074914198,71.42662320171104,-172.0,40.0,120.0,0,1,0,0,0,0,0,1.18,8.04,0.00,
12.12,122.9469570749142,77.4506623201711,-154.0,4.0,86.0,0,1,0,0,0,0,0,1.08,0.00,0.00,
12.134,123.24669570749141,83.69606623201712,-162.0,-23.0,104.0,0,1,0,0,0,0,0,0.88,0.00,0.00,
12.147,123.01566957074914,88.2086066232017,-164.0,38.0,103.0,0,1,0,0,0,0,0,0.78,11.77,0.00,
12.162,123.25356695707491,91.99886066232017,-166.0,38.0,87.0,0,1,0,0,0,0,0,0.78,7.46,0.00,
12.175,123.16935669570748,95.68088606623202,-144.0,7.0,74.0,0,1,0,0,0,0,0,0.98,0.00,0.00,
12.188,122.64793566957074,99.2440886066232,-113.0,-14.0,60.0,0,1,0,0,0,0,0,0.98,0.00,0.00,
12.203,122.89279356695707,103.07440886066232,-88.0,3.0,38.0,0,1,0,0,0,0,0,1.08,0.00,0.00,
12.216,122.2152793566957,107.46244088606623,-63.0,16.0,22.0,0,1,0,0,0,0,0,1.08,0.00,0.00,
12.23,127.66452793566958,115.67724408860663,-76.0,36.0,18.0,0,1,0,0,0,0,0,0.98,0.00,0.00,
12.243,131.11645279356696,122.39372440886066,-95.0,10.0,18.0,0,1,0,0,0,0,0,0.98,0.00,0.00,
12.258,129.4366452793567,126.33237244088606,-54.0,42.0,-22.0,0,1,0,0,0,0,0,1.28,24.82,0.00,
12.271,125.40766452793567,130.2182372440886,25.0,36.0,6.0,0,1,0,0,0,0,0,1.57,7.26,0.00,
12.284,123.41176645279356,135.03482372440885,99.0,2.0,10.0,0,1,0,0,0,0,0,1.67,0.00,0.00,
12.298,119.20717664527935,137.12748237244088,109.0,-38.0,71.0,0,1,0,0,0,0,0,1.57,0.00,0.00,
12.312,116.72571766452793,126.50974823724408,107.0,-23.0,28.0,0,1,0,0,0,0,0,2.94,1.57,0.00,
12.326,118.2775717664528,126.10497482372442,83.0,-36.0,-20.0,0,1,0,0,0,0,0,5.59,33.16,0.00,
12.341,117.11875717664527,123.77849748237243,27.0,25.0,15.0,0,1,0,0,0,0,0,8.24,69.95,0.00,
12.355,118.11887571766454,118.93784974823724,39.0,27.0,0.0,0,1,1,0,0,0,0,9.91,81.23,0.00,
12.369,120.83788757176644,118.74178497482372,42.0,7.0,13.0,0,1,1,0,0,1,0,12.85,46.40,0.00,
12.384,124.60178875717665,116.45417849748236,39.0,-6.0,15.0,0,1,1,0,0,2,0,14.42,40.81,0.00,
12.398,127.21917887571766,111.91441784974823,25.0,-26.0,0.0,0,2,1,0,0,2,1,15.50,125.47,6.38,
12.412,128.21891788757176,109.59744178497482,18.0,-37.0,-3.0,1,2,1,0,0,2,1,16.19,97.22,11.28,
12.427,127.09489178875717,107.30474417849747,18.0,-37.0,0.0,1,3,1,0,0,3,1,15.79,94.08,16.68,
12.441,124.68748917887572,105.82447441784974,13.0,-23.0,4.0,1,3,1,1,0,3,1,15.40,64.75,26.88,
12.455,122.82674891788757,104.30844744178498,7.0,-1.0,10.0,1,3,1,1,0,3,1,15.11,58.57,31.39,
12.47,121.50667489178876,102.8248447441785,8.0,6.0,9.0,1,4,2,1,0,3,1,14.91,58.57,35.32,
12.484,121.48266748917888,101.55148447441786,9.0,11.0,8.0,1,4,2,1,0,4,2,15.30,55.62,42.08,
12.498,122.06526674891789,100.4611484474418,6.0,9.0,3.0,1,4,2,1,0,4,2,15.89,45.91,45.03,
12.513,122.85252667489179,99.47011484474419,6.0,2.0,0.0,1,5,2,1,0,4,2,16.68,43.56,47.09,
12.526,123.30025266748918,98.79501148447441,6.0,-4.0,-3.0,1,5,2,1,0,5,2,17.56,41.10,48.17,
12.54,123.24602526674892,98.33150114844744,6.0,-8.0,-5.0,1,5,2,1,0,5,2,19.42,35.32,48.17,
12.555,122.8806025266749,98.01515011484474,5.0,-9.0,-8.0,1,5,2,1,0,6,2,20.01,32.27,47.77,
12.569,122.48406025266749,97.75851501148448,4.0,-4.0,-7.0,1,5,2,1,0,6,2,20.40,32.08,47.48,
12.583,122.42640602526674,97.56185150114845,4.0,-6.0,-8.0,1,6,2,1,0,6,2,20.99,23.35,47.58,
12.598,122.65464060252668,97.47918515011484,3.0,-7.0,-8.0,1,6,2,1,0,6,2,21.09,28.65,48.76,
12.612,122.64146406025267,97.34491851501147,1.0,-6.0,-9.0,1,6,2,1,0,6,3,21.19,26.88,49.54,
12.626,123.09014640602527,97.29549185150115,-1.0,-8.0,-9.0,1,6,2,1,0,7,3,20.99,23.25,50.13,
12.641,122.66701464060253,97.47954918515012,-2.0,-8.0,-9.0,1,6,2,1,0,7,3,20.21,20.70,50.82,
12.655,122.49870146406025,97.128954918515,-3.0,-8.0,-8.0,1,6,2,1,0,7,3,19.91,20.70,51.01,
12.669,122.26587014640602,96.9498954918515,-2.0,-6.0,-9.0,1,6,2,1,0,7,3,19.82,21.68,51.11,
12.684,122.1345870146406,96.87798954918516,-1.0,-6.0,-10.0,1,6,2,1,0,7,3,20.01,20.90,51.11,
12.698,121.97745870146406,96.79879895491851,0.0,-6.0,-9.0,1,6,2,1,0,7,3,20.60,19.23,50.82,
12.712,122.15974587014641,96.76387989549185,0.0,-9.0,-10.0,1,6,2,1,0,7,3,20.90,18.25,50.62,
12.727,122.19597458701465,96.85938798954919,0.0,-12.0,-10.0,1,6,2,1,0,8,3,20.99,16.58,50.62,
12.741,122.37059745870145,96.97693879895492,-2.0,-15.0,-10.0,1,6,2,1,0,8,3,20.99,15.40,50.13,
12.755,122.05505974587014,97.14169387989548,-5.0,-15.0,-8.0,1,6,2,1,0,8,3,20.31,15.60,49.54,
12.77,121.29450597458701,96.94216938798955,-8.0,-11.0,-8.0,1,6,2,1,0,7,3,19.62,17.76,48.46,
12.784,120.6514505974587,96.31021693879896,-2.0,-6.0,-16.0,1,6,2,1,0,8,3,19.13,16.87,44.44,
12.798,120.12814505974588,96.1750216938799,-1.0,-5.0,-21.0,1,6,2,1,0,8,3,18.64,14.91,41.69,
12.813,120.25581450597458,96.332502169388,-1.0,-5.0,-22.0,1,6,2,1,0,8,3,18.74,7.55,39.44,
12.827,120.34958145059746,96.7352502169388,-3.0,-6.0,-26.0,1,5,2,1,0,8,3,18.74,0.00,37.47,
12.841,120.52095814505975,97.05452502169388,-4.0,-7.0,-22.0,1,5,1,1,0,7,3,18.64,0.00,32.86,
12.856,120.67309581450597,97.2394525021694,-6.0,-6.0,-20.0,0,4,1,1,0,7,3,17.76,0.00,29.82,
12.87,120.7783095814506,98.07694525021695,-4.0,-12.0,-12.0,0,4,1,1,0,6,3,16.87,0.00,26.59,
12.884,120.90583095814506,98.5926945250217,-4.0,-14.0,-14.0,0,3,1,1,0,6,2,15.79,0.00,20.50,
12.899,120.58558309581451,98.83326945250218,-4.0,-16.0,-14.0,0,3,1,1,0,6,2,14.52,0.00,17.95,
12.913,119.98655830958144,99.50532694525022,-7.0,-14.0,-8.0,0,3,1,1,0,5,2,12.16,19.33,15.79,
12.928,119.26965583095814,99.69853269452503,-9.0,-9.0,-3.0,0,3,1,1,0,5,2,11.67,53.96,14.03,
12.942,118.6669655830958,99.5198532694525,-12.0,-3.0,0.0,0,3,1,1,0,5,2,11.48,32.27,11.28,
12.956,118.2466965583096,99.14198532694525,-11.0,3.0,4.0,0,3,1,1,0,4,2,11.28,24.03,10.10,
12.971,118.52866965583097,98.63619853269452,-9.0,5.0,4.0,0,3,1,1,0,4,2,11.09,20.31,8.93,
12.985,118.91686696558308,97.86561985326946,-5.0,2.0,0.0,0,3,1,1,0,4,2,11.18,20.90,6.87,
12.999,119.3606866965583,97.47356198532695,-2.0,-2.0,-7.0,0,3,1,1,0,4,2,11.09,18.15,6.28,
13.012,119.36006866965583,97.27235619853269,0.0,-3.0,-8.0,1,3,1,1,0,4,2,11.09,17.36,6.18,
13.027,119.1710068669656,97.29723561985327,0.0,-2.0,-8.0,0,3,1,1,0,4,2,10.89,14.72,6.28,
13.041,118.99910068669656,97.48872356198532,-1.0,-1.0,-8.0,0,3,1,1,0,4,2,10.59,13.24,6.57,
13.056,118.80191006866966,97.67887235619854,-2.0,1.0,-5.0,0,3,1,1,0,4,2,10.40,12.85,6.77,
13.07,118.73719100686696,97.87788723561987,-3.0,3.0,-3.0,0,3,1,1,0,4,1,10.10,13.64,6.97,
13.084,118.6767191006867,97.90678872356199,-4.0,4.0,-2.0,0,3,1,1,0,4,1,10.01,13.34,6.97,
13.097,118.64367191006866,97.9366788723562,-5.0,5.0,-1.0,0,3,1,1,0,4,1,10.01,12.26,6.97,
13.112,118.73036719100686,97.95766788723562,-5.0,5.0,-1.0,0,3,1,1,0,4,1,10.10,13.24,6.87,
13.126,118.97303671910069,97.84276678872355,-4.0,4.0,0.0,0,3,1,1,0,4,1,10.20,12.36,6.67,
13.14,119.08730367191006,97.60627667887235,-3.0,3.0,-1.0,0,3,1,1,0,4,1,10.79,12.07,6.57,
13.155,119.41373036719101,97.52862766788724,-2.0,1.0,-1.0,0,3,1,1,0,4,1,10.89,11.87,6.67,
13.169,119.5813730367191,97.47586276678872,-2.0,0.0,-2.0,1,3,1,1,0,4,1,10.99,12.26,6.57,
13.182,119.5981373036719,97.49758627667887,-2.0,-1.0,-2.0,1,3,1,1,0,4,1,11.18,10.89,6.67,
13.197,119.57281373036719,97.61675862766789,-3.0,-2.0,-1.0,1,3,1,1,0,4,1,10.79,11.28,6.77,
13.211,119.41728137303673,97.61067586276678,-2.0,0.0,0.0,1,3,1,1,0,4,1,10.59,13.24,6.67,
13.225,119.41072813730366,97.60106758627668,-2.0,-1.0,0.0,1,3,1,1,0,4,1,10.50,11.97,6.67,
13.24,119.46407281373035,97.60010675862767,-2.0,0.0,0.0,1,3,1,1,0,3,1,10.30,11.28,6.57,
13.254,119.39740728137303,97.57301067586278,-3.0,0.0,0.0,1,3,1,1,0,3,1,10.10,12.07,6.57,
13.267,119.45374072813729,97.54330106758627,-3.0,0.0,0.0,1,3,1,1,0,3,1,10.01,12.46,6.47,
13.282,119.42337407281373,97.51333010675863,-3.0,0.0,-1.0,1,3,1,1,0,3,1,9.91,11.77,6.47,
13.296,119.36633740728138,97.40233301067586,-3.0,0.0,-1.0,1,3,1,1,0,3,1,9.71,11.77,6.28,
13.309,119.41463374072815,97.38223330106757,-2.0,0.0,-1.0,1,3,1,1,0,3,1,9.71,11.58,6.28,
13.324,119.42846337407282,97.39822333010676,-2.0,0.0,-1.0,1,3,1,1,0,3,1,9.61,10.99,6.28,
13.338,119.49284633740727,97.44482233301068,-2.0,0.0,-1.0,1,3,1,1,0,3,1,9.71,12.85,6.18,
13.352,119.47228463374071,97.49448223330107,-2.0,0.0,-1.0,1,3,1,1,0,3,1,9.71,11.38,6.08,
13.366,119.50622846337409,97.4634482233301,-2.0,0.0,-1.0,1,4,1,1,0,3,1,9.81,10.10,5.98,
13.38,119.4916228463374,97.505344822333,-2.0,0.0,0.0,1,4,1,1,0,3,1,9.71,7.55,5.98,
13.394,119.42716228463375,97.50053448223329,-2.0,0.0,0.0,1,4,1,1,0,3,1,9.71,10.10,5.89,
13.408,119.54671622846337,97.55405344822333,-2.0,0.0,0.0,1,4,1,1,0,3,1,9.81,13.15,5.89,
13.422,119.63067162284634,97.54140534482234,-3.0,0.0,0.0,1,4,1,1,0,3,1,9.81,12.85,5.79,
13.436,119.54006716228463,97.57614053448224,-2.0,0.0,0.0,1,4,1,1,0,3,1,9.71,12.95,5.69,
13.45,119.46800671622846,97.49861405344822,-2.0,0.0,0.0,1,4,1,1,0,3,1,9.81,12.07,5.59,
13.464,119.45180067162285,97.43686140534483,-2.0,0.0,0.0,1,4,1,1,0,3,1,9.81,11.28,5.49,
13.478,119.43218006716229,97.36768614053447,-2.0,1.0,0.0,1,4,1,1,0,3,0,9.81,10.50,5.49,
13.492,119.36721800671623,97.33376861405344,-2.0,1.0,0.0,1,4,1,1,0,3,0,9.71,11.87,5.49,
13.506,119.46872180067163,97.38437686140534,-2.0,1.0,0.0,1,4,1,1,0,3,0,9.81,11.18,5.49,
13.52,119.52387218006716,97.39843768614054,-2.0,0.0,0.0,1,4,1,1,0,3,0,9.91,10.20,5.49,
13.534,119.48438721800673,97.44484376861405,-2.0,0.0,0.0,1,4,1,1,0,3,0,9.91,9.81,5.49,
13.548,119.51643872180067,97.4584843768614,-2.0,1.0,0.0,1,4,1,1,0,3,0,9.91,10.79,5.40,
13.562,119.51964387218007,97.42384843768613,-2.0,1.0,0.0,1,4,1,1,0,3,0,10.01,13.15,5.30,
13.576,119.573964387218,97.4923848437686,-2.0,1.0,0.0,1,4,1,1,0,3,0,10.10,11.77,5.30,
13.59,119.5613964387218,97.50823848437686,-2.0,1.0,0.0,1,4,1,1,0,3,0,10.10,12.75,5.30,
13.604,119.52413964387218,97.48282384843768,-2.0,0.0,0.0,1,4,1,1,0,3,0,10.20,11.0-4.0410,119.72,
14.054,119.76341396438723,97.16528238484376,-1.0,0.0,0.0,1,4,1,1,0,2,0,10.30,9.61,6.18,
14.068,119.83234139643872,97.13352823848437,-2.0,0.0,0.0,1,4,1,1,0,2,0,10.20,10.20,6.28,
14.083,119.84823413964386,97.14835282384844,-2.0,0.0,0.0,1,4,1,1,0,2,0,10.10,10.10,0.00,
14.097,119.78682341396438,97.05983528238484,-2.0,0.0,0.0,1,4,1,1,0,2,0,10.20,10.99,892.12,
14.11,119.72668234139644,97.04198352823849,-2.0,0.0,0.0,1,4,1,1,0,2,0,10.30,11.48,6.47,
14.125,119.72066823413965,97.09419835282385,-2.0,0.0,0.0,1,4,1,1,0,2,0,10.20,11.87,6.47,
14.139,119.69306682341397,97.04541983528239,-2.0,0.0,0.0,1,4,1,1,0,2,0,10.40,11.67,6.47,
14.153,119.76230668234139,96.96854198352824,-2.0,0.0,0.0,1,4,1,1,0,2,0,10.40,10.50,6.47,
14.167,119.80523066823415,96.91585419835282,-2.0,0.0,0.0,1,4,1,1,0,2,0,10.30,10.40,6.47,
14.181,119.80952306682342,96.94658541983529,-2.0,0.0,0.0,1,4,1,1,0,2,0,10.30,8.14,6.47,
14.195,119.84595230668234,96.92265854198354,-2.0,0.0,0.0,1,4,1,1,0,2,0,10.50,9.81,6.47,
14.209,119.91259523066823,96.91126585419835,-2.0,0.0,0.0,1,4,1,1,0,2,0,10.50,11.67,6.47,
14.223,119.91925952306681,96.92812658541985,-2.0,0.0,0.0,1,5,1,1,0,2,0,10.50,9.61,6.57,
14.237,119.93792595230667,96.92981265854199,-2.0,0.0,0.0,1,5,1,1,0,2,0,10.59,10.10,6.57,
14.251,119.93079259523067,96.92098126585421,-2.0,0.0,0.0,1,5,1,1,0,2,0,10.59,10.69,6.47,
14.265,119.86707925952305,96.90209812658543,-2.0,0.0,0.0,1,5,1,1,0,2,0,10.59,11.28,6.57,
14.279,119.84270792595231,96.90920981265853,-2.0,0.0,0.0,1,5,1,1,0,2,0,10.69,10.89,6.57,
14.294,119.83127079259522,96.86492098126585,-1.0,0.0,0.0,1,5,1,1,0,2,0,10.69,12.16,6.57,
14.307,119.85712707925951,96.92349209812659,-2.0,0.0,0.0,1,5,1,1,0,2,0,10.79,11.48,6.67,
14.321,119.84171270792595,97.00134920981267,-2.0,0.0,0.0,1,5,1,1,0,2,0,10.79,10.40,6.67,
14.336,119.9211712707926,97.04513492098127,-2.0,0.0,0.0,1,5,1,1,0,2,0,10.89,10.99,6.77,
14.35,119.98311712707925,97.04051349209814,-2.0,0.0,0.0,1,5,1,1,0,2,0,10.89,10.69,6.77,
14.363,119.95331171270792,96.96805134920982,-2.0,0.0,-1.0,1,5,1,1,0,2,0,10.89,10.59,6.67,
14.377,119.97733117127079,96.88880513492097,-2.0,0.0,-1.0,1,5,1,1,0,2,0,10.89,9.71,6.67,
14.392,119.94373311712707,96.8898805134921,-1.0,0.0,-1.0,1,5,1,1,0,2,0,10.99,10.89,6.77,
14.406,119.9493733117127,96.95298805134921,-1.0,0.0,-1.0,1,5,1,1,0,2,0,10.99,10.50,6.77,
14.42,120.00393733117127,96.93229880513493,-2.0,0.0,-1.0,1,5,1,1,0,2,0,10.99,9.52,6.87,
14.434,119.97339373311712,96.9752298805135,-2.0,0.0,-1.0,1,5,1,1,0,2,0,10.99,10.59,6.77,
14.448,119.9523393733117,96.98852298805134,-2.0,0.0,-1.0,1,5,1,1,0,2,0,10.99,10.50,6.87,
14.462,119.97723393733116,96.93585229880514,-2.0,0.0,-1.0,1,5,1,1,0,2,0,10.99,10.30,6.97,
14.477,119.97072339373311,96.96658522988051,-2.0,0.0,-1.0,1,5,1,1,0,2,0,10.89,9.12,6.87,
14.49,119.9700723393733,96.97865852298806,-2.0,0.0,-1.0,1,5,1,1,0,2,0,10.99,10.40,6.97,
14.504,119.98800723393732,96.9438658522988,-2.0,0.0,-1.0,1,5,1,1,0,2,0,10.99,9.61,6.87,
14.519,119.98080072339373,96.95838658522987,-2.0,0.0,-1.0,1,5,1,1,0,2,0,10.99,10.20,6.97,
14.533,119.97108007233936,96.94183865852298,-2.0,0.0,-1.0,1,5,1,1,0,2,0,10.99,10.59,6.87,
14.547,119.98810800723393,96.9221838658523,-2.0,0.0,-1.0,1,5,1,1,0,2,0,10.99,10.59,6.87,
14.561,119.95381080072339,96.83921838658523,-2.0,0.0,0.0,1,5,1,1,0,2,0,10.99,10.59,6.87,
14.575,119.95038108007233,96.75892183865852,-2.0,0.0,-1.0,1,5,1,1,0,2,0,10.99,9.71,6.97,
14.589,119.99503810800724,96.79589218386586,-2.0,0.0,-1.0,1,5,1,1,0,2,0,10.99,10.50,7.06,
14.604,119.99050381080072,96.83558921838659,-2.0,0.0,0.0,1,5,1,1,0,2,0,10.99,9.42,6.97,
14.617,120.00805038108007,96.84855892183865,-2.0,0.0,0.0,1,5,1,1,0,2,0,10.99,9.52,7.06,
14.631,120.018805038108,96.96685589218387,-2.0,0.0,0.0,1,5,1,1,0,2,0,10.89,10.30,7.06,
14.646,120.0108805038108,97.02368558921839,-2.0,0.0,0.0,1,5,1,1,0,2,0,10.89,10.10,6.97,
14.66,119.93808805038108,96.95736855892184,-2.0,0.0,0.0,1,5,1,1,0,2,0,10.79,10.10,6.97,
14.673,119.9398088050381,96.94173685589217,-2.0,0.0,0.0,1,5,1,1,0,2,0,10.79,9.71,7.06,
14.688,119.95798088050381,96.94017368558922,-2.0,0.0,0.0,1,5,1,1,0,2,0,10.89,10.59,6.97,
14.702,119.96879808805038,96.94001736855891,-2.0,0.0,0.0,1,5,1,1,0,2,0,10.89,9.81,6.97,
14.715,119.97887980880503,96.90400173685589,-2.0,0.0,0.0,1,5,1,1,0,2,0,10.89,10.40,6.87,
14.73,120.06088798088051,96.8644001736856,-2.0,0.0,0.0,1,5,1,1,0,2,0,10.89,9.71,6.77,
14.744,120.01508879808804,96.90544001736855,-2.0,0.0,0.0,1,5,1,1,0,2,0,10.89,9.91,6.67,
14.757,120.0015088798088,96.89154400173686,-2.0,0.0,0.0,1,5,1,1,0,2,0,10.69,10.10,6.67,
14.772,119.99115088798088,96.8451544001737,-2.0,0.0,0.0,1,5,1,1,0,2,0,10.69,10.69,6.47,
14.786,119.95411508879809,96.84951544001736,-3.0,0.0,1.0,1,5,1,1,0,2,0,10.69,11.18,6.38,
14.799,119.90541150887982,96.84095154400174,-3.0,0.0,1.0,1,5,1,1,0,2,0,10.69,10.30,6.28,
14.814,119.81054115088797,96.79509515440017,-3.0,0.0,1.0,1,5,1,1,0,2,0,10.79,11.38,6.08,
14.828,119.9360541150888,96.73650951544002,-3.0,0.0,0.0,1,5,1,1,0,2,0,10.89,11.09,5.59,
14.842,119.96660541150888,96.568650951544,-3.0,1.0,1.0,1,5,1,1,0,2,0,10.79,11.28,5.40,
14.856,120.03266054115089,96.56086509515441,-3.0,0.0,1.0,1,5,1,1,0,2,0,10.79,11.58,5.30,
14.87,119.95826605411509,96.55108650951544,-3.0,0.0,1.0,1,5,1,1,0,2,0,10.89,11.38,5.10,
14.884,119.9418266054115,96.54110865095156,-3.0,0.0,1.0,1,5,1,1,0,2,0,10.89,11.09,4.81,
14.899,119.88618266054114,96.49511086509514,-4.0,0.0,1.0,1,5,1,1,0,2,0,10.99,10.59,4.71,
14.912,119.9076182660541,96.47251108650951,-4.0,1.0,1.0,1,4,1,1,0,2,0,10.99,11.87,4.51,
14.926,119.9097618266054,96.37125110865095,-4.0,1.0,1.0,1,4,1,1,0,2,0,10.99,11.67,4.02,
14.941,119.94597618266053,96.27112511086509,-4.0,0.0,1.0,1,4,1,1,0,2,0,10.99,12.07,3.83,
14.955,120.00359761826606,96.1531125110865,-3.0,0.0,0.0,1,4,1,1,0,2,0,11.09,11.87,3.63,
14.968,119.9553597618266,96.06031125110864,-3.0,0.0,0.0,1,4,1,1,0,2,0,11.09,14.03,3.53,
14.983,119.94153597618265,96.06003112511087,-3.0,0.0,0.0,1,4,1,1,0,2,0,11.09,14.72,3.24,
14.997,120.02115359761827,95.9880031125111,-3.0,0.0,0.0,1,4,1,1,0,2,0,10.99,12.56,3.14,
15.01,120.12811535976184,96.0168003112511,-3.0,0.0,0.0,1,4,1,1,0,2,0,11.18,12.85,3.04,
15.025,120.16581153597619,96.15468003112511,-3.0,0.0,0.0,1,4,1,1,0,2,0,11.09,11.48,2.94,
15.039,120.2055811535976,96.1144680031125,-3.0,0.0,0.0,1,4,1,1,0,2,0,11.18,11.38,2.75,
15.053,120.14655811535977,96.06544680031126,-3.0,0.0,0.0,1,4,1,1,0,2,0,11.09,11.48,2.84,
15.067,120.15865581153598,96.00654468003113,-2.0,0.0,0.0,1,4,1,1,0,2,0,11.09,11.18,2.65,
15.081,120.1328655811536,96.03665446800312,-2.0,0.0,0.0,1,4,1,1,0,2,0,11.09,11.38,2.65,
15.095,120.08528655811536,96.0666654468003,-2.0,0.0,0.0,1,4,1,1,0,2,0,11.18,11.77,2.65,
15.11,120.11652865581154,96.07866654468002,-2.0,0.0,-1.0,1,4,1,1,0,2,0,11.18,12.65,2.55,
15.123,120.11965286558116,96.02586665446799,-2.0,0.0,-1.0,1,4,1,1,0,2,0,10.99,12.07,2.45,
15.137,120.14696528655811,96.0025866654468,-2.0,0.0,-1.0,1,4,1,1,0,2,0,10.99,12.95,2.65,
15.152,120.15869652865581,96.03625866654468,-2.0,0.0,-1.0,1,4,1,1,0,2,0,10.99,11.87,2.75,
15.166,120.26786965286558,96.09362586665446,-2.0,0.0,-1.0,1,4,1,1,0,2,0,10.99,12.16,2.84,
15.18,120.26078696528657,96.10836258666544,-2.0,0.0,-1.0,1,4,1,1,0,2,0,10.89,11.48,2.84,
15.195,120.26007869652867,96.10083625866653,-2.0,0.0,-1.0,1,4,1,1,0,2,0,10.79,10.30,3.14,
15.208,120.22400786965287,96.07308362586664,-2.0,0.0,-1.0,1,4,1,1,0,2,0,10.89,11.77,3.14,
15.222,120.19340078696528,96.06130836258667,-2.0,0.0,-2.0,1,4,1,1,0,2,0,10.89,10.59,3.24,
15.237,120.19934007869654,96.08713083625867,-2.0,0.0,-1.0,1,4,1,1,0,2,0,10.89,9.81,3.43,
15.251,120.20893400786964,96.07171308362587,-2.0,0.0,-1.0,1,4,1,1,0,2,0,10.89,9.32,3.83,
15.264,120.20089340078697,96.10617130836258,-1.0,0.0,-1.0,1,4,1,1,0,2,0,10.79,10.10,3.83,
15.279,120.2180893400787,96.15461713083626,-1.0,0.0,-1.0,1,4,1,1,0,2,0,10.79,10.10,4.02,
15.293,120.16580893400787,96.21346171308362,-1.0,0.0,-1.0,1,4,1,1,0,2,0,10.89,11.09,4.12,
15.307,120.15158089340079,96.12034617130836,-1.0,0.0,-1.0,1,4,1,1,0,2,0,10.79,10.99,4.22,
15.322,120.12315808934008,96.14703461713084,-1.0,0.0,-1.0,1,4,1,1,0,2,0,10.79,8.93,4.32,
15.335,120.08431580893401,96.05070346171308,-1.0,0.0,-1.0,1,4,1,1,0,2,0,10.79,9.12,4.41,
15.349,119.9814315808934,96.0950703461713,-1.0,-1.0,0.0,1,4,1,1,0,2,0,10.89,9.42,4.51,
15.364,120.07014315808934,96.13550703461712,-1.0,0.0,0.0,1,4,1,1,0,2,0,10.79,10.89,4.51,
15.378,120.13301431580894,96.13955070346171,-1.0,0.0,0.0,1,4,1,1,0,2,0,10.79,10.69,4.61,
15.391,120.17530143158089,96.17595507034618,-1.0,-1.0,0.0,1,4,1,1,0,2,0,10.79,10.99,4.51,
15.406,120.09853014315809,96.20659550703462,-2.0,0.0,0.0,1,4,1,1,0,2,0,10.79,10.69,4.51,
15.42,120.11785301431581,96.22765955070346,-1.0,0.0,-1.0,1,4,1,1,0,2,0,10.79,9.52,4.51,
15.434,120.16478530143158,96.19376595507035,-2.0,0.0,-1.0,1,4,1,1,0,2,0,10.69,10.40,4.61,
15.448,120.20547853014315,96.17237659550703,-2.0,0.0,-1.0,1,4,1,1,0,2,0,10.79,10.69,4.51,
15.462,120.18254785301431,96.1882376595507,-2.0,0.0,-1.0,1,4,1,1,0,3,0,10.79,9.91,4.51,
15.476,120.21625478530143,96.23482376595507,-2.0,0.0,0.0,1,4,1,1,0,3,0,10.79,9.71,4.71,
15.491,120.25562547853015,96.2844823765955,-2.0,0.0,-1.0,1,4,1,1,0,3,0,10.79,10.79,4.71,
15.504,120.214562547853,96.23544823765954,-2.0,0.0,-1.0,1,4,1,1,0,2,0,10.89,10.10,4.61,
15.518,120.23745625478529,96.23054482376595,-2.0,0.0,-1.0,1,4,1,1,0,2,0,10.99,8.63,4.61,
15.533,120.25774562547853,96.20305448237659,-1.0,0.0,-1.0,1,4,1,1,0,3,0,10.89,9.71,4.81,
15.547,120.25077456254786,96.17330544823766,-2.0,0.0,-1.0,1,4,1,1,0,3,0,10.89,10.10,4.81,
15.561,120.16907745625478,96.08033054482375,-2.0,0.0,0.0,1,4,1,1,0,2,0,10.99,10.50,4.81,
15.575,120.15190774562548,96.12503305448237,-2.0,-1.0,-1.0,1,4,1,1,0,2,0,10.99,9.81,4.81,
15.589,120.19519077456255,96.21950330544823,-2.0,0.0,0.0,1,4,1,1,0,2,0,10.89,10.69,4.71,
15.603,120.18151907745626,96.22895033054482,-2.0,0.0,0.0,1,4,1,1,0,2,0,10.99,9.61,4.71,
15.617,120.30615190774562,96.21189503305447,-2.0,0.0,-1.0,1,4,1,1,0,2,0,10.99,9.81,4.81,
15.631,120.35461519077455,96.19218950330544,-2.0,-1.0,-1.0,1,4,1,1,0,2,0,10.89,10.10,4.91,
15.645,120.31446151907747,96.22621895033055,-2.0,-1.0,-1.0,1,4,1,1,0,2,0,10.79,9.81,4.81,
15.66,120.29244615190775,96.20262189503305,-2.0,0.0,-1.0,1,4,1,1,0,2,0,10.89,9.61,4.91,
15.674,120.28124461519079,96.2002621895033,-1.0,-1.0,-1.0,1,4,1,1,0,2,0,10.89,9.71,4.91,
15.688,120.23512446151908,96.20902621895033,-1.0,-1.0,-1.0,1,4,1,1,0,2,0,10.79,10.50,4.81,
15.702,120.21251244615189,96.28190262189503,-1.0,0.0,-1.0,1,4,1,1,0,2,0,10.69,9.52,4.91,
15.716,120.2012512446152,96.2801902621895,-2.0,0.0,-1.0,1,4,1,1,0,2,0,10.69,10.20,4.81,
15.73,120.16412512446152,96.25301902621895,-2.0,0.0,-1.0,1,4,1,1,0,2,0,10.69,10.20,4.81,
15.745,120.16941251244616,96.32230190262189,-1.0,-2.0,0.0,1,4,1,1,0,2,0,10.59,9.81,4.91,
15.758,120.20594125124461,96.3202301902622,-1.0,0.0,-1.0,1,4,1,1,0,2,0,10.59,9.61,4.91,
15.772,120.02059412512446,96.23002301902622,-2.0,0.0,-1.0,1,4,1,1,0,2,0,10.59,9.32,4.81,
15.787,120.10105941251244,96.48200230190263,-2.0,0.0,0.0,1,4,1,1,0,2,0,10.59,10.30,4.81,
15.801,120.08210594125124,96.57920023019027,-1.0,0.0,0.0,1,4,1,1,0,2,0,10.50,10.10,4.81,
15.814,120.26021059412513,96.58892002301903,-2.0,-1.0,0.0,1,4,1,1,0,2,0,10.40,10.99,4.71,
15.828,120.33202105941253,96.5358920023019,-2.0,0.0,0.0,1,4,1,1,0,2,0,10.30,10.79,4.61,
15.843,120.35720210594124,96.44958920023019,-2.0,0.0,-1.0,1,4,1,1,0,2,0,10.30,10.40,4.61,
15.857,120.31472021059413,96.44995892002302,-2.0,-1.0,-1.0,1,4,1,1,0,2,0,10.40,10.10,4.61,
15.872,120.28347202105942,96.4409958920023,-2.0,0.0,0.0,1,4,1,1,0,2,0,10.30,10.59,4.51,
15.885,120.27134720210593,96.44909958920023,-2.0,0.0,-1.0,1,4,1,1,0,2,0,10.30,9.91,4.41,
15.899,120.2071347202106,96.40490995892003,-2.0,0.0,-1.0,1,4,1,1,0,2,0,10.20,9.22,4.51,
15.913,120.15571347202106,96.37349099589201,-2.0,0.0,-1.0,1,4,1,1,0,2,0,10.20,10.20,4.41,
15.928,120.1145713472021,96.2263490995892,-3.0,1.0,-2.0,1,4,1,1,0,2,0,10.20,10.59,4.51,
15.942,120.26345713472021,96.24763490995892,-2.0,0.0,-1.0,1,4,1,1,0,2,0,10.20,10.69,4.61,
15.955,120.14334571347203,96.27676349099589,-2.0,-2.0,-1.0,1,4,1,1,0,2,0,10.10,10.59,4.71,
15.97,120.07733457134721,96.21667634909959,-2.0,0.0,-1.0,1,4,1,1,0,2,0,10.10,10.59,4.71,
15.984,120.06173345713472,96.17466763490995,-2.0,0.0,0.0,1,4,1,1,0,2,0,10.10,10.40,4.81,
15.998,120.06917334571347,96.197466763491,-2.0,0.0,-1.0,1,4,1,1,0,2,0,10.01,9.91,4.81,
16.013,120.19591733457133,96.2087466763491,-2.0,-1.0,-1.0,1,4,1,1,0,2,0,10.01,10.50,4.71,
16.027,120.18159173345714,96.1918746676349,-2.0,0.0,-1.0,1,4,1,1,0,2,0,10.01,10.01,4.61,
16.04,120.15315917334571,96.16318746676349,-2.0,0.0,-1.0,1,4,1,1,0,2,0,10.10,9.91,4.61,
16.055,120.15031591733458,96.11531874667634,-2.0,0.0,-1.0,1,4,1,1,0,2,0,10.01,9.81,4.61,
16.069,120.15003159173347,96.11953187466764,-2.0,0.0,-1.0,1,4,1,1,0,2,0,10.01,10.20,4.61,
16.083,120.15900315917335,96.16495318746676,-2.0,0.0,-1.0,1,4,1,1,0,2,0,9.91,10.10,4.61,
16.097,120.15990031591734,96.14249531874667,-2.0,0.0,-1.0,1,4,1,1,0,2,0,9.81,9.42,4.61,
16.111,120.23199003159172,96.15824953187466,-2.0,0.0,-1.0,1,4,1,1,0,2,0,9.81,10.40,4.51,
16.125,120.17619900315917,96.15982495318747,-2.0,0.0,-1.0,1,4,1,1,0,2,0,9.81,9.81,4.51,
16.139,120.16161990031591,96.11498249531874,-2.0,0.0,-1.0,1,4,1,1,0,2,0,9.81,10.01,4.51,
16.153,120.0881619900316,96.13749824953187,-2.0,0.0,-1.0,1,4,1,1,0,2,0,9.81,9.91,4.41,
16.167,120.08081619900315,96.1757498249532,-2.0,0.0,-1.0,1,4,1,1,0,2,0,9.81,10.30,4.32,
716.599,119.96308161990031,95.99057498249532,-2.0,0.0,0.0,1,4,1,1,0,2,0,8.83,7.36,2.55,
16.613,119.94230816199003,96.01705749824953,-2.0,0.0,0.0,1,4,1,1,0,2,0,8.83,8.34,2.45,
16.626,119.93123081619902,95.98370574982496,-2.0,0.0,-1.0,1,4,1,1,0,2,0,8.93,7.06,2.35,
16.641,119.8851230816199,95.8903705749825,-2.0,0.0,-1.0,1,4,1,1,0,2,0,8.93,8.53,2.35,
16.655,119.85351230816198,95.80003705749826,-1.0,0.0,-1.0,1,4,1,1,0,2,0,8.93,9.03,2.35,
16.668,119.83235123081619,95.89000370574982,-1.0,0.0,-1.0,1,4,1,1,0,2,0,8.93,8.93,2.35,
16.683,119.89323512308162,95.89900037057498,-2.0,0.0,-1.0,1,4,1,1,0,2,0,8.83,9.12,2.55,
16.697,119.92632351230817,95.8819000370575,-2.0,0.0,-1.0,1,4,1,1,0,2,0,8.93,8.44,2.55,
16.71,119.8936323512308,95.85319000370575,-2.0,0.0,-1.0,1,4,1,1,0,2,0,8.83,9.61,2.45,
16.724,119.84536323512309,95.81431900037057,-2.0,0.0,-1.0,1,4,1,1,0,2,0,8.83,8.63,2.45,
16.739,119.89453632351231,95.83743190003706,-2.0,0.0,-1.0,1,4,1,1,0,2,0,8.83,8.63,2.45,
16.752,119.89045363235122,95.8757431900037,-2.0,0.0,-1.0,1,4,1,1,0,2,0,8.73,9.12,2.55,
16.766,119.87204536323513,95.88857431900037,-2.0,0.0,-1.0,1,4,1,1,0,2,0,8.83,9.22,2.55,
16.78,119.89720453632353,95.86285743190004,-1.0,0.0,-1.0,1,4,1,1,0,2,0,8.83,8.83,2.55,
16.794,119.89972045363236,95.89628574319,-1.0,0.0,-2.0,1,4,1,1,0,2,0,8.83,9.03,2.55,
16.808,119.90897204536323,95.863628574319,-1.0,0.0,-2.0,1,4,1,1,0,2,0,8.83,10.10,2.65,
16.823,119.92789720453634,95.8153628574319,-1.0,0.0,-2.0,1,4,1,1,0,2,0,8.93,9.12,2.84,
16.836,119.90278972045364,95.83753628574318,-1.0,0.0,-1.0,1,4,1,1,0,2,0,8.93,10.30,3.04,
16.85,119.86427897204535,95.81275362857431,-1.0,0.0,-1.0,1,4,1,1,0,2,0,8.83,8.83,3.24,
16.865,119.86942789720455,95.82827536285743,-2.0,0.0,-1.0,1,4,1,1,0,2,0,8.83,9.42,3.24,
16.878,119.79794278972045,95.84782753628573,-2.0,0.0,-1.0,1,4,1,1,0,2,0,8.93,8.83,3.34,
16.892,119.79979427897203,95.82278275362857,-2.0,0.0,-1.0,1,4,1,1,0,2,0,8.83,9.03,3.43,
16.907,119.78197942789721,95.85627827536285,-2.0,0.0,-1.0,1,4,1,1,0,2,0,8.93,10.10,3.53,
16.92,119.78919794278973,95.91362782753629,-1.0,0.0,-1.0,1,4,1,1,0,2,0,8.93,9.03,3.53,
16.934,119.81691979427896,95.95536278275361,-1.0,0.0,-2.0,1,4,1,1,0,2,0,8.93,9.81,3.63,
16.949,119.84669197942789,96.01353627827535,-1.0,0.0,-2.0,1,4,1,1,0,2,0,9.03,9.22,3.63,
16.962,119.89466919794279,96.04635362782753,-1.0,0.0,-2.0,1,4,1,1,0,2,0,9.03,8.73,3.63,
16.976,119.96246691979428,96.17563536278274,-1.0,0.0,-1.0,1,4,1,1,0,2,0,9.03,8.73,3.73,
16.991,119.96024669197942,96.20656353627827,-1.0,0.0,-1.0,1,4,1,1,0,2,0,9.03,9.91,3.83,
17.004,119.99602466919794,96.20065635362782,-2.0,0.0,-1.0,1,4,1,1,0,2,0,9.03,9.71,4.02,
17.018,119.9816024669198,96.21806563536278,-1.0,0.0,-1.0,1,4,1,1,0,2,0,9.03,9.12,4.12,
17.032,119.97116024669198,96.19280656353627,-1.0,0.0,-1.0,1,4,1,1,0,2,0,9.12,10.10,4.12,
17.046,119.9611160246692,96.22628065635362,-1.0,0.0,-1.0,1,4,1,1,0,2,0,9.12,9.52,4.12,
17.06,119.8881116024669,96.24762806563535,-1.0,0.0,-1.0,1,4,1,1,0,2,0,9.12,9.71,4.22,
17.074,119.8718111602467,96.24976280656354,-2.0,0.0,-1.0,1,4,1,1,0,2,0,9.22,10.79,4.32,
17.088,119.89718111602468,96.22297628065635,-2.0,0.0,-1.0,1,4,1,1,0,2,0,9.12,10.99,4.22,
17.102,119.91771811160247,96.27429762806564,-2.0,0.0,-1.0,1,4,1,1,0,2,0,9.12,9.42,4.41,
17.117,119.94677181116025,96.29742976280656,-2.0,0.0,-1.0,1,4,1,1,0,2,0,9.12,8.73,4.32,
17.13,119.93167718111603,96.28174297628065,-2.0,0.0,-1.0,1,4,1,1,0,2,0,9.12,9.71,4.32,
17.144,119.8491677181116,96.23517429762806,-2.0,0.0,-1.0,1,4,1,1,0,2,0,9.12,9.61,4.32,
17.159,119.85891677181115,96.2755174297628,-2.0,0.0,-1.0,1,4,1,1,0,2,0,9.12,9.71,4.32,
17.172,119.86889167718113,96.30655174297628,-2.0,0.0,-1.0,1,4,1,1,0,2,0,9.12,9.32,4.32,
17.186,119.9148891677181,96.30965517429763,-2.0,0.0,-1.0,1,4,1,1,0,2,0,9.12,9.81,4.32,
17.201,119.89248891677181,96.22896551742976,-2.0,0.0,-1.0,1,4,1,1,0,2,0,9.12,8.83,4.32,
17.214,119.87224889167719,96.17589655174297,-1.0,0.0,-1.0,1,4,1,1,0,2,0,9.22,9.81,4.32,
17.228,119.87022488916773,96.2065896551743,-1.0,0.0,-1.0,1,4,1,1,0,2,0,9.22,9.71,4.41,
17.242,119.81602248891677,96.20065896551742,-2.0,0.0,0.0,1,4,1,1,0,2,0,9.12,9.12,4.41,
17.256,119.83760224889168,96.29006589655174,-2.0,0.0,-1.0,1,4,1,1,0,2,0,9.12,9.42,4.41,
17.27,119.82176022488916,96.23600658965518,-2.0,0.0,-1.0,1,4,1,1,0,2,0,9.12,9.42,4.22,
17.284,119.84717602248891,96.25760065896552,-2.0,0.0,0.0,1,4,1,1,0,2,0,9.22,9.81,4.32,
17.298,119.80471760224889,96.25976006589656,-2.0,0.0,0.0,1,4,1,1,0,2,0,9.22,9.32,4.32,
17.311,119.7644717602249,96.25997600658965,-2.0,0.0,-1.0,1,4,1,1,0,2,0,9.12,10.10,4.32,
17.326,119.7604471760225,96.22399760065896,-2.0,0.0,-1.0,1,4,1,1,0,2,0,9.12,9.12,4.22,
17.34,119.77804471760226,96.20239976006589,-2.0,0.0,-1.0,1,4,1,1,0,2,0,9.32,9.12,4.12,
17.353,119.79780447176022,96.19123997600659,-2.0,0.0,-1.0,1,4,1,1,0,2,0,9.32,9.42,4.12,
17.368,119.75478044717602,96.27112399760065,-2.0,0.0,0.0,1,4,1,1,0,2,0,9.22,10.01,4.12,
17.382,119.80447804471761,96.28811239976007,-2.0,0.0,0.0,1,4,1,1,0,2,0,9.22,0.00,4.12,
17.395,119.81844780447176,96.262811239976,-2.0,0.0,0.0,1,4,1,1,0,2,0,9.32,0.00,4.12,
17.41,119.81084478044718,96.1792811239976,-2.0,0.0,0.0,1,4,1,1,0,2,0,9.22,10.20,4.12,
17.424,119.81908447804472,96.17992811239976,-2.0,0.0,0.0,1,4,1,1,0,2,0,9.42,9.32,4.02,
17.437,119.78390844780448,96.08099281123997,-2.0,0.0,0.0,1,4,1,1,0,2,0,9.42,9.03,3.92,
17.452,119.74439084478044,96.098099281124,-2.0,0.0,0.0,1,4,1,1,0,2,0,9.32,9.42,3.92,
17.465,119.72243908447804,96.2078099281124,-2.0,0.0,0.0,1,4,1,1,0,2,0,9.42,9.81,3.83,
17.479,119.7382439084478,96.12878099281124,-3.0,0.0,0.0,1,4,1,1,0,2,0,9.42,9.42,3.83,
17.492,119.72182439084479,96.10287809928111,-3.0,0.0,0.0,1,4,1,1,0,2,0,9.42,8.34,3.63,
17.507,119.72018243908448,96.0552878099281,-2.0,0.0,0.0,1,4,1,1,0,2,0,9.32,7.75,3.63,
17.52,119.71101824390844,96.0505287809928,-3.0,0.0,0.0,1,4,1,1,0,2,0,9.32,7.65,3.53,
17.534,119.71910182439085,96.03205287809928,-2.0,0.0,0.0,1,4,1,1,0,2,0,9.32,9.12,3.34,
17.549,119.7739101824391,96.04820528780992,-3.0,0.0,0.0,1,4,1,1,0,2,0,9.32,8.73,3.14,
17.562,119.80639101824391,95.99582052878098,-2.0,0.0,0.0,1,4,1,1,0,2,0,9.22,8.53,3.14,
17.576,119.9176391018244,95.99058205287808,-2.0,0.0,0.0,1,4,1,1,0,2,0,9.22,8.53,3.04,
17.59,119.91976391018244,96.02605820528781,-2.0,0.0,0.0,1,4,1,1,0,2,0,9.22,9.52,2.84,
17.604,119.99197639101824,96.00260582052879,-2.0,0.0,0.0,1,4,1,1,0,2,0,9.22,9.71,2.94,
17.617,119.99919763910182,95.98226058205287,-3.0,0.0,0.0,1,4,1,1,0,2,0,9.12,9.22,2.94,
17.632,120.01791976391019,95.96222605820527,-2.0,0.0,0.0,1,4,1,1,0,2,0,9.12,10.30,2.84,
17.646,120.01079197639102,95.92422260582053,-2.0,0.0,0.0,1,4,1,1,0,2,0,9.12,8.93,2.65,
17.659,119.9560791976391,95.92042226058206,-2.0,0.0,0.0,1,4,1,1,0,2,0,9.12,8.44,2.45,
17.674,120.01360791976391,95.89304222605821,-3.0,0.0,0.0,1,4,1,1,0,2,0,8.83,8.14,2.35,
17.687,120.06436079197638,95.88130422260582,-3.0,-1.0,0.0,1,4,1,1,0,2,0,8.93,8.73,2.26,
17.701,120.01543607919764,95.82613042226058,-2.0,0.0,0.0,1,4,1,1,0,2,0,8.83,6.18,2.26,
17.716,120.02854360791976,95.78461304222606,-3.0,0.0,0.0,1,4,1,1,0,2,0,8.83,7.06,1.96,
17.729,120.02985436079197,95.7804613042226,-2.0,0.0,0.0,1,4,1,1,0,2,0,8.73,7.85,1.96,
17.743,120.0209854360792,95.81604613042225,-3.0,0.0,0.0,1,4,1,1,0,2,0,8.73,6.97,1.96,
17.757,120.01109854360791,95.80160461304223,-3.0,0.0,0.0,1,4,1,1,0,2,0,8.73,8.04,1.77,
17.771,120.00110985436079,95.73716046130423,-3.0,0.0,0.0,1,4,1,1,0,2,0,8.73,9.12,1.67,
17.784,119.99111098543608,95.73971604613041,-2.0,0.0,0.0,1,4,1,1,0,2,0,8.73,9.52,1.57,
17.799,119.90911109854362,95.77597160461303,-3.0,0.0,0.0,1,4,1,1,0,2,0,8.53,8.14,1.47,
17.812,119.87391110985436,95.7975971604613,-3.0,0.0,0.0,1,4,1,1,0,2,0,8.53,8.24,1.47,
17.826,119.87939111098542,95.76375971604614,-3.0,0.0,0.0,1,4,1,1,0,2,0,8.53,7.85,1.28,
17.841,119.92493911109855,95.72437597160462,-3.0,0.0,0.0,1,4,1,1,0,2,0,8.44,7.75,1.18,
17.854,119.92949391110986,95.66643759716045,-3.0,0.0,0.0,1,4,1,1,0,2,0,8.53,7.95,1.18,
17.868,119.902949391111,95.61564375971605,-3.0,0.0,0.0,1,4,1,1,0,2,0,8.53,7.75,1.18,
17.882,119.9452949391111,95.5835643759716,-2.0,0.0,-1.0,1,4,1,1,0,2,0,8.63,9.03,0.98,
17.896,119.9945294939111,95.60735643759716,-2.0,0.0,-1.0,1,4,1,1,0,2,0,8.63,8.63,0.78,
17.91,119.97245294939111,95.6007356437597,-2.0,-1.0,-1.0,1,4,1,1,0,2,0,8.53,9.42,0.88,
17.924,119.9522452949391,95.67207356437598,-2.0,0.0,-1.0,1,4,1,1,0,2,0,8.53,8.63,0.78,
17.938,119.95022452949391,95.6432073564376,-2.0,0.0,-1.0,1,3,1,1,0,2,0,8.53,8.24,0.88,
17.952,119.95902245294938,95.63132073564375,-2.0,0.0,-1.0,1,3,1,1,0,2,0,8.44,8.63,0.98,
17.966,119.99590224529493,95.63013207356437,-2.0,0.0,-1.0,1,3,1,1,0,2,0,8.44,8.63,1.08,
17.98,119.97259022452948,95.64801320735644,-2.0,0.0,0.0,1,3,1,1,0,2,0,8.44,8.73,1.08,
17.993,119.97025902245295,95.64980132073565,-2.0,0.0,-1.0,1,3,1,1,0,2,0,8.44,8.14,1.08,
18.008,119.9520259022453,95.61398013207356,-2.0,0.0,-1.0,1,3,1,1,0,2,0,8.44,9.22,0.98,
18.022,119.91420259022452,95.61939801320736,-2.0,0.0,-1.0,1,3,1,1,0,2,0,8.34,8.24,1.08,
18.035,119.92842025902246,95.67393980132074,-2.0,0.0,-1.0,1,3,1,1,0,2,0,8.34,9.12,1.08,
18.05,119.92084202590225,95.67039398013208,-2.0,0.0,-1.0,1,3,1,1,0,2,0,8.44,8.83,1.18,
18.064,119.93808420259022,95.6340393980132,-2.0,0.0,-1.0,1,3,1,1,0,2,0,8.34,9.12,1.18,
18.077,119.95780842025901,95.57640393980131,-2.0,0.0,-1.0,1,3,1,1,0,2,0,8.34,8.53,1.28,
18.092,119.95078084202589,95.55264039398014,-2.0,0.0,-1.0,1,3,1,1,0,2,0,8.24,8.83,1.28,
18.106,119.9050780842026,95.54126403939802,-2.0,0.0,-1.0,1,3,1,1,0,2,0,8.24,9.12,1.37,
18.119,119.91850780842026,95.58512640393981,-1.0,0.0,-1.0,1,3,1,1,0,2,0,8.24,8.34,1.57,
18.134,119.94685078084203,95.57151264039396,-2.0,0.0,-1.0,1,3,1,1,0,2,0,8.34,9.61,1.57,
18.148,119.9586850780842,95.57015126403938,-1.0,0.0,-1.0,1,3,1,1,0,2,0,8.34,8.73,1.57,
18.161,119.94186850780841,95.58801512640395,-1.0,0.0,-1.0,1,3,1,1,0,2,0,8.34,8.34,1.57,
18.176,119.90418685078085,95.5898015126404,-2.0,0.0,-1.0,1,3,1,1,0,2,0,8.34,8.14,1.67,
18.19,119.84641868507809,95.58998015126404,-2.0,0.0,-1.0,1,3,1,1,0,2,0,8.34,8.63,1.77,
18.203,119.8586418685078,95.58099801512641,-2.0,0.0,0.0,1,3,1,1,0,2,0,8.44,7.95,1.86,
18.217,119.85086418685077,95.56209980151264,-2.0,0.0,-1.0,1,3,1,1,0,2,0,8.44,8.53,1.77,
18.231,119.88608641868507,95.58720998015127,-2.0,0.0,-1.0,1,3,1,1,0,2,0,8.34,9.52,1.86,
18.245,119.92560864186852,95.58972099801514,-2.0,0.0,-1.0,1,3,1,1,0,2,0,8.44,8.83,1.77,
18.259,119.90256086418685,95.60797209980151,-2.0,0.0,-1.0,1,3,1,1,0,2,0,8.44,8.44,1.77,
18.273,119.93625608641868,95.61879720998016,-2.0,0.0,0.0,1,3,1,1,0,2,0,8.44,8.73,1.67,
18.287,119.96662560864186,95.63787972099803,-2.0,0.0,0.0,1,3,1,1,0,2,0,8.44,9.71,1.67,
18.3,119.96066256086418,95.66678797209981,-2.0,0.0,-1.0,1,3,1,1,0,2,0,8.44,9.03,1.77,
18.315,119.93306625608642,95.68767879720997,-2.0,0.0,-1.0,1,3,1,1,0,2,0,8.44,8.44,1.67,
18.329,119.96630662560864,95.63576787972099,-2.0,0.0,-1.0,1,3,1,1,0,2,0,8.34,9.61,1.57,
18.342,119.91563066256086,95.6395767879721,-2.0,0.0,-1.0,1,3,1,1,0,2,0,8.34,9.03,1.57,
18.357,119.91956306625607,95.61295767879722,-2.0,0.0,-1.0,1,4,1,1,0,2,0,8.44,9.42,1.57,
18.371,119.91095630662561,95.6282957678797,-2.0,0.0,0.0,1,3,1,1,0,2,0,8.44,8.83,1.57,
18.384,120.00909563066256,95.64782957678798,-2.0,0.0,0.0,1,3,1,1,0,2,0,8.34,9.03,1.57,
18.399,119.97390956306626,95.6587829576788,-2.0,0.0,-1.0,1,3,1,1,0,2,0,8.44,8.14,1.47,
18.412,119.99739095630662,95.62387829576788,-2.0,0.0,-1.0,1,3,1,1,0,2,0,8.44,9.42,1.28,
