time,pitch,roll,gyrx,gyry,gyrz,f1,f2,f3,f4,f5,f6,f7,g1,g2,g3
0.372,35.76,37.39,-10.6,2.18,-1.1,0.0,0.0,0.0,0.0,0.0,0.0,0.0,0.0,0.0,0.29,
0.396,43.518,45.751,-8.56,2.3,0.02,0.0,0.0,0.0,0.0,0.0,0.0,0.0,0.0,0.0,0.78,
0.419,50.6838,53.5621,-0.3,-1.9,1.8,0.0,0.0,0.0,0.0,0.0,0.0,0.0,0.0,0.0,1.28,
0.443,56.71938,60.38221,4.34,-4.62,-1.12,0.0,0.0,0.0,0.0,0.0,0.0,0.0,0.0,0.0,0.98,
0.466,62.19193799999999,66.131221,3.68,-4.78,0.17,0.0,0.0,0.0,0.0,0.0,0.0,0.0,0.0,0.0,0.69,
0.49,66.9151938,70.8191221,2.83,-4.13,2.61,0.0,0.0,0.0,0.0,0.0,0.0,0.0,0.0,0.0,0.78,
0.514,70.80751938,74.76191221,1.56,-1.19,2.5,0.0,0.0,0.0,0.0,0.0,0.0,0.0,0.0,0.0,0.69,
0.537,74.337751938,77.86519122099999,2.76,0.1,1.95,0.0,0.0,0.0,0.0,0.0,0.0,0.0,0.0,0.0,0.49,
0.561,77.0577751938,80.5245191221,7.28,-3.16,1.0,0.0,0.0,0.0,0.0,0.0,0.0,0.0,0.0,0.0,0.39,
0.584,79.39977751938,82.98645191221001,5.47,-4.13,0.5,0.0,0.0,0.0,0.0,0.0,0.0,0.0,0.0,0.0,1.37,
0.608,81.64097775193801,84.960645191221,2.45,-2.63,0.73,0.0,0.0,0.0,0.0,0.0,0.0,0.0,0.1,0.0,1.08,
0.631,83.2150977751938,86.5620645191221,1.49,-1.3,0.42,0.0,0.0,0.0,0.0,0.0,0.0,0.0,0.0,0.0,0.0,
0.655,84.43450977751938,88.04520645191221,-2.66,1.24,-3.5,0.0,0.0,0.0,0.0,0.0,0.0,0.0,0.0,0.0,0.0,
0.678,85.75345097775194,89.19252064519121,-5.17,1.38,-3.64,0.0,0.0,0.0,0.0,0.0,0.0,0.0,0.1,0.0,0.0,
0.702,87.20834509777521,90.13525206451911,-3.5,-1.44,2.24,0.0,0.0,0.0,0.0,0.0,0.0,0.0,0.0,0.0,0.49,
0.727,87.87583450977752,90.9765252064519,-5.07,1.67,1.42,0.0,0.0,0.0,0.0,0.0,0.0,0.0,0.0,0.0,0.78,
0.749,88.48258345097774,91.82565252064519,-4.96,3.07,-1.24,0.0,0.0,0.0,0.0,0.0,0.0,0.0,0.0,0.0,0.69,
0.774,89.23625834509777,92.55856525206453,-0.2,-3.2,1.02,0.0,0.0,0.0,0.0,0.0,0.0,0.0,0.0,0.0,2.16,
0.797,89.80662583450979,93.30685652520646,-0.27,-5.66,2.5,0.0,0.0,0.0,0.0,0.0,0.0,0.0,0.0,0.0,0.49,
0.821,90.46666258345098,93.90368565252065,-4.11,-1.4,3.92,0.0,0.0,0.0,0.0,0.0,0.0,0.0,0.0,0.0,0.0,
0.844,91.0366662583451,94.20636856525206,-4.18,0.62,4.31,0.0,0.0,0.0,0.0,0.0,0.0,0.0,0.0,0.0,0.2,
0.868,91.29166662583451,94.25463685652521,-5.73,1.9,-0.84,0.0,0.0,0.0,0.0,0.0,0.0,0.0,0.0,0.0,0.49,
0.891,91.54216666258344,94.34046368565251,-6.4,2.27,-4.0,0.0,0.0,0.0,0.0,0.0,0.0,0.0,0.0,0.0,0.1,
0.915,91.83721666625834,94.57404636856525,-3.93,-1.05,-2.55,0.0,0.0,0.0,0.0,0.0,0.0,0.0,0.0,0.0,0.2,
0.939,91.91172166662584,94.93040463685652,-4.65,-1.67,-0.55,0.0,0.0,0.0,0.0,0.0,0.0,0.0,0.0,0.0,0.59,
0.963,91.90117216666259,95.14604046368565,-6.54,-0.62,0.34,0.0,0.0,0.0,0.0,0.0,0.0,0.0,0.0,0.0,0.78,
0.987,91.95411721666625,95.20360404636855,-4.4,-5.16,2.87,0.0,0.0,0.0,0.0,0.0,0.0,0.0,0.0,0.0,1.18,
1.01,91.95941172166661,95.47036040463686,-7.35,-3.93,2.66,0.0,0.0,0.0,0.0,0.0,0.0,0.0,0.0,0.0,0.98,
1.034,92.18494117216665,95.57803604046369,-10.05,-1.64,2.34,0.0,0.0,0.0,0.0,0.0,0.0,0.0,0.0,0.0,0.78,
1.057,92.36049411721666,95.48980360404637,-5.64,-2.37,2.74,0.0,0.0,0.0,0.0,0.0,0.0,0.0,0.0,0.0,0.0,
1.081,92.39604941172168,95.48098036040463,-5.16,-0.36,-1.66,0.0,0.0,0.0,0.0,0.0,0.0,0.0,0.0,0.0,0.69,
1.104,92.69660494117217,95.57009803604046,-7.08,-0.36,-1.12,0.0,0.0,0.0,0.0,0.0,0.0,0.0,0.0,0.0,0.78,
1.129,92.82566049411723,95.59700980360404,-6.79,-2.44,1.98,0.0,0.0,0.0,0.0,0.0,0.0,0.0,0.0,0.0,0.98,
1.153,92.81156604941174,95.61770098036041,-7.53,-0.74,0.27,0.0,0.0,0.0,0.0,0.0,0.0,0.0,0.0,0.0,0.29,
1.176,92.95415660494118,95.66477009803604,-9.47,0.73,-0.6,0.0,0.0,0.0,0.0,0.0,0.0,0.0,0.0,0.0,0.29,
1.2,93.07641566049412,95.50747700980361,-9.98,-0.13,-0.75,0.0,0.0,0.0,0.0,0.0,0.0,0.0,0.0,0.0,0.49,
1.223,93.10664156604942,95.30274770098038,-6.34,-1.63,-1.78,0.0,0.0,0.0,0.0,0.0,0.0,0.0,0.0,0.0,1.18,
1.247,93.19966415660494,95.41727477009805,-3.27,-2.95,-0.4,0.0,0.0,0.0,0.0,0.0,0.0,0.0,0.0,0.0,1.57,
1.27,93.38896641566049,95.55472747700979,-4.14,-2.18,1.53,0.0,0.0,0.0,0.0,0.0,0.0,0.0,0.0,0.0,0.78,
1.294,93.31789664156605,95.38847274770099,-6.15,0.0,0.1,0.0,0.0,0.0,0.0,0.0,0.0,0.0,0.0,0.0,0.29,
1.317,93.16678966415661,95.33584727477009,-6.47,2.25,-3.96,0.0,0.0,0.0,0.0,0.0,0.0,0.0,0.0,0.0,0.29,
1.342,93.24167896641566,95.56458472747701,-5.31,1.82,-2.7,0.0,0.0,0.0,0.0,0.0,0.0,0.0,0.0,0.0,0.78,
1.366,93.46516789664156,95.74045847274772,-1.0,-1.18,1.79,0.0,0.0,0.0,0.0,0.0,0.0,0.0,0.0,0.0,1.28,
1.389,93.23551678966415,95.92904584727478,0.52,-1.38,2.32,0.0,0.0,0.0,0.0,0.0,0.0,0.0,0.0,0.0,1.18,
1.413,92.98755167896641,96.03790458472747,-1.48,0.72,-0.21,0.0,0.0,0.0,0.0,0.0,0.0,0.0,0.0,0.0,0.59,
1.436,92.63875516789665,95.87779045847275,-0.5,-0.89,-2.15,0.0,0.0,0.0,0.0,0.0,0.0,0.0,0.0,0.0,0.88,
1.46,92.34287551678968,95.87077904584727,-1.41,-2.95,-3.51,0.0,0.0,0.0,0.0,0.0,0.0,0.0,0.0,0.0,0.59,
1.483,92.12428755167896,96.00507790458471,-4.63,-2.88,-1.57,0.0,0.0,0.0,0.0,0.0,0.0,0.0,0.0,0.0,0.78,
1.508,91.7514287551679,95.82050779045846,-3.03,-6.82,0.79,0.0,0.0,0.0,0.0,0.0,0.0,0.0,0.0,0.0,1.28,
1.531,91.5791428755168,95.58605077904585,-2.3,-8.46,-0.43,0.0,0.0,0.0,0.0,0.0,0.0,0.0,0.0,0.0,0.88,
1.555,91.87691428755167,95.2566050779046,-4.85,-8.15,-0.79,0.0,0.0,0.0,0.0,0.0,0.0,0.0,0.0,0.0,0.59,
1.579,92.12269142875516,94.83666050779047,-6.08,-7.57,-0.5,0.0,0.0,0.0,0.0,0.0,0.0,0.0,0.0,0.0,0.49,
1.602,92.24626914287552,94.35366605077905,-6.98,-5.24,-3.11,0.0,0.0,0.0,0.0,0.0,0.0,0.0,0.0,0.0,0.59,
1.626,92.73562691428756,94.06236660507791,-8.52,-3.23,-3.24,0.0,0.0,0.0,0.0,0.0,0.0,0.0,0.0,0.0,0.59,
1.65,92.89256269142875,93.84423666050779,-10.79,-1.4,-1.41,0.0,0.0,0.0,0.0,0.0,0.0,0.0,0.0,0.0,0.88,
1.674,92.95325626914287,93.56142366605079,-13.56,0.14,-3.4,0.0,0.0,0.0,0.0,0.0,0.0,0.0,0.0,0.0,1.47,
1.697,93.01332562691428,93.25414236660507,-13.69,-0.79,-3.86,0.0,0.0,0.0,0.0,0.0,0.0,0.0,0.0,0.0,1.67,
1.721,92.68633256269143,92.8454142366605,-16.55,-0.18,-6.24,0.0,0.0,0.0,0.0,0.0,0.0,0.0,0.0,0.0,1.18,
1.745,92.30263325626915,92.41754142366605,-21.83,0.04,-8.21,0.0,0.0,0.0,0.0,0.0,0.0,0.0,0.0,0.0,0.39,
1.769,92.0932633256269,92.1677541423666,-24.97,-4.31,-6.27,0.0,0.0,0.0,0.0,0.0,0.0,0.0,0.0,0.0,1.67,
1.793,92.2073263325627,92.07977541423665,-25.66,-5.9,-0.5,0.0,0.0,0.0,0.0,0.0,0.0,0.0,0.0,0.0,2.06,
1.816,92.16473263325628,91.82797754142366,-24.42,-4.04,3.66,0.0,0.0,0.0,0.0,0.0,0.0,0.0,0.0,0.0,2.16,
1.841,92.21447326332563,91.56879775414237,-23.11,-3.22,4.17,0.0,0.0,0.0,0.0,0.0,0.0,0.0,0.0,0.0,2.16,
1.864,92.20144732633257,91.28187977541424,-22.96,-0.93,1.79,0.0,0.0,0.0,0.0,0.0,0.0,0.0,0.0,0.0,1.96,
1.888,92.30814473263325,91.10018797754142,-21.54,-1.87,-2.38,0.0,0.0,0.0,0.0,0.0,0.0,0.0,0.0,0.0,2.16,
1.911,92.71481447326333,91.05501879775413,-18.15,-3.6,-2.51,0.0,0.0,0.0,0.0,0.0,0.0,0.0,0.0,0.0,1.96,
1.936,93.12448144732633,91.16750187977541,-14.61,-3.23,-1.58,0.0,0.0,0.0,0.0,0.0,0.0,0.0,0.0,0.0,1.86,
1.959,93.33644814473263,91.21475018797754,-13.34,1.05,-0.75,0.0,0.0,0.0,0.0,0.0,0.0,0.0,0.0,0.0,1.77,
1.983,93.43864481447326,91.02147501879776,-14.11,5.65,-4.21,0.0,0.0,0.0,0.0,0.0,0.0,0.0,0.0,0.0,1.57,
2.007,93.31386448144733,90.58814750187977,-13.15,3.93,-6.23,0.0,0.0,0.0,0.0,0.0,0.0,0.0,0.0,0.0,1.77,
2.03,93.04938644814473,90.16681475018798,-10.47,1.31,-7.64,0.0,0.0,0.0,0.0,0.0,0.0,0.0,0.0,0.0,1.18,
2.055,92.61793864481447,89.89968147501881,-9.41,0.62,-6.57,0.0,0.0,0.0,0.0,0.0,0.0,0.0,0.0,0.0,0.98,
2.078,92.34979386448144,89.69296814750189,-10.66,-0.11,-5.58,0.0,0.0,0.0,0.0,0.0,0.0,0.0,0.0,0.0,0.88,
2.102,92.00797938644814,89.33929681475018,-12.11,-0.66,-3.08,0.0,0.0,0.0,0.0,0.0,0.0,0.0,0.0,0.0,0.2,
2.125,91.82079793864482,89.03392968147503,-12.44,-5.11,-0.6,0.0,0.0,0.0,0.0,0.0,0.0,0.0,0.0,0.0,0.49,
2.15,91.76607979386448,88.68839296814751,-12.05,-7.54,2.54,0.0,0.0,0.0,0.0,0.0,0.0,0.0,0.0,0.0,0.98,
2.173,91.66160797938646,88.42883929681474,-11.98,-3.35,3.72,0.0,0.0,0.0,0.0,0.0,0.0,0.0,0.0,0.0,1.37,
2.197,91.74116079793865,88.29488392968148,-8.26,-5.78,4.47,0.0,0.0,0.0,0.0,0.0,0.0,0.0,0.0,0.0,0.88,
2.221,91.84811607979387,88.13748839296815,-7.11,-8.76,4.83,0.0,0.0,0.0,0.0,0.0,0.0,0.0,0.0,0.0,0.49,
2.244,91.81381160797939,88.02274883929681,-10.92,-6.34,3.76,0.0,0.0,0.0,0.0,0.0,0.0,0.0,0.0,0.0,0.69,
2.268,91.81038116079795,87.74127488392968,-13.25,-2.73,0.46,0.0,0.0,0.0,0.0,0.0,0.0,0.0,0.0,0.0,1.08,
2.292,91.9360381160798,87.35312748839297,-11.94,-3.4,-2.08,0.0,0.0,0.0,0.0,0.0,0.0,0.0,0.0,0.0,1.37,
2.316,91.930603811608,87.00831274883929,-12.05,-5.92,-2.68,0.0,0.0,0.0,0.0,0.0,0.0,0.0,0.0,0.0,2.16,
2.339,91.9210603811608,86.61383127488392,-13.37,-5.69,-2.63,0.0,0.0,0.0,0.0,0.0,0.0,0.0,0.0,0.0,0.69,
2.363,91.84810603811609,86.2233831274884,-13.55,-5.78,-4.69,0.0,0.0,0.0,0.0,0.0,0.0,0.0,0.0,0.0,0.0,
2.387,91.93081060381161,86.15733831274885,-12.6,-7.21,-3.91,0.0,0.0,0.0,0.0,0.0,0.0,0.0,0.0,0.0,0.0,
2.411,91.85808106038115,86.06973383127489,-11.97,-6.69,-2.47,0.0,0.0,0.0,0.0,0.0,0.0,0.0,0.0,0.0,1.08,
2.435,91.31980810603811,85.83597338312748,-11.3,-1.66,-6.47,0.0,0.0,0.0,0.0,0.0,0.0,0.0,0.0,0.0,0.1,
2.459,91.11298081060382,85.56959733831275,-11.9,3.04,-16.37,0.0,0.0,0.0,0.0,0.0,0.0,0.0,0.0,0.0,0.29,
2.483,91.27229808106038,85.47095973383128,-9.13,3.49,-21.34,0.0,0.0,0.0,0.0,0.0,0.0,0.0,0.0,0.0,0.39,
2.506,91.60322980810604,85.74909597338312,-6.78,-1.53,-15.47,0.0,0.0,0.0,0.0,0.0,0.0,0.0,0.0,0.0,1.08,
2.53,91.74432298081061,85.7769095973383,-6.27,-2.52,-8.36,0.0,0.0,0.0,0.0,0.0,0.0,0.0,0.0,0.0,1.08,
2.553,92.38843229808106,89.10969095973384,11.47,1.01,11.3,0.0,0.0,0.0,1.0,0.0,0.0,0.0,0.0,0.0,1.18,
2.578,91.9578432298081,87.85896909597339,-7.93,7.31,17.97,0.0,0.0,0.0,1.0,0.0,0.0,0.0,0.39,0.39,0.78,
2.601,90.95178432298081,87.00489690959733,-11.34,5.6,-3.08,0.0,0.0,0.0,0.0,0.0,0.0,0.0,0.49,0.39,0.0,
2.625,90.79717843229808,86.20848969095974,-6.19,5.99,-10.61,0.0,0.0,0.0,0.0,0.0,0.0,0.0,0.39,0.29,1.57,
2.649,91.86171784322981,86.41684896909598,-3.44,2.77,-3.48,0.0,0.0,0.0,0.0,0.0,0.0,0.0,0.29,0.2,4.41,
2.672,93.07517178432298,86.5276848969096,-1.56,-1.98,4.63,0.0,0.0,0.0,1.0,0.0,0.0,0.0,0.39,0.1,2.75,
2.696,92.9625171784323,86.41276848969096,-2.81,-0.31,-2.52,0.0,0.0,0.0,1.0,0.0,0.0,0.0,0.49,0.1,0.0,
2.719,92.29425171784322,86.2302768489691,-7.66,4.95,-4.01,0.0,0.0,0.0,1.0,0.0,0.0,0.0,0.69,0.29,0.0,
2.743,91.73242517178431,85.87002768489691,-11.3,7.9,-1.88,0.0,0.0,0.0,2.0,0.0,0.0,0.0,0.88,0.49,0.0,
2.766,91.85624251717843,85.9150027684897,-14.82,9.83,-2.38,0.0,0.0,0.0,2.0,0.0,0.0,0.0,1.08,0.49,0.0,
2.791,92.30962425171784,85.64050027684897,-16.69,12.63,-0.94,0.0,0.0,0.0,2.0,0.0,0.0,0.0,1.18,0.49,0.0,
2.814,92.97596242517179,85.0640500276849,-5.34,0.53,-4.34,0.0,0.0,0.0,2.0,0.0,0.0,0.0,1.47,0.29,1.77,
2.838,92.96159624251717,84.97040500276849,-6.82,7.37,-1.68,0.0,0.0,0.0,2.0,0.0,0.0,0.0,1.67,0.29,3.92,
2.862,93.15815962425172,84.71804050027686,-5.31,3.18,-1.02,0.0,0.0,0.0,2.0,0.0,0.0,0.0,1.86,0.2,0.0,
2.886,93.39381596242518,84.59380405002769,-4.58,-0.24,1.63,0.0,0.0,0.0,2.0,0.0,0.0,0.0,2.06,0.1,0.0,
2.91,93.67838159624252,84.56338040500276,-4.54,-0.4,-0.4,0.0,0.0,0.0,3.0,0.0,0.0,0.0,2.16,0.1,0.0,
2.933,93.73383815962424,84.34433804050026,-3.78,-0.82,0.93,1.0,0.0,0.0,3.0,0.0,0.0,0.0,2.26,0.1,2.65,
2.957,93.72138381596243,84.13343380405003,-2.66,-2.08,-0.17,1.0,0.0,0.0,3.0,0.0,0.0,0.0,2.45,0.1,0.0,
2.981,93.75613838159624,84.12134338040501,-2.6,-0.73,-0.18,1.0,0.0,0.0,3.0,0.0,0.0,0.0,2.35,0.0,24.62,
3.005,93.87661383815963,84.12013433804051,-2.18,0.62,0.48,1.0,0.0,0.0,3.0,0.0,0.0,0.0,2.55,0.0,29.63,
3.028,93.77166138381597,84.03001343380404,-2.68,1.6,0.46,1.0,0.0,0.0,3.0,0.0,0.0,0.0,2.45,0.0,9.03,
3.052,93.7971661383816,83.9940013433804,-3.44,2.11,-0.36,1.0,0.0,0.0,4.0,0.0,0.0,0.0,2.45,0.0,5.0,
3.077,93.95271661383816,83.97240013433805,-3.04,0.9,-0.99,1.0,0.0,0.0,4.0,0.0,0.0,0.0,2.55,0.0,3.63,
3.1,94.13027166138383,83.97024001343381,-2.34,-0.08,-0.74,1.0,0.0,0.0,4.0,0.0,0.0,0.0,2.55,0.0,2.94,
3.124,94.01302716613839,83.92502400134339,-2.85,0.8,-0.34,1.0,0.0,0.0,4.0,0.0,0.0,0.0,2.55,0.0,2.55,
3.147,93.95630271661385,83.90250240013434,-3.04,1.14,-0.01,1.0,0.0,0.0,4.0,0.0,0.0,0.0,2.55,0.0,2.55,
3.172,94.0046302716614,83.83725024001343,-3.03,-0.44,-1.03,1.0,0.0,0.0,4.0,0.0,0.0,0.0,2.55,0.0,2.75,
3.195,94.15346302716614,83.81272502400134,-3.21,-1.49,-1.2,1.0,0.0,0.0,4.0,0.0,0.0,0.0,2.55,0.0,2.65,
3.219,94.27634630271662,83.79227250240014,-3.35,-3.41,-0.17,1.0,0.0,0.0,4.0,0.0,0.0,0.0,2.45,0.0,2.65,
3.244,94.29763463027166,83.77222725024001,-3.16,-5.52,1.52,1.0,0.0,0.0,4.0,0.0,0.0,0.0,2.55,0.0,2.26,
3.267,94.29076346302716,83.869222725024,-3.66,-5.0,1.52,2.0,0.0,0.0,5.0,0.0,0.0,0.0,2.55,0.1,2.16,
3.291,94.12807634630272,83.92392227250241,-4.15,-4.11,2.03,2.0,0.0,0.0,5.0,0.0,0.0,0.0,2.55,0.2,0.69,
3.314,94.05780763463027,83.85739222725024,-3.56,-3.79,1.82,2.0,0.0,0.0,5.0,0.0,0.0,0.0,2.65,0.29,3.73,
3.339,93.81678076346303,83.76073922272502,-2.86,-1.68,1.63,2.0,0.0,0.0,5.0,0.0,0.0,0.0,2.75,0.29,0.0,
3.362,93.86467807634631,83.7870739222725,-2.79,0.49,2.04,2.0,0.0,0.0,5.0,0.0,0.0,0.0,2.84,0.39,0.0,
3.386,93.86046780763463,83.81670739222724,-2.7,1.02,2.82,2.0,0.0,0.0,5.0,0.0,0.0,0.0,2.75,0.39,0.0,
3.41,93.74304678076346,83.68467073922272,-3.31,0.04,0.09,2.0,0.0,0.0,5.0,0.0,0.0,0.0,2.84,0.39,0.0,
3.434,93.88430467807635,83.66246707392227,-3.34,-1.04,0.51,2.0,0.0,0.0,5.0,0.0,0.0,0.0,2.84,0.49,0.0,
3.458,94.01543046780765,83.64224670739222,-3.36,-2.18,0.84,2.0,0.0,0.0,5.0,0.0,0.0,0.0,2.84,0.39,0.0,
3.482,94.11854304678076,83.63122467073921,-3.51,-1.63,0.82,2.0,0.0,0.0,5.0,0.0,0.0,0.0,2.75,0.39,0.0,
3.506,94.16485430467807,83.60312246707392,-3.37,-2.55,1.6,2.0,0.0,0.0,5.0,0.0,0.0,0.0,2.75,0.49,0.0,
3.529,94.1334854304678,83.62731224670739,-3.35,-2.53,0.82,2.0,0.0,0.0,5.0,0.0,0.0,0.0,2.75,0.49,0.0,
3.554,93.98634854304679,83.57573122467073,-3.21,-1.5,1.14,2.0,0.0,0.0,5.0,0.0,0.0,0.0,2.75,0.39,0.0,
3.577,94.01663485430467,83.59757312246707,-2.91,-0.18,1.76,2.0,0.0,0.0,5.0,0.0,0.0,0.0,2.75,0.39,0.0,
3.601,93.96566348543045,83.55475731224669,-2.47,0.45,1.65,2.0,0.0,0.0,5.0,0.0,0.0,0.0,2.75,0.39,5.79,
3.624,93.94256634854305,83.60447573122467,-2.36,0.44,1.67,2.0,0.0,0.0,5.0,0.0,0.0,0.0,2.65,0.29,9.03,
3.649,93.99425663485431,83.61844757312248,-2.88,0.28,0.8,2.0,0.0,0.0,5.0,0.0,0.0,0.0,2.84,0.39,1.67,
3.673,94.09842566348543,83.64684475731225,-2.69,-0.29,1.52,2.0,0.0,0.0,5.0,0.0,0.0,0.0,2.75,0.39,7.85,
3.696,94.16284256634854,83.69468447573122,-2.6,-0.24,1.4,2.0,0.0,0.0,5.0,0.0,0.0,0.0,2.65,0.29,1.86,
3.721,94.13328425663485,83.71746844757313,-2.82,-0.17,0.55,2.0,0.0,0.0,5.0,0.0,0.0,0.0,2.75,0.29,4.22,
3.744,94.21132842566348,83.69274684475731,-2.56,-0.61,0.72,2.0,0.0,0.0,5.0,0.0,0.0,0.0,2.65,0.29,0.0,
3.768,94.22813284256635,83.69927468447572,-2.69,-0.24,0.6,2.0,0.0,0.0,5.0,0.0,0.0,0.0,2.55,0.29,0.59,
3.792,94.25681328425664,83.74492746844757,-2.35,0.27,0.84,2.0,0.0,0.0,5.0,0.0,0.0,0.0,2.65,0.29,1.77,
3.816,94.18768132842567,83.73149274684475,-2.61,-0.19,0.91,2.0,0.0,0.0,5.0,0.0,0.0,0.0,2.65,0.29,4.12,
3.84,94.21676813284256,83.73014927468448,-2.95,-0.17,0.5,2.0,0.0,0.0,5.0,0.0,0.0,0.0,2.45,0.2,44.73,
3.864,94.23767681328425,83.69401492746844,-2.84,-0.66,0.25,2.0,0.0,0.0,5.0,0.0,0.0,0.0,2.55,0.29,0.0,
3.888,94.26676768132843,83.72640149274685,-3.01,-1.21,-0.02,2.0,0.0,0.0,5.0,0.0,0.0,0.0,2.55,0.29,0.88,
3.912,94.28767676813284,83.75664014927469,-3.14,-1.96,0.18,2.0,0.0,0.0,5.0,0.0,0.0,0.0,2.55,0.2,1.47,
3.936,94.23576767681328,83.81366401492747,-3.11,-2.0,0.06,2.0,0.0,0.0,5.0,0.0,0.0,0.0,2.45,0.29,1.57,
3.96,94.23957676768133,83.81936640149274,-3.27,-2.3,-0.34,2.0,0.0,0.0,5.0,0.0,0.0,0.0,2.45,0.2,0.0,
3.984,94.23995767676813,83.80193664014928,-3.2,-1.83,-0.16,2.0,0.0,0.0,5.0,0.0,0.0,0.0,2.55,0.2,3.14,
4.008,94.23099576767682,83.80919366401493,-3.31,-1.0,-0.04,2.0,0.0,0.0,5.0,0.0,0.0,0.0,2.45,0.2,0.0,
4.032,94.1850995767677,83.80991936640149,-3.21,-0.53,-0.08,2.0,0.0,0.0,5.0,0.0,0.0,0.0,2.35,548.87,25.9,
4.057,94.19850995767678,83.77399193664014,-3.31,-0.53,-0.02,2.0,0.0,0.0,5.0,0.0,0.0,0.0,2.55,0.1,13.24,
4.081,94.26285099576768,83.70739919366402,-3.15,-0.77,0.15,2.0,0.0,0.0,5.0,0.0,0.0,0.0,2.45,0.2,12.75,
4.105,94.33228509957678,83.7007399193664,-2.85,-0.47,0.25,2.0,0.0,0.0,5.0,0.0,0.0,0.0,2.45,0.1,0.0,
4.129,94.31222850995768,83.75407399193664,-2.98,-0.52,0.37,2.0,0.0,0.0,5.0,0.0,0.0,0.0,2.35,0.1,0.0,
4.153,94.27422285099577,83.73240739919366,-3.1,0.21,0.93,2.0,0.0,0.0,5.0,0.0,0.0,0.0,2.35,0.1,1.28,
4.176,94.28842228509959,83.72124073991937,-3.06,-0.09,0.01,2.0,0.0,0.0,5.0,0.0,0.0,0.0,2.45,0.1,0.0,
4.201,94.33484222850996,83.77412407399194,-3.08,-0.49,0.27,2.0,0.0,0.0,5.0,0.0,0.0,0.0,2.26,0.1,0.0,
4.225,94.40248422285099,83.7974124073992,-3.18,-0.79,0.09,2.0,0.0,0.0,5.0,0.0,0.0,0.0,2.35,0.1,0.0,
4.249,94.35524842228509,83.79074124073992,-3.15,-1.19,-0.11,2.0,0.0,0.0,5.0,0.0,0.0,0.0,2.35,0.1,4.32,
4.273,94.33252484222851,83.781074124074,-3.41,-1.53,-0.04,2.0,0.0,0.0,5.0,0.0,0.0,0.0,2.35,0.1,2.35,
4.297,94.38425248422286,83.8071074124074,-3.5,-1.7,-0.18,2.0,0.0,0.0,5.0,0.0,0.0,0.0,2.26,0.1,1.28,
4.321,94.43442524842229,83.86371074124074,-3.4,-1.82,-0.53,2.0,0.0,0.0,5.0,0.0,0.0,0.0,2.35,0.2,0.2,
4.345,94.43044252484223,83.80637107412407,-3.31,-1.37,-0.03,2.0,0.0,0.0,5.0,0.0,0.0,0.0,2.26,0.2,0.0,
4.369,94.3580442524842,83.76463710741241,-3.22,-1.29,0.11,2.0,0.0,0.0,5.0,0.0,0.0,0.0,2.26,0.1,2.16,
4.393,94.33280442524843,83.78746371074124,-3.12,-0.95,-0.24,2.0,0.0,0.0,5.0,0.0,0.0,0.0,2.26,0.1,0.0,
4.417,94.36628044252484,83.76274637107412,-3.24,-1.19,0.34,2.0,0.0,0.0,5.0,0.0,0.0,0.0,2.26,0.1,0.0,
4.442,94.33362804425249,83.72427463710741,-3.43,-0.85,0.18,2.0,0.0,0.0,5.0,0.0,0.0,0.0,2.26,0.1,0.0,
4.465,94.41136280442525,83.75642746371074,-3.34,-0.97,0.17,2.0,0.0,0.0,5.0,0.0,0.0,0.0,2.26,0.2,0.29,
4.49,94.41913628044253,83.79564274637107,-3.03,-1.37,-0.18,2.0,0.0,0.0,5.0,0.0,0.0,0.0,2.26,0.2,0.0,
4.513,94.42891362804426,83.8175642746371,-3.01,-1.65,0.0,2.0,0.0,0.0,5.0,0.0,0.0,0.0,2.26,0.2,0.0,
4.538,94.44789136280443,83.81075642746372,-3.11,-1.63,-0.06,2.0,0.0,0.0,5.0,0.0,0.0,0.0,2.16,0.1,0.0,
4.561,94.52178913628043,83.78307564274637,-3.18,-1.43,0.02,2.0,0.0,0.0,5.0,0.0,0.0,0.0,2.16,0.2,0.0,
4.586,94.55617891362805,83.76230756427464,-2.92,-1.67,-0.18,2.0,0.0,0.0,5.0,0.0,0.0,0.0,2.26,0.2,0.0,
4.61,94.4786178913628,83.76023075642746,-3.32,-1.5,-0.41,2.0,0.0,0.0,5.0,0.0,0.0,0.0,2.16,0.1,1.08,
4.634,94.46186178913628,83.77802307564275,-3.47,-1.18,0.11,2.0,0.0,0.0,5.0,0.0,0.0,0.0,2.16,0.1,0.0,
4.658,94.50518617891363,83.79780230756427,-3.15,-1.02,-0.28,2.0,0.0,0.0,5.0,0.0,0.0,0.0,2.26,0.1,0.2,
4.682,94.48251861789137,83.75478023075642,-2.85,-0.87,0.2,2.0,0.0,0.0,5.0,0.0,0.0,0.0,2.16,0.1,0.59,
4.706,94.50725186178914,83.73247802307564,-2.96,-0.56,0.02,2.0,0.0,0.0,5.0,0.0,0.0,0.0,2.16,0.2,1.28,
4.73,94.48272518617893,83.73024780230756,-3.02,-0.59,0.02,2.0,0.0,0.0,5.0,0.0,0.0,0.0,2.16,0.2,2.26,
4.754,94.5252725186179,83.73902478023075,-3.08,-0.68,-0.11,2.0,0.0,0.0,5.0,0.0,0.0,0.0,2.16,0.1,2.35,
4.779,94.53852725186181,83.76690247802307,-3.22,-0.85,-0.11,2.0,0.0,0.0,5.0,0.0,0.0,0.0,2.16,0.1,1.37,
4.802,94.55785272518618,83.7246902478023,-3.15,-1.12,0.02,2.0,0.0,0.0,5.0,0.0,0.0,0.0,2.16,0.1,0.0,
4.827,94.56878527251861,83.71146902478023,-3.12,-0.95,-0.15,2.0,0.0,0.0,5.0,0.0,0.0,0.0,2.16,0.1,1.67,
4.85,94.55187852725186,83.71014690247802,-3.05,-1.15,0.44,2.0,0.0,0.0,5.0,0.0,0.0,0.0,2.16,0.1,5.0,
4.875,94.62218785272519,83.7550146902478,-3.17,-0.87,-0.49,2.0,0.0,0.0,5.0,0.0,0.0,0.0,2.16,0.1,0.88,
4.898,94.62021878527251,83.76850146902478,-3.02,-0.85,-0.03,2.0,0.0,0.0,5.0,0.0,0.0,0.0,2.16,0.1,0.78,
4.923,94.67402187852726,83.78785014690249,-3.08,-0.95,0.16,2.0,0.0,0.0,5.0,0.0,0.0,0.0,2.16,0.0,0.29,
4.946,94.66140218785273,83.82578501469025,-3.16,-0.59,-0.15,2.0,0.0,0.0,5.0,0.0,0.0,0.0,2.06,0.1,0.0,
4.971,94.67814021878527,83.82957850146903,-3.0,-1.23,0.26,2.0,0.0,0.0,5.0,0.0,0.0,0.0,2.06,0.0,0.0,
4.995,94.61681402187853,83.81195785014691,-2.63,-0.96,-0.21,2.0,0.0,0.0,5.0,0.0,0.0,0.0,2.16,0.0,1.18,
5.019,94.67368140218785,83.8191957850147,-2.89,-1.48,0.09,2.0,0.0,0.0,5.0,0.0,0.0,0.0,2.06,0.0,1.57,
5.043,94.71536814021879,83.78391957850147,-3.05,-1.34,0.11,2.0,0.0,0.0,5.0,0.0,0.0,0.0,2.06,0.0,0.0,
5.067,94.67453681402188,83.74439195785014,-2.83,-1.31,-0.34,2.0,0.0,0.0,5.0,0.0,0.0,0.0,2.16,0.0,0.0,
5.091,94.65245368140219,83.74943919578502,-2.85,-1.51,0.05,2.0,0.0,0.0,5.0,0.0,0.0,0.0,2.06,0.0,2.26,
5.115,94.68624536814022,83.7409439195785,-2.98,-1.7,0.0,2.0,0.0,0.0,5.0,0.0,0.0,0.0,2.16,0.0,2.16,
5.139,94.63562453681402,83.75809439195785,-2.89,-1.63,0.18,2.0,0.0,0.0,5.0,0.0,0.0,0.0,2.06,0.0,5.1,
5.164,94.5765624536814,83.74180943919578,-2.95,-1.25,0.37,2.0,0.0,0.0,5.0,0.0,0.0,0.0,2.16,0.0,2.26,
5.187,94.62465624536814,83.78518094391958,-3.02,-0.96,-0.02,2.0,0.0,0.0,5.0,0.0,0.0,0.0,2.06,0.0,0.39,
5.211,94.62046562453682,83.77151809439195,-3.0,-1.01,0.19,2.0,0.0,0.0,5.0,0.0,0.0,0.0,2.06,0.0,1.67,
5.235,94.59304656245368,83.7251518094392,-2.91,-1.38,-0.09,2.0,0.0,0.0,5.0,0.0,0.0,0.0,2.06,0.0,17.07,
5.259,94.60830465624537,83.68451518094393,-3.28,-1.4,-0.19,2.0,0.0,0.0,5.0,0.0,0.0,0.0,2.06,0.0,10.1,
5.283,94.60083046562454,83.6534515180944,-3.16,-1.79,-0.05,2.0,0.0,0.0,5.0,0.0,0.0,0.0,1.96,0.0,5.4,
5.307,94.58208304656245,83.65034515180945,-3.18,-1.7,0.16,2.0,0.0,0.0,5.0,0.0,0.0,0.0,2.06,0.0,4.02,
5.33,94.56220830465624,83.61403451518093,-3.04,-1.34,0.17,2.0,0.0,0.0,5.0,0.0,0.0,0.0,2.06,0.0,3.04,
5.355,94.56922083046562,83.61040345151808,-3.03,-1.3,-0.1,2.0,0.0,0.0,5.0,0.0,0.0,0.0,2.06,0.0,2.35,
5.379,94.51592208304658,83.6640403451518,-2.86,-1.27,0.08,2.0,0.0,0.0,5.0,0.0,0.0,0.0,2.06,0.0,2.94,
5.403,94.55559220830466,83.6784040345152,-2.93,-1.02,-0.07,2.0,0.0,0.0,5.0,0.0,0.0,0.0,2.06,0.0,2.84,
5.427,94.60455922083047,83.70684040345152,-2.92,-1.07,-0.22,2.0,0.0,0.0,5.0,0.0,0.0,0.0,2.06,0.0,1.67,
5.45,94.52845592208304,83.67368404034515,-2.95,-1.46,0.21,2.0,0.0,0.0,5.0,0.0,0.0,0.0,1.96,0.0,2.06,
5.475,94.5298455922083,83.6703684040345,-3.05,-1.58,0.14,2.0,0.0,0.0,5.0,0.0,0.0,0.0,2.06,0.0,1.77,
5.498,94.49398455922082,83.64303684040344,-3.05,-1.6,-0.02,2.0,0.0,0.0,5.0,0.0,0.0,0.0,2.06,0.0,1.57,
5.523,94.50839845592209,83.66730368404033,-3.05,-1.79,-0.08,2.0,0.0,0.0,5.0,0.0,0.0,0.0,1.96,0.0,2.16,
5.547,94.53683984559223,83.66973036840403,-2.89,-1.38,-0.01,2.0,0.0,0.0,5.0,0.0,0.0,0.0,2.06,0.0,1.08,
5.57,94.53968398455923,83.6879730368404,-2.62,-1.34,0.19,2.0,0.0,0.0,5.0,0.0,0.0,0.0,2.06,0.0,2.35,
5.595,94.56696839845591,83.68979730368403,-2.73,-1.24,0.21,2.0,0.0,0.0,5.0,0.0,0.0,0.0,1.96,0.0,1.28,
5.618,94.49769683984559,83.6539797303684,-3.06,-1.27,0.08,2.0,0.0,0.0,5.0,0.0,0.0,0.0,2.06,0.0,2.16,
5.642,94.50876968398457,83.63239797303683,-3.11,-1.59,-0.27,2.0,0.0,0.0,5.0,0.0,0.0,0.0,2.06,0.0,2.06,
5.666,94.59087696839845,83.61223979730367,-3.27,-1.79,-0.19,2.0,0.0,0.0,5.0,0.0,0.0,0.0,2.06,0.0,1.28,
5.69,94.60808769683985,83.66422397973037,-3.05,-1.63,0.11,2.0,0.0,0.0,5.0,0.0,0.0,0.0,2.16,0.0,1.67,
5.714,94.58280876968398,83.71442239797304,-3.08,-1.53,-0.1,2.0,0.0,0.0,5.0,0.0,0.0,0.0,2.06,0.0,1.77,
5.738,94.5442808769684,83.7014422397973,-3.07,-1.32,-0.11,2.0,0.0,0.0,5.0,0.0,0.0,0.0,2.06,0.0,0.88,
5.762,94.52242808769684,83.74514422397974,-3.18,-1.37,-0.11,2.0,0.0,0.0,5.0,0.0,0.0,0.0,2.06,0.0,2.26,
5.786,94.57424280876968,83.74051442239798,-3.21,-1.03,-0.01,2.0,0.0,0.0,5.0,0.0,0.0,0.0,2.06,0.0,2.06,
5.81,94.52542428087696,83.7400514422398,-3.05,-1.26,0.1,2.0,0.0,0.0,5.0,0.0,0.0,0.0,2.06,0.0,1.77,
5.834,94.46654242808769,83.70400514422397,-3.21,-1.55,0.04,2.0,0.0,0.0,5.0,0.0,0.0,0.0,2.06,0.0,1.86,
5.858,94.46065424280876,83.7004005144224,-3.2,-1.82,-0.08,2.0,0.0,0.0,5.0,0.0,0.0,0.0,1.96,0.0,1.96,
5.881,94.41506542428087,83.75404005144225,-3.09,-1.25,0.31,2.0,0.0,0.0,5.0,0.0,0.0,0.0,1.96,0.0,0.49,
5.906,94.45550654242808,83.75040400514422,-3.17,-1.21,0.19,2.0,0.0,0.0,5.0,0.0,0.0,0.0,2.06,0.0,1.67,
5.929,94.4415506542428,83.73204040051442,-3.08,-1.05,0.08,2.0,0.0,0.0,5.0,0.0,0.0,0.0,2.06,0.0,2.06,
5.953,94.39515506542429,83.75720404005145,-3.2,-1.23,0.34,2.0,0.0,0.0,5.0,0.0,0.0,0.0,2.06,0.0,1.96,
5.978,94.41751550654243,83.73272040400514,-3.09,-1.35,0.11,2.0,0.0,0.0,5.0,0.0,0.0,0.0,2.06,0.0,1.77,
6.001,94.50075155065426,83.78427204040051,-3.05,-1.34,0.03,2.0,0.0,0.0,5.0,0.0,0.0,0.0,1.96,0.0,1.57,
6.025,94.48207515506543,83.78042720404005,-3.08,-1.41,0.11,2.0,0.0,0.0,5.0,0.0,0.0,0.0,1.96,0.0,1.57,
6.049,94.49820751550654,83.73504272040401,-2.9,-1.82,0.26,2.0,0.0,0.0,5.0,0.0,0.0,0.0,2.06,0.0,1.77,
6.073,94.49982075155064,83.7755042720404,-2.94,-1.91,0.06,2.0,0.0,0.0,5.0,0.0,0.0,0.0,1.96,0.0,1.57,
6.096,94.50898207515507,83.74355042720404,-2.92,-1.7,0.4,2.0,0.0,0.0,5.0,0.0,0.0,0.0,2.06,0.0,1.96,
6.121,94.50989820751552,83.75835504272041,-2.6,-1.4,0.05,2.0,0.0,0.0,5.0,0.0,0.0,0.0,1.96,0.0,1.67,
6.145,94.50998982075156,83.79583550427205,-2.82,-1.13,0.53,2.0,0.0,0.0,5.0,0.0,0.0,0.0,2.06,0.0,1.77,
6.168,94.56399898207515,83.8355835504272,-2.71,-1.18,0.34,2.0,0.0,0.0,5.0,0.0,0.0,0.0,1.96,0.0,1.96,
6.193,94.5333998982075,83.83055835504273,-2.53,-1.28,0.47,2.0,0.0,0.0,5.0,0.0,0.0,0.0,1.96,0.0,1.08,
6.216,94.56633998982075,83.79405583550427,-2.19,-1.76,0.25,2.0,0.0,0.0,5.0,0.0,0.0,0.0,1.96,0.0,0.0,
6.24,94.60563399898207,83.84440558355043,-2.4,-1.93,0.56,2.0,0.0,0.0,5.0,0.0,0.0,0.0,1.86,0.0,0.0,
6.264,94.49256339989822,83.83144055835504,-2.59,-1.82,0.6,2.0,0.0,0.0,5.0,0.0,0.0,0.0,1.86,0.0,3.92,
6.288,94.40925633998982,83.8121440558355,-3.02,-1.79,0.52,2.0,0.0,0.0,5.0,0.0,0.0,0.0,1.86,0.0,2.75,
6.311,94.46392563399897,83.81921440558355,-2.82,-1.87,0.08,2.0,0.0,0.0,4.0,0.0,0.0,0.0,1.86,0.0,1.37,
6.336,94.50539256339991,83.80192144055836,-2.73,-2.34,0.65,2.0,0.0,0.0,4.0,0.0,0.0,0.0,1.67,0.0,1.57,
6.36,94.45553925634,83.74619214405584,-2.76,-2.53,1.07,2.0,0.0,0.0,4.0,0.0,0.0,0.0,1.77,0.0,0.0,
6.383,94.34255392563401,83.74961921440558,-2.21,-2.74,0.68,2.0,0.0,0.0,4.0,0.0,0.0,0.0,1.67,0.0,0.1,
6.408,94.19625539256342,83.81296192144056,-2.65,-3.21,0.37,1.0,0.0,0.0,3.0,0.0,0.0,0.0,1.77,0.0,0.0,
6.431,94.26262553925635,83.81929619214405,-2.56,-3.03,0.15,1.0,0.0,0.0,3.0,0.0,0.0,0.0,1.57,0.0,0.0,
6.455,94.33226255392563,83.95492961921441,-2.16,-3.41,-0.05,1.0,0.0,0.0,3.0,0.0,0.0,0.0,1.57,0.0,0.0,
6.478,94.33922625539256,84.03149296192144,-2.31,-1.18,0.83,1.0,0.0,0.0,3.0,0.0,0.0,0.0,1.47,0.0,0.0,
6.503,94.34892262553925,84.05714929619215,-1.33,-0.51,1.18,1.0,0.0,0.0,3.0,0.0,0.0,0.0,1.47,0.0,0.0,
6.526,94.19689226255394,84.1047149296192,-0.73,0.47,1.42,1.0,0.0,0.0,3.0,0.0,0.0,0.0,1.47,0.0,0.0,
6.55,94.0736892262554,84.06447149296193,-1.37,1.57,1.21,1.0,0.0,0.0,3.0,0.0,0.0,0.0,1.37,0.0,0.0,
6.574,94.13336892262554,84.0874471492962,-1.82,1.62,0.29,1.0,0.0,0.0,3.0,0.0,0.0,0.0,1.28,0.0,0.0,
6.597,94.38233689226254,84.12574471492962,-1.47,0.21,0.35,1.0,0.0,0.0,3.0,0.0,0.0,0.0,1.28,0.0,0.1,
6.621,94.52423368922626,84.13857447149296,-1.38,-1.32,0.24,1.0,0.0,0.0,3.0,0.0,0.0,0.0,1.28,0.0,0.0,
6.644,94.56542336892262,84.2298574471493,-2.08,-3.04,0.24,1.0,0.0,0.0,3.0,0.0,0.0,0.0,1.28,0.0,0.0,
6.669,94.54254233689227,84.22098574471494,-2.73,-3.49,0.79,1.0,0.0,0.0,3.0,0.0,0.0,0.0,1.37,0.0,0.0,
6.692,94.57625423368923,84.2380985744715,-2.6,-3.67,0.05,1.0,0.0,0.0,3.0,0.0,0.0,0.0,1.28,0.0,0.0,
6.716,94.37262542336892,84.25780985744716,-2.45,-3.97,1.3,2.0,0.0,0.0,4.0,0.0,0.0,0.0,1.37,0.0,0.0,
6.739,94.10026254233688,84.19678098574471,-3.11,-0.23,0.73,2.0,0.0,0.0,4.0,0.0,0.0,0.0,1.37,0.0,0.0,
6.764,94.07302625423368,84.21767809857447,-1.43,0.5,-1.0,2.0,0.0,0.0,4.0,0.0,0.0,0.0,1.47,0.0,0.0,
6.788,94.13330262542337,84.12076780985744,-1.97,0.15,-1.69,2.0,0.0,0.0,4.0,0.0,0.0,0.0,1.37,0.0,0.0,
6.811,94.08533026254233,83.96707678098575,-0.52,-1.76,2.21,2.0,0.0,0.0,4.0,0.0,0.0,0.0,1.18,0.0,0.0,
6.835,93.71153302625423,83.94270767809859,-2.6,5.57,-0.26,2.0,0.0,0.0,4.0,0.0,0.0,0.0,0.88,0.0,0.0,
6.858,93.98015330262542,84.14727076780986,-4.87,7.07,0.56,2.0,0.0,0.0,3.0,0.0,0.0,0.0,0.69,0.0,0.0,
6.883,94.24101533026254,84.01472707678099,-5.11,4.49,-2.85,2.0,0.0,0.0,3.0,0.0,0.0,0.0,0.39,0.0,0.0,
6.906,94.50110153302626,84.06447270767809,-4.92,0.24,-2.18,2.0,0.0,0.0,3.0,0.0,0.0,0.0,0.2,0.0,0.0,
6.93,94.75211015330262,84.13244727076781,-6.24,-6.17,1.21,3.0,0.0,0.0,3.0,0.0,0.0,0.0,0.0,0.0,0.0,
6.953,94.83121101533027,84.09424472707678,-7.34,-9.43,-2.75,3.0,0.0,0.0,3.0,0.0,0.0,0.0,0.0,0.0,0.0,
6.978,94.46112110153304,83.95542447270768,-8.22,-9.48,-5.49,3.0,0.0,0.0,4.0,0.0,0.0,0.0,0.0,0.0,1.18,
7.002,94.37011211015331,83.86054244727077,-11.03,-9.96,-8.76,3.0,0.0,0.0,4.0,0.0,0.0,0.0,0.0,0.0,47.77,
7.026,94.52301121101534,83.42805424472708,-14.15,-14.65,-14.87,3.0,0.0,0.0,5.0,0.0,0.0,0.0,0.0,0.0,12.75,
7.051,94.28630112110153,83.4748054244727,-14.16,-20.64,-7.05,4.0,0.0,0.0,6.0,0.0,0.0,0.0,0.2,0.29,0.0,
7.075,94.00163011211016,83.46148054244726,-14.73,-14.84,-2.43,4.0,0.0,0.0,7.0,0.0,1.0,0.0,0.39,0.78,0.0,
7.099,93.63116301121102,82.92014805424472,-9.47,-11.68,-0.41,4.0,0.0,0.0,8.0,0.0,1.0,0.0,0.69,1.37,0.0,
7.123,93.61211630112109,82.65001480542448,-6.08,-11.99,-3.5,5.0,0.0,0.0,9.0,0.0,1.0,0.0,0.69,2.06,0.0,
7.148,93.03421163011211,82.63200148054246,-4.32,-10.59,0.21,5.0,0.0,0.0,9.0,0.0,1.0,0.0,0.78,2.65,0.0,
7.173,92.65242116301121,82.72920014805423,-3.92,-10.51,0.44,6.0,0.0,0.0,10.0,0.0,1.0,0.0,0.98,3.34,0.0,
7.196,92.67724211630113,82.45092001480542,-3.01,-10.5,0.35,6.0,0.0,0.0,10.0,0.0,1.0,0.0,1.18,4.02,0.0,
7.221,92.74272421163012,82.45009200148054,-2.6,-10.69,1.77,6.0,0.0,0.0,11.0,0.0,1.0,0.0,1.08,4.71,0.0,
7.245,92.569272421163,82.49500920014805,-3.84,-7.72,0.98,6.0,0.0,0.0,11.0,0.0,1.0,0.0,1.37,5.1,0.0,
7.269,92.56992724211631,82.34650092001479,-5.74,-10.02,-0.43,6.0,0.0,0.0,12.0,0.0,1.0,0.0,1.47,5.4,0.0,
7.293,92.26399272421163,82.43965009200147,-8.04,-9.5,-2.69,7.0,0.0,0.0,12.0,0.0,1.0,0.0,1.77,5.49,0.0,
7.318,91.89139927242115,82.49396500920014,-11.02,-2.73,-5.37,7.0,0.0,0.0,1.0,0.0,1.0,0.0,1.96,5.69,0.0,
7.343,91.68313992724211,82.32839650092002,-7.31,-4.65,-2.21,6.0,0.0,0.0,2.0,0.0,1.0,0.0,2.16,5.69,0.0,
7.366,91.41931399272421,82.28483965009201,-6.5,-2.91,-1.16,6.0,0.0,0.0,3.0,0.0,1.0,0.0,2.35,5.4,1.67,
7.391,91.36593139927243,82.2444839650092,-6.14,0.63,-2.21,6.0,0.0,0.0,3.0,0.0,1.0,0.0,2.65,5.2,0.0,
7.415,91.45059313992724,82.26744839650091,-9.47,6.18,-3.82,6.0,0.0,0.0,3.0,0.0,1.0,0.0,2.94,5.0,0.1,
7.439,91.40505931399272,82.1437448396501,-8.27,6.99,-2.37,6.0,0.0,0.0,5.0,0.0,1.0,0.0,3.53,5.1,2.84,
7.463,91.32850593139928,81.96937448396501,-6.79,6.28,-0.88,6.0,0.0,0.0,6.0,0.0,1.0,0.0,3.92,5.3,0.0,
7.487,91.58185059313992,81.9879374483965,-4.98,4.85,2.27,6.0,0.0,0.0,6.0,0.0,1.0,0.0,4.41,5.49,0.0,
7.512,91.661185059314,82.02579374483965,-3.86,6.64,5.74,6.0,0.0,0.0,7.0,0.0,1.0,0.0,5.1,5.69,1.47,
7.535,91.6961185059314,81.96657937448396,-4.18,5.84,5.85,6.0,0.0,0.0,7.0,0.0,0.0,0.0,5.89,5.79,0.0,
7.56,91.88861185059314,81.8706579374484,-3.22,7.16,5.33,6.0,0.0,0.0,7.0,0.0,0.0,0.0,7.36,6.08,0.69,
7.583,92.19586118505931,81.77106579374484,-1.95,7.46,2.71,6.0,0.0,0.0,6.0,0.0,0.0,0.0,8.24,6.47,0.0,
7.608,92.46058611850593,81.6891065793745,-0.73,2.65,3.72,6.0,0.0,0.0,6.0,0.0,0.0,0.0,8.93,6.67,0.2,
7.631,92.51405861185059,81.70791065793745,-0.75,1.61,2.34,6.0,0.0,0.0,7.0,0.0,0.0,0.0,9.61,6.57,8.44,
7.656,92.59140586118505,81.63779106579375,-1.57,-1.24,-3.49,5.0,0.0,0.0,4.0,0.0,0.0,0.0,9.91,6.38,4.02,
7.681,92.77014058611852,81.65777910657937,-2.73,-6.56,-7.49,5.0,0.0,0.0,5.0,0.0,0.0,0.0,10.01,5.89,0.0,
7.704,92.58101405861186,81.69577791065794,-2.83,-9.39,-6.42,5.0,0.0,0.0,5.0,0.0,0.0,0.0,9.81,5.2,6.77,
7.729,92.52610140586118,81.7355777910658,-3.49,-9.28,-7.45,5.0,0.0,0.0,5.0,0.0,0.0,0.0,9.22,4.61,1.47,
7.753,92.34061014058611,81.73955777910658,-3.08,-6.51,-4.79,5.0,0.0,0.0,5.0,0.0,0.0,0.0,8.83,4.12,0.69,
7.777,92.2230610140586,81.84795577791067,-2.4,-2.94,-2.59,6.0,0.0,0.0,6.0,0.0,0.0,0.0,8.34,3.63,0.0,
7.801,92.24730610140587,81.99379557779108,-5.37,-0.45,-1.04,6.0,0.0,0.0,6.0,0.0,0.0,0.0,8.04,3.34,0.0,
7.826,92.11473061014058,81.9723795577791,-4.47,0.81,1.3,6.0,0.0,0.0,8.0,0.0,0.0,0.0,8.34,3.73,0.0,
7.849,92.19147306101407,82.03323795577792,-5.89,2.27,-0.96,6.0,0.0,0.0,8.0,0.0,0.0,0.0,9.03,4.22,2.55,
7.874,92.24414730610141,81.96732379557778,-6.53,0.32,0.95,6.0,0.0,0.0,9.0,0.0,0.0,0.0,10.5,4.81,2.16,
7.898,92.39341473061013,81.95173237955778,-8.62,-2.37,-2.07,6.0,0.0,0.0,9.0,0.0,0.0,0.0,11.38,5.59,0.0,
7.922,92.37234147306103,81.80617323795578,-8.22,-3.92,-0.69,6.0,0.0,0.0,10.0,0.0,0.0,0.0,12.46,6.28,0.0,
7.947,92.2082341473061,81.67461732379557,-8.27,-4.28,-0.23,6.0,0.0,0.0,12.0,0.0,0.0,0.0,13.34,7.06,0.0,
7.971,92.0118234147306,81.57146173237956,-8.93,-1.75,1.98,7.0,0.0,0.0,13.0,0.0,1.0,0.0,14.42,7.85,0.0,
7.995,92.02818234147306,81.36314617323796,-7.62,-1.12,1.95,7.0,0.0,0.0,14.0,0.0,1.0,0.0,15.4,8.63,0.0,
8.019,92.1648182341473,81.31531461732379,-6.45,-1.33,1.34,7.0,0.0,0.0,14.0,0.0,1.0,1.0,17.46,9.42,0.0,
8.044,92.25948182341472,81.28353146173238,-5.5,-3.4,3.39,7.0,0.0,0.0,15.0,0.0,1.0,1.0,18.34,10.01,0.0,
8.069,92.27794818234148,81.22635314617324,-4.28,-3.6,4.28,7.0,0.0,0.0,16.0,0.0,1.0,1.0,19.23,10.2,0.0,
8.093,92.18979481823415,81.08563531461732,-2.17,-2.23,4.46,7.0,0.0,0.0,16.0,0.0,1.0,1.0,20.01,10.59,0.0,
8.117,92.18997948182341,81.08956353146174,-1.15,-1.7,4.72,7.0,1.0,0.0,16.0,0.0,1.0,1.0,20.4,10.89,0.0,
8.141,92.18099794818234,81.02695635314616,-1.38,-2.12,4.06,7.0,0.0,0.0,16.0,0.0,1.0,1.0,20.6,10.99,0.0,
8.166,92.11709979481823,81.06569563531461,-1.74,-4.03,3.24,7.0,1.0,0.0,16.0,0.0,1.0,0.0,20.4,10.89,2.16,
8.19,92.02970997948182,81.06956956353146,-2.48,-3.7,3.79,7.0,1.0,0.0,15.0,0.0,1.0,0.0,20.11,10.59,1.86,
8.215,91.86797099794818,81.05195695635314,-4.6,-3.1,2.75,7.0,1.0,0.0,17.0,0.0,1.0,0.0,20.01,10.2,2.55,
8.24,91.93279709979481,80.96019569563532,-4.67,-4.89,0.5,7.0,0.0,0.0,15.0,0.0,1.0,0.0,20.21,10.01,3.53,
8.263,91.82227970997948,80.91501956956353,-3.53,-5.69,0.03,7.0,0.0,0.0,14.0,0.0,1.0,0.0,20.01,9.22,1.86,
8.288,91.69422797099796,80.84750195695635,-3.02,-6.17,0.76,7.0,0.0,0.0,14.0,0.0,1.0,0.0,19.62,8.83,1.77,
8.312,91.6184227970998,80.78675019569563,-2.31,-7.57,-0.47,7.0,0.0,0.0,14.0,0.0,1.0,0.0,18.54,8.24,5.1,
8.337,91.46684227970998,80.78067501956956,-2.31,-7.21,0.95,7.0,0.0,0.0,14.0,0.0,1.0,0.0,17.56,7.36,6.47,
8.361,91.23568422797099,80.81606750195695,-3.19,-3.47,0.98,7.0,0.0,0.0,14.0,0.0,1.0,0.0,16.78,6.87,1.96,
8.385,91.17656842279709,80.81960675019569,-2.83,-2.12,1.46,7.0,0.0,0.0,14.0,0.0,1.0,0.0,16.38,6.47,10.2,
8.41,91.16165684227971,80.89196067501958,-5.23,-0.03,2.37,7.0,0.0,0.0,14.0,0.0,1.0,0.0,15.99,6.08,2.75,
8.434,91.26816568422797,80.93519606750196,-5.77,0.28,3.59,7.0,0.0,0.0,14.0,0.0,1.0,0.0,15.99,6.18,0.0,
8.459,91.3058165684228,80.9305196067502,-5.21,-1.34,3.86,7.0,0.0,0.0,14.0,0.0,1.0,0.0,17.07,6.47,0.0,
8.482,91.15658165684228,80.85805196067501,-7.12,-0.7,2.37,7.0,0.0,0.0,15.0,0.0,1.0,0.0,17.76,6.77,0.0,
8.507,91.08765816568422,80.6708051960675,-5.47,0.08,2.1,7.0,0.0,0.0,16.0,0.0,1.0,1.0,19.13,7.36,0.0,
8.531,91.08076581656842,80.56208051960675,-4.53,1.39,-0.02,7.0,0.0,0.0,17.0,0.0,1.0,1.0,20.6,7.75,0.0,
8.556,91.17007658165684,80.50620805196067,-4.0,2.02,-1.67,7.0,0.0,0.0,17.0,0.0,1.0,1.0,21.97,8.44,0.0,
8.58,91.19700765816569,80.47362080519606,-4.74,1.67,-2.16,7.0,0.0,0.0,18.0,0.0,1.0,1.0,23.35,9.12,0.0,
8.604,91.28970076581658,80.4253620805196,-4.93,0.59,-1.66,7.0,0.0,0.0,17.0,0.0,1.0,1.0,25.6,9.91,0.0,
8.629,91.30797007658165,80.38453620805195,-4.21,0.5,-2.94,7.0,0.0,0.0,20.0,0.0,1.0,1.0,27.17,10.79,0.0,
8.653,91.32779700765816,80.42545362080521,-4.42,1.49,-3.25,7.0,1.0,0.0,20.0,0.0,1.0,1.0,28.35,11.58,0.0,
8.677,91.41977970076582,80.33954536208051,-4.79,1.82,-4.17,8.0,1.0,0.0,21.0,1.0,1.0,1.0,29.33,12.16,0.0,
8.701,91.51897797007659,80.27695453620805,-4.6,1.6,-3.53,8.0,1.0,0.0,21.0,1.0,1.0,1.0,30.21,12.75,0.0,
8.726,91.55589779700767,80.23469545362082,-4.07,-0.01,-2.82,8.0,1.0,0.0,21.0,1.0,1.0,1.0,31.0,13.83,0.0,
8.751,91.57758977970076,80.21246954536207,-4.06,0.62,-3.5,8.0,1.0,0.0,22.0,1.0,1.0,1.0,32.37,14.52,0.1,
8.775,91.57975897797007,80.18324695453622,-3.33,0.22,-3.76,8.0,1.0,0.0,22.0,1.0,1.0,1.0,33.06,15.3,0.0,
8.8,91.714975897797,80.18932469545362,-2.86,0.8,-3.66,8.0,1.0,0.0,23.0,1.0,1.0,1.0,33.26,15.89,0.0,
8.824,91.8364975897797,80.28893246954536,-2.73,0.15,-2.81,8.0,1.0,0.0,23.0,1.0,1.0,1.0,33.45,16.48,0.0,
8.848,91.97464975897796,80.30789324695455,-2.3,-0.34,-2.5,8.0,1.0,0.0,23.0,1.0,1.0,1.0,33.45,16.87,0.0,
8.872,91.98846497589778,80.27378932469544,-2.67,0.98,-1.57,8.0,1.0,0.0,24.0,1.0,1.0,1.0,33.16,17.17,0.0,
8.897,92.09784649758979,80.26137893246955,-2.31,0.61,-0.95,8.0,1.0,0.0,24.0,1.0,1.0,1.0,32.86,17.66,0.0,
8.922,92.17178464975898,80.26013789324696,-2.42,0.75,-0.31,8.0,1.0,0.0,24.0,1.0,1.0,1.0,32.67,17.95,0.0,
8.946,92.13417846497589,80.2780137893247,-2.51,1.15,0.34,8.0,1.0,0.0,24.0,1.0,1.0,1.0,32.57,18.15,0.0,
8.97,92.2204178464976,80.32480137893246,-2.11,1.42,1.15,8.0,1.0,0.0,24.0,1.0,1.0,1.0,32.57,18.64,0.0,
8.994,92.28304178464977,80.34748013789324,-1.6,1.77,1.57,8.0,1.0,0.0,24.0,1.0,1.0,1.0,32.47,19.03,0.0,
9.019,92.29830417846497,80.38574801378932,-2.14,2.0,1.87,8.0,1.0,0.0,23.0,1.0,1.0,1.0,32.18,19.33,0.0,
9.043,92.4528304178465,80.42557480137894,-2.01,1.38,1.89,8.0,1.0,0.0,23.0,1.0,1.0,1.0,31.78,19.62,0.0,
9.067,92.52228304178465,80.48355748013789,-1.85,0.6,2.53,8.0,1.0,0.0,24.0,1.0,1.0,1.0,31.29,19.72,0.0,
9.092,92.59222830417846,80.46235574801379,-2.32,0.34,2.13,8.0,1.0,0.0,23.0,1.0,1.0,1.0,31.1,19.82,0.0,
9.116,92.63522283041785,80.46923557480137,-2.31,-0.56,1.12,8.0,1.0,0.0,23.0,1.0,1.0,1.0,31.0,20.01,0.0,
9.141,92.63952228304179,80.47892355748014,-2.38,-0.67,0.95,8.0,1.0,0.0,23.0,1.0,1.0,1.0,30.9,19.91,0.0,
9.165,92.67595222830418,80.48889235574802,-2.54,-1.2,0.85,8.0,1.0,0.0,23.0,1.0,1.0,1.0,30.61,19.91,0.0,
9.189,92.68859522283043,80.52588923557481,-2.99,-1.11,0.61,8.0,1.0,0.0,23.0,1.0,1.0,1.0,30.31,19.72,0.0,
9.213,92.60885952228304,80.48458892355748,-2.75,-1.24,0.47,8.0,1.0,0.0,23.0,1.0,1.0,1.0,30.12,19.52,0.0,
9.238,92.61888595222831,80.47145889235574,-2.48,-0.93,-0.08,8.0,1.0,0.0,22.0,1.0,1.0,1.0,29.92,19.42,0.0,
9.263,92.66488859522283,80.53314588923558,-2.14,-1.02,0.17,8.0,1.0,0.0,22.0,1.0,1.0,1.0,29.53,19.03,0.0,
9.287,92.62448885952229,80.59331458892355,-2.15,-1.66,0.71,8.0,1.0,0.0,22.0,1.0,1.0,1.0,29.04,18.54,0.0,
9.312,92.61144888595223,80.60833145889237,-2.02,-1.64,1.32,8.0,1.0,0.0,21.0,1.0,1.0,1.0,91.43,18.05,0.0,
9.336,92.59214488859523,80.63683314588924,-2.27,-2.12,0.73,8.0,1.0,0.0,21.0,1.0,1.0,1.0,27.47,17.66,0.69,
9.36,92.62621448885952,80.58568331458893,-1.98,-2.52,0.23,8.0,1.0,0.0,21.0,1.0,1.0,1.0,26.88,17.17,2.06,
9.384,92.61162144888596,80.58956833145889,-1.73,-2.45,0.16,8.0,1.0,0.0,20.0,1.0,1.0,1.0,26.19,16.68,1.67,
9.409,92.61016214488859,80.55395683314589,-1.46,-3.6,-0.34,8.0,1.0,0.0,20.0,1.0,1.0,1.0,25.51,16.09,2.16,
9.434,92.62801621448887,80.57739568331459,-0.35,-4.1,-1.68,8.0,1.0,0.0,19.0,1.0,1.0,1.0,24.82,15.5,1.67,
9.458,92.57580162144889,80.69673956833145,-0.37,-3.57,-0.56,8.0,1.0,0.0,18.0,0.0,1.0,0.0,23.35,14.81,1.67,
9.483,92.57058016214489,80.77167395683314,-0.69,-2.6,-0.18,8.0,1.0,0.0,18.0,0.0,1.0,0.0,22.27,14.03,5.59,
9.507,92.58805801621449,80.80616739568332,-1.37,-2.21,0.15,8.0,0.0,0.0,17.0,0.0,1.0,0.0,21.39,13.34,2.84,
9.531,92.56280580162145,80.85461673956833,-1.96,-2.13,0.15,8.0,0.0,0.0,17.0,0.0,1.0,0.0,20.7,12.65,4.71,
9.555,92.56928058016214,80.85946167395683,-2.17,-2.83,0.08,7.0,0.0,0.0,17.0,0.0,1.0,0.0,20.11,11.97,5.2,
9.58,92.58792805801622,80.87794616739568,-2.56,-3.12,0.59,7.0,0.0,0.0,16.0,0.0,1.0,0.0,19.62,11.38,6.08,
9.605,92.47279280580162,80.92479461673958,-2.21,-2.95,0.87,7.0,0.0,0.0,16.0,0.0,1.0,0.0,19.03,10.79,2.65,
9.629,92.42527928058016,80.94747946167396,-2.19,-2.62,0.22,7.0,0.0,0.0,15.0,0.0,1.0,0.0,18.54,10.1,4.51,
9.654,92.411527928058,80.94074794616739,-2.04,-2.64,0.61,7.0,0.0,0.0,15.0,0.0,1.0,0.0,17.95,9.61,5.49,
9.677,92.3381527928058,81.02107479461674,-1.82,-1.89,0.59,7.0,0.0,0.0,15.0,0.0,1.0,0.0,17.56,9.22,3.63,
9.702,92.33081527928057,81.04710747946166,-2.08,-1.76,0.75,7.0,0.0,0.0,14.0,0.0,0.0,0.0,17.17,8.83,3.43,
9.726,92.32108152792804,81.04971074794616,-2.55,-1.75,0.32,7.0,0.0,0.0,14.0,0.0,0.0,0.0,16.87,8.53,0.39,
9.751,92.25710815279281,81.05897107479463,-2.56,-2.1,0.24,7.0,0.0,0.0,14.0,0.0,0.0,0.0,16.78,8.34,0.78,
9.775,92.22371081527928,81.08689710747947,-2.42,-1.63,0.74,7.0,0.0,0.0,14.0,0.0,0.0,0.0,16.68,8.14,1.08,
9.799,92.16637108152793,81.08068971074795,-2.53,-1.61,0.31,7.0,0.0,0.0,14.0,0.0,0.0,0.0,16.78,8.04,0.0,
9.824,92.1426371081528,81.08006897107478,-2.4,-1.54,0.53,7.0,0.0,0.0,14.0,0.0,0.0,0.0,16.58,7.95,0.0,
9.848,92.18526371081528,81.08000689710747,-2.28,-1.49,0.46,7.0,0.0,0.0,14.0,0.0,0.0,0.0,16.58,7.95,0.2,
9.872,92.21652637108153,81.08900068971076,-2.69,-1.66,0.2,7.0,0.0,0.0,14.0,0.0,0.0,0.0,16.38,7.75,0.78,
9.896,92.18365263710815,81.16190006897108,-3.21,-0.44,0.2,7.0,0.0,0.0,14.0,0.0,0.0,0.0,16.09,7.65,0.98,
9.921,92.18936526371081,81.13319000689711,-3.02,-0.11,-0.13,7.0,0.0,0.0,14.0,0.0,0.0,0.0,16.09,7.75,0.59,
9.946,92.27093652637109,81.10331900068971,-2.63,-0.45,-0.25,7.0,0.0,0.0,14.0,0.0,0.0,0.0,16.38,7.95,0.0,
9.97,92.2430936526371,81.11833190006898,-2.72,-0.56,0.53,7.0,0.0,0.0,14.0,0.0,0.0,0.0,16.38,8.14,0.0,
9.994,92.25830936526371,81.11083319000689,-2.65,-0.64,0.44,7.0,0.0,0.0,14.0,0.0,0.0,0.0,16.58,8.44,0.39,
10.018,92.25083093652637,81.15508331900068,-2.53,-0.51,0.1,7.0,0.0,0.0,14.0,0.0,0.0,0.0,16.68,8.53,0.39,
10.043,92.20508309365263,81.15050833190008,-2.72,0.14,-0.21,7.0,0.0,0.0,14.0,0.0,0.0,0.0,16.87,8.63,0.78,
10.067,92.21850830936526,81.14105083319001,-2.45,-0.03,-0.88,7.0,0.0,0.0,14.0,0.0,0.0,0.0,16.97,8.83,0.88,
10.092,92.21985083093654,81.167105083319,-1.89,0.21,-1.8,7.0,0.0,0.0,14.0,0.0,0.0,0.0,17.27,9.22,0.49,
10.117,92.33698508309365,81.2147105083319,-2.07,-0.18,-1.12,7.0,0.0,0.0,14.0,0.0,0.0,0.0,17.27,9.42,0.69,
10.14,92.41169850830936,81.3004710508332,-3.03,-0.5,-0.89,7.0,0.0,0.0,14.0,0.0,0.0,0.0,17.27,9.61,0.0,
10.165,92.40116985083094,81.33604710508332,-2.72,-0.68,-0.56,7.0,0.0,0.0,14.0,0.0,0.0,0.0,17.27,9.81,0.0,
10.189,92.4001169850831,81.35760471050834,-3.14,-0.47,-0.53,7.0,0.0,0.0,14.0,0.0,0.0,0.0,17.17,9.81,0.78,
10.214,92.44501169850831,81.34176047105083,-3.3,-1.14,-0.11,7.0,0.0,0.0,14.0,0.0,0.0,0.0,17.17,9.91,0.0,
10.238,92.51250116985082,81.34917604710509,-2.88,-1.81,-0.44,7.0,0.0,0.0,14.0,0.0,0.0,0.0,17.27,9.91,0.0,
10.263,92.53725011698508,81.38591760471051,-2.96,-2.05,0.15,7.0,0.0,0.0,14.0,0.0,0.0,0.0,17.17,10.01,0.59,
10.288,92.53972501169851,81.39859176047105,-2.96,-1.95,0.32,7.0,0.0,0.0,14.0,0.0,0.0,0.0,16.97,10.01,0.0,
10.312,92.51297250116986,81.42685917604712,-3.18,-1.32,0.02,7.0,0.0,0.0,14.0,0.0,0.0,0.0,16.87,10.01,0.2,
10.337,92.62729725011698,81.43868591760472,-4.0,-0.75,0.59,7.0,0.0,0.0,14.0,0.0,0.0,0.0,16.97,9.91,0.49,
10.361,92.6297297250117,81.36786859176047,-4.06,-1.75,0.24,7.0,0.0,0.0,14.0,0.0,0.0,0.0,17.27,10.01,1.08,
10.386,92.60297297250116,81.36978685917605,-4.15,-3.18,1.17,7.0,0.0,0.0,14.0,0.0,0.0,0.0,17.56,10.1,0.78,
10.409,92.50129729725012,81.3609786859176,-4.46,-2.56,1.07,7.0,0.0,0.0,14.0,0.0,0.0,0.0,17.76,10.01,0.39,
10.434,92.473129729725,81.34209786859176,-4.11,-2.47,0.79,7.0,0.0,0.0,14.0,0.0,0.0,0.0,17.95,9.91,0.0,
10.459,92.4343129729725,81.28620978685917,-3.72,-2.65,0.53,7.0,0.0,0.0,14.0,0.0,1.0,0.0,17.95,9.71,0.0,
10.483,92.43943129729725,81.22662097868592,-3.67,-3.03,0.75,7.0,0.0,0.0,14.0,0.0,1.0,0.0,17.95,9.52,0.0,
10.508,92.34994312972972,81.24766209786858,-4.04,-3.66,0.92,7.0,0.0,0.0,14.0,0.0,1.0,0.0,17.76,9.22,0.0,
10.532,92.32299431297297,81.16876620978685,-3.71,-3.57,0.51,7.0,0.0,0.0,14.0,0.0,1.0,0.0,17.76,9.12,0.0,
10.556,92.2662994312973,81.1788766209787,-3.51,-2.81,0.34,7.0,0.0,0.0,14.0,0.0,1.0,0.0,17.85,8.93,0.0,
10.58,92.24262994312971,81.15288766209788,-3.91,-1.72,-0.18,7.0,0.0,0.0,14.0,0.0,1.0,0.0,17.85,8.73,0.69,
10.605,92.21326299431296,81.13228876620978,-3.53,-1.7,-0.94,7.0,0.0,0.0,14.0,0.0,1.0,0.0,17.76,8.73,0.78,
10.63,92.1923262994313,81.08522887662097,-3.13,-2.1,-1.47,7.0,0.0,0.0,14.0,0.0,1.0,0.0,17.66,8.83,0.69,
10.654,92.19923262994314,81.0895228876621,-3.73,-2.6,-0.79,7.0,0.0,0.0,13.0,0.0,1.0,0.0,17.76,8.83,0.98,
10.679,92.11892326299431,81.11695228876621,-4.37,-1.3,-0.37,7.0,0.0,0.0,14.0,0.0,1.0,0.0,17.85,8.83,0.78,
10.703,92.09289232629943,81.10169522887662,-5.89,0.09,-0.24,7.0,0.0,0.0,15.0,0.0,1.0,0.0,18.05,9.12,0.59,
10.728,92.16228923262994,81.10016952288765,-6.38,-0.62,0.71,7.0,0.0,0.0,14.0,0.0,1.0,0.0,19.13,9.52,0.0,
10.753,92.20522892326298,81.03701695228877,-6.01,-1.74,2.01,7.0,0.0,0.0,16.0,0.0,1.0,0.0,20.11,9.81,0.0,
10.776,92.1555228923263,81.00370169522888,-6.16,-2.02,2.44,7.0,0.0,0.0,16.0,0.0,1.0,0.0,21.09,10.2,0.0,
10.801,92.15055228923264,80.9373701695229,-6.15,-1.39,3.44,7.0,0.0,0.0,16.0,0.0,1.0,0.0,21.97,10.3,0.0,
10.825,92.13205522892326,80.82273701695229,-5.92,-1.8,3.81,7.0,0.0,0.0,16.0,0.0,1.0,0.0,22.76,10.4,0.0,
10.85,92.11220552289232,80.73027370169522,-5.5,-2.76,2.99,7.0,0.0,0.0,17.0,0.0,1.0,1.0,23.45,10.4,0.0,
10.874,92.00222055228923,80.70302737016954,-4.74,-3.64,2.34,7.0,0.0,0.0,16.0,0.0,1.0,1.0,24.03,10.3,0.0,
10.899,91.99122205522892,80.65530273701697,-4.7,-2.42,1.77,7.0,0.0,0.0,16.0,0.0,1.0,1.0,24.23,10.3,0.0,
10.924,91.87312220552289,80.5425302737017,-3.87,-2.17,1.18,7.0,0.0,0.0,16.0,0.0,1.0,1.0,24.52,10.3,0.0,
10.948,91.82531222055228,80.49525302737017,-2.84,-3.04,0.33,7.0,0.0,0.0,16.0,0.0,1.0,1.0,24.43,10.4,0.0,
10.973,91.76653122205522,80.39152530273701,-0.99,-2.63,-2.09,7.0,0.0,0.0,16.0,0.0,1.0,1.0,24.23,10.59,0.0,
10.997,91.73365312220552,80.4081525302737,-0.44,-3.58,-7.56,7.0,0.0,0.0,17.0,0.0,1.0,1.0,23.64,10.69,0.1,
11.022,91.65836531222057,80.38281525302736,-0.53,-4.3,-8.08,7.0,0.0,0.0,17.0,0.0,1.0,1.0,23.15,11.28,4.81,
11.046,91.55183653122207,80.43428152530274,0.77,-2.12,-8.41,7.0,0.0,0.0,17.0,0.0,1.0,1.0,22.86,12.07,3.34,
11.071,91.37918365312221,80.45742815253027,1.44,0.54,-6.47,8.0,0.0,0.0,18.0,0.0,1.0,0.0,21.97,13.05,2.35,
11.095,91.36191836531222,80.52274281525303,3.21,1.41,-4.05,8.0,0.0,0.0,17.0,0.0,1.0,0.0,20.4,14.22,2.84,
11.119,91.32419183653123,80.62827428152531,2.64,2.28,-1.44,8.0,0.0,0.0,16.0,0.0,0.0,0.0,18.74,15.11,14.62,
11.144,91.46441918365312,80.83682742815253,0.0,1.89,-0.92,8.0,0.0,0.0,14.0,0.0,0.0,0.0,17.07,16.28,7.95,
11.168,91.67644191836531,81.00168274281525,-2.22,-2.19,-0.91,8.0,0.0,0.0,12.0,0.0,0.0,0.0,16.48,16.78,0.78,
11.193,91.97664419183654,81.24316827428153,-5.65,-10.33,3.82,7.0,0.0,0.0,8.0,0.0,0.0,0.0,15.6,16.19,1.96,
11.217,92.33966441918365,82.00531682742815,-12.7,-22.46,27.24,5.0,0.0,0.0,2.0,0.0,0.0,0.0,13.83,13.93,0.0,
11.242,92.42096644191838,83.04453168274281,-42.43,-38.77,74.16,4.0,0.0,0.0,9.0,0.0,0.0,0.0,10.89,9.81,26.98,
11.267,92.54609664419183,84.75045316827428,-92.15,-32.05,30.74,2.0,0.0,0.0,4.0,0.0,0.0,0.0,7.55,5.79,11.58,
11.29,92.82860966441918,86.26204531682743,-93.89,9.11,-14.45,1.0,0.0,0.0,0.0,0.0,0.0,0.0,3.43,3.04,0.0,
11.315,91.76786096644193,92.00220453168275,-44.27,1.69,-8.39,1.0,0.0,0.0,0.0,0.0,0.0,0.0,1.47,0.0,0.0,
11.338,90.2667860966442,100.22622045316827,33.92,-33.78,-13.42,1.0,0.0,0.0,0.0,0.0,0.0,0.0,0.0,0.0,60.23,
11.363,88.34367860966441,107.87062204531682,66.02,-38.07,10.99,1.0,0.0,0.0,0.0,0.0,0.0,0.0,0.29,0.0,11.77,
11.386,86.69336786096645,113.86406220453168,81.24,-35.63,37.55,0.0,0.0,0.0,0.0,0.0,0.0,0.0,0.59,0.0,0.0,
11.411,84.85433678609664,117.07340622045318,99.72,-20.31,52.02,0.0,0.0,0.0,0.0,0.0,0.0,0.0,0.39,0.0,46.6,
11.435,83.53643367860967,117.2233406220453,94.09,1.16,41.56,0.0,0.0,0.0,0.0,0.0,0.0,0.0,0.49,0.0,5.69,
11.459,83.15264336786097,115.59133406220452,84.73,15.85,27.74,0.0,0.0,0.0,0.0,0.0,0.0,0.0,0.39,0.0,0.0,
11.483,83.2942643367861,112.94413340622046,74.78,17.95,18.27,0.0,0.0,0.0,0.0,0.0,0.0,0.0,0.29,0.0,0.0,
11.507,83.3534264336786,108.82741334062204,65.6,27.76,-0.05,0.0,0.0,0.0,0.0,0.0,0.0,0.0,0.1,0.0,0.0,
11.531,83.90834264336786,104.2577413340622,74.89,19.58,-20.73,0.0,0.0,0.0,0.0,0.0,0.0,0.0,0.0,0.0,0.0,
11.555,83.69383426433679,99.67877413340622,75.77,14.44,-34.52,0.0,0.0,0.0,0.0,0.0,0.0,0.0,0.0,0.0,0.0,
11.579,85.20238342643368,95.72887741334063,70.47,5.34,-28.79,0.0,0.0,0.0,0.0,0.0,0.0,0.0,0.0,0.0,0.1,
11.603,87.17123834264336,92.04888774133406,36.09,6.54,7.37,0.0,0.0,0.0,0.0,0.0,0.0,0.0,0.29,0.0,0.0,
11.627,88.65512383426434,87.1448887741334,-14.56,41.56,25.74,0.0,0.0,0.0,0.0,0.0,0.0,0.0,1.08,0.0,2.45,
11.651,92.42151238342645,79.59848887741335,15.68,35.63,20.18,0.0,0.0,0.0,0.0,0.0,0.0,0.0,1.18,0.0,0.39,
11.674,92.62715123834265,73.41684888774134,19.95,11.32,10.68,0.0,0.0,0.0,0.0,0.0,0.0,0.0,0.69,0.0,0.0,
11.698,93.30471512383426,67.93868488877413,-23.82,16.99,-7.97,0.0,0.0,0.0,1.0,0.0,0.0,0.0,1.47,0.0,0.0,
11.722,93.01247151238343,60.991868488877415,-35.24,14.44,2.47,0.0,0.0,0.0,0.0,0.0,0.0,0.0,1.96,0.0,0.0,
11.746,93.90124715123835,63.807186848887746,-71.53,24.59,-56.54,0.0,0.0,0.0,0.0,0.0,0.0,0.0,2.06,0.0,1.57,
11.769,93.34212471512383,70.87471868488878,-165.83,31.7,13.75,0.0,0.0,0.0,0.0,0.0,0.0,0.0,1.86,0.0,1.77,
11.794,91.45021247151237,68.44047186848888,-218.31,37.03,-48.92,0.0,0.0,0.0,0.0,0.0,0.0,0.0,2.26,0.0,3.92,
11.817,90.42402124715125,66.25304718684889,-96.74,-13.7,-5.99,2.0,0.0,0.0,8.0,0.0,0.0,0.0,2.55,0.39,0.29,
11.842,89.83540212471512,68.08630471868489,-31.81,22.33,-42.85,3.0,0.0,0.0,11.0,0.0,0.0,0.0,4.22,3.83,0.0,
11.866,92.38654021247152,69.51163047186849,-5.31,34.4,-7.19,4.0,0.0,0.0,1.0,0.0,0.0,0.0,5.0,3.24,30.21,
11.89,93.08265402124715,71.27416304718686,2.03,19.76,-10.48,6.0,0.0,0.0,4.0,0.0,0.0,0.0,5.4,3.34,0.0,
11.915,93.35026540212472,72.97141630471867,5.9,18.11,-4.66,7.0,0.0,0.0,6.0,0.0,0.0,0.0,5.98,6.08,0.0,
11.938,93.30502654021247,74.65314163047188,7.18,21.02,-0.47,7.0,0.0,0.0,6.0,0.0,0.0,0.0,6.28,8.44,0.0,
11.963,93.98450265402126,76.25231416304719,4.43,27.2,-0.61,7.0,0.0,0.0,5.0,1.0,0.0,0.0,6.87,10.79,0.0,
11.987,94.79945026540211,77.60923141630472,5.68,23.49,8.73,7.0,0.0,0.0,3.0,1.0,0.0,0.0,7.46,14.42,0.0,
12.011,95.6999450265402,78.73492314163047,3.15,13.54,14.24,6.0,0.0,0.0,0.0,1.0,0.0,0.0,7.65,17.85,0.0,
12.035,96.25799450265401,79.54049231416305,-0.15,2.37,14.53,6.0,0.0,0.0,12.0,1.0,0.0,0.0,7.55,19.52,0.0,
12.059,96.42179945026541,80.2780492314163,-1.7,-0.12,9.93,6.0,0.0,0.0,12.0,1.0,0.0,0.0,7.36,19.72,0.0,
12.084,96.56417994502654,80.92780492314164,-4.57,2.2,9.47,6.0,0.0,0.0,12.0,1.0,0.0,0.0,7.16,20.6,0.0,
12.107,96.73141799450265,81.31678049231417,-3.65,-2.61,11.31,6.0,0.0,0.0,12.0,1.0,0.0,0.0,7.46,22.46,0.0,
12.132,96.79314179945027,81.80567804923142,-4.27,-10.18,8.67,6.0,0.0,0.0,12.0,1.0,0.0,0.0,8.04,24.13,0.0,
12.156,96.95231417994502,82.08856780492314,-6.25,-17.31,4.01,6.0,0.0,0.0,1.0,1.0,0.0,0.0,8.44,24.62,2.16,
12.18,96.69823141799449,82.2788567804923,-5.66,-17.45,6.69,6.0,0.0,0.0,0.0,0.0,0.0,0.0,8.63,24.33,2.55,
12.205,96.35782314179946,82.68488567804924,-9.47,-15.27,9.0,6.0,0.0,0.0,2.0,0.0,0.0,0.0,8.93,23.94,2.75,
12.228,95.98178231417995,82.59948856780493,-19.6,-15.18,1.16,7.0,0.0,0.0,2.0,0.0,0.0,0.0,9.81,25.6,0.49,
12.253,95.593178231418,82.40194885678049,-24.3,-16.11,-3.91,7.0,0.0,0.0,6.0,0.0,0.0,0.0,11.97,30.12,0.0,
12.277,95.5633178231418,82.28319488567804,-26.16,-17.32,-0.01,8.0,0.0,0.0,10.0,0.0,0.0,0.0,17.76,36.49,0.0,
12.302,95.16433178231418,82.18131948856781,-29.06,-11.46,6.2,8.0,0.0,0.0,15.0,1.0,0.0,0.0,23.35,43.56,30.8,
12.327,94.91743317823142,82.13513194885678,-35.69,-9.57,11.28,9.0,0.0,0.0,20.0,1.0,0.0,1.0,28.84,50.52,0.0,
12.352,94.57774331782315,81.97751319488567,-44.09,-16.2,21.92,8.0,0.0,0.0,24.0,1.0,0.0,1.0,35.41,57.0,0.0,
12.377,93.29277433178233,82.57375131948857,-75.24,-26.63,48.63,6.0,0.0,0.0,25.0,1.0,1.0,2.0,43.85,60.63,0.0,
12.401,92.96627743317825,81.49037513194887,-121.24,-40.27,46.53,4.0,0.0,0.0,24.0,2.0,2.0,3.0,60.14,57.49,0.0,
12.426,92.56462774331783,81.39103751319489,-135.53,15.76,-19.08,1.0,0.0,0.0,10.0,1.0,2.0,4.0,71.32,51.4,9.91,
12.45,90.44546277433177,80.23810375131949,-187.95,70.3,1.73,1.0,0.0,0.0,7.0,1.0,3.0,4.0,78.48,33.35,7.36,
12.475,90.00854627743317,80.18581037513195,-217.05,54.57,-48.61,1.0,0.0,0.0,1.0,1.0,3.0,3.0,74.46,14.13,14.13,
12.499,94.2668546277433,76.8685810375132,-208.85,37.98,-43.76,0.0,0.0,0.0,1.0,0.0,2.0,2.0,57.39,5.98,13.34,
12.524,99.31868546277433,76.23985810375132,-170.87,-10.47,-34.15,0.0,0.0,0.0,1.0,0.0,1.0,0.0,27.47,4.12,7.26,
12.549,102.15486854627743,85.82498581037514,-72.55,-2.09,4.81,0.0,0.0,0.0,1.0,0.0,1.0,0.0,8.44,2.84,35.9,
12.572,99.37848685462774,97.53849858103752,16.45,-10.97,41.75,0.0,0.0,0.0,1.0,0.0,1.0,0.0,4.61,2.26,15.79,
12.597,111.10684868546277,110.84184985810374,137.62,-85.09,31.18,0.0,0.0,0.0,0.0,0.0,1.0,0.0,3.14,2.16,0.0,
12.62,108.46368486854628,119.67818498581036,232.68,-120.17,44.06,0.0,0.0,0.0,0.0,0.0,1.0,0.0,2.26,1.47,0.0,
12.645,103.65436848685464,121.80381849858105,250.13,-88.58,39.18,0.0,0.0,0.0,0.0,0.0,1.0,0.0,1.77,0.98,35.71,
12.669,100.05043684868546,117.96638184985811,223.35,-22.86,-8.41,0.0,0.0,0.0,0.0,0.0,1.0,0.0,1.86,0.88,7.95,
12.693,98.88904368486854,113.06463818498581,226.91,-0.11,-27.35,0.0,0.0,0.0,0.0,0.0,1.0,0.0,2.16,0.69,0.78,
12.718,97.30590436848685,105.49146381849857,185.64,44.46,-13.08,0.0,0.0,0.0,0.0,0.0,1.0,0.0,2.65,0.69,0.0,
12.741,96.28359043684868,97.35414638184986,127.19,-2.95,27.07,0.0,0.0,0.0,0.0,0.0,1.0,0.0,3.24,0.98,0.0,
12.765,97.31535904368488,88.70141463818499,3.26,22.26,92.86,0.0,0.0,0.0,0.0,0.0,1.0,0.0,3.63,0.98,0.0,
12.789,96.50053590436849,78.95314146381851,-151.8,79.89,35.85,0.0,0.0,0.0,0.0,0.0,1.0,0.0,3.53,1.47,2.26,
12.813,87.83305359043686,75.49431414638185,-54.67,-20.6,-96.4,1.0,0.0,0.0,6.0,0.0,2.0,2.0,2.35,1.67,2.84,
12.837,85.84130535904369,80.20643141463819,-14.41,-36.72,-148.61,2.0,0.0,0.0,12.0,0.0,0.0,2.0,3.73,6.18,0.0,
12.862,94.33613053590437,85.58264314146383,-9.25,-49.7,46.39,2.0,0.0,0.0,7.0,0.0,1.0,0.0,10.5,8.63,0.0,
12.887,95.17661305359043,84.66226431414638,-12.15,-7.71,-9.28,3.0,0.0,0.0,13.0,0.0,1.0,0.0,14.62,10.2,0.0,
12.911,94.63066130535904,83.73322643141464,-4.06,31.31,6.0,5.0,0.0,0.0,17.0,0.0,1.0,0.0,18.93,11.97,0.0,
12.936,94.44106613053592,83.10932264314147,-6.21,3.04,-7.87,5.0,0.0,0.0,20.0,0.0,2.0,1.0,23.25,13.54,0.0,
12.96,93.81910661305359,82.53393226431415,-3.94,-6.02,2.08,6.0,0.0,0.0,22.0,0.0,2.0,1.0,26.59,15.11,0.0,
12.985,93.55891066130536,82.15239322643141,-3.97,0.26,3.91,7.0,0.0,0.0,25.0,0.0,2.0,1.0,29.53,16.78,0.0,
13.009,93.63189106613054,81.82623932264315,-3.95,6.07,-4.32,7.0,0.0,0.0,26.0,1.0,2.0,1.0,33.65,18.64,0.0,
13.034,93.62118910661306,81.63162393226432,-4.65,0.55,1.53,8.0,0.0,0.0,27.0,1.0,2.0,1.0,35.32,20.01,0.0,
13.059,93.26911891066132,81.25216239322643,-6.23,-7.75,5.37,8.0,0.0,0.0,28.0,1.0,2.0,1.0,36.98,20.9,0.0,
13.083,92.96391189106615,80.90821623932264,-4.82,-8.52,5.14,8.0,0.0,0.0,28.0,1.0,2.0,1.0,38.46,21.19,0.0,
13.107,92.77139118910662,80.66682162393226,-2.96,-1.72,2.65,8.0,0.0,0.0,30.0,1.0,2.0,1.0,39.34,21.09,0.0,
13.131,92.64413911891066,80.39068216239322,-1.34,0.12,1.54,8.0,0.0,0.0,30.0,1.0,2.0,1.0,39.34,20.7,0.0,
13.156,92.48741391189107,80.26406821623932,-0.54,-1.31,2.66,8.0,0.0,0.0,34.0,1.0,2.0,1.0,38.95,20.6,0.0,
13.18,92.4177413911891,80.22440682162394,0.02,-3.43,3.75,8.0,0.0,0.0,30.0,1.0,2.0,1.0,38.55,20.8,0.0,
13.205,92.2847741391189,80.1484406821624,0.15,-1.46,2.44,8.0,0.0,0.0,31.0,1.0,2.0,1.0,37.77,20.8,0.0,
13.23,92.15447741391189,80.13184406821624,-0.15,0.09,1.44,8.0,0.0,0.0,30.0,1.0,2.0,1.0,37.08,20.8,0.0,
13.254,92.17744774139119,80.18418440682163,-0.7,-1.68,1.39,8.0,0.0,0.0,30.0,1.0,2.0,1.0,36.59,20.6,0.0,
13.279,92.07174477413912,80.15341844068217,-1.71,-1.23,1.45,8.0,0.0,0.0,31.0,1.0,2.0,1.0,35.61,20.6,0.0,
13.302,92.03417447741391,80.08734184406822,-1.66,-0.79,0.87,8.0,0.0,0.0,30.0,1.0,2.0,1.0,35.51,20.8,0.2,
13.327,91.9854174477414,80.05373418440682,-2.17,-0.11,0.15,8.0,0.0,0.0,30.0,1.0,2.0,1.0,35.32,20.8,0.0,
13.351,92.00754174477414,80.06837341844069,-2.24,0.55,-0.66,8.0,0.0,0.0,30.0,1.0,2.0,1.0,35.32,21.09,0.0,
13.376,92.16275417447741,80.06983734184406,-2.27,-0.91,0.16,8.0,0.0,0.0,30.0,1.0,2.0,1.0,35.51,21.39,0.29,
13.401,92.08827541744773,80.0249837341844,-1.69,-1.04,0.79,8.0,0.0,0.0,30.0,1.0,2.0,1.0,35.51,21.39,0.0,
13.425,92.08082754174477,80.02049837341843,-2.05,-0.41,0.27,8.0,0.0,0.0,30.0,1.0,2.0,1.0,35.02,21.29,2.94,
13.45,92.11608275417447,80.04704983734185,-2.18,-1.36,-0.54,8.0,0.0,0.0,30.0,1.0,2.0,1.0,34.83,21.29,2.26,
13.474,92.08360827541745,80.08570498373419,-1.84,-1.72,-1.11,8.0,0.0,0.0,30.0,1.0,2.0,1.0,34.34,21.19,0.0,
13.499,92.08036082754174,80.13457049837342,-2.86,-2.11,-0.77,8.0,0.0,0.0,30.0,1.0,2.0,1.0,33.84,20.99,0.0,
13.523,92.07103608275418,80.10345704983735,-2.9,-2.44,-0.72,8.0,0.0,0.0,30.0,1.0,2.0,1.0,33.55,20.7,0.0,
13.548,91.98910360827543,80.10034570498374,-1.74,-2.37,-0.58,8.0,0.0,0.0,30.0,1.0,2.0,1.0,33.26,20.5,0.0,
13.573,91.96291036082754,80.12703457049838,-1.59,-2.03,-0.16,8.0,0.0,0.0,30.0,1.0,2.0,1.0,32.47,20.11,1.08,
13.597,91.99629103608275,80.12070345704984,-1.06,-2.32,0.4,8.0,0.0,0.0,28.0,1.0,2.0,1.0,31.49,19.42,1.47,
13.622,91.91862910360827,80.12007034570499,-1.23,-2.18,0.2,8.0,0.0,0.0,27.0,1.0,2.0,0.0,30.51,18.84,2.16,
13.646,91.91086291036082,80.18300703457051,-1.03,-2.02,-0.19,8.0,0.0,0.0,27.0,1.0,2.0,0.0,29.53,18.25,4.71,
13.671,91.91008629103607,80.24330070345705,-1.08,-2.47,0.38,8.0,0.0,0.0,26.0,1.0,2.0,0.0,28.06,17.85,3.34,
13.696,91.89200862910361,80.3123300703457,-1.44,-2.24,0.29,8.0,0.0,0.0,26.0,1.0,2.0,0.0,26.98,17.27,7.46,
13.72,91.87220086291036,80.41823300703459,-1.91,-1.69,-0.02,8.0,0.0,0.0,26.0,1.0,1.0,0.0,26.09,16.78,6.77,
13.745,91.89722008629104,80.45582330070346,-2.02,-1.97,-0.15,8.0,0.0,0.0,26.0,1.0,1.0,0.0,25.7,16.38,2.16,
13.769,91.8547220086291,80.48658233007035,-2.39,-1.7,-0.23,8.0,0.0,0.0,26.0,1.0,1.0,0.0,25.11,16.09,0.29,
13.794,91.81447220086291,80.49865823300703,-2.45,-1.89,-0.31,8.0,0.0,0.0,26.0,1.0,1.0,0.0,24.82,15.79,0.0,
13.818,91.77444722008629,80.51786582330071,-1.56,-1.94,-0.15,8.0,0.0,0.0,25.0,1.0,1.0,0.0,24.43,15.5,0.2,
13.843,91.69844472200863,80.56478658233006,-1.44,-1.33,0.15,8.0,0.0,0.0,24.0,0.0,1.0,0.0,23.94,15.3,0.0,
13.868,91.61884447220086,80.60547865823301,-1.82,-1.36,0.06,7.0,0.0,0.0,25.0,0.0,1.0,0.0,23.45,15.11,0.0,
13.891,91.66488444722009,80.6455478658233,-1.9,-0.75,0.0,7.0,0.0,0.0,24.0,0.0,1.0,0.0,22.96,14.91,0.1,
13.916,91.70548844472201,80.67655478658234,-1.87,-0.9,0.04,7.0,0.0,0.0,24.0,0.0,1.0,0.0,22.56,14.62,0.78,
13.94,91.7185488444722,80.73365547865824,-2.37,-0.75,-0.21,8.0,0.0,0.0,24.0,0.0,1.0,0.0,21.97,14.42,0.88,
13.965,91.72885488444722,80.79336554786582,-2.56,-1.5,0.15,7.0,0.0,0.0,27.0,0.0,1.0,0.0,21.88,14.42,2.45,
13.989,91.64888548844472,80.73633655478659,-2.15,-1.69,0.21,8.0,0.0,0.0,24.0,0.0,1.0,0.0,21.68,14.22,1.77,
14.014,91.67688854884449,80.73963365547866,-1.95,-1.55,-0.1,7.0,0.0,0.0,23.0,0.0,1.0,0.0,21.48,14.22,0.39,
14.039,91.70668885488445,80.81196336554787,-2.34,-1.5,0.02,7.0,0.0,0.0,23.0,0.0,1.0,0.0,21.19,14.03,0.0,
14.063,91.70066888548844,80.80119633655478,-2.66,-0.67,0.05,7.0,0.0,0.0,23.0,0.0,1.0,0.0,20.9,14.03,1.37,
14.088,91.65506688854886,80.79111963365548,-2.39,-1.15,-0.21,8.0,0.0,0.0,23.0,0.0,1.0,0.0,20.7,13.93,2.26,
14.112,91.6505066888549,80.81711196336555,-2.26,0.62,-0.47,8.0,0.0,0.0,23.0,0.0,1.0,0.0,20.5,13.83,0.0,
14.137,91.68605066888549,80.85571119633656,-2.01,0.87,-0.32,8.0,0.0,0.0,22.0,0.0,1.0,0.0,20.11,13.64,0.88,
14.161,91.70760506688855,80.85957111963366,-1.78,0.05,0.14,8.0,0.0,0.0,22.0,0.0,1.0,0.0,19.62,13.44,2.35,
14.186,91.75476050668885,80.89595711196337,-1.6,-0.49,0.53,8.0,0.0,0.0,21.0,0.0,1.0,0.0,19.13,13.24,1.37,
14.211,91.70547605066889,80.88159571119634,-1.73,-0.73,0.34,8.0,0.0,0.0,21.0,0.0,1.0,0.0,18.74,13.05,0.0,
14.234,91.70954760506689,80.90715957111964,-1.6,-0.93,0.21,7.0,0.0,0.0,20.0,0.0,1.0,0.0,18.34,12.75,0.0,
14.259,91.69195476050669,80.97271595711197,-1.62,-1.46,0.18,7.0,0.0,0.0,20.0,0.0,1.0,0.0,17.95,12.36,0.0,
14.283,91.71719547605068,81.1052715957112,-2.07,-1.37,0.04,7.0,0.0,0.0,19.0,0.0,1.0,0.0,17.76,12.16,2.65,
14.308,91.73771954760507,81.15452715957112,-2.37,-1.4,0.34,7.0,0.0,0.0,18.0,0.0,1.0,0.0,17.56,11.97,5.2,
14.332,91.7757719547605,81.2134527159571,-2.59,-1.68,0.16,7.0,0.0,0.0,19.0,0.0,1.0,0.0,17.56,11.87,4.91,
14.357,91.70757719547605,81.27334527159572,-2.67,-1.98,0.15,7.0,0.0,0.0,18.0,0.0,1.0,0.0,17.46,11.77,2.06,
14.382,91.70975771954761,81.26133452715958,-2.78,-1.81,0.2,7.0,0.0,0.0,19.0,0.0,1.0,0.0,17.36,11.58,0.98,
14.406,91.71897577195476,81.26013345271596,-2.96,-1.57,-0.13,7.0,0.0,0.0,19.0,0.0,1.0,0.0,17.17,11.48,0.0,
14.431,91.78289757719548,81.2600133452716,-3.32,-1.6,-0.13,7.0,0.0,0.0,19.0,0.0,1.0,0.0,17.27,11.38,0.0,
14.455,91.78028975771954,81.27800133452716,-3.14,-1.31,-0.34,7.0,0.0,0.0,20.0,0.0,1.0,0.0,17.17,11.38,0.88,
14.48,91.78002897577196,81.23480013345271,-3.26,-1.34,-0.18,7.0,0.0,0.0,19.0,0.0,1.0,0.0,17.27,11.38,0.0,
14.504,91.7890028975772,81.22148001334527,-3.63,-1.2,-0.54,7.0,0.0,0.0,20.0,0.0,1.0,0.0,17.36,11.38,0.0,
14.529,91.78990028975772,81.21114800133452,-3.73,-0.54,-0.98,7.0,0.0,0.0,21.0,0.0,1.0,0.0,17.46,11.58,0.0,
14.554,91.73599002897578,81.20111480013345,-3.39,-1.27,-0.47,7.0,0.0,0.0,20.0,0.0,1.0,0.0,17.76,11.67,1.47,
14.578,91.73059900289758,81.16411148001335,-3.56,-1.0,-0.41,7.0,0.0,0.0,20.0,0.0,1.0,0.0,17.85,11.77,0.98,
14.603,91.72105990028976,81.17841114800135,-3.56,-0.92,-0.18,7.0,0.0,0.0,20.0,0.0,1.0,0.0,17.95,11.87,2.16,
14.627,91.71110599002898,81.19784111480013,-3.36,-1.2,-0.14,7.0,0.0,0.0,20.0,0.0,1.0,0.0,18.25,12.16,0.59,
14.652,91.8001105990029,81.23578411148002,-3.26,-1.16,-0.24,7.0,0.0,0.0,21.0,0.0,1.0,0.0,18.34,12.26,0.0,
14.676,91.8360110599003,81.221578411148,-3.02,-1.4,0.05,7.0,0.0,0.0,21.0,0.0,1.0,0.0,18.34,12.36,0.59,
14.701,91.83060110599004,81.1661578411148,-2.67,-1.36,0.19,7.0,0.0,0.0,21.0,0.0,1.0,0.0,18.34,12.36,0.0,
14.726,91.785060110599,81.12461578411148,-2.56,-1.18,0.18,7.0,0.0,0.0,21.0,0.0,1.0,0.0,18.25,12.16,0.0,
14.75,91.81650601105989,81.11146157841114,-2.45,-1.86,0.53,7.0,0.0,0.0,20.0,0.0,1.0,0.0,18.05,12.07,0.0,
14.774,91.891650601106,81.11014615784111,-2.33,-1.59,0.56,7.0,0.0,0.0,20.0,0.0,1.0,0.0,17.76,11.87,0.2,
14.798,91.8361650601106,81.13701461578411,-2.05,-1.56,0.92,7.0,0.0,0.0,20.0,0.0,1.0,0.0,17.66,11.67,1.08,
14.823,91.82161650601105,81.12170146157843,-2.15,-1.69,1.08,7.0,0.0,0.0,20.0,0.0,1.0,0.0,17.27,11.38,4.32,
14.848,91.7841616506011,81.13817014615783,-1.6,-1.59,1.12,7.0,0.0,0.0,19.0,0.0,1.0,0.0,16.97,11.18,3.34,
14.872,91.78941616506012,81.19381701461577,-1.68,-2.03,1.36,7.0,0.0,0.0,18.0,0.0,1.0,0.0,16.78,10.79,1.67,
14.897,91.78994161650601,81.18138170146159,-1.7,-2.36,1.34,7.0,0.0,0.0,18.0,0.0,1.0,0.0,16.19,10.5,5.49,
14.921,91.78999416165061,81.26113817014615,-1.63,-2.51,1.78,7.0,0.0,0.0,17.0,0.0,1.0,0.0,15.89,10.01,4.02,
14.946,91.74499941616506,81.30511381701461,-2.05,-2.21,1.43,7.0,0.0,0.0,17.0,0.0,1.0,0.0,15.79,9.71,3.63,
14.97,91.78549994161651,81.31851138170146,-1.7,-2.74,1.5,6.0,0.0,0.0,16.0,0.0,1.0,0.0,15.4,9.32,10.3,
14.995,91.76254999416165,81.33785113817015,-1.87,-2.66,1.37,6.0,0.0,0.0,15.0,0.0,1.0,0.0,15.21,8.93,9.52,
15.019,91.70625499941616,81.35778511381702,-1.78,-2.92,1.24,6.0,0.0,0.0,15.0,0.0,1.0,0.0,14.91,8.53,0.0,
15.043,91.70062549994162,81.3867785113817,-1.6,-2.53,1.67,6.0,0.0,0.0,15.0,0.0,1.0,0.0,14.62,8.14,1.28,
15.068,91.57406254999417,81.40767785113817,-1.76,-1.54,1.36,6.0,0.0,0.0,14.0,0.0,1.0,0.0,14.42,7.95,0.0,
15.092,91.62440625499941,81.57176778511382,-2.1,-1.67,1.12,6.0,0.0,0.0,14.0,0.0,1.0,0.0,14.13,7.75,1.86,
15.117,91.59344062549995,81.59717677851138,-2.14,-2.34,0.49,6.0,0.0,0.0,14.0,0.0,1.0,0.0,14.13,7.55,2.65,
15.141,91.59034406255,81.63571767785113,-2.44,-1.81,0.69,6.0,0.0,0.0,14.0,0.0,1.0,0.0,13.93,7.46,2.06,
15.165,91.554034406255,81.64857176778513,-2.95,-1.38,0.35,6.0,0.0,0.0,14.0,0.0,1.0,0.0,13.83,7.46,0.0,
15.19,91.5864034406255,81.66785717677851,-3.11,-1.35,-0.1,6.0,0.0,0.0,15.0,0.0,1.0,0.0,13.73,7.46,0.0,
15.214,91.56264034406256,81.65178571767787,-2.99,-1.31,-0.44,6.0,0.0,0.0,14.0,0.0,1.0,0.0,13.73,7.36,0.0,
15.239,91.54226403440626,81.6501785717678,-3.46,-1.34,-0.58,6.0,0.0,0.0,12.0,0.0,1.0,0.0,13.73,7.46,0.0,
15.263,91.57622640344061,81.65901785717678,-3.21,-1.64,-0.21,6.0,0.0,0.0,14.0,0.0,1.0,0.0,13.73,7.46,0.59,
15.288,91.57062264034406,81.63290178571768,-3.22,-1.32,-0.5,6.0,0.0,0.0,14.0,0.0,1.0,0.0,13.73,7.46,1.57,
15.312,91.56106226403442,81.64829017857178,-3.43,-1.24,-0.69,6.0,0.0,0.0,14.0,0.0,1.0,0.0,13.73,7.46,0.78,
15.337,91.57810622640343,81.61382901785717,-3.41,-1.04,-0.53,6.0,0.0,0.0,14.0,0.0,1.0,0.0,13.93,7.46,0.1,
15.362,91.55281062264034,81.59238290178573,-3.39,-1.0,-0.52,6.0,0.0,0.0,16.0,0.0,1.0,0.0,13.83,7.46,0.0,
15.386,91.54128106226403,81.59923829017856,-3.02,-1.18,-0.28,6.0,0.0,0.0,14.0,0.0,1.0,0.0,14.03,7.55,0.0,
15.411,91.53112810622642,81.59092382901787,-2.76,-1.06,0.01,6.0,0.0,0.0,14.0,0.0,1.0,0.0,14.03,7.75,2.35,
15.434,91.57511281062264,81.60809238290179,-2.86,-1.12,0.15,6.0,0.0,0.0,14.0,0.0,1.0,0.0,14.03,7.85,0.39,
15.459,91.55251128106227,81.62780923829018,-3.09,-1.11,0.1,6.0,0.0,0.0,15.0,0.0,1.0,0.0,13.93,7.75,0.2,
15.483,91.55925112810624,81.63878092382902,-3.15,-1.46,-0.04,6.0,0.0,0.0,14.0,0.0,1.0,0.0,14.03,7.75,0.78,
15.508,91.58692511281063,81.5768780923829,-2.89,-1.43,0.06,6.0,0.0,0.0,15.0,0.0,1.0,0.0,14.03,7.65,0.59,
15.533,91.59869251128106,81.60668780923828,-2.87,-1.53,0.18,6.0,0.0,0.0,15.0,0.0,1.0,0.0,14.03,7.65,0.29,
15.557,91.59086925112811,81.64566878092384,-3.1,-1.15,0.0,6.0,0.0,0.0,14.0,0.0,1.0,0.0,14.03,7.65,0.0,
15.581,91.5810869251128,81.61356687809239,-2.84,-1.29,0.15,6.0,0.0,0.0,14.0,0.0,1.0,0.0,13.93,7.55,2.75,
15.605,91.57110869251127,81.61935668780924,-2.71,-1.03,0.21,6.0,0.0,0.0,14.0,0.0,1.0,0.0,13.93,7.55,0.0,
15.63,91.55211086925112,81.61993566878094,-2.63,-1.14,0.2,6.0,0.0,0.0,14.0,0.0,1.0,0.0,13.93,7.65,0.1,
15.654,91.51421108692512,81.67399356687811,-2.87,-1.12,0.42,6.0,0.0,0.0,14.0,0.0,1.0,0.0,13.93,7.55,3.04,
15.679,91.5464211086925,81.71539935668781,-3.07,-1.07,-0.18,6.0,0.0,0.0,14.0,0.0,1.0,0.0,13.83,7.55,0.29,
15.704,91.63064211086925,81.73753993566878,-3.01,-0.92,-0.27,6.0,0.0,0.0,14.0,0.0,1.0,0.0,13.93,7.65,0.39,
15.728,91.62106421108693,81.74875399356688,-3.21,-0.92,-0.63,6.0,0.0,0.0,15.0,0.0,1.0,0.0,14.13,7.85,1.37,
15.753,91.57510642110869,81.7588753993567,-3.24,-0.95,-0.26,6.0,0.0,0.0,15.0,0.0,1.0,0.0,14.22,8.04,0.0,
15.777,91.60651064211086,81.74188753993568,-3.12,-0.84,-0.11,6.0,0.0,0.0,15.0,0.0,1.0,0.0,14.32,8.24,1.86,
15.801,91.57365106421108,81.73118875399356,-2.95,-0.82,-0.01,6.0,0.0,0.0,15.0,0.0,1.0,0.0,14.32,8.34,0.69,
15.825,91.57936510642111,81.73911887539936,-2.93,-0.98,-0.26,6.0,0.0,0.0,15.0,0.0,1.0,0.0,14.32,8.44,0.0,
15.85,91.5709365106421,81.73991188753993,-3.06,-0.85,-0.13,6.0,0.0,0.0,15.0,0.0,1.0,0.0,14.42,8.44,0.2,
15.875,91.5970936510642,81.79399118875399,-2.67,-0.87,-0.2,6.0,0.0,0.0,15.0,0.0,1.0,0.0,14.52,8.44,1.28,
15.899,91.62670936510642,81.8083991188754,-3.2,-0.89,-0.21,6.0,0.0,0.0,16.0,0.0,1.0,0.0,14.42,8.53,1.86,
15.924,91.64767093651065,81.77383991188753,-2.92,-0.7,-0.29,6.0,0.0,0.0,15.0,0.0,1.0,0.0,14.52,8.53,0.59,
15.948,91.68576709365107,81.78838399118875,-2.91,-0.66,-0.08,6.0,0.0,0.0,14.0,0.0,1.0,0.0,14.52,8.63,0.69,
15.973,91.69857670936511,81.85283839911888,-3.16,-0.88,-0.02,6.0,0.0,0.0,15.0,0.0,1.0,0.0,14.62,8.73,1.08,
15.997,91.70885767093651,81.8412838399119,-2.97,-1.02,-0.05,6.0,0.0,0.0,15.0,0.0,1.0,0.0,14.81,8.73,1.08,
16.022,91.73688576709365,81.8041283839912,-3.06,-0.87,0.04,6.0,0.0,0.0,15.0,0.0,1.0,0.0,14.72,8.93,0.59,
16.047,91.73068857670937,81.79141283839913,-2.73,-0.96,-0.1,6.0,0.0,0.0,16.0,0.0,1.0,0.0,14.81,9.03,0.0,
16.071,91.73906885767093,81.74514128383991,-3.08,-1.11,-0.08,6.0,0.0,0.0,15.0,0.0,1.0,0.0,14.91,9.03,0.0,
16.095,91.7039068857671,81.758514128384,-2.71,-1.02,-0.27,7.0,0.0,0.0,16.0,0.0,1.0,0.0,14.91,9.03,1.08,
16.119,91.7633906885767,81.7418514128384,-2.66,-0.96,0.01,7.0,0.0,0.0,16.0,0.0,1.0,0.0,14.81,9.03,1.18,
16.144,91.76033906885768,81.77618514128385,-3.05,-1.14,0.08,6.0,0.0,0.0,16.0,0.0,1.0,0.0,14.91,9.03,0.59,
16.168,91.75103390688577,81.77061851412839,-2.9,-0.81,-0.06,7.0,0.0,0.0,16.0,0.0,1.0,0.0,14.91,9.12,0.59,
16.193,91.83110339068858,81.77906185141285,-2.99,-0.96,0.07,7.0,0.0,0.0,16.0,0.0,1.0,0.0,14.91,9.22,1.08,
16.218,91.83911033906887,81.75290618514128,-2.72,-1.2,0.18,7.0,0.0,0.0,16.0,0.0,1.0,0.0,14.91,9.22,1.47,
16.242,91.81291103390689,81.77729061851413,-2.7,-1.17,0.31,7.0,0.0,0.0,16.0,0.0,1.0,0.0,14.91,9.22,1.37,
16.266,91.7832911033907,81.77072906185141,-2.81,-1.09,0.08,7.0,0.0,0.0,16.0,0.0,1.0,0.0,14.91,9.22,1.77,
16.29,91.75332911033907,81.77907290618515,-3.05,-1.24,-0.02,7.0,0.0,0.0,16.0,0.0,1.0,0.0,14.81,9.32,0.88,
16.315,91.79533291103391,81.77990729061852,-3.24,-1.5,-0.15,7.0,0.0,0.0,16.0,0.0,1.0,0.0,14.91,9.32,0.29,
16.339,91.78153329110339,81.77999072906185,-2.72,-1.24,0.15,7.0,0.0,0.0,16.0,0.0,1.0,0.0,14.81,9.32,0.1,
16.364,91.75315332911035,81.7889990729062,-2.82,-1.37,0.04,7.0,0.0,0.0,16.0,0.0,1.0,0.0,14.91,9.42,0.2,
16.389,91.73231533291104,81.83489990729062,-2.98,-1.13,-0.03,7.0,0.0,0.0,16.0,0.0,1.0,0.0,14.91,9.42,0.0,
16.413,91.7122315332911,81.84848999072905,-2.96,-1.09,-0.04,7.0,0.0,0.0,16.0,0.0,1.0,0.0,14.81,9.32,0.1,
16.438,91.71922315332911,81.8048489990729,-2.87,-1.14,0.08,7.0,0.0,0.0,16.0,0.0,1.0,0.0,14.91,9.32,0.2,
16.461,91.77392231533291,81.84548489990728,-2.85,-1.15,0.14,7.0,0.0,0.0,16.0,0.0,1.0,0.0,14.81,9.22,3.24,
16.486,91.8243922315333,81.90354848999073,-2.77,-0.96,0.06,7.0,0.0,0.0,16.0,0.0,1.0,0.0,14.81,9.22,0.0,
16.51,91.81143922315333,81.89135484899907,-2.86,-1.17,0.1,7.0,0.0,0.0,16.0,0.0,1.0,0.0,14.81,9.32,2.45,
16.535,91.81014392231533,81.8811354848999,-3.21,-1.47,-0.05,7.0,0.0,0.0,16.0,0.0,1.0,0.0,14.81,9.32,3.34,
16.56,91.76501439223154,81.88911354849,-2.99,-1.21,0.21,7.0,0.0,0.0,16.0,0.0,1.0,0.0,15.01,9.32,0.98,
16.584,91.74250143922316,81.844911354849,-2.97,-1.44,0.24,7.0,0.0,0.0,16.0,0.0,1.0,0.0,15.01,9.52,0.1,
16.609,91.73125014392232,81.8224911354849,-3.06,-1.17,0.0,7.0,0.0,0.0,16.0,0.0,1.0,0.0,14.91,9.42,0.2,
16.632,91.67612501439223,81.8112491135485,-2.89,-1.35,0.08,7.0,0.0,0.0,16.0,0.0,1.0,0.0,14.91,9.42,0.0,
16.657,91.67961250143924,81.80112491135485,-2.95,-1.2,0.28,7.0,0.0,0.0,16.0,0.0,1.0,0.0,14.91,9.32,0.49,
16.681,91.68896125014392,81.8271124911355,-3.2,-0.76,-0.11,7.0,0.0,0.0,16.0,0.0,1.0,0.0,14.91,9.42,0.59,
16.706,91.69889612501439,81.84771124911354,-3.11,-1.04,-0.03,7.0,0.0,0.0,16.0,0.0,1.0,0.0,15.01,9.52,0.59,
16.731,91.71788961250144,81.84077112491136,-3.27,-1.11,-0.11,7.0,0.0,0.0,16.0,0.0,1.0,0.0,15.01,9.61,1.37,
16.755,91.71978896125015,81.82207711249113,-3.02,-1.32,0.05,7.0,0.0,0.0,17.0,0.0,1.0,0.0,15.01,9.61,0.98,
16.78,91.71097889612501,81.83820771124911,-2.92,-1.22,0.44,7.0,0.0,0.0,16.0,0.0,1.0,0.0,15.11,9.42,0.0,
16.803,91.7190978896125,81.8488207711249,-3.16,-1.34,0.02,7.0,0.0,0.0,16.0,0.0,1.0,0.0,15.01,9.61,1.18,
16.828,91.71090978896125,81.9218820771125,-3.34,-1.74,-0.13,7.0,0.0,0.0,16.0,0.0,1.0,0.0,15.01,9.61,0.69,
16.852,91.71009097889612,81.93818820771125,-3.42,-1.34,-0.21,7.0,0.0,0.0,17.0,0.0,1.0,0.0,15.11,9.61,1.37,
16.877,91.75500909788961,81.98481882077112,-3.54,-1.28,-0.15,7.0,0.0,0.0,17.0,0.0,1.0,0.0,15.21,9.91,0.0,
16.902,91.76850090978897,81.9444818820771,-3.46,-1.45,-0.4,7.0,0.0,0.0,17.0,0.0,1.0,0.0,15.4,10.01,1.18,
16.926,91.7518500909789,81.87744818820772,-3.52,-1.21,-0.47,7.0,0.0,0.0,17.0,0.0,1.0,0.0,15.4,10.1,0.0,
16.951,91.77718500909789,81.87974481882077,-3.65,-0.68,-0.52,7.0,0.0,0.0,17.0,0.0,1.0,0.0,15.5,10.2,2.16,
16.975,91.7977185009098,81.87097448188209,-3.66,-0.64,-0.58,7.0,0.0,0.0,17.0,0.0,1.0,0.0,15.7,10.2,2.55,
17.0,91.76377185009098,81.8250974481882,-3.56,-0.78,-0.37,7.0,0.0,0.0,17.0,0.0,1.0,0.0,15.89,10.4,0.59,
17.025,91.7963771850091,81.84750974481881,-3.92,-0.57,-0.43,7.0,0.0,0.0,18.0,0.0,1.0,0.0,15.99,10.5,2.16,
17.049,91.80863771850092,81.79575097448188,-3.61,-0.98,-0.34,7.0,0.0,0.0,18.0,0.0,1.0,0.0,16.09,10.79,1.37,
17.074,91.79186377185009,81.76357509744818,-3.22,-1.06,-0.07,7.0,0.0,0.0,18.0,0.0,1.0,0.0,16.28,10.89,0.98,
17.098,91.78118637718501,81.76035750974482,-3.36,-1.11,0.02,7.0,0.0,0.0,19.0,0.0,1.0,0.0,16.48,11.09,0.0,
17.123,91.8251186377185,81.72403575097448,-3.12,-1.33,0.03,7.0,0.0,0.0,18.0,0.0,1.0,0.0,16.58,11.09,0.0,
17.147,91.89251186377186,81.68440357509746,-3.28,-1.08,0.02,7.0,0.0,0.0,19.0,0.0,1.0,0.0,16.68,11.09,0.0,
17.172,91.87225118637718,81.67144035750974,-3.24,-1.01,-0.01,7.0,0.0,0.0,19.0,0.0,1.0,0.0,16.68,11.18,1.47,
17.197,91.84322511863772,81.68814403575098,-2.96,-1.29,0.08,7.0,0.0,0.0,19.0,0.0,1.0,0.0,16.68,11.28,0.88,
17.221,91.86732251186378,81.7168144035751,-2.6,-1.36,0.25,7.0,0.0,0.0,19.0,0.0,1.0,0.0,16.68,11.38,0.0,
17.246,91.86973225118638,81.79168144035751,-3.12,-0.98,-0.16,7.0,0.0,0.0,19.0,0.0,1.0,0.0,16.68,11.28,1.08,
17.27,91.84297322511864,81.79016814403576,-3.22,-1.33,0.15,7.0,0.0,0.0,19.0,0.0,1.0,0.0,16.68,11.28,0.29,
17.295,91.84929732251186,81.73601681440357,-2.94,-1.62,-0.07,7.0,0.0,0.0,19.0,0.0,1.0,0.0,16.68,11.18,0.0,
17.319,91.8409297322512,81.77560168144036,-3.11,-1.5,-0.01,7.0,0.0,0.0,19.0,0.0,1.0,0.0,16.68,11.18,4.71,
17.344,91.79509297322512,81.78856016814404,-2.86,-1.38,0.08,7.0,0.0,0.0,19.0,0.0,1.0,0.0,16.58,11.18,1.86,
17.368,91.8175092973225,81.77185601681441,-2.41,-1.26,0.24,7.0,0.0,0.0,19.0,0.0,1.0,0.0,16.48,11.09,3.04,
17.392,91.83775092973225,81.82418560168145,-3.14,-1.58,0.1,7.0,0.0,0.0,19.0,0.0,1.0,0.0,16.38,11.09,9.32,
17.417,91.82177509297321,81.82941856016815,-2.86,-1.74,0.19,7.0,0.0,0.0,19.0,0.0,1.0,0.0,16.28,10.89,7.06,
17.441,91.84717750929731,81.80294185601682,-3.03,-1.49,0.17,7.0,0.0,0.0,19.0,0.0,1.0,0.0,16.28,10.99,3.53,
17.466,91.83171775092973,81.82729418560169,-2.82,-1.6,0.17,7.0,0.0,0.0,19.0,0.0,1.0,0.0,16.28,10.99,4.41,
17.49,91.86617177509298,81.78472941856018,-2.63,-1.62,0.24,7.0,0.0,0.0,18.0,0.0,1.0,0.0,16.19,10.89,0.0,
17.515,91.93261717750929,81.76247294185602,-2.39,-1.47,0.55,7.0,0.0,0.0,19.0,0.0,1.0,0.0,16.09,10.69,0.0,
17.54,91.91226171775092,81.7872472941856,-2.33,-1.31,0.56,7.0,0.0,0.0,18.0,0.0,1.0,0.0,15.89,10.5,0.59,
17.564,91.89222617177509,81.78972472941857,-2.21,-1.4,0.6,7.0,0.0,0.0,17.0,0.0,1.0,0.0,15.7,10.4,0.39,
17.589,91.89922261717751,81.83497247294186,-2.32,-1.37,0.53,7.0,0.0,0.0,18.0,0.0,1.0,0.0,15.5,10.2,5.3,
17.613,91.91792226171776,81.88449724729419,-2.92,-1.44,0.19,7.0,0.0,0.0,17.0,0.0,1.0,0.0,15.4,10.01,0.0,
17.638,91.93779222617177,81.85344972472942,-2.8,-1.47,0.27,7.0,0.0,0.0,17.0,0.0,1.0,0.0,15.21,10.01,0.0,
17.661,91.89477922261719,81.86834497247295,-2.5,-1.31,0.34,7.0,0.0,0.0,17.0,0.0,1.0,0.0,15.21,9.91,0.0,
17.686,91.92647792226172,81.8968344972473,-2.68,-1.34,0.24,7.0,0.0,0.0,17.0,0.0,1.0,0.0,15.11,9.91,0.0,
17.711,91.91164779222616,81.93568344972472,-2.94,-1.92,0.44,7.0,0.0,0.0,17.0,0.0,1.0,0.0,15.01,9.91,0.0,
17.735,91.83816477922262,81.93956834497247,-2.77,-1.53,0.6,7.0,0.0,0.0,17.0,0.0,1.0,0.0,15.01,9.81,0.1,
17.76,91.81281647792227,81.97595683449725,-2.85,-1.37,0.18,7.0,0.0,0.0,17.0,0.0,1.0,0.0,14.91,9.61,0.29,
17.784,91.79228164779224,81.98859568344972,-2.89,-1.37,0.09,7.0,0.0,0.0,17.0,0.0,1.0,0.0,14.91,9.61,0.0,
17.808,91.75422816477922,82.02585956834497,-2.66,-1.8,0.26,7.0,0.0,0.0,17.0,0.0,1.0,0.0,14.81,9.61,3.04,
17.832,91.72342281647792,82.01158595683451,-2.73,-1.51,0.71,7.0,0.0,0.0,16.0,0.0,1.0,0.0,14.81,9.42,1.57,
17.857,91.75634228164779,82.01015859568346,-2.8,-1.6,0.41,7.0,0.0,0.0,16.0,0.0,1.0,0.0,14.72,9.42,3.43,
17.882,91.82263422816479,81.97401585956834,-2.73,-1.65,0.4,7.0,0.0,0.0,17.0,0.0,1.0,0.0,14.62,9.32,0.78,
17.906,91.78426342281648,81.96140158595682,-2.89,-1.28,0.35,7.0,0.0,0.0,16.0,0.0,1.0,0.0,14.52,9.22,0.2,
17.931,91.78942634228164,81.96914015859568,-2.92,-1.29,0.19,7.0,0.0,0.0,16.0,0.0,1.0,0.0,14.52,9.22,0.0,
17.954,91.81694263422816,81.96991401585956,-2.97,-1.67,-0.1,7.0,0.0,0.0,17.0,0.0,1.0,0.0,14.52,9.22,0.0,
17.979,91.8466942634228,81.96099140158594,-2.99,-1.57,0.14,7.0,0.0,0.0,17.0,0.0,1.0,0.0,14.62,9.32,0.1,
18.003,91.75066942634228,81.98709914015859,-3.16,-1.27,-0.02,7.0,0.0,0.0,16.0,0.0,1.0,0.0,14.52,9.42,0.0,
18.028,91.69606694263423,81.92670991401587,-3.14,-1.23,-0.2,7.0,0.0,0.0,17.0,0.0,1.0,0.0,14.52,9.42,0.78,
18.053,91.68160669426344,81.9296709914016,-3.16,-1.27,-0.27,7.0,0.0,0.0,17.0,0.0,1.0,0.0,14.72,9.42,0.98,
18.077,91.69816066942634,81.92996709914017,-3.18,-1.33,-0.09,7.0,0.0,0.0,17.0,0.0,1.0,0.0,14.52,9.42,0.39,
18.102,91.73581606694263,81.93899670991401,-3.02,-1.35,0.19,7.0,0.0,0.0,17.0,0.0,1.0,0.0,14.52,9.32,0.0,
18.126,91.72158160669426,81.93089967099141,-3.03,-1.19,-0.18,7.0,0.0,0.0,17.0,0.0,1.0,0.0,14.52,9.42,0.0,
18.151,91.72015816066943,81.95708996709914,-2.89,-1.3,-0.14,7.0,0.0,0.0,16.0,0.0,1.0,0.0,14.62,9.42,0.59,
18.176,91.70201581606695,81.99570899670991,-3.21,-1.05,-0.14,7.0,0.0,0.0,17.0,0.0,1.0,0.0,14.62,9.52,1.08,
18.199,91.72720158160669,82.01757089967099,-3.1,-1.31,0.05,7.0,0.0,0.0,17.0,0.0,1.0,0.0,14.72,9.42,0.29,
18.224,91.72972015816067,81.9477570899671,-3.1,-1.33,-0.05,7.0,0.0,0.0,17.0,0.0,1.0,0.0,14.72,9.61,0.29,
18.248,91.68497201581607,81.9137757089967,-3.08,-1.15,-0.02,7.0,0.0,0.0,17.0,0.0,1.0,0.0,14.62,9.52,0.59,
18.273,91.7524972015816,81.94637757089967,-3.06,-1.45,-0.14,7.0,0.0,0.0,17.0,0.0,1.0,0.0,14.62,9.52,0.69,
18.297,91.74124972015817,81.94063775708996,-2.91,-1.3,0.06,7.0,0.0,0.0,17.0,0.0,1.0,0.0,14.52,9.52,1.47,
18.322,91.75812497201582,81.94006377570899,-2.89,-1.35,0.13,7.0,0.0,0.0,17.0,0.0,1.0,0.0,14.52,9.52,0.0,
18.347,91.75081249720158,81.92200637757091,-2.99,-1.22,0.16,7.0,0.0,0.0,17.0,0.0,1.0,0.0,14.32,9.52,0.0,
18.371,91.73208124972015,81.9742006377571,-3.08,-1.1,0.47,7.0,0.0,0.0,17.0,0.0,1.0,0.0,14.32,9.42,0.0,
18.395,91.78420812497203,82.02442006377571,-3.21,-1.37,0.18,7.0,0.0,0.0,17.0,0.0,1.0,0.0,14.42,9.42,1.28,
18.419,91.7984208124972,81.95744200637758,-3.03,-1.44,-0.01,7.0,0.0,0.0,16.0,0.0,1.0,0.0,14.42,9.42,0.0,
18.444,91.79084208124972,81.93274420063777,-2.92,-1.31,0.29,7.0,0.0,0.0,17.0,0.0,1.0,0.0,14.42,9.42,0.0,
18.468,91.77208420812497,81.90327442006378,-2.82,-1.27,0.34,7.0,0.0,0.0,16.0,0.0,1.0,0.0,14.32,9.42,1.47,
18.493,91.7702084208125,81.86432744200638,-2.87,-1.44,0.37,7.0,0.0,0.0,17.0,0.0,1.0,0.0,14.42,9.42,1.67,
18.518,91.77902084208125,81.87843274420064,-3.11,-1.65,0.47,7.0,0.0,0.0,17.0,0.0,1.0,0.0,14.42,9.42,2.06,
18.541,91.80690208420813,81.94284327442007,-3.34,-1.45,0.04,7.0,0.0,0.0,17.0,0.0,1.0,0.0,14.42,9.52,0.0,
18.566,91.8456902084208,81.90428432744201,-3.27,-1.21,-0.12,7.0,0.0,0.0,17.0,0.0,1.0,0.0,14.52,9.61,1.28,
18.59,91.80456902084208,81.92742843274421,-3.03,-1.11,-0.16,7.0,0.0,0.0,17.0,0.0,1.0,0.0,14.62,9.71,2.55,
18.615,91.8454569020842,81.95674284327441,-2.77,-0.92,0.12,7.0,0.0,0.0,17.0,0.0,1.0,0.0,14.62,9.81,0.0,
18.639,91.85854569020842,81.95967428432743,-2.89,-1.01,0.03,7.0,0.0,0.0,17.0,0.0,1.0,0.0,14.62,9.81,0.0,
18.664,91.81485456902084,82.00496742843275,-2.77,-1.49,0.22,7.0,0.0,0.0,17.0,0.0,1.0,0.0,14.62,9.81,0.98,
18.689,91.79248545690209,82.02749674284327,-2.76,-0.98,0.11,7.0,0.0,0.0,17.0,0.0,1.0,0.0,14.62,9.81,0.69,
18.712,91.8172485456902,82.03874967428433,-2.69,-1.05,0.23,7.0,0.0,0.0,18.0,0.0,1.0,0.0,14.62,9.81,0.49,
18.737,91.81072485456903,82.03987496742845,-2.93,-0.95,0.25,7.0,0.0,0.0,17.0,0.0,1.0,0.0,14.62,9.91,1.08,
18.761,91.7830724854569,82.05798749674284,-3.03,-0.95,-0.08,7.0,0.0,0.0,18.0,0.0,1.0,0.0,14.81,10.01,0.49,
18.786,91.8073072485457,81.99679874967428,-3.07,-1.02,-0.05,7.0,0.0,0.0,17.0,0.0,1.0,0.0,14.81,10.1,0.88,
18.81,91.79173072485457,81.96367987496743,-2.85,-1.1,0.15,7.0,0.0,0.0,18.0,0.0,1.0,0.0,14.81,10.3,1.18,
18.835,91.78117307248546,81.93336798749675,-2.98,-1.28,0.18,7.0,0.0,0.0,18.0,0.0,1.0,0.0,15.01,10.4,0.0,
18.86,91.78911730724855,81.94833679874968,-2.89,-1.06,0.09,7.0,0.0,0.0,17.0,0.0,1.0,0.0,15.01,10.3,0.2,
18.884,91.80791173072485,81.96783367987496,-3.04,-1.35,0.09,7.0,0.0,0.0,18.0,0.0,1.0,0.0,15.01,10.5,0.0,
18.909,91.78279117307248,81.9787833679875,-3.01,-1.33,-0.02,7.0,0.0,0.0,20.0,0.0,1.0,0.0,15.01,10.5,0.0,
18.933,91.81627911730723,82.00687833679876,-3.04,-1.1,0.02,7.0,0.0,0.0,18.0,0.0,1.0,0.0,15.01,10.59,0.88,
18.958,91.73862791173073,82.01868783367988,-2.98,-1.06,-0.05,7.0,0.0,0.0,18.0,0.0,1.0,0.0,15.01,10.69,0.59,
18.982,91.72186279117307,82.037868783368,-3.05,-1.15,0.16,7.0,0.0,0.0,18.0,0.0,1.0,0.0,15.11,10.69,0.59,
19.007,91.7651862791173,82.0937868783368,-3.21,-1.53,-0.12,7.0,0.0,0.0,18.0,0.0,1.0,0.0,15.21,10.69,0.98,
19.032,91.79651862791174,82.07237868783368,-3.21,-1.6,0.01,7.0,0.0,0.0,18.0,0.0,1.0,0.0,15.3,10.89,0.1,
19.056,91.76365186279118,82.07023786878337,-3.52,-1.54,0.04,7.0,0.0,0.0,18.0,0.0,1.0,0.0,15.4,10.89,1.96,
19.08,91.75136518627912,82.07902378687834,-3.6,-1.73,-0.3,7.0,0.0,0.0,19.0,0.0,1.0,0.0,15.3,10.99,2.06,
19.104,91.75013651862791,82.11590237868784,-3.55,-1.37,-0.32,7.0,0.0,0.0,18.0,0.0,1.0,0.0,15.4,10.99,1.28,
19.129,91.77701365186279,82.07459023786878,-3.58,-0.98,-0.31,7.0,0.0,0.0,19.0,0.0,1.0,0.0,15.5,11.09,2.26,
19.153,91.85170136518629,82.05245902378688,-3.65,-0.91,-0.26,7.0,0.0,0.0,19.0,0.0,1.0,0.0,15.5,11.09,4.02,
19.178,91.86817013651863,82.0412459023787,-3.4,-0.92,-0.32,7.0,0.0,0.0,19.0,0.0,1.0,0.0,15.7,11.18,4.12,
19.203,91.88781701365187,82.05812459023787,-3.43,-0.88,-0.29,7.0,0.0,0.0,19.0,0.0,1.0,0.0,15.7,11.28,0.0,
19.227,91.9167817013652,82.05981245902379,-3.44,-0.98,-0.27,7.0,0.0,0.0,19.0,0.0,1.0,0.0,15.7,11.38,0.0,
19.252,91.90167817013652,82.07798124590238,-3.35,-1.15,-0.11,7.0,0.0,0.0,18.0,0.0,1.0,0.0,15.79,11.38,0.0,
19.277,91.93616781701364,82.08879812459024,-3.06,-1.15,-0.31,7.0,0.0,0.0,19.0,0.0,1.0,0.0,15.99,11.28,3.43,
19.301,91.93061678170137,82.08087981245902,-3.26,-1.19,-0.08,7.0,0.0,0.0,19.0,0.0,1.0,0.0,15.89,11.58,0.0,
19.326,91.85806167817013,82.0530879812459,-3.42,-1.44,-0.17,7.0,0.0,0.0,19.0,0.0,1.0,0.0,15.99,11.58,1.37,
19.351,91.83280616781701,82.0143087981246,-3.14,-1.43,0.05,7.0,0.0,0.0,19.0,0.0,1.0,0.0,15.99,11.48,2.06,
19.375,91.8122806167817,81.98343087981247,-2.94,-1.6,0.2,7.0,0.0,0.0,19.0,0.0,1.0,0.0,16.09,11.48,0.88,
19.399,91.83722806167818,81.92634308798125,-3.15,-1.62,-0.11,7.0,0.0,0.0,19.0,0.0,1.0,0.0,15.99,11.48,0.78,
19.424,91.85772280616783,81.91163430879811,-3.08,-1.68,-0.14,7.0,0.0,0.0,19.0,0.0,1.0,0.0,15.89,11.48,0.49,
19.448,91.85077228061678,81.9101634308798,-3.12,-1.53,-0.13,7.0,0.0,0.0,19.0,0.0,1.0,0.0,15.89,11.38,1.08,
19.473,91.87707722806167,81.88301634308797,-3.05,-1.73,0.16,7.0,0.0,0.0,19.0,0.0,1.0,0.0,15.79,11.28,0.29,
19.497,91.91570772280618,81.89830163430881,-3.18,-1.42,-0.16,7.0,0.0,0.0,19.0,0.0,1.0,0.0,15.79,11.28,1.77,
19.522,91.8565707722806,81.90883016343088,-3.12,-1.8,0.03,7.0,0.0,0.0,19.0,0.0,1.0,0.0,15.79,11.28,2.16,
19.547,91.85065707722805,81.90988301634309,-3.1,-1.56,0.15,7.0,0.0,0.0,19.0,0.0,1.0,0.0,15.7,11.18,0.98,
19.571,91.8860657077228,81.90098830163431,-3.34,-1.76,0.07,7.0,0.0,0.0,19.0,0.0,1.0,0.0,15.7,11.09,0.88,
19.596,91.88060657077227,81.91809883016344,-3.2,-2.15,0.19,7.0,0.0,0.0,19.0,0.0,1.0,0.0,15.7,11.09,1.86,
19.62,91.85306065707722,81.92880988301636,-2.92,-2.02,0.11,7.0,0.0,0.0,19.0,0.0,1.0,0.0,15.7,10.99,0.88,
19.645,91.86830606570773,81.95688098830163,-3.19,-2.07,0.28,7.0,0.0,0.0,20.0,0.0,1.0,0.0,15.6,10.89,0.0,
19.67,91.80683060657077,81.98668809883016,-3.13,-1.59,0.18,7.0,0.0,0.0,19.0,0.0,1.0,0.0,15.6,10.89,3.24,
19.694,91.80968306065708,81.95366880988303,-3.18,-1.13,-0.01,7.0,0.0,0.0,19.0,0.0,1.0,0.0,15.5,10.89,0.0,
19.719,91.8189683060657,81.9143668809883,-2.96,-1.3,0.2,7.0,0.0,0.0,19.0,0.0,1.0,0.0,15.5,10.79,2.35,
19.743,91.85589683060658,81.88343668809883,-2.76,-1.63,0.22,7.0,0.0,0.0,19.0,0.0,1.0,0.0,15.5,10.59,0.88,
19.768,91.85958968306066,81.87134366880989,-2.98,-1.4,0.27,7.0,0.0,0.0,19.0,0.0,1.0,0.0,15.4,10.5,0.0,
19.791,91.81495896830607,81.91513436688099,-2.89,-1.3,0.27,7.0,0.0,0.0,19.0,0.0,1.0,0.0,15.3,10.5,0.29,
19.816,91.8014958968306,81.91051343668809,-2.77,-1.6,0.51,7.0,0.0,0.0,19.0,0.0,1.0,0.0,15.3,10.4,1.47,
19.841,91.80914958968306,81.94605134366881,-2.85,-1.51,0.44,7.0,0.0,0.0,19.0,0.0,1.0,0.0,15.21,10.3,0.0,
19.865,91.82791495896831,81.96760513436688,-3.02,-1.76,0.2,7.0,0.0,0.0,19.0,0.0,1.0,0.0,15.11,10.3,1.77,
19.89,91.80279149589683,81.99676051343668,-3.05,-1.53,0.29,7.0,0.0,0.0,20.0,0.0,1.0,0.0,15.01,10.1,0.98,
19.914,91.73727914958968,82.02667605134367,-3.21,-1.42,0.05,7.0,0.0,0.0,19.0,0.0,1.0,0.0,14.91,10.1,2.84,
19.939,91.69472791495897,82.01166760513438,-3.05,-1.45,0.08,7.0,0.0,0.0,19.0,0.0,1.0,0.0,15.01,10.01,0.98,
19.963,91.6814727914959,81.97416676051343,-3.15,-1.31,0.18,7.0,0.0,0.0,18.0,0.0,1.0,0.0,14.91,9.91,0.78,
19.988,91.65314727914961,81.98841667605134,-3.07,-1.28,0.1,7.0,0.0,0.0,18.0,0.0,1.0,0.0,14.91,9.91,0.0,
20.013,91.67731472791498,82.02584166760514,-3.14,-1.14,0.02,7.0,0.0,0.0,18.0,0.0,1.0,0.0,14.81,9.91,1.96,
20.036,91.6437314727915,82.03858416676053,-3.05,-1.35,0.16,7.0,0.0,0.0,18.0,0.0,1.0,0.0,14.81,9.91,0.88,
20.061,91.64937314727916,81.97685841667605,-3.1,-1.34,0.07,7.0,0.0,0.0,19.0,0.0,1.0,0.0,14.91,9.91,0.78,
20.085,91.65893731472792,82.00668584166762,-3.05,-1.17,-0.11,7.0,0.0,0.0,19.0,0.0,1.0,0.0,14.81,9.91,0.0,
20.11,91.65989373147279,82.00966858416677,-3.22,-1.35,0.0,7.0,0.0,0.0,18.0,0.0,1.0,0.0,14.91,9.81,0.69,
20.134,91.66898937314727,82.01896685841668,-3.31,-1.73,-0.08,7.0,0.0,0.0,18.0,0.0,1.0,0.0,14.91,10.01,0.2,
20.159,91.67889893731474,82.00189668584166,-3.2,-1.66,-0.03,7.0,0.0,0.0,18.0,0.0,1.0,0.0,14.91,10.01,0.59,
20.184,91.66188989373147,82.00918966858417,-3.32,-1.59,-0.01,7.0,0.0,0.0,19.0,0.0,1.0,0.0,15.01,10.01,0.0,
20.208,91.66018898937314,82.0009189668584,-3.39,-1.26,-0.51,7.0,0.0,0.0,19.0,0.0,1.0,0.0,15.01,10.1,1.18,
20.233,91.65101889893732,81.97309189668583,-3.36,-1.15,-0.47,7.0,0.0,0.0,19.0,0.0,1.0,0.0,15.01,10.2,1.37,
20.257,91.66810188989373,81.99730918966858,-3.14,-1.03,-0.21,7.0,0.0,0.0,20.0,0.0,1.0,0.0,15.21,10.2,1.67,
20.282,91.64281018898937,82.00873091896688,-3.08,-1.17,-0.14,7.0,0.0,0.0,19.0,0.0,1.0,0.0,15.11,10.3,0.1,
20.306,91.64028101889893,82.0098730918967,-3.14,-1.12,-0.03,7.0,0.0,0.0,19.0,0.0,1.0,0.0,15.21,10.3,0.0,
20.331,91.6580281018899,82.01898730918967,-3.31,-1.08,-0.2,7.0,0.0,0.0,19.0,0.0,1.0,0.0,15.11,10.4,0.1,
20.356,91.64180281018899,82.03789873091898,-3.18,-1.24,0.09,7.0,0.0,0.0,19.0,0.0,1.0,0.0,15.3,10.4,0.0,
20.38,91.6401802810189,82.06678987309189,-3.18,-1.11,-0.24,7.0,0.0,0.0,19.0,0.0,1.0,0.0,15.4,10.5,0.98,
20.405,91.65801802810189,82.0156789873092,-3.38,-1.21,-0.31,7.0,0.0,0.0,19.0,0.0,1.0,0.0,15.5,10.5,0.49,
20.429,91.68680180281018,82.04656789873091,-3.56,-1.04,-0.4,7.0,0.0,0.0,20.0,0.0,1.0,0.0,15.5,10.69,0.69,
20.454,91.70768018028102,82.04965678987308,-3.61,-1.21,-0.19,7.0,0.0,0.0,19.0,0.0,1.0,0.0,15.7,10.89,0.39,
20.478,91.7637680180281,82.09496567898731,-3.6,-1.16,-0.11,7.0,0.0,0.0,20.0,0.0,1.0,0.0,15.79,11.09,0.0,
20.503,91.80537680180281,82.11749656789873,-3.89,-1.05,-0.53,7.0,0.0,0.0,20.0,0.0,1.0,0.0,15.89,11.09,0.69,
20.528,91.80053768018028,82.14674965678988,-3.49,-1.21,-0.52,7.0,0.0,0.0,20.0,0.0,1.0,0.0,15.99,11.18,0.0,
20.552,91.80005376801803,82.06867496567898,-3.27,-1.01,-0.38,7.0,0.0,0.0,20.0,0.0,1.0,0.0,16.09,11.28,0.0,
20.577,91.7820053768018,82.1058674965679,-3.34,-0.85,-0.06,7.0,0.0,0.0,20.0,0.0,1.0,0.0,16.28,11.38,0.0,
20.601,91.78020053768019,82.05558674965678,-3.45,-1.02,-0.17,7.0,0.0,0.0,20.0,0.0,1.0,0.0,16.38,11.67,0.0,
20.626,91.73502005376801,81.99655867496567,-3.32,-1.19,0.01,7.0,0.0,0.0,20.0,0.0,1.0,0.0,16.58,11.77,0.0,
20.651,91.76650200537681,81.98165586749657,-3.17,-1.27,-0.02,7.0,0.0,0.0,20.0,0.0,1.0,0.0,16.58,11.77,0.0,
20.675,91.81465020053767,81.96216558674965,-3.12,-1.63,0.03,7.0,0.0,0.0,20.0,0.0,1.0,0.0,16.58,11.77,0.0,
20.7,91.81946502005376,81.89721655867497,-3.14,-1.43,-0.05,7.0,0.0,0.0,20.0,0.0,1.0,0.0,16.68,11.87,0.0,
20.724,91.84694650200537,81.91772165586751,-3.21,-1.45,0.03,7.0,0.0,0.0,20.0,0.0,1.0,0.0,16.68,11.87,0.1,
20.748,91.82269465020053,81.90177216558676,-3.47,-1.3,-0.32,7.0,0.0,0.0,21.0,0.0,1.0,0.0,16.68,11.87,0.0,
20.772,91.82026946502005,81.88217721655867,-3.57,-1.25,0.01,7.0,0.0,0.0,21.0,0.0,1.0,0.0,16.87,12.07,0.0,
20.797,91.78402694650201,81.91621772165587,-3.38,-1.41,0.06,7.0,0.0,0.0,21.0,0.0,1.0,0.0,16.87,12.16,0.0,
20.822,91.80740269465021,81.93762177216558,-3.17,-1.33,-0.01,7.0,0.0,0.0,21.0,0.0,1.0,0.0,16.97,12.07,0.0,
20.846,91.80974026946502,81.95776217721655,-3.2,-1.3,-0.08,7.0,0.0,0.0,21.0,0.0,1.0,0.0,16.97,11.97,1.86,
20.871,91.8279740269465,81.91477621772165,-3.22,-1.21,-0.23,8.0,0.0,0.0,21.0,0.0,1.0,0.0,16.97,12.07,0.1,
20.895,91.84779740269464,81.88347762177216,-3.28,-1.41,0.02,8.0,0.0,0.0,20.0,0.0,1.0,0.0,16.97,12.07,0.2,
20.92,91.82277974026945,81.85334776217721,-3.05,-1.76,0.24,7.0,0.0,0.0,21.0,0.0,1.0,0.0,16.97,11.97,0.59,
20.944,91.77527797402695,81.87733477621771,-3.11,-1.77,-0.04,8.0,0.0,0.0,21.0,0.0,1.0,0.0,16.97,11.97,0.69,
20.969,91.7795277974027,81.88873347762177,-3.03,-1.57,0.04,8.0,0.0,0.0,21.0,0.0,1.0,0.0,16.87,11.97,0.1,
20.994,91.78895277974027,81.88987334776218,-3.15,-1.76,0.11,8.0,0.0,0.0,21.0,0.0,1.0,0.0,16.87,11.87,0.1,
21.018,91.78089527797403,81.89898733477622,-3.2,-1.5,-0.04,8.0,0.0,0.0,21.0,0.0,1.0,0.0,16.87,11.77,0.78,
21.043,91.81608952779739,81.87289873347763,-3.1,-1.56,0.18,8.0,0.0,0.0,21.0,0.0,1.0,0.0,16.78,11.67,0.49,
21.067,91.79260895277974,81.88828987334777,-3.08,-1.66,-0.11,8.0,0.0,0.0,21.0,0.0,1.0,0.0,16.68,11.58,0.78,
21.092,91.79926089527798,81.90782898733477,-3.0,-1.47,-0.15,8.0,0.0,0.0,21.0,0.0,1.0,0.0,16.68,11.58,0.59,
21.116,91.7999260895278,81.93678289873347,-3.04,-1.18,0.01,8.0,0.0,0.0,21.0,0.0,1.0,0.0,16.68,11.48,0.78,
21.141,91.79099260895278,81.96667828987334,-3.16,-1.31,-0.05,8.0,0.0,0.0,21.0,0.0,1.0,0.0,16.58,11.48,1.18,
21.166,91.80809926089528,81.96966782898733,-3.02,-1.38,-0.24,8.0,0.0,0.0,21.0,0.0,1.0,0.0,16.68,11.48,0.59,
21.19,91.84580992608952,81.92496678289874,-3.05,-1.43,0.02,8.0,0.0,0.0,21.0,0.0,1.0,0.0,16.68,11.48,0.0,
21.215,91.84058099260895,81.91149667828986,-3.23,-1.7,0.09,8.0,0.0,0.0,20.0,0.0,1.0,0.0,16.58,11.48,0.88,
21.239,91.8040580992609,81.89214966782899,-3.23,-1.54,-0.13,7.0,0.0,0.0,21.0,0.0,1.0,0.0,16.58,11.48,0.69,
21.264,91.74640580992609,81.85421496678289,-3.05,-1.52,0.22,8.0,0.0,0.0,21.0,0.0,1.0,0.0,16.58,11.48,0.0,
21.288,91.7406405809926,81.87742149667828,-3.28,-1.16,-0.03,8.0,0.0,0.0,21.0,0.0,1.0,0.0,16.58,11.48,0.0,
21.313,91.73106405809926,81.85274214966782,-3.21,-1.4,-0.26,8.0,0.0,0.0,21.0,0.0,1.0,0.0,16.58,11.58,0.0,
21.338,91.75710640580994,81.85927421496679,-2.98,-1.2,0.0,8.0,0.0,0.0,21.0,0.0,1.0,0.0,16.68,11.58,0.29,
21.362,91.76871064058099,81.85992742149668,-2.92,-1.2,0.01,8.0,0.0,0.0,21.0,0.0,1.0,0.0,16.48,11.58,0.88,
21.386,91.77887106405811,81.90499274214966,-2.89,-1.31,0.08,8.0,0.0,0.0,21.0,0.0,1.0,0.0,16.48,11.38,2.35,
21.41,91.76188710640581,81.88249927421495,-3.09,-1.26,0.11,8.0,0.0,0.0,20.0,0.0,1.0,0.0,16.48,11.38,0.69,
21.435,91.72418871064058,81.8712499274215,-3.02,-1.4,0.07,8.0,0.0,0.0,21.0,0.0,1.0,0.0,16.48,11.28,0.29,
21.459,91.72041887106406,81.90612499274215,-3.08,-1.5,0.21,8.0,0.0,0.0,21.0,0.0,1.0,0.0,16.38,11.38,0.59,
21.484,91.7110418871064,81.8826124992742,-3.08,-1.5,0.16,8.0,0.0,0.0,21.0,0.0,1.0,0.0,16.38,11.28,1.37,
21.509,91.76410418871065,81.89826124992743,-3.07,-1.66,0.11,8.0,0.0,0.0,21.0,0.0,1.0,0.0,16.38,11.18,1.77,
21.533,91.72441041887106,81.93582612499273,-3.07,-1.76,0.11,8.0,0.0,0.0,21.0,0.0,1.0,0.0,16.28,11.18,1.18,
21.558,91.6214410418871,81.89458261249928,-3.02,-1.54,-0.03,8.0,0.0,0.0,21.0,0.0,1.0,0.0,16.28,11.18,0.59,
21.582,91.61114410418871,81.90845826124992,-2.93,-1.47,0.06,8.0,0.0,0.0,20.0,0.0,1.0,0.0,16.19,11.09,0.39,
21.607,91.63711441041886,81.918845826125,-3.07,-1.22,0.08,8.0,0.0,0.0,21.0,0.0,1.0,0.0,16.19,10.99,1.77,
