time,pitch,roll,gyrx,gyry,gyrz,f1,f2,f3,f4,f5,f6,f7,g1,g2,g3
0.352,62.39,11.46,0.0,0.0,-1.0,0,0,0,1,0,0,0,0.00,0.00,0.00,
0.365,71.012,13.376999999999999,0.0,0.0,-2.0,0,0,0,1,0,0,0,0.00,0.00,0.00,
0.378,79.5692,14.9817,0.0,0.0,-1.0,0,0,0,1,0,0,0,0.00,0.00,0.00,
0.392,87.03092,16.27617,-2.0,1.0,0.0,0,0,0,1,0,0,0,0.00,0.00,0.00,
0.405,93.150092,17.440617,-4.0,1.0,0.0,0,0,0,1,0,0,0,0.00,0.00,0.00,
0.418,98.73000919999998,18.3670617,-5.0,0.0,0.0,0,0,0,1,0,0,0,0.00,0.00,0.00,
0.432,103.27500092,19.36870617,-4.0,0.0,0.0,0,0,0,1,0,0,0,0.10,0.00,0.10,
0.445,106.852500092,20.332870617,-3.0,-2.0,-1.0,0,0,0,1,0,0,0,0.00,0.00,0.00,
0.459,109.91025000920001,21.104287061700003,-1.0,-1.0,-1.0,0,0,0,1,0,0,0,0.00,0.00,0.00,
0.473,112.76302500092001,21.631428706170002,-1.0,0.0,-1.0,0,0,0,1,0,0,0,0.00,0.00,0.00,
0.486,115.307302500092,22.062142870617002,-2.0,0.0,0.0,0,0,0,1,0,0,0,0.00,0.00,0.00,
0.499,117.4427302500092,22.3122142870617,-3.0,0.0,0.0,0,0,0,1,0,0,0,0.00,0.10,0.00,
0.513,119.13227302500091,22.49922142870617,-3.0,0.0,0.0,0,0,0,1,0,0,0,0.00,0.10,0.00,
0.527,120.6242273025001,22.688922142870616,-4.0,-1.0,0.0,0,0,0,1,0,0,0,0.20,0.10,0.00,
0.54,121.86242273025,22.96889221428706,-4.0,0.0,-1.0,0,0,0,1,0,0,0,0.00,0.00,0.00,
0.553,123.075242273025,23.140889221428708,-3.0,0.0,-1.0,0,0,0,1,0,0,0,0.00,0.00,0.00,
0.567,124.0965242273025,23.194088922142868,-3.0,0.0,-1.0,0,0,0,1,0,0,0,0.00,0.00,0.00,
0.58,124.68465242273025,23.37040889221429,-3.0,0.0,-1.0,0,0,0,1,0,0,0,0.00,0.10,0.00,
0.594,125.34646524227303,23.46004088922143,-3.0,-1.0,0.0,0,0,0,1,0,0,0,0.00,0.10,0.00,
0.608,125.97964652422729,23.460004088922144,-2.0,0.0,0.0,0,0,0,1,0,0,0,0.00,0.00,0.00,
0.621,126.39396465242274,23.451000408892213,-2.0,0.0,-1.0,0,0,0,1,0,0,0,0.00,0.00,0.00,
0.634,126.82239646524228,23.45010004088922,-3.0,-1.0,-1.0,0,0,0,1,0,0,0,0.00,0.00,0.00,
0.649,127.46823964652422,23.459010004088924,-3.0,-1.0,-1.0,0,0,0,1,0,0,0,0.00,0.10,0.00,
0.662,127.99182396465244,23.567901000408888,-3.0,0.0,-1.0,0,0,0,1,0,0,0,0.00,0.10,0.00,
0.675,128.17918239646525,23.866790100040888,-2.0,0.0,-2.0,0,0,0,1,0,0,0,0.10,0.00,0.00,
0.689,128.0809182396465,24.130679010004087,-1.0,0.0,-2.0,0,0,0,1,0,0,0,0.10,0.00,0.00,
0.702,128.02609182396466,24.19306790100041,0.0,0.0,-1.0,0,0,0,1,0,0,0,0.00,0.00,0.00,
0.716,127.92160918239647,24.21730679010004,0.0,1.0,-1.0,0,0,0,1,0,0,0,0.10,0.00,0.00,
0.73,127.83916091823964,24.246730679010003,0.0,0.0,0.0,0,0,0,1,0,0,0,0.00,0.00,0.00,
0.743,127.83091609182395,24.267673067901,-1.0,-1.0,-1.0,0,0,0,1,0,0,0,0.00,0.00,0.00,
0.756,128.2620916091824,24.1707673067901,-2.0,-2.0,-1.0,0,0,0,1,0,0,0,0.10,0.00,0.00,
0.77,128.54820916091825,24.07107673067901,-2.0,-1.0,-2.0,0,0,0,1,0,0,0,0.10,0.00,0.00,
0.784,128.45082091609183,24.214107673067904,-2.0,0.0,-3.0,0,0,0,1,0,0,0,0.00,0.00,0.10,
0.797,128.55808209160918,24.16541076730679,-3.0,0.0,-3.0,0,0,0,1,0,0,0,0.00,0.10,0.00,
0.811,129.19880820916094,23.971541076730677,-4.0,-1.0,-3.0,0,0,0,1,0,0,0,0.10,0.10,0.00,
0.824,129.55988082091608,23.907154107673065,-4.0,0.0,-4.0,0,0,0,1,0,0,0,0.00,0.10,0.00,
0.838,129.4969880820916,23.954715410767307,-2.0,0.0,-4.0,0,0,0,1,0,0,0,0.00,0.10,0.00,
0.851,129.13069880820916,24.121471541076733,0.0,0.0,-3.0,0,0,0,1,0,0,0,0.00,0.00,0.00,
0.865,129.45406988082092,24.075147154107672,0.0,0.0,-1.0,0,0,0,1,0,0,0,0.00,0.00,0.00,
0.878,129.83740698808208,23.917514715410764,-1.0,0.0,0.0,0,0,0,1,0,0,0,0.10,0.00,0.00,
0.891,129.9657406988082,23.847751471541073,-2.0,-1.0,0.0,0,0,0,1,0,0,0,0.10,0.00,0.00,
0.905,130.04157406988082,23.76877514715411,-2.0,0.0,0.0,0,0,0,1,0,0,0,0.10,0.10,0.00,
0.919,129.89615740698807,23.841877514715414,-2.0,0.0,-1.0,0,0,0,1,0,0,0,0.10,0.10,0.00,
0.932,130.0616157406988,23.73218775147154,-1.0,-1.0,-1.0,0,0,0,1,0,0,0,0.00,0.10,0.00,
0.946,130.08716157406988,23.712218775147157,-2.0,0.0,-1.0,0,0,0,1,0,0,0,0.00,0.10,0.00,
0.959,129.999716157407,23.638221877514717,-4.0,1.0,-1.0,0,0,0,1,0,0,0,0.00,0.00,0.00,
0.973,129.7749716157407,23.55882218775147,-6.0,0.0,0.0,0,0,0,1,0,0,0,0.10,0.00,0.00,
0.987,129.49149716157407,23.61388221877515,-6.0,0.0,0.0,0,0,0,1,0,0,0,0.10,0.10,0.00,
1.0,130.0391497161574,23.475388221877516,-6.0,-1.0,0.0,0,0,0,1,0,0,0,0.10,0.00,0.00,
1.013,130.46291497161573,23.46153882218775,-6.0,-2.0,-1.0,0,0,0,1,0,0,0,0.10,0.00,0.00,
1.027,130.69429149716157,23.568153882218773,-5.0,-3.0,-3.0,0,0,0,1,0,0,0,0.00,0.00,0.00,
1.041,130.74442914971615,23.69581538822188,-4.0,-2.0,-4.0,0,0,0,1,0,0,0,0.10,0.00,0.00,
1.054,130.5334429149716,23.93358153882219,-2.0,1.0,-2.0,0,0,0,1,0,0,0,0.10,0.00,0.00,
1.068,130.16134429149716,24.110358153882217,-1.0,2.0,-1.0,0,0,0,1,0,0,0,0.00,0.00,0.00,
1.082,130.0521344291497,24.110035815388223,-1.0,1.0,0.0,0,0,0,1,0,0,0,0.00,0.00,0.00,
1.095,130.18521344291497,24.06500358153882,-1.0,1.0,0.0,0,0,0,1,0,0,0,0.00,0.10,0.00,
1.108,130.2075213442915,24.05150035815388,0.0,0.0,0.0,0,0,0,1,0,0,0,0.00,0.00,0.00,
1.122,130.24575213442915,24.05915003581539,0.0,-1.0,0.0,0,0,0,1,0,0,0,0.10,0.10,0.00,
1.135,130.01557521344293,24.09591500358154,-1.0,0.0,0.0,0,0,0,1,0,0,0,0.10,0.00,0.00,
1.148,129.73155752134429,24.189591500358155,-1.0,0.0,-1.0,0,0,0,1,0,0,0,0.10,0.00,0.00,
1.162,129.72115575213442,24.081959150035814,-2.0,0.0,-1.0,0,0,0,1,0,0,0,0.00,0.10,0.00,
1.176,129.73811557521344,24.008195915003583,-2.0,0.0,-2.0,0,0,0,1,0,0,0,0.10,0.10,0.00,
1.189,129.48781155752135,24.036819591500358,-2.0,-1.0,-2.0,0,0,0,1,0,0,0,0.00,0.10,0.00,
1.203,129.26478115575216,24.012681959150036,-2.0,-2.0,-2.0,0,0,0,1,0,0,0,0.10,0.10,0.00,
1.216,129.01747811557522,24.046268195915005,-1.0,0.0,-1.0,0,0,0,1,0,0,0,0.10,0.20,0.00,
1.23,129.0647478115575,24.0586268195915,-1.0,-1.0,0.0,0,0,0,1,0,0,0,0.00,0.10,0.00,
1.244,128.98847478115573,24.11386268195915,-1.0,0.0,0.0,0,0,0,1,0,0,0,0.00,0.10,0.00,
1.257,129.07084747811558,24.101386268195917,-1.0,-1.0,-1.0,0,0,0,1,0,0,0,0.00,0.00,0.00,
1.27,129.08808474781156,24.217138626819594,-1.0,-1.0,-1.0,0,0,0,1,0,0,0,0.00,0.00,0.00,
1.285,129.22480847478118,24.22871386268196,0.0,0.0,-1.0,0,0,0,1,0,0,0,0.10,0.10,0.00,
1.298,129.09448084747814,24.319871386268193,0.0,0.0,-1.0,0,0,0,1,0,0,0,0.10,0.10,0.00,
1.311,128.95544808474781,24.37398713862682,1.0,0.0,-2.0,0,0,0,1,0,0,0,0.00,0.00,0.00,
1.325,129.2655448084748,24.23539871386268,0.0,-1.0,-3.0,0,0,0,1,0,0,0,0.10,0.10,0.00,
1.338,129.6745544808475,24.068539871386267,-2.0,0.0,-4.0,0,0,0,1,0,0,0,0.20,0.10,0.00,
1.351,129.54445544808473,24.078853987138626,-2.0,0.0,-4.0,0,0,0,1,0,0,0,0.10,0.10,0.00,
1.366,129.42344554480846,24.097885398713863,-2.0,-1.0,-4.0,0,0,0,1,0,0,0,0.10,0.10,0.00,
1.379,129.24934455448084,24.144788539871385,-1.0,0.0,-2.0,0,0,0,1,0,0,0,0.10,0.10,0.00,
1.392,129.51093445544808,24.04147885398714,-1.0,0.0,-1.0,0,0,0,1,0,0,0,0.20,0.20,0.00,
1.405,129.7170934455448,23.977147885398715,-1.0,-1.0,-1.0,0,0,0,2,0,0,0,0.10,0.10,0.00,
1.42,129.99870934455447,23.961714788539872,-2.0,-2.0,-1.0,0,0,0,2,0,0,0,0.10,0.10,0.00,
1.433,130.04487093445545,23.951171478853986,-2.0,-1.0,-1.0,0,0,0,2,0,0,0,0.00,0.10,0.00,
1.446,130.07648709344556,23.905117147885395,-1.0,0.0,-2.0,0,0,0,2,0,0,0,0.00,0.10,0.00,
1.461,130.09764870934455,23.90951171478854,-1.0,0.0,-2.0,0,0,0,2,0,0,0,0.10,0.10,0.00,
1.474,130.49576487093444,23.783951171478854,-1.0,0.0,-2.0,0,0,0,2,0,0,0,0.10,0.10,0.00,
1.487,130.73357648709344,23.780395117147886,-2.0,0.0,-3.0,0,0,0,2,0,0,0,0.10,0.10,0.00,
1.501,131.00035764870935,23.74403951171479,-3.0,0.0,-2.0,0,0,0,2,0,0,0,0.10,0.10,0.00,
1.514,130.97303576487093,23.794403951171482,-2.0,0.0,-1.0,0,0,0,2,0,0,0,0.00,0.10,0.00,
1.528,130.92530357648707,23.84444039511715,-1.0,0.0,0.0,0,0,0,2,0,0,0,0.10,0.10,0.00,
1.542,131.04653035764872,23.786444039511714,0.0,0.0,0.0,0,0,0,2,0,0,0,0.00,0.10,0.00,
1.555,131.04065303576488,23.789644403951172,0.0,0.0,-1.0,0,0,0,2,0,0,0,0.00,0.10,0.00,
1.568,130.95906530357647,23.825964440395115,0.0,0.0,-1.0,0,0,0,2,0,0,0,0.00,0.20,0.00,
1.582,130.71690653035765,23.928596444039513,-1.0,0.0,-1.0,0,0,0,2,0,0,0,0.10,0.20,0.00,
1.595,130.74669065303576,23.938859644403955,-2.0,2.0,-1.0,0,0,0,2,0,0,0,0.00,0.10,0.00,
1.609,130.43466906530358,24.083885964440398,-2.0,1.0,-1.0,0,0,0,2,0,0,0,0.00,0.10,0.00,
1.623,130.26846690653036,24.251388596444038,-1.0,0.0,-1.0,0,0,0,2,0,0,0,0.10,0.00,0.00,
1.636,130.35984669065306,24.3041388596444,0.0,0.0,-2.0,0,0,0,2,0,0,0,0.20,0.00,0.00,
1.649,130.2339846690653,24.408413885964443,0.0,0.0,-3.0,0,0,0,2,0,0,0,0.10,0.10,0.00,
1.662,130.06839846690656,24.562841388596443,0.0,0.0,-4.0,0,0,0,2,0,0,0,0.10,0.20,0.00,
1.676,130.07883984669067,24.578284138859644,0.0,0.0,-4.0,0,0,0,2,0,0,0,0.10,0.20,0.00,
1.689,130.05288398466908,24.606828413885964,0.0,0.0,-5.0,0,0,0,2,0,0,0,0.00,0.10,0.00,
1.703,129.9152883984669,24.681682841388596,1.0,1.0,-5.0,0,0,0,2,0,0,0,0.00,0.10,0.00,
1.717,129.7935288398467,24.69816828413886,1.0,2.0,-4.0,0,0,0,2,0,0,0,0.00,0.10,0.00,
1.73,129.70935288398465,24.717816828413888,0.0,1.0,-4.0,0,0,0,2,0,0,0,0.00,0.20,0.00,
1.743,129.75493528839846,24.79178168284139,0.0,0.0,-4.0,0,0,0,2,0,0,0,0.10,0.20,0.00,
1.757,130.02949352883985,24.88017816828414,0.0,0.0,-5.0,0,0,0,2,0,0,0,0.20,0.20,0.00,
1.77,130.245949352884,24.943017816828412,0.0,-2.0,-6.0,0,0,0,2,0,0,0,0.10,0.20,0.00,
1.783,130.49259493528842,25.07530178168284,0.0,1.0,-7.0,0,0,0,2,0,0,0,0.00,0.20,0.00,
1.798,130.58925949352883,25.277530178168284,0.0,0.0,-9.0,0,0,0,2,0,0,0,0.00,0.29,0.00,
1.811,130.6709259493529,25.495753017816828,3.0,0.0,-12.0,0,0,0,2,0,0,0,0.10,0.20,0.00,
1.824,131.02109259493528,25.55357530178168,5.0,1.0,-14.0,0,0,0,2,0,0,0,0.00,0.20,0.00,
1.838,131.63210925949352,25.541357530178168,4.0,3.0,-13.0,0,0,0,2,0,0,0,0.00,0.29,0.00,
1.851,131.99021092594936,25.64813575301782,1.0,3.0,-11.0,0,0,0,2,0,0,0,0.00,0.29,0.00,
1.865,132.84502109259495,25.91981357530178,1.0,3.0,-10.0,0,0,0,2,0,0,0,0.00,0.20,0.00,
1.879,133.5155021092595,26.351981357530175,5.0,0.0,-11.0,0,0,0,2,0,0,0,0.00,0.10,0.00,
1.892,133.45655021092594,27.13319813575302,12.0,-5.0,-12.0,0,0,0,2,0,0,0,0.00,0.10,0.00,
1.905,133.41465502109259,27.8503198135753,21.0,-5.0,-16.0,0,0,0,2,0,0,0,0.00,0.10,0.00,
1.92,133.48246550210925,28.56103198135753,28.0,-1.0,-17.0,0,0,0,2,0,0,0,0.00,0.10,0.00,
1.933,133.76824655021093,29.09110319813575,30.0,3.0,-20.0,0,0,0,2,0,0,0,0.00,0.10,0.00,
1.947,134.57982465502107,29.612110319813578,28.0,4.0,-23.0,0,0,0,2,0,0,0,0.00,0.10,0.00,
1.96,135.6329824655021,30.29421103198136,26.0,6.0,-27.0,0,0,0,2,0,0,0,0.00,0.00,0.00,
1.974,135.83729824655023,31.379421103198137,27.0,5.0,-29.0,0,0,0,2,0,0,0,0.00,0.29,0.00,
1.987,135.596729824655,32.621942110319814,35.0,4.0,-34.0,0,0,0,2,0,0,0,0.00,0.29,0.00,
2.001,135.1946729824655,33.74519421103198,47.0,7.0,-38.0,0,0,0,2,0,0,0,0.00,0.29,0.00,
2.015,134.19146729824655,35.1445194211032,53.0,13.0,-39.0,0,0,0,2,0,0,0,0.00,0.20,0.00,
2.028,133.71314672982464,35.96845194211032,54.0,17.0,-38.0,0,0,0,2,0,0,0,0.00,0.29,0.00,
2.042,133.46731467298247,36.446845194211036,52.0,17.0,-38.0,0,0,0,2,0,0,0,0.00,0.39,0.00,
2.056,133.55973146729823,36.7646845194211,50.0,17.0,-39.0,0,0,0,2,0,0,0,0.00,0.49,0.00,
2.07,133.12797314672983,37.3364684519421,49.0,18.0,-41.0,0,0,0,2,0,0,0,0.00,0.59,0.00,
2.083,132.922797314673,37.942646845194204,47.0,10.0,-42.0,0,0,0,2,0,0,0,0.00,0.69,0.00,
2.097,133.0642797314673,38.48926468451942,47.0,10.0,-41.0,0,0,0,2,0,0,0,0.00,0.78,0.00,
2.111,132.69142797314674,39.49792646845194,45.0,6.0,-39.0,0,0,0,2,0,0,0,0.00,0.78,0.00,
2.124,132.05114279731467,40.435792646845194,45.0,0.0,-35.0,0,0,0,2,0,0,0,0.00,0.88,0.00,
2.138,132.37411427973146,40.98857926468452,46.0,-1.0,-30.0,0,0,0,2,0,0,0,0.00,0.88,0.00,
2.152,131.57841142797315,42.23185792646845,45.0,-4.0,-28.0,0,0,0,2,0,0,0,0.00,0.88,0.00,
2.165,130.9588411427973,43.86818579264684,54.0,-16.0,-18.0,0,0,0,2,0,0,0,0.00,0.88,0.00,
2.18,129.78088411427973,44.95881857926469,51.0,-17.0,-31.0,0,0,0,2,0,0,0,0.00,0.69,0.00,
2.193,129.14108841142797,47.18288185792647,69.0,-21.0,-27.0,0,0,0,1,0,0,0,0.00,0.69,0.10,
2.206,124.8111088411428,50.645288185792644,83.0,-19.0,-17.0,0,0,0,1,0,0,0,0.00,0.69,0.10,
2.221,121.95711088411427,53.35852881857926,91.0,-29.0,-13.0,0,0,0,1,0,0,0,0.00,1.18,0.29,
2.234,122.50871108841143,54.16985288185792,99.0,-9.0,-6.0,0,0,0,1,0,0,0,0.00,1.77,0.39,
2.248,122.96887110884114,53.9089852881858,100.0,11.0,-18.0,0,0,0,1,0,0,0,0.00,2.06,0.49,
2.262,122.42088711088411,54.14389852881858,93.0,-4.0,-40.0,0,0,0,1,0,0,0,0.00,2.16,0.59,
2.276,121.77208871108841,54.770389852881856,85.0,-7.0,-35.0,0,0,0,1,0,0,0,0.00,2.06,0.69,
2.289,121.95020887110883,55.38203898528818,72.0,-7.0,-31.0,0,0,0,1,0,0,0,0.00,2.16,0.78,
2.304,122.74202088711088,55.01120389852882,60.0,-8.0,-31.0,0,0,0,1,0,0,0,0.10,2.16,0.69,
2.317,124.0722020887111,54.029120389852885,47.0,-18.0,-36.0,0,0,0,1,0,0,0,0.00,1.86,0.59,
2.331,125.88822020887112,52.96791203898529,31.0,-26.0,-42.0,0,0,0,1,0,0,0,0.00,1.67,0.59,
2.344,126.23182202088711,53.779791203898526,26.0,-27.0,-42.0,0,0,0,1,0,0,0,0.00,1.47,0.59,
2.359,124.71818220208871,55.72397912038985,26.0,-29.0,-37.0,0,0,0,1,0,0,0,0.00,1.57,0.49,
2.373,124.17081822020887,58.64539791203899,30.0,-21.0,-26.0,0,0,0,1,0,0,0,0.00,1.67,0.59,
2.386,123.01808182202089,61.6195397912039,30.0,-12.0,-29.0,0,0,0,1,0,0,0,0.00,1.67,0.49,
2.401,122.99280818220208,65.84095397912039,37.0,-16.0,-26.0,0,0,0,1,0,0,0,0.00,1.57,0.49,
2.414,122.78328081822022,67.54109539791204,50.0,28.0,-43.0,0,0,0,1,0,0,0,0.00,1.47,0.59,
2.428,122.34832808182202,66.60410953979121,55.0,15.0,-59.0,1,0,0,1,0,0,0,0.00,2.55,0.49,
2.442,125.56283280818221,62.26241095397912,52.0,17.0,-61.0,1,0,0,1,0,0,0,0.00,2.75,0.39,
2.456,126.33428328081823,61.57624109539791,36.0,9.0,-69.0,1,0,0,1,0,0,0,0.29,2.94,0.49,
2.469,125.15142832808182,63.24462410953979,14.0,26.0,-46.0,1,0,0,1,0,0,0,0.29,3.24,0.39,
2.484,124.73614283280818,60.85546241095398,24.0,-15.0,-35.0,1,0,0,1,1,0,0,0.29,4.41,0.20,
2.497,126.6656142832808,62.87554624109539,11.0,-42.0,-39.0,0,0,0,1,0,0,0,0.49,4.81,0.10,
2.511,144.10256142832807,80.69955462410954,-28.0,61.0,35.0,0,0,0,1,1,0,0,0.78,4.61,0.20,
2.526,136.4952561428328,88.08895546241095,47.0,5.0,-41.0,0,0,0,1,0,0,0,0.69,2.26,0.20,
2.539,132.0715256142833,89.54789554624108,75.0,100.0,-9.0,0,0,0,1,0,0,0,0.39,2.55,0.20,
2.553,128.87515256142834,85.33778955462412,95.0,-21.0,-39.0,0,0,0,2,0,0,0,0.00,6.87,0.39,
2.567,123.47051525614285,82.6577789554624,118.0,-3.0,-51.0,0,0,0,1,0,0,0,0.00,9.61,0.20,
2.581,122.32705152561428,80.26577789554624,108.0,6.0,-36.0,0,0,0,1,0,0,0,0.00,12.46,0.10,
2.594,121.76270515256142,77.99257778955462,101.0,13.0,-39.0,0,0,0,1,0,0,0,0.00,17.85,0.00,
2.609,123.37127051525613,72.08625777895547,66.0,18.0,-26.0,0,0,0,2,1,0,0,0.00,20.31,0.00,
2.623,129.80512705152563,62.45062577789555,-15.0,-20.0,-25.0,1,0,0,3,1,0,0,0.00,22.27,0.29,
2.636,127.92851270515257,60.056062577789554,5.0,-45.0,59.0,0,0,0,2,1,0,0,0.00,24.13,0.88,
2.651,126.18385127051525,60.842606257778954,33.0,-22.0,9.0,0,0,0,2,1,0,0,0.00,26.68,0.69,
2.664,126.57638512705154,66.96026062577789,42.0,14.0,30.0,0,0,0,2,0,0,0,0.00,24.03,0.20,
2.678,125.94963851270515,70.60502606257779,21.0,-7.0,16.0,0,0,0,2,0,0,0,0.00,20.31,0.20,
2.692,124.6719638512705,73.3185026062578,19.0,-1.0,17.0,0,0,0,2,0,0,0,0.00,17.36,0.29,
2.706,123.95019638512706,75.57885026062579,25.0,-2.0,13.0,0,0,0,3,1,0,0,0.00,14.81,0.29,
2.719,124.6880196385127,76.23688502606258,17.0,-9.0,1.0,0,0,0,3,1,0,0,0.00,14.03,0.49,
2.734,125.12180196385127,76.91468850260625,22.0,-25.0,13.0,0,0,0,3,1,0,0,0.00,13.44,0.88,
2.747,124.84118019638512,76.69446885026062,26.0,-13.0,14.0,0,0,0,3,1,0,0,0.00,13.34,1.08,
2.761,123.81411801963851,76.69044688502606,25.0,-13.0,8.0,1,0,0,3,1,0,0,0.00,14.13,1.28,
2.775,122.26241180196385,76.1950446885026,20.0,-4.0,8.0,1,0,0,3,1,0,0,0.00,14.32,1.47,
2.789,120.73924118019637,75.73150446885026,19.0,0.0,7.0,1,0,0,3,1,0,0,0.00,14.32,1.86,
2.802,120.10092411801963,73.79515044688502,14.0,2.0,0.0,1,0,0,3,1,0,0,0.00,14.13,2.06,
2.816,119.51509241180197,72.3505150446885,9.0,5.0,5.0,1,0,0,3,1,0,0,0.00,12.65,2.26,
2.83,119.56450924118019,70.48705150446885,4.0,4.0,3.0,1,0,0,3,1,0,0,0.00,12.16,2.45,
2.843,119.55145092411801,68.11370515044688,-1.0,7.0,-5.0,1,0,0,3,1,0,0,0.00,11.97,2.84,
2.856,120.3241450924118,68.07437051504468,6.0,6.0,-12.0,1,0,0,3,1,0,0,0.00,12.07,2.84,
2.871,120.59041450924119,70.74343705150447,3.0,5.0,-8.0,1,0,0,3,1,0,0,0.00,12.65,2.94,
2.884,120.74304145092412,72.79234370515044,-1.0,0.0,-3.0,1,0,0,3,1,0,0,0.00,14.22,3.14,
2.898,120.52430414509242,73.77123437051505,1.0,6.0,1.0,1,0,0,3,1,0,0,0.00,15.70,3.43,
2.912,120.12443041450925,74.7421234370515,1.0,7.0,-1.0,1,0,0,3,1,0,0,0.00,17.85,3.63,
2.925,120.17444304145093,75.92821234370516,0.0,4.0,-2.0,1,0,0,3,1,0,0,0.00,19.62,3.63,
2.939,120.31444430414508,76.79382123437053,-2.0,4.0,-1.0,1,0,0,3,1,0,0,0.00,21.78,3.83,
2.953,120.49944443041451,77.16838212343704,-4.0,4.0,-1.0,1,0,0,3,1,0,0,0.00,22.27,3.83,
2.966,120.77894444304145,77.3138382123437,-5.0,4.0,-1.0,1,0,0,2,1,0,0,0.00,22.76,3.63,
2.98,121.30189444430414,77.49038382123437,-5.0,0.0,-1.0,1,0,0,2,1,0,0,0.00,23.25,3.63,
2.994,121.74118944443042,77.55303838212343,-7.0,-3.0,-2.0,1,0,0,2,1,0,0,0.00,24.62,3.63,
3.008,121.55111894444305,77.88330383821234,-6.0,-2.0,0.0,1,0,0,2,1,0,0,0.00,25.60,3.63,
3.021,121.1721118944443,78.03333038382124,-4.0,0.0,-2.0,1,0,0,2,1,0,0,0.00,26.78,3.43,
3.036,120.78321118944443,78.39033303838212,-3.0,1.0,-3.0,1,0,0,2,1,0,0,0.00,27.96,3.43,
3.049,120.44732111894444,78.6870333038382,-3.0,6.0,-3.0,1,0,0,2,1,0,0,0.00,29.53,3.43,
3.062,120.54873211189445,78.88770333038383,-4.0,6.0,-3.0,1,0,0,2,1,0,0,0.00,29.82,3.43,
3.077,120.74787321118944,78.90777033303839,-5.0,4.0,-2.0,1,0,0,2,1,0,0,0.00,29.92,3.43,
3.09,120.86678732111895,78.94577703330384,-5.0,6.0,-3.0,1,0,0,2,1,0,0,0.00,29.72,3.34,
3.104,120.95067873211188,78.94957770333039,-4.0,8.0,-2.0,1,0,0,2,1,0,0,0.00,29.63,3.34,
3.118,121.2830678732112,78.86895777033304,-3.0,8.0,-2.0,1,0,0,2,1,0,0,0.00,29.43,3.43,
3.132,121.67630678732112,78.88789577703331,-3.0,5.0,-2.0,1,0,0,2,1,0,0,0.00,29.43,3.63,
3.145,121.9676306787321,78.89878957770334,-2.0,5.0,-2.0,1,0,0,2,1,0,0,0.00,29.63,3.63,
3.159,122.09576306787321,78.84587895777034,-2.0,2.0,-2.0,1,0,0,2,1,0,0,0.00,29.92,3.73,
3.173,122.07257630678731,78.95758789577704,-1.0,1.0,-2.0,1,0,0,2,1,0,0,0.00,30.51,3.73,
3.186,122.09725763067873,78.98675878957769,-1.0,0.0,-2.0,1,0,0,2,1,0,0,0.00,30.61,3.92,
3.201,122.06372576306786,79.06167587895777,-1.0,0.0,-2.0,1,0,0,2,1,0,0,0.00,30.41,3.92,
3.214,121.89837257630677,79.08716758789579,0.0,1.0,-1.0,1,0,0,2,1,0,0,0.00,30.02,3.92,
3.228,122.07983725763067,79.07171675878958,0.0,2.0,-1.0,1,0,0,2,1,0,0,0.00,29.04,3.92,
3.241,122.47598372576306,79.02517167587895,1.0,0.0,0.0,1,0,0,2,1,0,0,0.00,28.65,3.92,
3.255,122.4615983725763,79.0295171675879,2.0,-3.0,0.0,1,0,0,2,1,0,0,0.00,28.35,3.83,
3.268,122.35215983725763,79.0569517167588,4.0,-4.0,0.0,1,0,0,2,1,0,0,0.00,28.25,3.83,
3.282,122.14321598372577,79.16769517167589,4.0,-4.0,0.0,1,0,0,2,1,0,0,0.00,28.06,3.92,
3.296,121.90632159837257,79.25076951716758,5.0,-4.0,0.0,1,0,0,2,1,0,0,0.00,27.76,4.02,
3.309,121.76563215983725,79.44807695171676,5.0,-3.0,-1.0,1,0,0,2,1,0,0,0.00,27.37,4.12,
3.323,121.89556321598371,79.53080769517169,4.0,-3.0,-1.0,1,0,0,2,1,0,0,0.00,26.88,4.32,
3.337,121.70155632159839,79.63808076951717,4.0,-2.0,-1.0,1,0,0,2,1,0,0,0.00,26.29,4.41,
3.351,121.60115563215984,79.69380807695173,4.0,-3.0,-1.0,1,0,0,2,1,0,0,0.00,24.82,4.41,
3.364,121.23111556321598,79.78938080769517,5.0,0.0,-2.0,1,0,0,2,1,0,0,0.00,24.33,4.71,
3.379,121.0231115563216,79.86193808076952,6.0,0.0,-3.0,1,0,0,2,1,0,0,0.00,23.74,4.91,
3.392,121.04731115563214,79.98619380807695,6.0,-1.0,-4.0,1,0,0,2,1,0,0,0.00,23.05,5.00,
3.405,121.11273111556322,80.1426193808077,5.0,0.0,-5.0,1,0,0,2,1,0,0,0.00,20.80,5.30,
3.42,121.28127311155632,80.40126193808078,4.0,0.0,-4.0,1,0,0,2,1,0,0,0.00,19.42,5.69,
3.433,121.52312731115562,80.45412619380808,5.0,4.0,-5.0,1,0,0,2,1,0,0,0.00,18.34,5.98,
3.446,121.46631273111555,80.45941261938081,5.0,3.0,-5.0,1,0,0,2,1,0,0,0.00,17.36,6.28,
3.461,121.30763127311155,80.72094126193808,5.0,4.0,-5.0,1,0,0,2,1,0,0,0.00,15.21,6.38,
3.474,121.41776312731116,81.0440941261938,4.0,6.0,-3.0,1,0,0,3,1,0,0,0.00,14.13,6.57,
3.487,121.62677631273112,81.23840941261938,7.0,8.0,-4.0,1,0,0,3,1,0,0,0.00,13.15,6.97,
3.502,121.83667763127312,81.39284094126194,5.0,7.0,-3.0,1,0,0,3,1,0,0,0.00,12.36,7.16,
3.515,121.69566776312732,81.6692840941262,4.0,8.0,-3.0,1,0,0,3,1,0,0,0.00,11.87,7.26,
3.528,121.82556677631274,81.75092840941262,3.0,8.0,-2.0,1,0,0,3,1,0,0,0.00,10.79,7.36,
3.543,121.68555667763127,82.10109284094126,3.0,8.0,-3.0,1,0,0,3,1,0,0,0.00,10.20,7.65,
3.556,121.84255566776314,82.10010928409413,3.0,6.0,0.0,1,0,0,3,1,0,0,0.00,9.81,7.75,
3.569,121.91225556677632,82.18101092840942,3.0,5.0,0.0,1,0,0,3,1,0,0,0.00,9.52,7.75,
3.582,122.31522555667763,82.18010109284094,3.0,3.0,0.0,1,0,0,3,1,0,0,0.00,8.93,7.65,
3.597,122.35552255566776,82.36901010928409,1.0,1.0,0.0,1,0,0,3,1,0,0,0.00,8.73,7.55,
3.61,122.73755225556678,82.42390101092842,1.0,0.0,1.0,1,0,0,3,1,0,0,0.00,8.63,7.46,
3.623,123.07275522555668,82.04239010109283,0.0,0.0,0.0,1,0,0,3,1,0,0,0.00,8.53,7.55,
3.637,123.43927552255568,81.95923901010929,-2.0,0.0,-2.0,1,0,0,3,1,0,0,0.00,8.44,7.55,
3.65,123.19692755225557,82.18492390101092,-4.0,-2.0,-1.0,1,0,0,3,1,0,0,0.00,8.24,7.55,
3.664,123.11869275522557,82.3244923901011,-2.0,1.0,0.0,1,0,0,3,1,0,0,0.00,8.24,7.46,
3.678,122.93086927552255,82.19444923901011,-1.0,1.0,-1.0,1,0,0,3,1,0,0,0.00,8.34,7.46,
3.691,122.85808692755225,82.21744492390101,0.0,1.0,0.0,1,0,0,3,1,0,0,0.00,8.53,7.65,
3.705,122.63480869275523,82.40874449239011,0.0,2.0,-1.0,1,0,0,3,1,0,0,0.00,8.63,7.65,
3.719,122.55848086927553,82.38287444923901,1.0,2.0,0.0,1,0,0,3,1,0,0,0.00,8.53,7.65,
3.732,122.70384808692756,82.3622874449239,2.0,2.0,0.0,1,0,0,3,1,0,0,0.00,8.44,7.75,
3.745,122.61038480869276,82.1352287444924,1.0,-1.0,1.0,1,0,0,3,1,0,0,0.00,8.34,7.85,
3.759,122.70903848086928,82.08552287444924,-1.0,0.0,0.0,1,0,0,3,1,0,0,0.00,8.24,7.75,
3.773,122.72790384808694,82.12555228744492,-2.0,0.0,-1.0,1,0,0,3,1,0,0,0.00,7.95,7.85,
3.786,122.8557903848087,82.0215552287445,-1.0,-2.0,-1.0,1,0,0,3,1,0,0,0.00,8.14,7.85,
3.8,122.94057903848086,81.94815552287444,-1.0,-3.0,-2.0,1,0,0,3,1,0,0,0.00,8.24,7.75,
3.814,122.85905790384808,82.11181555228744,-1.0,-3.0,-2.0,1,0,0,3,1,0,0,0.00,8.14,7.85,
3.827,122.67990579038481,82.19118155522875,-1.0,-2.0,-2.0,1,0,0,3,1,0,0,0.00,7.95,7.95,
3.842,122.38299057903848,82.40611815552289,0.0,-1.0,-1.0,1,0,0,3,1,0,0,0.00,7.85,8.14,
3.855,122.46129905790384,82.41861181555228,0.0,0.0,-1.0,1,0,0,3,1,0,0,0.00,7.75,8.24,
3.868,122.69412990579039,82.43786118155522,0.0,0.0,-1.0,1,0,0,3,1,0,0,0.00,7.65,8.34,
3.881,122.87941299057906,82.53878611815553,-2.0,-1.0,-1.0,1,0,0,3,1,0,0,0.00,7.55,8.44,
3.896,123.16794129905792,82.62987861181556,-3.0,-2.0,0.0,1,0,0,3,1,0,0,0.00,7.55,8.53,
3.909,123.38579412990579,82.60298786118156,-5.0,-3.0,0.0,1,0,0,3,1,0,0,0.00,7.65,8.44,
3.923,123.87557941299059,82.61829878611816,-8.0,-6.0,0.0,1,0,0,3,1,0,0,0.00,7.95,8.24,
3.937,123.91555794129906,82.71882987861183,-10.0,-11.0,1.0,1,0,0,3,1,0,0,0.00,8.24,8.14,
3.95,123.67655579412991,82.42288298786117,-8.0,-12.0,1.0,1,0,0,3,1,0,0,0.00,9.61,7.85,
3.964,123.12165557941299,82.07828829878613,-7.0,-12.0,1.0,1,0,0,3,1,0,0,0.00,10.59,7.46,
3.978,122.32816555794129,82.08882882987861,-6.0,-9.0,1.0,1,0,0,3,1,0,0,0.00,11.67,7.26,
3.992,121.86181655579414,82.09888288298787,-6.0,-7.0,1.0,1,0,0,3,1,0,0,0.00,12.65,7.16,
4.005,121.8781816555794,82.15388828829879,-7.0,-6.0,1.0,1,0,0,3,1,0,0,0.00,13.93,6.97,
4.02,121.70881816555794,82.05138882882989,-8.0,-6.0,1.0,1,0,0,3,1,0,0,0.00,14.52,6.67,
4.033,121.7458818165558,81.915138882883,-7.0,-5.0,1.0,1,0,0,2,1,0,0,0.00,15.21,6.28,
4.046,121.72258818165558,81.7845138882883,-7.0,-4.0,0.0,1,0,0,2,1,0,0,0.00,15.99,6.08,
4.061,121.76525881816556,81.61845138882883,-6.0,-5.0,0.0,1,0,0,2,1,0,0,0.00,17.46,5.89,
4.074,121.66152588181657,81.55684513888288,-6.0,-5.0,0.0,1,0,0,2,1,0,0,0.00,18.05,5.59,
4.088,121.63315258818166,81.52368451388828,-6.0,-6.0,0.0,1,0,0,2,1,0,0,0.00,18.64,5.49,
4.102,121.21631525881816,81.46636845138882,-6.0,-4.0,0.0,1,0,0,2,1,0,0,0.00,19.33,5.40,
4.116,121.0846315258818,81.40663684513889,-6.0,-4.0,0.0,1,0,0,2,1,0,0,0.00,20.50,5.30,
4.129,120.92746315258817,81.35566368451389,-5.0,-3.0,0.0,1,0,0,2,1,0,0,0.00,21.09,5.10,
4.143,120.92074631525881,81.2695663684514,-5.0,-3.0,-1.0,1,0,0,2,1,0,0,0.00,21.48,5.10,
4.157,120.81207463152587,81.18895663684515,-4.0,-1.0,-1.0,1,0,0,2,1,0,0,0.00,21.97,5.00,
4.17,120.62120746315257,81.17189566368451,-4.0,-1.0,-1.0,1,0,0,2,1,0,0,0.00,22.27,4.81,
4.185,120.78212074631526,81.17018956636845,-4.0,0.0,-1.0,1,0,0,2,1,0,0,0.00,22.37,4.81,
4.198,121.09521207463152,81.09801895663685,-4.0,-1.0,-1.0,1,0,0,2,1,0,0,0.00,22.56,4.61,
4.212,121.23452120746315,80.98280189566368,-5.0,-4.0,-1.0,1,0,0,2,1,0,0,0.00,22.66,4.51,
4.226,121.1404521207463,80.98028018956637,-5.0,-3.0,0.0,1,0,0,2,1,0,0,0.00,23.15,4.51,
4.24,121.06804521207464,80.94402801895664,-5.0,-2.0,0.0,1,0,0,2,1,0,0,0.00,23.45,4.51,
4.253,120.84480452120746,80.94040280189567,-4.0,-3.0,-1.0,1,0,0,2,1,0,0,0.00,23.94,4.32,
4.268,120.87648045212075,80.82304028018956,-4.0,-3.0,-1.0,1,0,0,2,1,0,0,0.00,24.33,4.32,
4.281,120.81664804521208,80.81130402801895,-3.0,-1.0,-1.0,1,0,0,2,1,0,0,0.00,24.82,4.22,
4.295,120.78366480452121,80.74713040280189,-3.0,-2.0,-1.0,1,0,0,2,1,0,0,0.00,25.02,4.12,
4.308,120.93336648045212,80.77671304028019,-4.0,-1.0,-2.0,1,0,0,2,1,0,0,0.00,25.02,4.12,
4.323,121.0113366480452,80.77967130402801,-4.0,-2.0,-1.0,1,0,0,2,1,0,0,0.00,24.92,4.12,
4.336,120.83913366480452,80.7079671304028,-4.0,-2.0,-1.0,1,0,0,2,1,0,0,0.00,25.02,4.02,
4.35,120.92091336648045,80.64679671304029,-4.0,-3.0,-1.0,1,0,0,2,1,0,0,0.00,25.51,3.92,
4.364,120.96509133664804,80.50567967130402,-4.0,-3.0,-1.0,1,0,0,2,1,0,0,0.00,25.90,3.83,
4.378,120.9335091336648,80.52756796713041,-3.0,-4.0,-1.0,1,0,0,2,1,0,0,0.00,26.29,3.73,
4.391,120.92135091336648,80.53875679671305,-3.0,-2.0,-1.0,1,0,0,2,1,0,0,0.00,26.59,3.63,
4.406,120.92013509133665,80.49487567967131,-2.0,-2.0,-1.0,1,0,0,2,1,0,0,0.00,27.17,3.73,
4.419,120.83901350913366,80.48148756796714,-3.0,-2.0,-1.0,1,0,0,2,1,0,0,0.00,27.27,3.63,
4.433,120.91190135091337,80.47114875679671,-3.0,-2.0,-1.0,1,0,0,2,1,0,0,0.00,27.47,3.63,
4.447,120.84719013509134,80.43411487567968,-3.0,-1.0,-1.0,1,0,0,2,1,0,0,0.00,27.66,3.53,
4.461,120.96671901350913,80.39441148756796,-3.0,-3.0,-1.0,1,0,0,2,1,0,0,0.00,27.86,3.53,
4.474,120.86167190135092,80.42644114875681,-3.0,-3.0,0.0,1,0,0,2,1,0,0,0.00,27.86,3.43,
4.489,120.6621671901351,80.38464411487568,-3.0,-4.0,-1.0,1,0,0,2,1,0,0,0.00,28.15,3.43,
4.502,120.43521671901351,80.39846441148758,-3.0,-3.0,0.0,1,0,0,2,1,0,0,0.00,28.45,3.43,
4.516,120.43952167190135,80.40884644114875,-2.0,-1.0,-1.0,1,0,0,2,1,0,0,0.00,29.04,3.43,
4.53,120.44895216719013,80.29288464411488,-3.0,-1.0,-1.0,1,0,0,2,1,0,0,0.00,29.04,3.34,
4.544,120.35989521671901,80.31728846441149,-2.0,0.0,-1.0,1,0,0,2,1,0,0,0.00,29.14,3.34,
4.557,120.4319895216719,80.22072884644115,-2.0,0.0,-1.0,1,0,0,2,1,0,0,0.00,29.23,3.34,
4.572,120.44819895216719,80.18407288464412,-2.0,-1.0,-1.0,1,0,0,2,1,0,0,0.00,29.14,3.24,
4.585,120.45881989521672,80.17140728846442,-2.0,-1.0,-1.0,1,0,0,2,1,0,0,0.00,29.14,3.34,
4.599,120.55888198952167,80.16114072884645,-2.0,-2.0,0.0,1,0,0,2,1,0,0,0.00,29.14,3.34,
4.613,120.47888819895216,80.14211407288465,-2.0,-1.0,-1.0,1,0,0,2,1,0,0,0.00,29.23,3.24,
4.627,120.47988881989522,80.21221140728846,-2.0,-1.0,-1.0,1,0,0,2,1,0,0,0.00,29.43,3.34,
4.64,120.52498888198953,80.16522114072885,-2.0,-2.0,0.0,1,0,0,2,1,0,0,0.00,29.43,3.34,
4.654,120.51149888819896,80.12452211407289,-2.0,-2.0,0.0,1,0,0,2,1,0,0,0.00,29.33,3.24,
4.668,120.5821498888199,80.1654522114073,-2.0,-3.0,0.0,1,0,0,2,1,0,0,0.00,29.43,3.24,
4.681,120.59821498888198,80.14254522114074,-2.0,-3.0,-1.0,1,0,0,2,1,0,0,0.00,29.63,3.14,
4.696,120.4288214988882,80.14925452211408,-2.0,-4.0,-1.0,1,0,0,2,1,0,0,0.00,29.82,3.04,
4.709,120.32188214988882,80.1859254522114,-3.0,-1.0,-1.0,1,0,0,2,1,0,0,0.00,30.02,3.24,
4.723,120.25718821498889,80.23459254522113,-3.0,0.0,-1.0,1,0,0,2,1,0,0,0.00,30.21,3.24,
4.737,120.2867188214989,80.17645925452211,-3.0,0.0,-1.0,1,0,0,2,1,0,0,0.00,30.41,3.14,
4.751,120.21767188214989,80.13464592545222,-3.0,0.0,-1.0,1,0,0,1,1,0,0,0.00,30.41,2.94,
4.764,120.21076718821497,80.16646459254522,-2.0,0.0,-1.0,1,0,0,1,1,0,0,0.00,30.41,3.14,
4.779,120.3270767188215,80.20564645925451,-2.0,0.0,-1.0,1,0,0,1,1,0,0,0.00,30.41,3.14,
4.792,120.26670767188216,80.27256464592546,-2.0,0.0,-1.0,1,0,0,1,1,0,0,0.00,30.41,3.04,
4.805,120.22467076718821,80.29725646459254,-3.0,0.0,-1.0,1,0,0,1,1,0,0,0.00,30.51,3.04,
4.819,120.31946707671881,80.27272564645925,-3.0,0.0,-1.0,1,0,0,1,1,0,0,0.00,30.51,3.14,
4.833,120.30194670767187,80.19827256464593,-3.0,0.0,-1.0,1,0,0,1,0,0,0,0.00,30.51,3.14,
4.847,120.38119467076719,80.1278272564646,-3.0,0.0,-1.0,1,0,0,1,0,0,0,0.00,30.51,3.04,
4.86,120.41611946707671,80.05778272564646,-3.0,-1.0,-1.0,1,0,0,1,0,0,0,0.00,30.51,3.14,
4.875,120.19461194670768,79.99677827256464,-2.0,0.0,-2.0,1,0,0,2,0,0,0,0.00,30.61,3.04,
4.888,120.08246119467077,80.04467782725646,-2.0,-1.0,-1.0,1,0,0,2,0,0,0,0.00,30.71,2.94,
4.902,120.18824611946708,80.05846778272564,-3.0,-1.0,-1.0,1,0,0,2,0,0,0,0.00,30.80,2.94,
4.916,120.25282461194672,80.03284677827256,-3.0,-1.0,-1.0,1,0,0,2,0,0,0,0.00,31.10,2.94,
4.93,120.28628246119467,80.01228467782725,-3.0,0.0,-2.0,1,0,0,2,0,0,0,0.00,31.39,3.04,
4.943,120.22662824611947,80.02822846778272,-3.0,0.0,-2.0,1,0,0,2,0,0,0,0.00,31.49,3.04,
4.957,120.31966282461194,80.12882284677828,-3.0,0.0,-1.0,1,0,0,2,0,0,0,0.00,31.59,3.04,
4.971,120.4099662824612,80.07588228467783,-3.0,0.0,-1.0,1,0,0,2,0,0,0,0.00,31.59,3.04,
4.984,120.49999662824612,80.06158822846778,-3.0,-1.0,-2.0,1,0,0,2,0,0,0,0.00,31.59,2.84,
4.999,120.59899966282461,79.97915882284677,-3.0,0.0,-1.0,1,0,0,2,0,0,0,0.00,31.59,2.94,
5.012,120.63589996628247,79.96191588228467,-2.0,-1.0,-1.0,1,0,0,2,0,0,0,0.00,31.59,2.94,
5.026,120.50458999662824,79.96919158822847,-2.0,-1.0,-1.0,1,0,0,2,0,0,0,0.00,31.69,2.75,
5.04,120.39245899966282,80.00591915882285,-3.0,0.0,-1.0,1,0,0,2,1,0,0,0.00,31.78,2.84,
5.054,120.42624589996629,79.98259191588228,-3.0,-1.0,-1.0,1,0,0,2,1,0,0,0.00,31.98,2.84,
5.067,120.51962458999662,79.96225919158823,-3.0,0.0,-1.0,1,0,0,2,1,0,0,0.00,32.18,2.84,
5.082,120.47496245899966,79.88822591915881,-3.0,0.0,-1.0,1,0,0,2,1,0,0,0.00,32.37,2.84,
5.095,120.38949624589996,79.88982259191587,-2.0,0.0,-1.0,1,0,0,2,1,0,0,0.00,32.37,2.84,
5.108,120.41694962458999,79.88998225919158,-3.0,0.0,-1.0,1,0,0,2,1,0,0,0.00,32.37,2.84,
5.123,120.374694962459,79.91699822591916,-2.0,-1.0,-1.0,1,0,0,2,1,0,0,0.00,32.47,2.75,
5.136,120.3884694962459,79.97369982259191,-2.0,0.0,-1.0,1,0,0,2,1,0,0,0.00,32.47,2.75,
5.15,120.4258469496246,80.04236998225919,-2.0,0.0,0.0,1,0,0,2,1,0,0,0.00,32.47,2.75,
5.164,120.42958469496247,80.04023699822592,-2.0,0.0,-1.0,1,0,0,2,1,0,0,0.00,32.57,2.75,
5.178,120.38495846949624,79.94102369982261,-2.0,-1.0,-1.0,1,0,0,2,1,0,0,0.00,32.57,2.75,
5.191,120.38049584694961,79.87710236998227,-2.0,-1.0,-1.0,1,0,0,2,1,0,0,0.00,32.67,2.75,
5.206,120.39804958469497,79.86171023699822,-2.0,0.0,-1.0,1,0,0,2,1,0,0,0.00,32.77,2.75,
5.219,120.35480495846949,79.82417102369982,-2.0,-1.0,-1.0,1,0,0,2,1,0,0,0.00,32.77,2.75,
5.233,120.42248049584695,79.77541710236997,-2.0,-1.0,-1.0,1,0,0,1,1,0,0,0.00,32.77,2.75,
5.246,120.3842480495847,79.779541710237,-2.0,-1.0,-1.0,1,0,0,1,1,0,0,0.00,32.67,2.75,
5.261,120.37142480495848,79.7349541710237,-2.0,-1.0,-1.0,1,0,0,1,1,0,0,0.00,32.86,2.75,
5.274,120.38814248049584,79.73949541710236,-2.0,-1.0,-1.0,1,0,0,2,1,0,0,0.00,33.06,2.65,
5.288,120.30881424804957,79.72194954171025,-2.0,-2.0,-1.0,1,0,0,2,1,0,0,0.00,33.06,2.75,
5.302,120.21088142480497,79.76519495417102,-2.0,-1.0,-1.0,1,0,0,2,1,0,0,0.00,33.06,2.84,
5.316,120.1560881424805,79.7965194954171,-2.0,-1.0,-1.0,1,0,0,2,1,0,0,0.00,33.45,2.84,
5.329,120.14160881424806,79.8266519495417,-2.0,-1.0,-1.0,1,0,0,2,1,0,0,0.00,33.45,2.75,
5.344,120.0681608814248,79.81166519495417,-2.0,-1.0,-1.0,1,0,0,2,1,0,0,0.00,33.55,2.84,
5.357,120.03381608814247,79.85516651949541,-2.0,-1.0,-1.0,1,0,0,2,1,0,0,0.00,33.55,2.84,
5.371,120.02138160881424,79.82351665194953,-2.0,0.0,-1.0,1,0,0,2,1,0,0,0.00,33.55,2.75,
5.385,119.98413816088141,79.82035166519495,-2.0,0.0,-1.0,1,0,0,2,1,0,0,0.00,33.65,2.75,
5.399,119.98941381608813,79.82903516651949,-2.0,0.0,-1.0,1,0,0,2,1,0,0,0.00,33.65,2.75,
5.412,119.93594138160883,79.80290351665194,-2.0,0.0,-1.0,1,0,0,2,1,0,0,0.00,33.75,2.65,
5.426,119.96659413816087,79.7552903516652,-2.0,0.0,-1.0,1,0,0,2,1,0,0,0.00,33.65,2.75,
5.44,120.05965941381609,79.75952903516652,-2.0,-1.0,-1.0,1,0,0,2,1,0,0,0.00,33.65,2.75,
5.453,120.0509659413816,79.72395290351666,-2.0,-1.0,-1.0,1,0,0,2,1,0,0,0.00,33.65,2.75,
5.468,120.05909659413815,79.68439529035167,-1.0,-1.0,-1.0,1,0,0,2,1,0,0,0.00,33.65,2.75,
5.481,120.06890965941382,79.67143952903517,-2.0,-1.0,-1.0,1,0,0,2,1,0,0,0.00,33.55,2.75,
5.495,120.02489096594138,79.67014395290352,-2.0,-1.0,0.0,1,0,0,2,1,0,0,0.00,33.65,2.84,
5.509,119.96648909659413,79.75101439529035,-2.0,-2.0,-1.0,1,0,0,2,1,0,0,0.00,33.65,2.75,
5.523,119.85264890965942,79.76810143952903,-2.0,-1.0,-1.0,1,0,0,2,1,0,0,0.00,33.65,2.65,
5.536,119.85026489096593,79.83281014395291,-2.0,0.0,-1.0,1,0,0,2,1,0,0,0.00,33.75,2.75,
5.551,119.87702648909658,79.8662810143953,-2.0,0.0,-1.0,1,0,0,2,1,0,0,0.00,33.75,2.65,
5.564,119.84370264890967,79.82462810143952,-2.0,0.0,-1.0,1,0,0,2,1,0,0,0.00,33.65,2.75,
5.578,119.85837026489097,79.74846281014393,-2.0,0.0,0.0,1,0,0,1,1,0,0,0.00,33.65,2.75,
5.592,119.8958370264891,79.7228462810144,-2.0,0.0,-1.0,1,0,0,1,1,0,0,0.00,33.75,2.65,
5.605,119.9355837026489,79.73828462810143,-2.0,0.0,-1.0,1,0,0,1,1,0,0,0.00,33.84,2.65,
5.619,119.96655837026489,79.68582846281015,-2.0,0.0,-1.0,1,0,0,1,1,0,0,0.00,33.84,2.75,
5.633,119.90665583702649,79.67158284628101,-2.0,0.0,-1.0,1,0,0,1,1,0,0,0.00,33.84,2.65,
5.647,119.97266558370265,79.6431582846281,-2.0,0.0,-1.0,1,0,0,1,1,0,0,0.00,33.84,2.65,
5.66,119.99726655837026,79.61331582846282,-2.0,0.0,-1.0,1,0,0,1,1,0,0,0.00,33.65,2.75,
5.675,120.00872665583702,79.56533158284628,-2.0,0.0,-1.0,1,0,0,1,1,0,0,0.00,33.65,2.65,
5.688,120.0638726655837,79.56953315828463,-2.0,0.0,-1.0,1,0,0,1,1,0,0,0.00,33.75,2.65,
5.701,120.01538726655836,79.62395331582846,-2.0,0.0,-1.0,1,0,0,1,1,0,0,0.00,33.75,2.75,
5.715,119.94753872665584,79.61139533158284,-2.0,0.0,-1.0,1,0,0,2,1,0,0,0.00,33.75,2.75,
5.729,119.91375387266558,79.59213953315829,-2.0,0.0,-1.0,1,0,0,1,1,0,0,0.00,33.84,2.75,
5.743,119.87437538726657,79.62621395331583,-2.0,0.0,-1.0,1,0,0,2,1,0,0,0.00,33.84,2.75,
5.756,119.96943753872665,79.57562139533158,-2.0,0.0,-1.0,1,0,0,2,1,0,0,0.00,33.75,2.75,
5.771,119.96994375387266,79.61556213953315,-2.0,0.0,-1.0,1,0,0,2,1,0,0,0.00,33.94,2.84,
5.784,119.97899437538726,79.61955621395332,-2.0,0.0,-1.0,1,0,0,2,1,0,0,0.00,33.94,2.75,
5.797,119.98889943753872,79.62895562139533,-2.0,0.0,-1.0,1,0,0,2,1,0,0,0.00,33.84,2.75,
5.812,119.97188994375387,79.59389556213954,-2.0,0.0,-1.0,1,0,0,2,1,0,0,0.00,33.84,2.75,
5.825,120.00618899437538,79.66238955621395,-2.0,0.0,-1.0,1,0,0,2,1,0,0,0.00,33.94,2.75,
5.839,120.03661889943754,79.6422389556214,-2.0,0.0,-1.0,1,0,0,1,1,0,0,0.00,33.94,2.65,
5.853,120.04866188994376,79.60422389556214,-2.0,0.0,-1.0,1,0,0,1,1,0,0,0.00,33.94,2.65,
5.867,120.11286618899437,79.60942238955622,-2.0,0.0,-1.0,1,0,0,1,1,0,0,0.00,33.94,2.65,
5.88,120.11028661889944,79.59194223895562,-2.0,0.0,-1.0,1,0,0,1,1,0,0,0.00,33.75,2.65,
5.894,119.99302866188994,79.64419422389557,-2.0,0.0,-1.0,1,0,0,2,1,0,0,0.00,33.65,2.75,
5.908,119.945302866189,79.64041942238956,-2.0,0.0,-1.0,1,0,0,2,1,0,0,0.00,33.65,2.75,
5.921,119.93153028661891,79.68504194223895,-2.0,0.0,-1.0,1,0,0,2,1,0,0,0.00,33.65,2.75,
5.936,119.93915302866189,79.6715041942239,-2.0,0.0,-1.0,1,0,0,2,1,0,0,0.00,33.45,2.75,
5.949,120.02091530286619,79.6971504194224,-2.0,0.0,0.0,1,0,0,1,1,0,0,0.00,33.35,2.84,
5.962,120.00209153028662,79.69971504194224,-2.0,0.0,-1.0,1,0,0,1,1,0,0,0.00,33.16,2.65,
5.977,120.06320915302867,79.71797150419422,-1.0,0.0,-1.0,1,0,0,1,1,0,0,0.00,32.96,2.65,
5.99,120.07832091530287,79.66579715041942,-2.0,0.0,-1.0,1,0,0,1,1,0,0,0.00,32.86,2.65,
6.004,120.06183209153029,79.64257971504195,-1.0,0.0,0.0,1,0,0,1,1,0,0,0.00,32.96,2.55,
6.018,120.08718320915303,79.6492579715042,-1.0,-1.0,-1.0,1,0,0,1,1,0,0,0.00,32.96,2.65,
6.032,120.09871832091531,79.68592579715042,-1.0,0.0,0.0,1,0,0,1,1,0,0,0.00,33.06,2.65,
6.045,120.12687183209154,79.67159257971504,-1.0,-1.0,0.0,1,0,0,1,1,0,0,0.00,33.26,2.65,
6.059,120.09368718320916,79.6881592579715,-2.0,0.0,-1.0,1,0,0,1,1,0,0,0.00,33.55,2.65,
6.073,120.07236871832092,79.64481592579715,-2.0,0.0,-1.0,1,0,0,1,1,0,0,0.00,33.55,2.65,
6.086,120.02523687183209,79.59548159257972,-1.0,0.0,-1.0,1,0,0,1,1,0,0,0.00,33.55,2.65,
6.1,120.05652368718322,79.59954815925798,-1.0,0.0,-1.0,1,0,0,1,1,0,0,0.00,33.55,2.55,
6.114,120.08665236871832,79.6629548159258,-2.0,0.0,-1.0,1,0,0,1,1,0,0,0.00,33.55,2.65,
6.127,120.08066523687184,79.67829548159258,-2.0,0.0,-1.0,1,0,0,1,1,0,0,0.00,33.65,2.65,
6.141,120.13406652368718,79.65282954815926,-2.0,0.0,-1.0,1,0,0,1,1,0,0,0.00,33.65,2.55,
6.155,120.09440665236872,79.64128295481592,-2.0,0.0,0.0,1,0,0,1,1,0,0,0.00,33.65,2.65,
6.169,120.09944066523687,79.62212829548159,-2.0,0.0,0.0,1,0,0,1,1,0,0,0.00,33.45,2.65,
6.182,120.09994406652369,79.59321282954815,-2.0,0.0,-1.0,1,0,0,2,1,0,0,0.00,33.45,2.65,
6.196,120.17199440665237,79.62632128295482,-2.0,0.0,-1.0,1,0,0,1,1,0,0,0.00,33.65,2.65,
6.21,120.08919944066524,79.62063212829548,-2.0,0.0,-1.0,1,0,0,2,1,0,0,0.00,33.75,2.55,
6.223,120.14391994406652,79.58406321282955,-2.0,0.0,0.0,1,0,0,1,1,0,0,0.00,33.75,2.65,
6.238,120.05939199440665,79.56240632128295,-2.0,0.0,-1.0,1,0,0,1,1,0,0,0.00,33.65,2.65,
6.251,120.04193919944066,79.5692406321283,-1.0,0.0,0.0,1,0,0,1,1,0,0,0.00,33.55,2.65,
6.264,120.05819391994406,79.55192406321282,-1.0,0.0,0.0,1,0,0,1,1,0,0,0.00,33.55,2.55,
6.279,120.06881939199441,79.52319240632127,-1.0,0.0,0.0,1,0,0,1,1,0,0,0.00,33.45,2.55,
6.292,120.04288193919945,79.55631924063212,-1.0,-1.0,0.0,1,0,0,1,1,0,0,0.00,33.65,2.55,
6.305,119.97728819391995,79.60463192406321,-1.0,0.0,0.0,1,0,0,1,1,0,0,0.00,33.65,2.55,
6.32,120.015728819392,79.61846319240632,-1.0,0.0,0.0,1,0,0,1,1,0,0,0.00,33.55,2.45,
6.333,119.9745728819392,79.56584631924063,-1.0,0.0,0.0,1,0,0,1,1,0,0,0.00,33.55,2.45,
6.346,119.98845728819391,79.56958463192406,-1.0,0.0,-1.0,1,0,0,1,1,0,0,0.00,33.45,2.45,
6.361,119.99884572881939,79.58795846319241,-1.0,0.0,-1.0,1,0,0,1,1,0,0,0.00,33.55,2.55,
6.374,119.94588457288194,79.65279584631924,-1.0,0.0,-1.0,1,0,0,1,1,0,0,0.00,33.55,2.65,
6.388,119.9045884572882,79.66827958463193,-2.0,0.0,-1.0,1,0,0,1,1,0,0,0.00,33.45,2.65,
6.402,119.91845884572882,79.71482795846319,-2.0,0.0,-1.0,1,0,0,1,1,0,0,0.00,33.35,2.55,
6.416,119.83884588457288,79.7374827958463,-3.0,0.0,-1.0,1,0,0,1,1,0,0,0.00,33.26,2.45,
6.429,119.90288458845728,79.69474827958463,-3.0,1.0,-1.0,1,0,0,1,1,0,0,0.00,33.16,2.55,
6.443,119.93628845884572,79.67247482795847,-2.0,0.0,-1.0,1,0,0,1,1,0,0,0.00,32.96,2.55,
6.457,119.96662884588457,79.64324748279584,-2.0,0.0,-1.0,1,0,0,1,1,0,0,0.00,32.77,2.45,
6.47,119.86166288458845,79.68532474827958,-2.0,0.0,-1.0,1,0,0,1,1,0,0,0.00,32.37,2.45,
6.484,119.84216628845886,79.75253247482796,-2.0,1.0,-1.0,1,0,0,1,1,0,0,0.00,32.27,2.35,
6.498,119.94821662884588,79.7502532474828,-3.0,0.0,-1.0,1,0,0,1,1,0,0,0.00,31.98,2.35,
6.512,120.04882166288459,79.78602532474828,-3.0,2.0,-1.0,1,0,0,1,1,0,0,0.00,31.59,2.26,
6.525,120.21188216628846,79.73560253247483,-3.0,2.0,-1.0,1,0,0,1,1,0,0,0.00,30.71,2.16,
6.539,120.16518821662885,79.83856025324748,-3.0,2.0,-1.0,1,0,0,1,1,0,0,0.00,30.21,1.96,
6.553,120.04351882166289,79.92085602532475,-4.0,0.0,-1.0,1,0,0,1,1,0,0,0.00,29.63,1.96,
6.566,119.9143518821663,79.96508560253247,-5.0,1.0,-1.0,1,0,0,1,1,0,0,0.00,29.14,1.96,
6.581,119.73943518821663,80.12250856025325,-7.0,6.0,0.0,0,0,0,1,1,0,0,0.00,27.27,1.86,
6.594,119.66794351882166,80.26425085602533,-8.0,9.0,0.0,0,0,0,1,1,0,0,0.00,26.00,1.77,
6.607,119.78679435188215,80.10742508560253,-8.0,10.0,0.0,0,0,0,1,1,0,0,0.00,24.52,1.67,
6.622,119.8256794351882,79.72274250856026,-7.0,10.0,0.0,0,0,0,1,1,0,0,0.00,22.76,1.57,
6.635,119.93756794351881,79.33327425085602,-3.0,11.0,-1.0,0,0,0,1,1,0,0,0.00,19.72,1.28,
6.649,120.13775679435189,79.3033274250856,0.0,11.0,0.0,0,0,0,1,1,0,0,0.00,18.05,1.18,
6.663,120.52677567943518,79.54333274250855,1.0,14.0,-1.0,0,0,0,1,1,0,0,0.00,16.28,1.18,
6.676,120.36767756794352,79.90033327425085,4.0,16.0,-1.0,0,0,0,1,1,0,0,0.00,14.62,1.28,
6.69,120.22576775679434,80.45803332742508,9.0,17.0,-4.0,0,0,0,1,1,0,0,0.00,12.07,1.37,
6.704,120.07657677567943,82.38580333274251,14.0,20.0,0.0,0,0,0,1,1,0,0,0.00,10.99,1.37,
6.718,119.70165767756794,84.74758033327424,15.0,16.0,1.0,0,0,0,1,1,0,0,0.00,9.71,1.37,
6.731,120.27616576775681,87.62075803332742,17.0,12.0,7.0,0,0,0,1,1,0,0,0.00,8.34,1.67,
6.745,120.99061657677566,90.00507580333273,20.0,6.0,13.0,0,0,0,1,1,0,0,0.00,6.97,1.86,
6.759,121.60206165767757,91.76450758033326,23.0,0.0,14.0,0,0,0,1,1,0,0,0.00,4.32,1.96,
6.772,122.05020616576775,93.35345075803333,23.0,-5.0,15.0,0,0,0,1,1,0,0,0.00,3.43,2.26,
6.786,122.86902061657678,94.11534507580333,19.0,-1.0,13.0,0,0,0,1,1,0,0,0.00,2.84,2.45,
6.8,123.96790206165768,94.37153450758034,10.0,1.0,17.0,0,0,0,1,1,0,0,0.00,2.26,2.75,
6.813,124.61779020616576,92.90315345075803,3.0,1.0,14.0,0,0,0,1,1,0,0,0.00,2.06,2.94,
6.827,125.61877902061659,91.1003153450758,-4.0,0.0,14.0,0,0,0,1,1,0,0,0.00,2.45,3.14,
6.841,126.05187790206165,87.32003153450759,-14.0,-3.0,10.0,0,0,0,1,1,0,0,0.00,3.24,3.24,
6.854,126.49118779020617,82.41500315345077,-23.0,0.0,17.0,0,0,0,1,1,0,0,0.00,4.71,3.24,
6.868,126.68811877902061,76.74950031534509,-22.0,-5.0,20.0,1,0,0,0,1,0,0,0.00,10.01,2.94,
6.882,125.97881187790206,71.45795003153452,-18.0,-9.0,15.0,1,0,0,0,1,0,0,0.00,14.13,2.55,
6.896,124.6208811877902,67.81479500315345,-12.0,0.0,4.0,1,0,0,0,1,0,0,0.00,19.52,2.26,
6.909,125.04308811877902,69.39447950031534,7.0,10.0,-8.0,1,0,0,0,0,0,0,0.00,25.70,1.96,
6.923,126.01230881187792,73.70144795003155,1.0,7.0,-2.0,1,0,0,0,0,0,0,0.00,1138.65,1.96,
6.945,126.27123088118779,74.88814479500316,-7.0,1.0,13.0,1,0,0,0,1,0,0,0.00,43.56,1.96,
6.959,125.58612308811878,76.22181447950032,-17.0,-8.0,9.0,1,0,0,0,0,0,0,0.00,49.05,1.86,
6.973,125.94961230881187,77.06618144795003,-25.0,-13.0,13.0,1,0,0,0,0,0,0,0.00,54.54,1.47,
6.986,126.05796123088118,76.13361814479501,-23.0,-22.0,14.0,1,0,0,0,1,0,0,0.00,59.84,1.47,
7.001,126.38379612308812,73.42136181447951,-12.0,-27.0,11.0,1,0,0,0,1,0,0,0.00,64.55,1.47,
7.014,124.83237961230881,73.01513618144796,-4.0,-25.0,5.0,1,0,0,0,1,0,0,0.00,74.95,1.47,
7.028,123.23723796123089,73.94651361814479,-1.0,-18.0,0.0,1,0,0,0,1,0,0,0.00,82.60,1.47,
7.042,122.3307237961231,74.93965136181448,-1.0,-12.0,3.0,1,0,0,0,1,0,0,0.00,91.13,1.37,
7.055,121.6010723796123,74.74196513618145,-4.0,-8.0,0.0,1,0,0,0,1,0,0,0.00,99.87,1.37,
7.069,120.39410723796124,75.39719651361814,-2.0,-1.0,0.0,2,0,0,0,1,0,0,0.00,118.50,1.47,
7.083,120.05741072379612,75.48971965136181,1.0,6.0,0.0,2,0,0,0,1,0,0,0.00,130.08,1.37,
7.096,120.47374107237961,74.31997196513618,13.0,6.0,-5.0,2,0,0,0,1,0,0,0.00,141.85,1.57,
7.11,120.65037410723797,74.39199719651363,20.0,11.0,-13.0,2,0,0,0,1,0,0,0.00,153.04,1.86,
7.123,120.71303741072379,75.21819971965137,21.0,9.0,-16.0,2,0,0,0,1,0,0,0.98,177.56,2.06,
7.137,120.25130374107238,75.44481997196513,24.0,14.0,-19.0,2,0,0,0,1,0,0,1.96,190.41,2.35,
7.151,120.56513037410723,76.86248199719651,23.0,10.0,-22.0,2,0,0,0,1,0,0,2.75,201.69,2.55,
7.164,121.13651303741072,77.98524819971965,19.0,11.0,-18.0,1,0,0,0,1,0,0,3.53,212.68,2.65,
7.179,121.20265130374106,79.00652481997197,13.0,13.0,-15.0,2,0,0,0,1,0,0,4.41,233.28,2.75,
7.192,121.22726513037411,79.9906524819972,10.0,10.0,-15.0,1,0,0,0,1,0,0,5.98,242.90,2.75,
7.206,121.63472651303742,80.61106524819972,11.0,8.0,-13.0,1,0,0,0,1,0,0,7.16,252.02,2.94,
7.22,122.13447265130374,81.58210652481998,14.0,4.0,-9.0,1,0,0,0,1,0,0,8.93,259.67,2.94,
7.233,121.80644726513037,82.27321065248199,13.0,3.0,-5.0,0,0,0,0,1,0,0,11.09,265.85,2.94,
7.247,121.71964472651304,82.3423210652482,14.0,0.0,-5.0,1,0,0,0,1,0,0,13.24,271.74,3.14,
7.262,123.28596447265129,82.10623210652481,20.0,-5.0,-3.0,1,0,0,0,1,0,0,17.17,270.46,3.73,
7.275,122.41659644726512,82.29862321065248,21.0,2.0,-5.0,1,0,0,1,2,0,0,18.93,266.73,4.32,
7.289,122.15865964472651,82.82186232106524,15.0,-3.0,-6.0,1,0,0,2,2,0,0,20.80,260.06,5.20,
7.304,122.16886596447264,83.21618623210654,12.0,-3.0,-2.0,1,0,0,3,2,0,0,22.27,241.33,6.28,
7.317,122.21488659644727,83.87661862321066,7.0,-5.0,-1.0,1,0,0,3,2,0,0,23.74,231.71,8.53,
7.331,122.00348865964473,84.32066186232107,3.0,-4.0,-1.0,2,0,0,3,2,0,0,23.74,222.69,9.42,
7.345,121.87434886596448,84.36506618623211,0.0,-4.0,-1.0,2,0,0,3,2,0,0,23.35,208.17,10.10,
7.359,121.90643488659644,84.0275066186232,0.0,-4.0,-2.0,2,0,0,3,2,0,0,22.56,202.28,10.30,
7.373,121.87364348865965,83.71475066186233,0.0,-5.0,-3.0,1,0,0,3,2,0,0,20.50,197.18,10.20,
7.387,121.82536434886595,83.15247506618624,7.0,-7.0,-5.0,1,0,0,3,2,0,0,19.52,192.47,10.20,
7.401,122.3155364348866,82.75424750661861,14.0,-10.0,-9.0,1,0,0,3,2,0,0,18.44,179.82,10.59,
7.415,121.86055364348866,83.81242475066186,9.0,-10.0,-8.0,2,0,0,3,2,0,0,17.17,170.30,13.34,
7.43,120.78905536434887,84.57524247506619,1.0,1.0,-7.0,1,0,0,4,2,0,0,16.19,160.59,15.30,
7.443,120.92490553643489,84.68752424750662,-3.0,0.0,-8.0,2,0,0,4,2,0,1,14.81,152.64,16.28,
7.457,120.95649055364348,84.52775242475067,-3.0,0.0,-8.0,2,0,0,4,2,0,1,14.42,142.83,16.38,
7.472,121.24764905536435,84.45777524247508,-3.0,0.0,-9.0,2,0,0,4,2,0,1,14.13,139.20,16.19,
7.486,121.41176490553644,84.1897775242475,0.0,-3.0,-8.0,2,0,0,4,2,0,1,13.64,135.38,16.38,
7.499,121.64417649055365,83.89297775242476,3.0,-8.0,-11.0,3,0,0,5,2,0,1,12.56,131.55,16.87,
7.514,121.10041764905537,84.01629777524248,3.0,-5.0,-13.0,3,0,0,5,2,0,1,12.07,123.12,17.66,
7.528,120.93804176490553,84.64962977752425,1.0,-3.0,-11.0,3,0,0,5,2,0,1,11.97,118.01,20.11,
7.542,120.94880417649055,85.18996297775243,-1.0,-3.0,-10.0,3,0,0,5,2,1,1,12.07,112.42,21.39,
7.557,120.93188041764905,85.36999629777524,-2.0,-2.0,-9.0,3,0,0,6,2,1,1,12.36,102.51,22.66,
7.571,121.2181880417649,85.53199962977753,-2.0,-1.0,-6.0,3,0,0,6,2,1,1,12.56,98.49,24.72,
7.585,120.85081880417648,85.57519996297776,-2.0,0.0,-5.0,2,0,0,6,2,1,1,12.65,95.16,25.60,
7.599,120.60708188041765,85.61551999629778,-2.0,1.0,-3.0,3,0,0,6,2,1,1,12.85,92.90,26.39,
7.613,120.48370818804176,85.83555199962977,-2.0,5.0,-3.0,3,0,0,6,2,1,1,14.03,90.55,27.08,
7.627,120.61537081880417,85.99255519996298,-3.0,7.0,-2.0,3,0,0,7,2,1,1,14.81,89.47,28.55,
7.642,120.89853708188042,85.89125551999629,-3.0,4.0,-1.0,3,0,0,7,2,1,1,15.50,88.49,29.23,
7.655,120.97185370818805,85.69212555199964,-3.0,3.0,-2.0,3,0,0,7,2,1,1,16.28,88.00,29.82,
7.669,121.07818537081882,85.56421255519997,-1.0,7.0,0.0,3,0,0,7,2,1,1,18.15,88.58,30.41,
7.684,121.25081853708188,85.55142125552,-3.0,5.0,0.0,2,0,0,7,2,1,1,19.52,89.17,32.27,
7.697,121.61908185370818,85.604142125552,-3.0,4.0,-1.0,2,0,0,8,2,1,1,21.29,90.45,32.96,
7.711,121.79090818537082,85.5464142125552,-4.0,3.0,0.0,2,0,0,8,2,1,1,23.15,93.78,33.55,
7.726,122.22209081853707,85.36964142125552,-4.0,2.0,0.0,2,0,0,8,2,1,1,26.29,95.16,34.04,
7.739,122.4002090818537,85.39696414212557,-4.0,1.0,0.0,3,0,0,8,2,1,1,27.57,96.82,34.63,
7.753,122.21102090818538,85.26469641421257,-4.0,0.0,0.0,3,0,0,8,2,1,1,28.84,99.38,34.73,
7.767,121.96710209081853,85.17946964142126,-3.0,0.0,0.0,3,0,0,8,2,1,1,30.02,104.97,35.02,
7.781,122.23071020908185,85.21594696414213,-2.0,-1.0,0.0,3,0,0,8,2,1,1,31.78,106.05,35.41,
7.795,122.08607102090818,85.2105946964142,-3.0,-2.0,-1.0,3,0,0,8,2,1,1,32.47,106.63,35.51,
7.81,121.99060710209082,85.07505946964142,-4.0,0.0,-2.0,3,0,0,8,2,1,1,32.77,107.42,35.51,
7.824,121.92706071020909,85.07050594696415,-5.0,-2.0,-2.0,3,0,0,8,2,1,1,32.96,107.62,35.41,
7.838,122.0467060710209,85.23205059469642,-6.0,-1.0,0.0,2,0,0,8,2,1,1,32.67,106.93,34.83,
7.852,122.11267060710209,85.21220505946964,-7.0,-1.0,1.0,2,0,0,8,2,1,1,32.08,106.14,34.14,
7.866,122.14626706071022,85.13822050594696,-7.0,-3.0,0.0,2,0,0,8,2,1,1,31.20,105.65,33.16,
7.88,121.90662670607101,84.75282205059469,-6.0,-6.0,-1.0,2,0,0,8,2,1,1,30.12,106.05,31.88,
7.895,121.7566626706071,84.57028220505947,-5.0,-7.0,-3.0,2,0,0,8,2,1,1,27.57,105.46,29.33,
7.909,121.6156662670607,84.42602822050594,-4.0,-8.0,-3.0,2,0,0,8,2,1,1,26.00,103.40,28.35,
7.923,121.52056662670607,84.4206028220506,-5.0,-9.0,-4.0,2,0,0,8,2,1,1,24.33,95.75,27.57,
7.937,121.3130566626706,84.50106028220507,-6.0,-9.0,-3.0,2,0,0,8,2,1,1,22.27,90.74,25.51,
7.951,121.13030566626705,84.4641060282205,-6.0,-12.0,-1.0,2,0,0,7,2,0,1,16.97,85.25,23.94,
7.965,120.93203056662671,84.08241060282205,-3.0,-9.0,0.0,2,0,0,7,2,0,1,13.54,79.36,22.17,
7.98,120.68720305666267,84.49424106028222,-4.0,-12.0,-1.0,2,0,0,7,2,0,1,9.81,66.71,20.11,
7.994,120.45572030566628,84.76942410602821,-6.0,-11.0,0.0,2,0,0,6,2,0,1,6.47,61.41,16.68,
8.007,120.31557203056661,84.58094241060282,-8.0,-13.0,1.0,2,0,0,6,2,0,1,0.88,57.29,15.11,
8.022,120.11255720305667,84.24709424106028,-10.0,-18.0,-3.0,1,0,0,5,2,0,1,0.00,53.96,13.93,
8.036,120.10125572030567,83.91670942410603,-14.0,-24.0,-5.0,1,0,0,5,2,0,0,0.00,45.91,12.85,
8.05,119.85712557203055,83.2626709424106,-15.0,-28.0,-7.0,1,0,0,4,2,0,0,0.00,40.22,10.50,
8.064,119.49971255720305,82.83726709424107,-14.0,-27.0,-9.0,1,0,0,4,1,0,0,0.00,33.65,9.22,
8.078,118.9689712557203,82.0837267094241,-14.0,-17.0,-13.0,1,0,0,4,1,0,0,0.00,20.31,7.65,
8.092,118.40289712557203,81.96337267094242,-14.0,-12.0,-17.0,0,0,0,4,1,0,0,0.00,15.30,5.40,
8.107,119.0842897125572,82.87833726709424,-2.0,-13.0,-6.0,0,0,0,3,1,0,0,0.00,11.38,4.71,
8.12,118.98142897125572,82.76283372670943,-3.0,12.0,-2.0,0,0,0,3,1,0,0,0.00,7.85,4.32,
8.134,118.77314289712557,82.68828337267095,-2.0,21.0,-5.0,0,0,0,2,1,0,0,0.00,3.43,3.92,
8.147,116.63731428971256,83.11282833726709,-9.0,12.0,-11.0,0,0,0,2,1,0,0,0.00,2.16,3.14,
8.161,118.03473142897124,81.94028283372671,-13.0,4.0,-6.0,0,0,0,2,1,0,0,0.00,1.28,2.84,
8.175,119.13747314289712,81.08502828337267,-14.0,11.0,-16.0,0,0,0,1,1,0,0,0.00,0.69,2.55,
8.188,119.58074731428971,80.08150282833726,-16.0,3.0,-26.0,0,0,0,1,1,0,0,0.00,0.00,1.96,
8.203,119.74207473142897,79.73815028283373,-16.0,2.0,-26.0,0,0,0,1,1,0,0,0.00,0.00,1.47,
8.216,119.4522074731429,80.55881502828338,-15.0,-3.0,-20.0,0,0,0,1,1,0,0,0.00,0.00,1.37,
8.229,119.97222074731428,80.99188150282835,-10.0,-9.0,-14.0,0,0,0,1,1,0,0,0.00,0.00,1.18,
8.244,120.39322207473143,81.51218815028282,-1.0,-3.0,-13.0,0,0,0,1,1,0,0,0.00,0.00,1.18,
8.257,120.75932220747313,82.09521881502829,4.0,-5.0,-11.0,0,0,0,1,1,0,0,0.00,0.00,1.08,
8.271,120.97593222074731,82.97252188150281,3.0,6.0,-13.0,0,0,0,1,1,0,0,0.00,0.00,0.88,
8.285,121.53759322207472,84.56325218815027,-3.0,16.0,-7.0,0,0,0,2,1,0,0,0.00,0.00,0.78,
8.298,124.10475932220747,85.97332521881502,-12.0,-2.0,4.0,0,0,0,2,1,0,0,0.00,0.00,0.78,
8.311,123.77647593222075,85.4753325218815,-14.0,-6.0,-5.0,0,0,0,2,1,0,0,0.00,0.00,1.18,
8.326,123.27564759322206,84.71453325218815,-13.0,-6.0,-12.0,0,0,0,1,1,0,0,0.00,0.00,0.98,
8.339,123.1265647593222,84.78245332521882,-13.0,-10.0,-16.0,0,0,0,1,1,0,0,0.00,0.00,1.08,
8.353,123.64265647593221,84.42924533252189,-11.0,-16.0,-15.0,0,0,0,1,1,0,0,0.00,0.00,1.18,
8.367,124.09926564759323,82.97192453325219,-7.0,-22.0,-22.0,0,0,0,1,1,0,0,0.00,0.00,1.37,
8.381,123.64092656475933,82.16019245332522,-5.0,-18.0,-31.0,0,0,0,1,1,0,0,0.00,0.00,1.86,
8.395,122.97409265647595,83.06901924533253,-6.0,-24.0,-33.0,0,0,0,1,1,0,0,0.00,0.00,2.26,
8.409,122.41240926564758,84.95990192453326,-4.0,-20.0,-15.0,0,0,0,2,1,0,0,0.00,0.00,2.75,
8.423,121.15924092656475,85.48199019245332,-7.0,-30.0,-4.0,0,0,0,2,1,0,0,0.00,0.98,3.53,
8.436,119.01792409265647,85.26419901924532,-11.0,-29.0,-9.0,0,0,0,2,1,0,0,0.00,1.86,5.10,
8.451,116.40979240926565,85.57541990192453,0.0,0.0,3.0,1,0,0,2,1,0,0,0.00,3.04,5.79,
8.464,115.33897924092656,85.62454199019244,0.0,9.0,8.0,1,0,0,2,1,0,0,0.00,5.10,6.47,
8.477,114.94389792409267,85.18845419901925,2.0,16.0,15.0,1,0,0,2,1,0,0,0.00,11.18,6.97,
8.492,114.58938979240926,84.52384541990193,0.0,20.0,9.0,1,0,0,2,1,0,0,0.00,14.81,8.63,
8.505,115.02193897924093,83.83638454199018,4.0,30.0,6.0,1,0,0,3,2,0,0,0.00,18.74,9.61,
8.518,115.72219389792409,83.85763845419902,2.0,27.0,4.0,2,0,0,3,2,0,0,0.00,22.66,10.50,
8.532,116.8182193897924,83.23876384541991,0.0,17.0,0.0,2,0,0,3,2,0,0,0.00,26.29,11.48,
8.546,117.62082193897923,83.27587638454199,-2.0,17.0,1.0,2,0,0,3,2,0,0,0.00,32.18,12.36,
8.56,118.38508219389793,83.06358763845421,-1.0,10.0,1.0,2,0,0,3,2,0,0,0.00,34.92,13.73,
8.573,119.0555082193898,83.14135876384543,0.0,7.0,5.0,2,0,0,3,2,0,0,0.00,38.26,14.13,
8.588,119.17655082193897,83.32013587638454,2.0,6.0,5.0,2,0,0,3,2,0,0,0.00,42.38,14.52,
8.601,118.9636550821939,83.56301358763847,4.0,8.0,5.0,2,0,0,3,2,0,0,0.00,53.17,14.81,
8.615,118.8793655082194,83.65030135876384,7.0,8.0,8.0,2,0,0,3,2,0,0,0.00,60.23,15.89,
8.629,118.96993655082194,83.72203013587638,8.0,10.0,9.0,2,0,0,3,2,0,0,0.00,68.38,16.68,
8.643,118.84399365508219,83.99020301358763,7.0,13.0,8.0,3,0,0,3,2,0,0,0.00,76.91,17.36,
8.656,118.82239936550822,84.30502030135877,8.0,17.0,9.0,3,0,0,4,2,0,0,0.00,94.57,17.95,
8.671,118.89223993655082,84.37250203013586,9.0,17.0,10.0,3,0,0,4,2,0,0,0.00,103.59,19.03,
8.685,118.97122399365509,84.60425020301359,7.0,20.0,12.0,3,0,0,4,2,0,0,0.00,113.31,19.52,
8.698,119.28512239936549,84.59142502030136,4.0,22.0,10.0,3,0,0,4,2,0,0,4.61,124.00,20.21,
8.713,119.88351223993655,84.58114250203013,0.0,21.0,9.0,3,0,0,5,2,0,0,8.24,148.33,20.90,
8.726,120.39335122399365,84.40911425020302,0.0,19.0,7.0,3,0,0,5,2,0,0,12.16,160.88,22.96,
8.74,120.85833512239937,84.2929114250203,-1.0,18.0,5.0,4,0,0,5,2,0,0,16.28,173.05,24.03,
8.755,121.32783351223993,84.10129114250202,-1.0,16.0,4.0,4,0,0,5,2,0,0,20.31,192.86,25.11,
8.769,121.92378335122399,83.9561291142502,-1.0,15.0,3.0,4,0,0,5,2,0,0,26.98,200.12,27.27,
8.783,122.29837833512241,83.79761291142502,-1.0,13.0,3.0,4,0,0,5,2,0,0,29.72,206.21,28.25,
8.797,122.76783783351223,83.7007612911425,-2.0,10.0,1.0,4,0,0,5,2,0,1,32.18,211.21,29.14,
8.811,123.22878378335122,83.49307612911426,-2.0,9.0,0.0,4,0,0,5,2,0,1,34.53,217.19,29.82,
8.825,123.31087837833512,83.36430761291143,-2.0,7.0,0.0,4,0,0,5,2,0,1,37.96,218.37,31.20,
8.84,123.40008783783351,83.35143076129114,-2.0,6.0,-2.0,4,0,0,6,2,0,1,39.14,218.66,31.69,
8.853,123.54400878378335,83.26014307612911,-3.0,5.0,-3.0,4,0,0,6,2,0,1,40.42,218.27,32.08,
8.867,123.69340087837833,83.35001430761291,-4.0,4.0,-3.0,4,0,0,6,2,0,1,41.50,214.64,32.77,
8.882,123.70834008783783,83.17900143076129,-3.0,5.0,-3.0,4,0,0,6,2,0,1,42.97,211.11,33.65,
8.896,123.87183400878378,83.34190014307613,-4.0,3.0,-4.0,4,0,0,6,2,0,1,43.36,207.09,33.94,
8.91,124.05018340087837,83.53819001430762,-4.0,1.0,-2.0,4,0,0,6,2,0,1,43.65,203.26,34.14,
8.924,124.11301834008785,83.56681900143076,-5.0,1.0,-1.0,4,0,0,6,2,0,1,43.85,198.16,34.63,
8.938,124.07430183400878,83.52468190014307,-5.0,1.0,0.0,4,0,0,6,2,0,1,44.24,197.77,34.34,
8.952,124.07943018340087,83.45746819001431,-4.0,0.0,0.0,4,0,0,6,2,0,1,44.44,198.55,33.84,
8.967,124.07994301834009,83.31574681900143,-4.0,0.0,-1.0,4,0,0,6,2,0,1,44.44,201.40,33.45,
8.98,124.08899430183402,83.22957468190013,-3.0,0.0,-1.0,4,0,0,6,2,0,1,44.24,202.58,32.57,
8.994,124.0808994301834,83.20295746819002,-3.0,-2.0,-1.0,4,0,0,6,2,0,1,43.85,203.26,32.27,
9.009,124.17908994301834,83.17329574681901,-3.0,-2.0,0.0,4,0,0,6,2,0,1,43.16,203.17,31.78,
9.023,123.93690899430183,83.09832957468191,-2.0,-3.0,0.0,4,0,0,6,2,0,1,42.38,202.58,31.29,
9.037,123.90369089943019,82.99183295746819,-3.0,-4.0,-1.0,4,0,0,5,2,0,1,41.30,202.38,30.31,
9.052,123.84636908994302,82.81018329574682,-2.0,-5.0,-2.0,4,0,0,5,2,0,1,39.53,202.18,30.02,
9.066,123.8046369089943,82.85501832957468,-2.0,-5.0,-3.0,4,0,0,5,2,0,1,38.55,200.22,29.72,
9.079,123.76446369089943,82.94050183295747,-2.0,-6.0,-4.0,4,0,0,5,2,0,1,37.67,197.97,29.63,
9.094,123.67044636908994,83.03905018329576,-2.0,-5.0,-3.0,4,0,0,5,2,0,1,36.89,195.02,29.72,
9.108,123.58004463690898,83.05790501832958,-2.0,-5.0,-2.0,4,0,0,5,2,0,1,35.22,191.79,29.72,
9.122,123.42700446369089,83.17679050183295,-2.0,-6.0,-2.0,4,0,0,5,2,0,1,34.34,186.88,29.63,
9.137,123.45670044636907,83.15267905018331,-2.0,-7.0,-3.0,4,0,0,5,2,0,1,33.35,184.62,29.43,
9.151,123.3696700446369,83.14126790501834,-2.0,-7.0,-3.0,4,0,0,5,2,0,1,32.37,182.66,29.23,
9.165,123.31596700446369,83.07712679050182,-2.0,-8.0,-4.0,4,0,0,5,2,0,1,30.31,180.90,28.94,
9.18,123.18459670044638,83.02571267905019,-2.0,-9.0,-5.0,4,0,0,5,2,0,1,29.14,177.36,28.45,
9.193,123.00045967004463,83.04757126790503,-3.0,-9.0,-6.0,4,0,0,5,2,0,1,27.96,174.62,28.25,
9.207,122.81104596700447,83.18475712679052,-3.0,-9.0,-6.0,4,0,0,5,2,0,1,26.88,171.38,28.25,
9.222,122.63910459670045,83.23447571267904,-2.0,-8.0,-6.0,4,0,0,5,2,0,1,25.11,164.71,28.25,
9.236,122.30691045967004,83.3114475712679,-1.0,-7.0,-5.0,4,0,0,5,2,0,1,24.43,161.57,28.25,
9.25,122.093691045967,83.3641447571268,0.0,-6.0,-6.0,4,0,0,5,2,0,1,23.74,158.33,28.45,
9.265,121.96436910459671,83.41441447571268,0.0,-5.0,-6.0,4,0,0,5,2,0,1,23.25,155.00,28.55,
9.279,121.99643691045966,83.36544144757127,0.0,-5.0,-6.0,4,0,0,5,2,0,1,22.76,147.15,28.84,
9.292,121.99964369104596,83.47754414475712,0.0,-6.0,-6.0,4,0,0,5,2,0,1,22.46,142.64,29.53,
9.307,122.06296436910459,83.47975441447572,0.0,-7.0,-7.0,4,0,0,5,2,0,1,22.17,138.22,29.82,
9.321,121.99729643691046,83.63297544144758,0.0,-8.0,-6.0,4,0,0,5,2,1,1,21.88,129.39,30.21,
9.335,121.97272964369104,83.63029754414475,0.0,-8.0,-6.0,4,0,0,5,2,1,1,21.09,125.18,30.90,
9.35,121.79027296436911,83.84602975441447,1.0,-8.0,-6.0,4,0,0,5,2,1,1,20.70,121.06,31.29,
9.363,121.70002729643691,83.93060297544145,0.0,-7.0,-5.0,4,0,0,5,2,1,1,20.21,116.94,31.59,
9.377,121.52000272964369,84.20006029754414,0.0,-6.0,-4.0,4,0,0,5,2,1,1,19.62,109.19,31.88,
9.392,121.52900027296438,84.37100602975443,0.0,-5.0,-3.0,4,0,0,5,2,1,1,18.34,106.05,32.37,
9.406,121.53890002729645,84.38810060297544,-1.0,-5.0,-3.0,4,0,0,5,2,1,1,17.85,103.79,32.37,
9.42,121.62089000272964,84.35381006029753,0.0,-5.0,-3.0,4,0,0,5,2,1,1,17.17,101.93,32.18,
9.434,121.59308900027297,84.36838100602976,0.0,-7.0,-3.0,4,0,0,5,2,1,1,16.38,98.59,31.88,
9.448,121.51830890002731,84.38783810060298,0.0,-8.0,-3.0,4,0,0,5,2,1,1,15.01,97.02,31.49,
9.462,121.42983089000273,84.41678381006031,0.0,-9.0,-3.0,4,0,0,5,2,1,1,14.22,95.26,31.20,
9.476,121.32198308900027,84.52767838100604,0.0,-9.0,-2.0,4,0,0,5,2,1,1,13.34,93.59,30.90,
9.49,120.97819830890003,84.6827678381006,0.0,-8.0,-1.0,4,0,0,5,2,1,1,12.65,91.13,30.31,
9.504,120.66481983089,84.75227678381006,-1.0,-6.0,-1.0,4,0,0,5,2,1,1,11.38,90.25,29.92,
9.519,120.453481983089,84.70522767838101,-1.0,-5.0,-2.0,4,0,0,5,2,1,0,10.79,89.66,29.43,
9.532,120.22534819830891,84.79952276783811,-2.0,-3.0,-1.0,4,0,0,5,2,1,0,10.30,88.19,29.23,
9.546,120.2565348198309,84.8539522767838,-2.0,-3.0,-2.0,4,0,0,5,2,1,0,9.81,87.51,28.84,
9.561,120.3316534819831,84.83239522767838,-2.0,-2.0,-1.0,4,0,0,5,2,1,0,9.03,86.62,28.65,
9.575,120.34816534819831,84.89323952276784,-2.0,-2.0,-1.0,4,0,0,5,2,1,0,8.73,85.74,28.45,
9.588,120.42181653481984,84.91732395227677,-3.0,-3.0,-1.0,4,0,0,5,2,1,0,8.34,85.25,28.25,
9.603,120.53718165348198,84.82073239522768,-3.0,-3.0,-1.0,4,0,0,5,2,1,0,8.14,85.35,27.96,
9.617,120.4857181653482,84.74807323952275,-2.0,-4.0,-1.0,4,0,0,5,2,1,0,7.65,85.84,27.86,
9.631,120.32757181653483,84.75880732395228,-1.0,-5.0,-2.0,4,0,0,5,2,1,0,7.46,86.33,27.66,
9.645,120.16775718165349,84.80488073239523,-1.0,-4.0,-2.0,4,0,0,5,2,1,0,7.36,86.82,27.47,
9.659,120.00777571816535,84.87248807323952,-2.0,-2.0,-1.0,4,0,0,5,2,1,0,7.26,86.82,27.57,
9.673,119.90177757181652,84.88824880732395,-2.0,-2.0,-1.0,4,0,0,5,2,1,0,7.06,86.52,27.57,
9.687,119.89117775718165,84.8988248807324,-2.0,0.0,-1.0,4,0,0,5,2,1,0,6.87,86.33,27.37,
9.701,119.86311777571815,84.89988248807325,-2.0,0.0,-1.0,4,0,0,5,2,1,0,6.87,86.33,27.37,
9.715,119.88731177757181,84.91798824880732,-2.0,0.0,-1.0,4,0,0,5,2,1,0,6.97,86.33,27.57,
9.729,119.91673117775717,84.84779882488074,-1.0,-1.0,-2.0,4,0,0,5,2,1,0,6.97,86.03,27.66,
9.743,119.91967311777572,84.82277988248806,-2.0,-1.0,-2.0,4,0,0,5,2,1,0,7.06,85.25,27.86,
9.757,119.88396731177757,84.8472779882488,-1.0,0.0,-1.0,4,0,0,5,2,1,0,7.16,84.76,27.96,
9.771,119.91639673117776,84.85872779882487,-1.0,-1.0,-2.0,4,0,0,5,2,1,0,7.26,84.27,28.25,
9.785,119.85663967311777,84.90487277988248,-1.0,-1.0,-2.0,4,0,0,5,2,1,0,7.26,84.07,28.45,
9.799,119.80566396731177,84.89148727798825,-1.0,-1.0,-2.0,4,0,0,5,2,1,0,7.55,83.09,28.45,
9.812,119.73756639673118,84.87214872779883,-1.0,-1.0,-2.0,4,0,0,5,2,1,1,7.65,82.70,28.74,
9.827,119.74875663967312,84.8162148727799,-1.0,-1.0,-2.0,4,0,0,5,2,1,1,7.55,82.21,28.84,
9.841,119.75887566396732,84.81962148727798,-1.0,-1.0,-2.0,4,0,0,5,2,1,1,7.75,81.52,29.04,
9.856,119.84088756639673,84.91896214872781,-1.0,0.0,-2.0,4,0,0,5,2,1,1,7.75,79.76,29.23,
9.869,119.93908875663966,84.97389621487278,-1.0,-1.0,-2.0,4,0,0,5,2,1,1,7.75,78.77,29.63,
9.883,119.89490887566396,85.06938962148728,-1.0,-1.0,-2.0,4,0,0,5,2,1,1,7.95,77.89,29.92,
9.897,119.8724908875664,85.06093896214873,-1.0,0.0,-2.0,4,0,0,5,2,1,1,8.04,77.30,30.12,
9.911,119.84324908875665,85.07809389621488,-1.0,0.0,-1.0,4,0,0,5,2,1,1,8.14,76.62,30.41,
9.925,119.84932490887566,85.10680938962149,-1.0,0.0,-1.0,4,0,0,5,2,1,1,8.14,76.32,30.80,
9.938,119.87693249088755,85.13668093896216,-1.0,0.0,0.0,4,0,0,5,2,1,1,8.14,76.22,30.90,
9.953,119.84369324908876,85.10366809389622,-1.0,0.0,0.0,4,0,0,5,2,1,1,8.14,76.22,30.80,
9.967,119.86736932490888,85.06436680938963,-1.0,-1.0,-1.0,4,0,0,5,2,1,1,8.04,76.71,30.71,
9.98,119.8697369324909,85.06043668093896,-1.0,-1.0,-1.0,4,0,0,5,2,1,1,7.95,76.91,30.71,
9.995,119.77097369324909,85.1050436680939,-1.0,-2.0,-2.0,4,0,0,5,2,1,1,7.85,76.91,30.71,
10.009,119.73409736932491,85.13650436680939,-1.0,-1.0,-1.0,4,0,0,6,2,1,1,7.85,76.81,30.71,
10.023,119.72140973693249,85.19365043668094,-1.0,-1.0,-1.0,4,0,0,6,2,1,1,7.95,76.22,30.90,
10.037,119.73814097369323,85.2173650436681,-1.0,0.0,-1.0,4,0,0,5,2,1,1,7.75,76.13,31.00,
10.051,119.72181409736933,85.21973650436682,-2.0,0.0,-1.0,4,0,0,6,2,1,1,7.75,76.03,31.00,
10.065,119.74718140973694,85.22897365043669,-1.0,-1.0,-1.0,4,0,0,5,2,1,1,7.75,76.42,30.90,
10.08,119.7767181409737,85.25689736504367,-1.0,-1.0,0.0,4,0,0,5,2,1,1,7.65,76.81,30.80,
10.093,119.69867181409737,85.28668973650437,-1.0,0.0,0.0,4,0,0,5,2,1,1,7.75,77.30,30.71,
10.107,119.69086718140974,85.31666897365044,-2.0,0.0,0.0,4,0,0,5,2,1,1,7.75,77.99,30.61,
10.121,119.74408671814098,85.24766689736504,-1.0,0.0,0.0,4,0,0,5,2,1,1,7.75,79.26,30.51,
10.135,119.67740867181409,85.18676668973652,-1.0,0.0,0.0,4,0,0,6,2,1,1,7.85,79.85,30.31,
10.149,119.67974086718141,85.15367666897366,-1.0,0.0,0.0,4,0,0,6,2,1,1,7.95,80.25,30.31,
10.163,119.68897408671815,85.18636766689737,-2.0,0.0,0.0,4,0,0,6,2,1,1,8.04,80.64,30.31,
10.177,119.75289740867181,85.17163676668974,-1.0,1.0,0.0,4,0,0,6,2,1,1,8.24,81.32,30.51,
10.191,119.70528974086719,85.20616367666896,-2.0,1.0,0.0,4,0,0,6,2,1,1,8.34,81.72,30.61,
10.205,119.75452897408672,85.20961636766688,-2.0,1.0,0.0,4,0,0,6,2,1,1,8.44,82.11,30.61,
10.219,119.84945289740867,85.19196163676669,-2.0,1.0,0.0,4,0,0,6,2,1,1,8.63,82.60,30.41,
10.232,119.85894528974086,85.13619616367667,-3.0,1.0,0.0,4,0,0,6,2,1,1,8.73,84.07,30.31,
10.247,119.8148945289741,85.09461961636767,-3.0,1.0,0.0,4,0,0,6,2,1,1,8.73,85.05,29.92,
10.261,119.8284894528974,85.06346196163676,-3.0,0.0,0.0,4,0,0,5,2,1,1,8.73,86.23,29.72,
10.274,119.84784894528973,85.06934619616368,-2.0,1.0,0.0,4,0,0,6,2,1,1,8.63,87.51,29.33,
10.289,119.83178489452897,85.13293461961638,-3.0,1.0,0.0,4,0,0,6,2,1,1,8.73,89.96,29.14,
10.303,119.92017848945291,85.04029346196164,-3.0,1.0,0.0,4,0,0,5,2,1,1,8.93,91.23,28.84,
10.316,119.98301784894528,85.01302934619616,-2.0,1.0,0.0,4,0,0,5,2,1,0,9.03,92.41,28.74,
10.331,120.03430178489452,85.03730293461962,-2.0,1.0,0.0,4,0,0,5,2,1,0,9.22,93.39,28.65,
10.345,120.07543017848946,85.02173029346196,-2.0,1.0,0.0,4,0,0,5,2,1,0,9.22,95.35,28.55,
10.358,120.09754301784895,84.9661730293462,-2.0,1.0,0.0,4,0,0,5,2,1,0,9.22,96.43,28.45,
10.373,120.1087543017849,84.88861730293462,-3.0,1.0,0.0,4,0,0,5,2,1,0,9.42,97.32,28.35,
10.386,120.10087543017849,84.81786173029347,-2.0,1.0,0.0,4,0,0,5,2,1,0,9.61,98.30,28.25,
10.4,120.09108754301785,84.82878617302934,-2.0,1.0,0.0,4,0,0,5,2,1,0,9.81,100.06,28.25,
10.415,120.07210875430178,84.86587861730294,-2.0,1.0,0.0,4,0,0,5,2,1,0,9.81,100.75,28.15,
10.428,120.17821087543018,84.8785878617303,-2.0,1.0,0.0,4,0,0,5,2,1,0,9.81,101.14,28.06,
10.442,120.206821087543,84.91585878617303,-2.0,1.0,0.0,4,0,0,5,2,1,0,10.01,102.02,28.06,
10.457,120.1286821087543,84.92858587861731,-2.0,1.0,0.0,4,0,0,5,2,1,0,10.01,102.61,28.06,
10.471,120.21986821087543,84.89385858786173,-2.0,0.0,0.0,4,0,0,5,2,1,0,10.10,103.30,28.06,
10.485,120.27398682108755,84.84538585878619,-2.0,0.0,0.0,4,0,0,5,2,1,0,10.20,103.99,27.96,
10.499,120.27039868210875,84.8315385858786,-2.0,0.0,-1.0,4,0,0,5,2,1,0,10.40,105.26,27.96,
10.513,120.30603986821089,84.89315385858787,-2.0,0.0,0.0,4,0,0,5,2,1,0,10.59,105.75,27.96,
10.527,120.2916039868211,84.85431538585878,-2.0,0.0,0.0,4,0,0,5,2,1,0,10.59,106.24,27.86,
10.542,120.2181603986821,84.90443153858587,-2.0,0.0,0.0,4,0,0,5,2,1,0,10.59,106.73,27.86,
10.556,120.27381603986822,84.82844315385859,-2.0,0.0,0.0,4,0,0,5,2,1,0,10.79,107.81,27.76,
10.569,120.33338160398684,84.79384431538587,-2.0,0.0,0.0,4,0,0,5,2,1,0,10.89,108.20,27.76,
10.584,120.38433816039868,84.79938443153858,-2.0,0.0,-1.0,4,0,0,5,2,1,0,10.79,108.60,27.66,
10.598,120.44343381603987,84.76393844315386,-2.0,0.0,-1.0,4,0,0,6,2,1,0,10.79,108.89,27.66,
10.612,120.46734338160398,84.67939384431538,-2.0,0.0,-1.0,4,0,0,5,2,1,0,10.89,109.19,27.66,
10.627,120.4067343381604,84.72493938443154,-2.0,0.0,-1.0,4,0,0,5,2,1,0,11.09,109.28,27.76,
10.641,120.43667343381604,84.73849393844314,-2.0,1.0,0.0,4,0,0,6,2,1,0,11.28,109.48,27.86,
10.654,120.4666673433816,84.72184939384432,-2.0,0.0,0.0,4,0,0,6,2,1,0,11.38,110.07,27.96,
10.669,120.51466673433816,84.66618493938444,-2.0,0.0,-1.0,4,0,0,6,2,1,0,11.58,110.66,27.86,
10.683,120.55546667343381,84.66061849393844,-1.0,0.0,-1.0,4,0,0,6,2,1,0,11.87,111.25,27.96,
10.697,120.49654666734338,84.65106184939384,-1.0,0.0,-2.0,4,0,0,6,2,1,0,12.07,111.74,28.15,
10.712,120.45465466673434,84.63210618493939,-1.0,0.0,-2.0,4,0,0,6,2,1,0,12.16,111.74,28.45,
10.726,120.41446546667343,84.66621061849393,-1.0,0.0,-2.0,4,0,0,6,2,1,0,12.36,111.25,28.65,
10.74,120.46444654666735,84.6426210618494,-1.0,0.0,-2.0,4,0,0,6,2,1,1,12.85,110.56,28.94,
10.755,120.58644465466672,84.64926210618493,-1.0,0.0,-1.0,4,0,0,6,2,1,1,13.05,109.68,29.23,
10.768,120.66164446546668,84.70392621061848,-2.0,0.0,-1.0,4,0,0,6,2,1,1,13.15,109.19,29.43,
10.782,120.70516444654666,84.75439262106185,-2.0,0.0,0.0,4,0,0,6,2,1,1,13.34,108.79,29.53,
10.797,120.72751644465467,84.73243926210618,-2.0,0.0,0.0,4,0,0,6,2,1,1,13.44,108.69,29.63,
10.811,120.69375164446546,84.72124392621062,-1.0,0.0,-1.0,4,0,0,6,2,1,1,13.54,109.48,29.82,
10.825,120.77137516444654,84.58512439262105,-1.0,0.0,-1.0,4,0,0,6,2,1,1,13.73,109.97,29.82,
10.84,120.77913751644465,84.59851243926211,-1.0,0.0,-1.0,4,0,0,6,2,1,1,13.83,110.46,29.92,
10.854,120.69891375164445,84.65385124392621,-1.0,0.0,-1.0,4,0,0,6,2,1,1,14.13,110.46,30.12,
10.867,120.69089137516444,84.56938512439262,-1.0,1.0,-2.0,4,0,0,6,2,1,1,14.32,110.17,30.61,
10.882,120.74408913751644,84.57893851243927,-1.0,1.0,-2.0,4,0,0,6,2,1,1,14.72,109.97,30.90,
10.896,120.81240891375164,84.61589385124392,-1.0,1.0,-2.0,4,0,0,6,2,1,1,15.01,109.48,31.29,
10.91,120.91824089137516,84.65558938512439,-2.0,0.0,-2.0,4,0,0,6,2,1,1,15.79,107.91,31.69,
10.925,121.04582408913753,84.71355893851245,-2.0,0.0,-2.0,4,0,0,6,2,1,1,15.99,107.32,32.47,
10.939,121.04058240891376,84.81835589385123,-2.0,0.0,-2.0,4,0,0,6,2,1,1,16.19,106.83,32.67,
10.953,121.06705824089137,84.77483558938512,-2.0,0.0,-1.0,4,0,0,6,2,1,1,16.58,106.63,32.96,
10.968,121.06070582408914,84.73448355893852,-1.0,0.0,-1.0,4,0,0,6,2,1,1,16.87,106.73,33.16,
10.981,121.04207058240891,84.74844835589386,-1.0,0.0,-1.0,4,0,0,6,2,1,1,17.07,106.73,33.35,
10.995,120.90520705824089,84.74084483558937,-1.0,1.0,-1.0,4,0,0,6,2,1,1,17.17,106.63,33.45,
11.01,120.9185207058241,84.78508448355895,-1.0,1.0,-2.0,4,0,0,6,2,1,1,17.36,106.14,33.65,
11.024,120.97385207058241,84.79850844835589,-2.0,0.0,-2.0,4,0,0,6,2,1,1,18.15,105.65,34.53,
11.038,120.94338520705824,84.73685084483559,-2.0,0.0,-3.0,4,0,0,6,2,1,1,18.54,104.97,34.92,
11.053,120.92233852070582,84.77568508448357,-2.0,0.0,-2.0,4,0,0,6,2,1,1,18.93,104.18,35.32,
11.067,121.05523385207057,84.79756850844835,-2.0,1.0,-1.0,4,0,0,6,2,2,1,19.23,102.81,35.90,
11.081,121.14052338520706,84.73675685084484,-2.0,0.0,-1.0,4,0,0,6,2,2,1,19.62,102.42,36.10,
11.095,121.1940523385207,84.74867568508449,-2.0,0.0,0.0,4,0,0,6,2,2,1,19.62,102.22,36.00,
11.109,121.23540523385206,84.80386756850845,-2.0,0.0,0.0,4,0,0,6,2,2,1,19.52,102.91,35.81,
11.123,121.2125405233852,84.70138675685085,-1.0,-1.0,0.0,4,0,0,6,2,2,1,19.33,103.50,35.32,
11.138,121.17425405233851,84.69113867568508,-1.0,-1.0,-1.0,4,0,0,6,2,2,1,19.03,104.18,35.12,
11.152,121.10742540523384,84.69911386756851,-1.0,-2.0,-1.0,4,0,0,6,2,2,1,18.74,104.57,35.02,
11.166,121.15474254052337,84.81691138675684,-1.0,-1.0,-1.0,4,0,0,6,2,2,1,18.64,104.67,34.53,
11.181,121.19547425405233,84.84669113867568,-1.0,-3.0,-1.0,4,0,0,6,2,2,1,18.15,104.28,34.43,
11.195,121.15454742540524,84.89466911386758,-1.0,-3.0,0.0,4,0,0,6,2,2,1,17.66,103.79,34.34,
11.209,121.06945474254053,84.98946691138676,-1.0,-2.0,0.0,4,0,0,6,2,1,1,17.27,102.71,33.94,
11.223,121.01594547425405,85.05294669113867,-2.0,-2.0,0.0,4,0,0,6,2,1,1,16.78,102.81,32.96,
11.237,120.9925945474254,85.09529466911387,-2.0,-3.0,0.0,4,0,0,6,2,1,1,15.70,102.91,32.27,
11.251,120.98125945474254,85.1895294669114,-3.0,-2.0,1.0,4,0,0,6,2,1,1,15.11,103.30,31.69,
11.266,120.92612594547425,85.14495294669115,-4.0,-3.0,2.0,4,0,0,6,2,1,1,14.32,104.77,30.80,
11.28,121.09161259454741,84.90649529466911,-4.0,-3.0,1.0,4,0,0,6,2,1,1,13.54,105.95,28.65,
11.294,120.93716125945474,84.73864952946691,-3.0,-4.0,0.0,4,0,0,6,2,1,0,11.28,107.03,27.47,
11.309,120.69671612594549,84.72186495294669,-3.0,-3.0,0.0,4,0,0,6,2,1,0,10.30,108.30,26.29,
11.323,120.51067161259455,84.77418649529467,-4.0,-2.0,0.0,4,0,0,6,2,1,0,9.42,108.11,24.52,
11.336,120.43806716125947,84.77941864952948,-4.0,-2.0,0.0,3,0,0,6,2,1,0,8.63,107.13,23.74,
11.351,120.48480671612595,84.65394186495294,-5.0,-2.0,0.0,3,0,0,5,2,0,0,7.06,105.85,22.86,
11.365,120.6784806716126,84.7763941864953,-7.0,-3.0,1.0,3,0,0,5,2,0,0,6.08,102.91,21.97,
11.379,120.79684806716125,84.68963941864953,-9.0,-4.0,1.0,3,0,0,4,2,0,0,5.10,101.53,20.01,
11.394,120.64668480671611,84.44696394186496,-10.0,-3.0,3.0,3,0,0,4,2,0,0,4.02,100.55,18.84,
11.407,120.28066848067161,84.48569639418649,-9.0,-2.0,0.0,3,0,0,3,2,0,0,1.67,100.26,17.46,
11.421,120.12706684806716,84.23756963941865,-9.0,0.0,0.0,3,0,0,3,2,0,0,0.49,102.22,15.11,
11.436,120.04870668480672,84.05975696394188,-9.0,0.0,0.0,3,0,0,2,2,0,0,0.00,103.50,14.22,
11.449,120.11287066848067,83.7809756963942,-8.0,-1.0,-1.0,3,0,0,2,2,0,0,0.00,104.08,13.44,
11.463,120.33528706684807,83.69909756963942,-9.0,0.0,-1.0,3,0,0,1,1,0,0,0.00,104.18,12.75,
11.478,120.4295287066848,83.62790975696394,-9.0,0.0,0.0,3,0,0,1,1,0,0,0.00,104.18,11.48,
11.491,120.20495287066848,83.7917909756964,-8.0,3.0,0.0,3,0,0,0,1,0,0,0.00,105.16,10.79,
11.505,119.97549528706685,84.47417909756963,-7.0,5.0,5.0,3,0,0,0,1,0,0,0.00,107.03,10.10,
11.518,119.71854952870669,84.20041790975696,-6.0,10.0,8.0,3,0,0,0,1,0,0,0.00,114.09,9.52,
11.533,119.67485495287067,83.8580417909757,-2.0,12.0,8.0,3,0,0,0,1,0,0,0.00,118.80,8.44,
11.547,119.94048549528706,84.02180417909759,-1.0,14.0,9.0,3,0,0,0,1,0,0,0.00,123.61,8.24,
11.56,119.8680485495287,83.90318041790977,0.0,18.0,12.0,3,0,0,0,1,0,0,0.00,128.51,7.95,
11.575,119.83380485495286,83.63931804179097,4.0,26.0,16.0,3,0,0,0,1,0,0,0.00,141.46,7.65,
11.588,120.1813804854953,83.79293180417909,7.0,26.0,17.0,3,0,0,0,1,0,0,1.67,150.09,7.55,
11.602,120.78313804854953,83.8262931804179,6.0,27.0,16.0,3,0,0,0,1,0,0,3.73,160.20,7.75,
11.617,121.20331380485496,83.7936293180418,3.0,30.0,16.0,3,0,0,1,1,0,0,6.57,172.17,8.34,
11.63,121.8483313804855,83.52936293180419,1.0,27.0,15.0,4,0,0,1,1,0,0,10.10,202.09,8.93,
11.644,122.22783313804854,83.59293629318041,-1.0,24.0,13.0,4,0,0,1,2,0,0,14.32,218.76,10.01,
11.659,122.69778331380486,83.20329362931804,-5.0,25.0,12.0,4,0,0,2,2,0,0,22.76,235.83,10.59,
11.673,122.53777833138048,83.0383293629318,-9.0,27.0,10.0,4,0,0,2,2,0,0,26.88,253.29,11.09,
11.686,122.70177783313805,82.55383293629318,-12.0,26.0,9.0,4,0,0,2,2,0,0,30.61,282.53,11.48,
11.701,123.2401777833138,82.09138329362933,-11.0,25.0,7.0,4,0,0,2,2,0,0,33.65,291.36,12.26,
11.715,123.83401777833139,81.46913832936293,-11.0,26.0,3.0,4,0,0,3,2,0,0,38.36,295.28,12.65,
11.729,124.48740177783313,81.16391383293629,-10.0,23.0,1.0,3,0,0,3,2,0,1,40.32,295.28,13.15,
11.744,124.9307401777833,80.61139138329364,-11.0,19.0,-2.0,3,0,0,3,2,0,1,41.99,287.33,14.52,
11.758,125.70407401777834,79.83613913832937,-10.0,14.0,-6.0,3,0,0,3,2,0,1,43.36,280.66,15.11,
11.772,126.15940740177783,79.43461391383295,-6.0,12.0,-9.0,3,0,0,4,1,0,1,45.52,272.13,15.79,
11.786,126.47494074017779,79.1604613913833,-5.0,9.0,-11.0,3,0,0,4,1,0,1,46.11,250.16,16.58,
11.8,126.84849407401778,79.12404613913834,-3.0,5.0,-15.0,3,0,0,4,2,0,1,46.79,238.38,18.25,
11.814,127.65984940740178,78.76940461391384,-3.0,2.0,-17.0,3,0,0,4,2,0,1,47.68,226.91,19.23,
11.829,128.14598494074016,78.71594046139138,-3.0,-3.0,-25.0,3,0,0,4,2,0,1,49.93,215.43,20.40,
11.843,128.68059849407402,78.93559404613913,-2.0,-6.0,-26.0,3,0,0,5,2,0,1,51.21,192.08,23.25,
11.857,128.4910598494074,79.21855940461391,-1.0,-5.0,-25.0,3,0,0,5,2,0,1,52.68,180.50,24.92,
11.872,128.39110598494074,79.19285594046138,0.0,-8.0,-28.0,3,0,0,5,2,0,1,56.31,169.61,26.78,
11.886,128.0571105984941,79.35228559404615,3.0,-11.0,-30.0,3,0,0,5,2,0,1,58.57,150.19,28.84,
11.9,127.5827110598494,79.62022855940461,4.0,-15.0,-31.0,3,0,0,6,2,0,2,61.02,140.68,33.55,
11.915,127.37327110598493,79.96202285594046,6.0,-16.0,-29.0,3,0,0,6,2,0,2,63.47,131.26,36.10,
11.929,127.10032711059849,80.39220228559404,6.0,-21.0,-29.0,3,0,0,7,2,0,2,68.47,121.55,38.75,
11.943,126.74003271105985,80.6782202285594,8.0,-21.0,-29.0,2,0,0,7,2,1,2,70.83,101.73,44.83,
11.958,126.479003271106,80.86882202285594,7.0,-20.0,-29.0,2,0,0,8,3,1,2,72.99,91.72,47.38,
11.972,126.14690032711059,81.2748822022856,11.0,-24.0,-31.0,2,0,0,9,3,1,3,75.24,81.42,49.83,
11.986,126.02369003271106,81.60348822022856,14.0,-24.0,-32.0,2,0,0,10,2,2,3,78.87,61.02,52.29,
12.002,125.93036900327111,82.16734882202286,12.0,-23.0,-29.0,2,0,0,11,2,3,2,80.05,51.11,57.88,
12.016,124.76003690032711,83.0967348822023,14.0,-12.0,-27.0,2,0,0,11,2,3,2,80.64,41.59,61.41,
12.03,123.35600369003272,84.17967348822023,13.0,5.0,-21.0,2,0,0,12,1,4,2,80.83,26.00,65.14,
12.045,123.18860036900328,86.45696734882202,19.0,5.0,-8.0,2,0,0,12,1,4,1,80.93,19.91,72.59,
12.059,123.27986003690035,86.4686967348822,16.0,3.0,-23.0,1,0,0,0,1,5,2,80.74,15.50,75.93,
12.073,123.95498600369004,86.97386967348822,16.0,11.0,-21.0,1,0,0,2,1,5,2,80.34,12.36,79.46,
12.087,124.022498600369,87.55538696734882,16.0,0.0,-25.0,1,0,0,2,1,6,2,78.58,7.95,87.21,
12.101,125.03724986003691,87.54153869673488,14.0,-2.0,-29.0,1,0,0,3,1,6,2,77.01,6.28,91.13,
12.115,125.1747249860037,88.07115386967348,16.0,-3.0,-32.0,0,0,0,3,1,7,2,75.05,4.61,94.86,
12.13,125.44947249860037,88.21411538696736,15.0,-9.0,-31.0,0,0,0,4,1,7,2,72.69,2.45,98.98,
12.144,125.44094724986003,89.00241153869675,16.0,-8.0,-31.0,0,0,0,3,0,7,2,67.30,1.67,108.60,
12.158,124.45909472498599,89.48624115386968,19.0,0.0,-31.0,0,0,0,4,0,8,2,64.84,0.78,114.09,
12.173,123.9109094724986,90.28162411538698,23.0,3.0,-29.0,0,0,0,3,0,8,2,62.39,0.00,119.39,
12.186,125.14309094724987,90.7571624115387,43.0,9.0,-16.0,0,0,0,4,0,8,3,59.64,0.00,124.19,
12.2,128.75830909472498,96.11471624115387,26.0,30.0,-39.0,0,0,0,4,0,8,2,52.19,0.00,132.44,
12.215,128.7148309094725,96.93847162411538,35.0,8.0,-27.0,0,0,0,4,0,8,2,47.97,0.00,136.56,
12.229,128.21548309094723,96.42684716241155,39.0,7.0,-28.0,0,0,0,4,0,8,2,44.54,0.00,140.87,
12.243,127.48154830909473,96.10568471624114,45.0,6.0,-29.0,0,0,0,4,0,8,2,41.89,0.00,149.70,
12.257,127.13815483090947,95.48856847162412,50.0,7.0,-35.0,0,0,0,4,0,8,3,34.63,0.00,153.43,
12.271,126.68981548309094,95.21985684716242,57.0,10.0,-44.0,0,0,0,4,0,8,4,30.51,0.00,156.18,
12.285,125.81698154830909,94.83298568471625,63.0,16.0,-44.0,0,0,0,4,1,8,5,26.59,0.00,157.65,
12.3,124.9016981548309,94.02929856847163,68.0,17.0,-47.0,0,0,0,2,1,8,5,22.86,0.00,155.39,
12.314,124.2251698154831,94.00292985684717,72.0,23.0,-54.0,0,0,0,3,1,8,5,14.91,0.00,150.68,
12.327,123.6355169815483,91.48029298568471,85.0,51.0,-49.0,0,0,0,2,0,8,5,11.18,0.00,142.25,
12.342,122.01055169815483,90.40002929856848,105.0,53.0,-70.0,0,0,0,1,0,7,5,8.24,0.00,129.59,
12.356,120.02105516981547,90.65200292985685,129.0,42.0,-58.0,0,0,0,0,0,5,5,5.59,0.00,93.88,
12.37,118.96710551698155,91.99120029298568,151.0,47.0,-59.0,0,0,0,11,0,4,4,1.67,0.00,73.28,
12.385,119.17671055169815,94.34812002929857,164.0,58.0,-47.0,0,0,0,9,0,3,3,0.39,0.00,53.46,
12.398,121.07867105516982,96.93281200292986,162.0,48.0,-40.0,0,0,0,7,1,1,3,0.00,0.00,26.29,
12.412,122.38486710551697,99.00028120029299,156.0,53.0,-36.0,0,0,0,6,1,1,2,0.00,0.00,19.13,
12.427,125.74648671055171,99.78302812002931,135.0,13.0,-29.0,0,0,0,5,1,0,1,0.00,0.00,11.87,
12.441,128.43164867105517,104.29830281200293,95.0,36.0,-25.0,0,0,0,4,1,0,0,0.78,0.00,5.98,
12.455,135.91816486710553,117.5568302812003,50.0,-36.0,-72.0,0,0,0,3,1,0,0,1.18,0.00,1.18,
12.469,142.62481648671056,102.62868302812004,17.0,-34.0,-17.0,0,0,0,3,1,0,0,1.37,0.00,0.00,
12.483,146.69748164867104,88.57186830281202,-9.0,-49.0,-13.0,0,0,0,3,1,0,0,1.28,0.00,0.00,
12.497,148.63474816486712,76.5911868302812,-36.0,-72.0,5.0,0,0,0,3,1,0,0,1.08,0.00,0.00,
12.511,145.1474748164867,69.27311868302812,-54.0,-87.0,0.0,0,0,0,3,1,0,0,0.88,0.00,0.98,
12.525,145.94174748164866,60.89131186830281,-61.0,-57.0,11.0,0,0,0,3,0,0,0,0.88,0.00,1.28,
12.539,140.44117474816488,55.44513118683028,-71.0,-49.0,13.0,0,0,0,3,1,0,0,0.98,0.00,1.57,
12.553,136.7411174748165,51.75951311868303,-90.0,-38.0,16.0,0,0,0,3,1,0,0,0.78,0.00,1.77,
12.567,132.49211174748166,50.067951311868306,-107.0,-44.0,7.0,0,0,0,3,1,0,0,0.78,0.00,1.67,
12.581,128.51221117474816,50.46579513118682,-124.0,-37.0,26.0,0,0,0,3,1,0,0,0.69,0.00,1.67,
12.595,125.57622111747482,51.91857951311868,-133.0,-26.0,52.0,0,0,0,3,1,0,0,0.59,0.00,1.67,
12.609,124.98562211174747,51.52385795131187,-130.0,-27.0,67.0,0,0,0,4,1,0,0,0.59,0.00,1.37,
12.623,125.58356221117475,52.99638579513119,-125.0,-26.0,77.0,0,0,0,4,1,0,0,0.49,0.00,1.18,
12.638,123.85235622111747,55.915638579513114,-126.0,-33.0,94.0,0,0,0,3,1,0,0,0.49,0.00,1.08,
12.651,123.31023562211175,57.485563857951306,-125.0,-33.0,93.0,0,0,0,3,1,0,0,0.49,0.00,1.08,
12.665,122.74302356221118,59.19055638579513,-121.0,-26.0,98.0,0,0,0,3,1,0,0,0.59,0.00,1.08,
12.68,121.73230235622113,60.981055638579505,-120.0,-24.0,94.0,0,0,0,3,1,0,0,0.59,0.00,0.98,
12.694,120.81223023562211,63.005105563857946,-117.0,-19.0,94.0,0,0,0,3,1,0,0,0.49,0.00,0.88,
12.707,120.2702230235622,65.0255105563858,-116.0,-18.0,91.0,0,0,0,3,1,0,0,0.49,0.00,0.88,
12.722,120.20702230235622,66.36155105563859,-112.0,-29.0,86.0,0,0,0,3,1,0,0,0.39,0.00,0.98,
12.736,120.12870223023562,67.92615510556385,-110.0,-26.0,76.0,0,0,0,3,1,0,0,0.39,0.00,1.08,
12.75,119.66187022302356,69.36061551055639,-103.0,-22.0,63.0,0,0,0,3,1,0,0,0.49,0.00,1.08,
12.764,119.48018702230235,71.07006155105563,-99.0,-12.0,56.0,0,0,0,3,1,0,0,0.39,0.00,1.18,
12.778,119.39001870223022,72.87000615510556,-100.0,-3.0,49.0,0,0,0,3,1,0,0,0.39,0.00,1.28,
12.791,119.50700187022302,74.87700061551055,-98.0,9.0,50.0,0,0,0,3,1,0,0,0.29,0.00,1.28,
12.806,119.44670018702229,77.00370006155104,-89.0,19.0,50.0,0,0,0,3,1,0,0,0.29,0.00,1.37,
12.819,119.33267001870222,79.9973700061551,-71.0,28.0,61.0,0,0,0,3,1,0,0,0.20,0.00,1.37,
12.833,120.49126700187023,82.05173700061552,-79.0,2.0,7.0,0,0,0,3,1,0,0,0.10,0.00,1.37,
12.847,122.20012670018701,83.84117370006156,-66.0,57.0,39.0,0,0,0,3,1,0,0,0.00,0.00,1.47,
12.86,122.2360126700187,86.81011737000615,-72.0,7.0,28.0,0,0,0,3,1,0,0,0.00,0.00,1.57,
12.874,124.42660126700187,91.10301173700061,-65.0,14.0,40.0,0,0,0,3,1,0,0,0.10,0.00,1.67,
12.888,125.1406601267002,94.58330117370005,-70.0,4.0,27.0,0,0,0,3,1,0,0,0.20,0.00,1.77,
12.902,126.53506601267001,97.91933011737001,-69.0,16.0,30.0,0,0,0,3,1,0,0,0.20,0.00,1.67,
12.915,127.808506601267,100.700933011737,-81.0,22.0,8.0,0,0,0,4,1,0,0,0.29,0.00,1.77,
12.93,128.6918506601267,103.95809330117369,-87.0,35.0,2.0,0,0,0,4,1,0,0,0.29,0.00,1.77,
12.943,129.59018506601268,107.71280933011735,-93.0,47.0,-10.0,0,0,0,4,1,0,0,0.39,0.00,1.67,
12.957,131.10201850660127,111.31028093301174,-95.0,59.0,-20.0,0,0,0,4,1,0,0,0.39,0.00,1.67,
12.971,132.80120185066014,113.48802809330117,-94.0,71.0,-49.0,0,0,0,3,1,0,0,0.49,0.00,1.77,
12.985,133.628120185066,115.0648028093301,-69.0,35.0,-46.0,0,0,0,3,1,0,0,0.49,0.00,1.86,
12.998,135.6008120185066,118.327480280933,-41.0,26.0,-73.0,0,0,0,3,0,0,0,0.59,0.59,1.77,
13.012,134.72708120185067,120.2197480280933,-12.0,-11.0,-75.0,0,0,0,3,1,0,0,0.59,1.96,1.67,
13.027,132.50670812018507,122.21797480280932,16.0,-17.0,-58.0,0,0,0,3,1,0,0,0.59,4.02,1.67,
13.04,127.7756708120185,120.17679748028092,50.0,-46.0,-22.0,0,0,0,3,1,0,0,0.00,11.09,1.67,
13.054,129.69656708120183,108.9746797480281,77.0,-46.0,2.0,0,0,0,3,1,0,0,0.00,17.66,1.86,
13.068,128.0526567081202,100.42946797480282,109.0,-51.0,-20.0,0,0,0,3,1,0,0,0.00,26.68,2.16,
13.082,127.00626567081203,98.19794679748028,150.0,-57.0,-26.0,0,0,0,3,1,0,0,0.00,38.26,2.26,
13.096,125.73162656708121,98.29879467974803,170.0,-73.0,4.0,0,0,0,3,1,0,0,0.00,71.61,2.65,
13.11,128.0341626567081,97.5438794679748,176.0,-96.0,8.0,1,0,0,3,1,0,0,0.00,90.06,3.73,
13.124,125.9964162656708,98.92638794679748,148.0,-93.0,-5.0,2,0,0,3,1,0,0,0.39,104.77,4.12,
13.138,128.9156416265671,102.14263879467974,88.0,-111.0,-44.0,2,0,0,4,2,0,0,0.88,114.09,4.51,
13.153,123.96056416265671,101.33026387946796,46.0,-25.0,-13.0,2,0,0,4,2,0,0,1.37,132.83,6.57,
13.167,121.05305641626568,99.9350263879468,37.0,0.0,-24.0,2,0,0,4,2,0,0,3.14,147.74,7.36,
13.181,118.88130564162657,98.48150263879468,27.0,40.0,-4.0,2,0,0,4,2,0,0,5.59,158.33,9.42,
13.195,118.45713056416265,96.81515026387946,16.0,56.0,-3.0,2,0,0,4,2,0,0,8.24,163.14,12.46,
13.209,119.89971305641626,95.09151502638795,12.0,52.0,-7.0,2,0,0,5,2,0,0,15.40,161.67,18.25,
13.223,123.25697130564161,92.68715150263878,7.0,39.0,-5.0,2,0,0,5,2,0,0,19.91,158.82,20.70,
13.238,125.50069713056416,89.09871515026387,-1.0,15.0,-20.0,2,0,0,6,2,1,0,24.52,156.18,23.54,
13.252,125.53606971305642,87.9658715150264,-3.0,2.0,-18.0,2,0,0,6,3,1,0,28.65,155.68,27.08,
13.266,124.36960697130564,82.22758715150265,12.0,-15.0,-8.0,2,0,0,6,3,1,1,35.51,157.84,35.61,
13.281,122.90296069713055,82.32875871515027,4.0,-14.0,-8.0,1,0,0,6,3,1,1,38.16,160.79,40.32,
13.295,122.64829606971306,82.22187587151501,16.0,-13.0,0.0,2,0,0,7,3,2,1,40.12,163.43,45.13,
13.309,122.4788296069713,83.06618758715149,8.0,8.0,-3.0,2,0,0,7,3,2,1,41.89,161.87,54.45,
13.324,122.56988296069713,83.63661875871514,11.0,0.0,-5.0,2,0,0,7,3,2,1,44.34,158.43,58.47,
13.338,122.7769882960697,84.21566187587152,9.0,1.0,-5.0,3,0,0,7,2,2,1,45.13,153.92,62.00,
13.351,122.72569882960697,84.60656618758715,7.0,0.0,-5.0,2,0,0,7,2,2,1,45.91,143.72,65.14,
13.366,122.9365698829607,84.90665661875872,3.0,-7.0,-10.0,3,0,0,8,2,3,1,46.70,138.12,70.93,
13.38,122.48965698829606,85.46766566187587,1.0,-6.0,-8.0,3,0,0,8,2,3,2,47.68,132.53,73.67,
13.394,122.30996569882961,85.7037665661876,-1.0,-5.0,-11.0,3,0,0,8,2,3,2,48.07,127.04,75.83,
13.409,122.12999656988296,85.90737665661877,-3.0,-5.0,-10.0,3,0,0,8,2,3,2,48.56,117.03,78.87,
13.423,121.9229996569883,86.17073766566187,-4.0,-4.0,-9.0,3,0,0,8,2,3,2,49.05,112.23,79.56,
13.437,121.83029996569881,86.57507376656619,-1.0,-4.0,-5.0,3,0,0,8,2,3,2,49.74,107.42,79.56,
13.452,122.02802999656987,86.68750737665661,0.0,-3.0,-3.0,3,0,0,8,2,4,2,50.13,97.90,79.46,
13.466,122.13780299965698,86.61775073766566,1.0,-6.0,-5.0,3,0,0,8,2,4,2,50.13,93.59,80.25,
13.48,122.1757802999657,86.66477507376656,3.0,-6.0,-5.0,3,0,0,9,2,4,2,49.83,89.66,81.91,
13.495,122.04457802999656,86.88547750737665,4.0,-6.0,-4.0,3,0,0,9,2,4,2,49.05,86.62,83.88,
13.508,121.83345780299966,87.11454775073767,3.0,-5.0,-3.0,1,0,0,9,2,4,2,49.05,82.31,88.00,
13.522,121.80334578029996,87.23645477507377,3.0,-5.0,-3.0,1,0,0,9,2,4,2,49.34,81.03,89.96,
13.537,121.67433457803,87.32064547750737,2.0,-4.0,-4.0,1,0,0,9,2,4,2,49.64,79.85,91.63,
13.551,121.54443345780301,87.41906454775075,1.0,-3.0,-4.0,1,0,0,9,2,4,2,50.42,77.50,93.00,
13.565,121.3064433457803,87.50090645477508,0.0,-1.0,-4.0,1,0,0,9,2,5,2,50.91,76.22,95.26,
13.579,121.21964433457802,87.77909064547751,0.0,0.0,-4.0,1,0,0,9,1,5,2,51.60,74.65,96.24,
13.593,121.36396443345781,87.82490906454774,0.0,0.0,-3.0,1,0,0,9,1,5,2,52.29,73.18,97.12,
13.607,121.43239644334578,87.88349090645477,0.0,0.0,-3.0,1,0,0,9,1,5,2,54.05,71.12,97.61,
13.621,121.57423964433458,87.97034909064547,0.0,-1.0,-3.0,1,0,0,10,1,5,2,54.84,70.53,98.59,
13.635,121.68742396443346,87.97003490906455,0.0,-2.0,-4.0,1,0,0,10,1,5,2,55.33,69.55,99.08,
13.649,121.66274239644335,87.97900349090645,0.0,-3.0,-4.0,1,0,0,10,1,5,2,55.82,68.77,99.77,
13.664,121.49827423964435,88.14190034909063,0.0,-2.0,-4.0,1,0,0,10,1,5,2,56.70,66.61,101.04,
13.678,121.36482742396444,88.14919003490907,0.0,-2.0,-4.0,1,0,0,10,1,5,2,57.19,65.43,101.63,
13.692,121.33348274239644,88.2399190034909,0.0,-3.0,-5.0,1,0,0,10,1,5,2,57.49,64.16,102.12,
13.707,121.13234827423963,88.38399190034909,0.0,-2.0,-4.0,1,0,0,10,1,6,2,57.58,61.31,102.61,
13.721,121.23823482742397,88.3533991900349,-1.0,-2.0,-3.0,1,0,0,10,1,6,2,57.19,59.55,102.81,
13.735,121.4558234827424,88.33233991900349,-1.0,-3.0,-3.0,2,0,0,10,1,6,2,56.60,57.68,102.51,
13.75,121.40558234827424,88.40223399190035,-2.0,-3.0,-3.0,2,0,0,10,1,6,2,55.72,56.02,101.93,
13.764,121.43655823482743,88.24722339919005,-1.0,-4.0,-3.0,2,0,0,10,1,6,2,54.05,53.37,100.26,
13.778,121.42165582348275,88.114722339919,-1.0,-6.0,-4.0,2,0,0,10,1,6,2,53.37,52.78,99.47,
13.793,121.18616558234827,88.20947223399189,-1.0,-8.0,-4.0,2,0,0,10,1,6,2,52.58,51.99,98.59,
13.807,120.85661655823482,88.32694722339919,-1.0,-9.0,-4.0,2,0,0,10,1,6,2,51.50,48.95,97.81,
13.821,120.69766165582348,88.41069472233991,-1.0,-10.0,-4.0,2,0,0,10,1,6,2,48.07,46.40,95.65,
13.836,120.76276616558235,88.077069472234,-2.0,-11.0,-2.0,2,0,0,10,1,6,2,45.32,42.87,93.78,
13.85,120.45427661655823,87.8637069472234,0.0,-10.0,-6.0,2,0,0,10,1,5,2,41.59,34.83,91.23,
13.864,120.12642766165582,87.74337069472234,0.0,-9.0,-8.0,2,0,0,10,1,5,2,37.57,30.71,86.23,
13.879,119.85064276616558,87.89333706947224,0.0,-3.0,-9.0,2,0,0,10,1,5,2,29.23,26.49,84.46,
13.893,119.93106427661655,88.57433370694723,0.0,-1.0,-8.0,2,0,0,10,1,5,2,25.31,22.46,82.99,
13.907,120.02010642766166,88.90343337069473,0.0,0.0,-5.0,2,0,0,10,1,5,2,21.88,15.89,82.11,
13.921,120.34401064276616,89.25134333706947,-2.0,0.0,-4.0,2,0,0,10,1,5,2,19.03,13.44,80.44,
13.935,120.7004010642766,89.61013433370695,-4.0,-2.0,-3.0,2,0,0,10,1,5,2,15.70,11.97,78.87,
13.949,120.69104010642765,89.6640134333707,-4.0,-6.0,-2.0,2,0,0,10,1,5,2,14.62,11.28,77.11,
13.964,120.50110401064276,89.74140134333707,-5.0,-5.0,-4.0,2,0,0,10,1,5,2,13.93,11.09,73.28,
13.978,120.11311040106428,89.59614013433371,-4.0,-4.0,0.0,2,0,0,10,1,5,2,13.73,11.48,72.01,
13.992,119.89431104010643,89.50961401343336,-5.0,-2.0,-2.0,2,0,0,10,1,5,2,14.42,11.97,71.12,
14.007,119.91743110401063,89.41996140134333,-6.0,-3.0,-2.0,2,0,0,10,1,5,2,14.72,13.05,70.34,
14.021,119.86574311040106,89.47399614013435,-7.0,-1.0,-1.0,2,0,0,10,1,5,2,14.91,13.54,68.38,
14.035,120.1305743110401,89.39839961401344,-8.0,-1.0,0.0,2,0,0,9,1,5,2,15.11,14.13,67.10,
14.05,120.409057431104,89.23783996140135,-9.0,-2.0,0.0,2,0,0,9,1,5,2,15.21,14.81,65.63,
14.064,120.4639057431104,89.23978399614013,-9.0,-2.0,1.0,2,0,0,9,1,5,2,15.21,16.78,61.80,
14.077,120.37939057431105,89.07797839961403,-9.0,-2.0,1.0,3,0,0,9,1,4,2,15.30,18.25,59.55,
14.092,120.3079390574311,88.88179783996141,-9.0,-2.0,1.0,2,0,0,9,1,4,2,15.30,20.11,57.49,
14.106,120.07579390574311,88.74517978399614,-9.0,-1.0,2.0,2,0,0,9,1,4,2,15.89,24.33,55.92,
14.12,119.78257939057431,88.79451797839961,-9.0,0.0,2.0,3,0,0,8,1,4,2,16.19,26.39,53.27,
14.135,120.11325793905743,88.45745179783997,-10.0,-1.0,2.0,2,0,0,8,1,4,2,16.28,28.35,51.89,
14.148,120.02932579390574,88.198745179784,-12.0,-2.0,1.0,2,0,0,8,1,4,2,16.28,30.31,50.33,
14.162,119.93093257939057,88.1098745179784,-11.0,-2.0,2.0,2,0,0,7,1,3,2,15.99,34.63,46.99,
14.177,119.83109325793905,87.49798745179785,-9.0,-3.0,0.0,2,0,0,7,1,3,2,15.70,36.89,45.13,
14.191,119.4971093257939,87.31979874517978,-7.0,-2.0,-1.0,2,0,0,7,2,3,2,15.30,39.04,43.56,
14.205,119.13971093257939,87.31097987451798,-5.0,0.0,0.0,2,0,0,7,2,3,2,14.91,41.79,42.58,
14.22,119.12197109325795,87.30109798745178,-5.0,0.0,0.0,2,0,0,7,1,3,2,14.32,42.28,41.69,
14.233,119.2911971093258,87.29110979874518,-5.0,0.0,0.0,2,0,0,7,1,3,2,13.93,42.58,41.40,
14.247,119.37111971093258,87.21811097987451,-5.0,0.0,0.0,2,0,0,7,2,3,1,13.54,42.58,41.10,
14.262,119.42411197109327,87.06681109798745,-4.0,-1.0,0.0,2,0,0,7,2,3,1,13.05,43.16,40.61,
14.275,119.53741119710932,87.00668110979873,-4.0,-1.0,0.0,2,0,0,7,2,3,1,12.36,43.85,39.63,
14.289,119.55774111971093,87.03666811097989,-5.0,0.0,0.0,2,0,0,7,2,3,1,12.16,44.34,39.14,
14.304,119.6497741119711,86.99466681109799,-5.0,-1.0,0.0,2,0,0,7,2,3,1,11.67,44.83,38.65,
14.318,119.65897741119711,86.8824666811098,-4.0,-1.0,0.0,2,0,0,7,2,3,1,11.28,46.40,37.96,
14.332,119.6148977411197,86.63724666811098,-3.0,-3.0,0.0,2,0,0,7,2,3,1,10.59,47.28,36.59,
14.346,119.56548977411197,86.5947246668111,-2.0,-4.0,0.0,2,0,0,7,2,3,1,10.30,48.07,36.10,
14.36,119.42554897741118,86.76147246668111,-1.0,-3.0,0.0,2,0,0,7,2,3,1,10.01,48.56,35.81,
14.374,119.38455489774111,86.76914724666811,-1.0,-2.0,0.0,2,0,0,7,2,3,1,9.71,48.56,35.71,
14.389,119.55145548977411,86.72491472466682,-1.0,-3.0,0.0,2,0,0,7,2,3,1,8.93,48.46,35.61,
14.402,119.43314554897742,86.66649147246667,-1.0,-4.0,-1.0,3,0,0,7,2,3,1,8.73,48.46,35.41,
14.416,119.27731455489774,86.57964914724667,0.0,-4.0,-1.0,3,0,0,7,2,3,1,8.44,48.85,35.22,
14.431,119.06373145548979,86.60696491472467,0.0,-4.0,-2.0,3,0,0,7,2,3,1,8.34,49.05,35.41,
14.445,118.97037314554896,86.60969649147246,0.0,-4.0,-2.0,3,0,0,7,2,3,1,8.34,49.15,35.61,
14.458,118.9160373145549,86.67296964914726,0.0,-4.0,-2.0,3,0,0,7,2,3,1,8.53,48.95,36.10,
14.473,118.83860373145549,86.78729696491473,-1.0,-3.0,-2.0,3,0,0,7,2,3,1,8.44,48.17,36.49,
14.487,118.76786037314555,86.84372969649147,-1.0,-2.0,-1.0,3,0,0,7,2,3,1,8.34,47.77,36.98,
14.501,118.58078603731457,86.93037296964914,-1.0,-1.0,-1.0,3,0,0,7,2,3,1,8.44,47.28,36.98,
14.515,118.58007860373145,86.93003729696493,-1.0,0.0,0.0,3,0,0,7,2,3,1,8.34,46.99,36.98,
14.529,118.64300786037316,86.9750037296965,-1.0,-1.0,-1.0,3,0,0,7,2,3,1,8.14,46.30,36.98,
14.543,118.77530078603732,87.00650037296965,-1.0,-2.0,-1.0,3,0,0,7,2,3,1,7.95,45.71,36.89,
14.558,118.73453007860373,86.91065003729697,-1.0,-2.0,-1.0,3,0,0,7,2,3,1,7.55,45.03,36.69,
14.571,118.69445300786037,86.95506500372969,-1.0,-3.0,-2.0,3,0,0,7,2,3,1,7.26,44.54,36.59,
14.585,118.71744530078604,86.98650650037297,-1.0,-1.0,-2.0,3,0,0,7,2,3,1,6.97,43.16,36.40,
14.6,118.7377445300786,86.99865065003729,-1.0,-1.0,-1.0,3,0,0,7,2,3,1,6.57,42.28,36.30,
14.614,118.74877445300785,87.05386506500372,-2.0,-2.0,-1.0,3,0,0,7,2,3,1,5.89,41.50,36.10,
14.628,118.74987744530078,86.96038650650038,-2.0,-2.0,-1.0,3,0,0,7,2,3,1,5.49,40.02,36.00,
14.642,118.70498774453007,86.90603865065005,-1.0,-2.0,-2.0,3,0,0,7,2,3,1,5.10,39.44,35.61,
14.656,118.70949877445301,86.936603865065,-2.0,-2.0,-2.0,3,0,0,7,2,3,1,5.00,38.95,35.51,
14.67,118.7549498774453,86.96666038650649,-2.0,-2.0,-2.0,3,0,0,7,2,3,1,4.61,38.36,35.51,
14.685,118.75049498774453,86.94266603865064,-1.0,-1.0,-2.0,3,0,0,7,2,3,1,4.41,37.28,35.71,
14.699,118.63304949877445,86.92226660386507,-1.0,-1.0,-2.0,3,0,0,7,2,3,1,4.51,36.89,35.90,
14.712,118.69330494987744,86.94722666038652,-1.0,-1.0,-2.0,3,0,0,7,2,3,1,4.41,36.49,36.00,
14.727,118.71733049498773,86.97672266603865,-1.0,-1.0,-2.0,3,0,0,7,2,3,1,4.41,36.10,36.30,
14.741,118.73773304949877,87.00667226660387,-1.0,-1.0,-1.0,3,0,0,7,2,3,1,4.61,35.41,36.98,
14.755,118.70377330494988,86.97366722666038,-1.0,-2.0,-2.0,3,0,0,7,2,3,1,4.71,35.22,37.28,
14.77,118.72737733049499,86.96136672266603,0.0,-2.0,-2.0,3,0,0,7,2,3,1,4.91,35.12,37.67,
14.783,118.6307377330495,87.00513667226662,0.0,-2.0,-3.0,3,0,0,7,2,3,1,5.10,34.63,38.06,
14.797,118.52207377330495,86.97351366722665,0.0,-2.0,-3.0,3,0,0,7,2,3,1,5.40,34.34,39.44,
14.812,118.40320737733049,86.99735136672265,0.0,-2.0,-3.0,3,0,0,7,2,3,1,5.69,33.94,40.32,
14.826,118.30132073773306,87.08073513667226,0.0,-1.0,-3.0,3,0,0,7,2,4,1,6.08,33.55,41.30,
14.839,118.3181320737733,87.05307351366723,0.0,-1.0,-3.0,3,0,0,7,2,4,1,6.67,32.27,442.14,
14.854,118.24781320737732,87.10430735136673,0.0,0.0,-3.0,3,0,0,7,2,4,1,7.36,31.59,2675.09,
14.868,118.19578132073772,87.15443073513667,0.0,-1.0,-3.0,3,0,0,8,2,4,2,7.75,30.90,45.81,
14.882,118.19957813207378,87.32144307351368,0.0,-1.0,-3.0,3,0,0,8,2,4,2,8.24,30.41,46.99,
14.896,118.26295781320738,87.32014430735136,0.0,-2.0,-2.0,3,0,0,8,2,4,2,8.73,29.23,49.54,
14.91,118.14329578132073,87.36501443073514,0.0,-2.0,-3.0,3,0,0,8,2,4,2,9.71,28.74,50.62,
14.924,118.06832957813208,87.4775014430735,0.0,-1.0,-3.0,3,0,0,8,2,4,2,10.01,28.45,51.80,
14.938,118.0788329578132,87.61475014430735,0.0,0.0,-2.0,3,0,0,8,2,4,2,10.40,27.57,52.78,
14.952,118.04388329578133,87.73647501443074,-1.0,0.0,-1.0,3,0,0,8,2,4,2,10.59,27.08,54.64,
14.966,118.06738832957812,87.78464750144309,-1.0,0.0,-1.0,3,0,0,8,2,4,2,10.99,26.78,55.23,
14.981,118.15973883295781,87.73546475014432,0.0,0.0,-1.0,3,0,0,8,2,4,2,11.18,26.68,55.52,
14.994,118.12397388329579,87.73954647501442,0.0,0.0,-1.0,3,0,0,8,2,4,2,11.48,26.78,55.82,
15.008,118.15639738832957,87.83895464750144,0.0,0.0,-1.0,3,0,0,8,2,4,2,11.77,26.78,56.70,
15.023,118.15963973883295,87.75889546475015,0.0,0.0,-1.0,3,0,0,8,2,4,2,12.16,26.59,57.09,
15.037,118.1599639738833,87.78688954647502,-1.0,0.0,-2.0,3,0,0,8,2,4,2,12.46,26.68,57.58,
15.05,118.19599639738834,87.8526889546475,-1.0,0.0,-1.0,3,0,0,8,2,4,2,12.56,26.29,58.27,
15.065,118.26259963973882,87.95826889546476,-2.0,0.0,-1.0,3,0,0,8,2,4,2,12.65,26.19,58.37,
15.079,118.29625996397388,87.98682688954648,-2.0,1.0,0.0,3,0,0,8,2,4,2,12.75,26.09,58.47,
15.093,118.33562599639738,87.90868268895466,-2.0,1.0,0.0,3,0,0,8,2,4,2,12.75,26.19,58.47,
15.107,118.36656259963974,87.89186826889546,-1.0,0.0,-1.0,3,0,0,8,2,4,2,13.05,26.78,58.47,
15.121,118.33365625996397,87.91718682688955,-1.0,0.0,-1.0,3,0,0,8,2,5,2,13.44,27.17,58.86,
15.135,118.25836562599639,88.00971868268896,-1.0,2.0,-1.0,3,0,0,8,2,5,2,14.32,27.37,59.45,
15.15,118.35883656259963,88.00997186826889,-1.0,2.0,-1.0,3,0,0,8,2,5,2,14.72,27.37,60.14,
15.164,118.42288365625997,88.0459971868269,-1.0,2.0,-1.0,3,0,0,8,2,5,2,15.21,27.27,61.21,
15.177,118.55528836562598,88.01359971868268,-2.0,2.0,0.0,3,0,0,8,2,5,2,15.60,27.27,61.80,
15.192,118.5415288365626,88.12735997186827,-1.0,1.0,-1.0,3,0,0,8,2,5,2,16.38,27.37,62.20,
15.206,118.51315288365626,87.99473599718682,-1.0,1.0,-1.0,3,0,0,8,2,5,2,16.97,27.57,62.59,
15.22,118.47431528836563,88.02647359971868,-1.0,1.0,-2.0,3,0,0,8,2,5,2,17.27,27.66,62.98,
15.234,118.48843152883656,88.13764735997188,0.0,1.0,-2.0,3,0,0,8,2,5,2,17.56,27.47,63.57,
15.248,118.53484315288367,88.14876473599719,0.0,1.0,-1.0,3,0,0,9,2,5,2,17.85,27.17,64.06,
15.262,118.66548431528838,88.1858764735997,-1.0,2.0,-2.0,3,0,0,9,2,5,2,18.34,26.39,65.33,
15.277,118.74154843152884,88.21658764735997,-1.0,2.0,-1.0,3,0,0,9,2,5,2,18.54,26.00,65.83,
15.29,118.91115484315289,88.25565876473601,-1.0,2.0,-1.0,3,0,0,9,2,5,2,18.84,25.70,66.22,
15.304,118.95511548431529,88.2685658764736,-3.0,2.0,0.0,3,0,0,9,2,5,2,19.13,25.31,66.61,
15.319,119.03151154843154,88.35085658764736,-4.0,2.0,0.0,3,0,0,9,2,5,2,19.42,25.31,66.71,
15.333,119.02115115484315,88.30508565876474,-3.0,3.0,0.0,3,0,0,9,2,5,2,19.62,25.51,66.22,
15.346,119.05611511548432,88.22850856587647,-3.0,2.0,0.0,3,0,0,9,2,5,2,19.72,25.90,65.53,
15.361,119.06861151154843,88.12185085658766,-2.0,2.0,0.0,3,0,0,9,2,5,2,19.82,27.08,65.04,
15.375,119.18686115115484,88.10218508565876,-2.0,2.0,0.0,3,0,0,9,2,5,2,20.50,27.37,64.45,
15.389,119.22568611511548,88.06421850856589,-2.0,1.0,0.0,3,0,0,9,2,5,2,20.80,27.57,64.35,
15.403,119.26556861151155,88.09642185085659,-3.0,2.0,0.0,3,0,0,9,2,5,2,20.99,27.76,64.26,
15.417,119.31455686115115,88.05464218508567,-3.0,2.0,0.0,3,0,0,9,2,5,2,21.19,28.45,63.77,
15.431,119.41845568611512,88.02346421850856,-4.0,2.0,0.0,3,0,0,9,2,5,2,21.58,29.04,63.37,
15.444,119.44684556861152,87.95734642185086,-4.0,2.0,0.0,3,0,0,9,2,5,2,21.88,29.82,62.78,
15.459,119.49468455686115,87.92373464218508,-4.0,1.0,0.0,3,0,0,9,2,5,2,22.07,30.71,62.00,
15.473,119.50846845568613,87.8843734642185,-4.0,0.0,0.0,3,0,0,8,2,5,2,22.07,32.57,60.43,
15.488,119.48284684556862,87.77243734642185,-3.0,0.0,0.0,3,0,0,8,2,4,2,22.07,33.55,59.55,
15.501,119.48028468455686,87.75224373464219,-3.0,0.0,0.0,3,0,0,8,2,4,2,22.17,34.63,58.86,
15.515,119.46202846845569,87.76822437346421,-3.0,0.0,0.0,3,0,0,8,2,4,2,22.17,35.61,58.17,
15.529,119.50520284684558,87.76982243734642,-3.0,1.0,1.0,3,0,0,8,2,4,2,22.07,37.67,56.80,
15.543,119.49152028468455,87.78798224373465,-3.0,1.0,1.0,3,0,0,8,1,4,2,21.78,38.75,55.82,
15.557,119.51715202846844,87.72679822437347,-3.0,1.0,1.0,3,0,0,8,0,4,2,21.58,40.02,54.94,
15.571,119.51071520284685,87.75667982243735,-4.0,1.0,2.0,3,0,0,8,0,4,2,21.58,42.67,54.15,
15.586,119.60907152028469,87.72366798224374,-4.0,1.0,1.0,3,0,0,8,0,4,2,21.48,44.05,52.19,
15.599,119.63690715202847,87.66636679822437,-4.0,2.0,2.0,3,0,0,8,0,4,2,21.19,45.42,51.11,
15.613,119.78369071520284,87.46263667982244,-4.0,2.0,1.0,3,0,0,8,1,4,2,21.09,46.79,50.03,
15.628,119.87936907152027,87.39726366798224,-4.0,2.0,1.0,3,0,0,8,1,4,2,20.99,50.03,49.05,
15.641,119.85293690715201,87.25572636679821,-4.0,0.0,0.0,3,0,0,8,0,4,2,20.99,51.60,47.48,
15.655,119.82329369071519,87.2145726366798,-4.0,0.0,0.0,3,0,0,7,0,4,1,20.99,52.97,46.70,
15.67,119.83832936907153,87.16545726366797,-4.0,1.0,0.0,3,0,0,7,0,4,1,20.80,54.15,46.01,
15.684,119.88483293690715,87.12454572636679,-4.0,1.0,0.0,3,0,0,7,1,3,1,20.70,56.31,44.64,
15.697,119.9164832936907,87.08445457263667,-4.0,1.0,1.0,3,0,0,7,1,3,1,20.40,57.39,43.85,
15.712,119.96464832936907,86.99944545726366,-4.0,1.0,0.0,3,0,0,7,0,3,1,20.11,58.47,43.07,
15.726,120.00546483293691,86.83794454572636,-3.0,0.0,0.0,3,0,0,7,0,3,1,19.62,59.55,42.38,
15.739,119.99154648329369,86.73179445457264,-3.0,0.0,0.0,3,0,0,7,0,3,1,19.42,61.41,41.01,
15.754,119.95415464832936,86.67617944545727,-3.0,0.0,0.0,3,0,0,7,0,3,1,19.33,62.29,40.61,
15.768,119.78841546483292,86.62561794454574,-4.0,0.0,0.0,3,0,0,7,0,3,1,19.23,63.08,40.32,
15.781,119.85284154648329,86.61156179445457,-4.0,0.0,-1.0,3,0,0,7,1,3,1,18.93,63.77,40.02,
15.796,119.96728415464833,86.54715617944547,-3.0,1.0,0.0,3,0,0,7,0,3,1,18.84,63.86,39.34,
15.81,119.97872841546483,86.54071561794456,-3.0,0.0,-1.0,3,0,0,7,0,3,1,18.84,63.96,39.04,
15.824,120.03387284154648,86.51307156179446,-3.0,0.0,-1.0,3,0,0,7,0,3,1,18.74,63.96,38.75,
15.839,120.06638728415464,86.52830715617945,-2.0,0.0,-1.0,3,0,0,7,0,3,1,18.64,63.86,38.65,
15.852,120.02463872841547,86.45783071561794,-1.0,0.0,-1.0,3,0,0,7,1,3,1,18.64,63.47,38.55,
15.866,120.01146387284155,86.5227830715618,-1.0,0.0,0.0,3,0,0,7,1,3,1,18.54,63.18,38.55,
15.881,120.06414638728415,86.50227830715619,-2.0,0.0,-1.0,3,0,0,7,1,3,1,18.64,63.18,38.65,
15.895,120.03341463872842,86.50922783071563,-2.0,0.0,-1.0,3,0,0,7,1,3,1,19.03,63.18,39.04,
15.908,120.02134146387284,86.49192278307156,-2.0,0.0,-1.0,3,0,0,7,1,3,1,19.13,62.98,39.14,
15.923,120.09213414638728,86.58019227830717,-2.0,0.0,0.0,3,0,0,7,1,3,1,19.13,62.69,39.24,
15.937,120.10821341463873,86.56201922783073,-2.0,0.0,-1.0,3,0,0,7,1,3,1,19.13,62.39,39.24,
15.951,120.08282134146387,86.55120192278306,-2.0,0.0,-1.0,3,0,0,7,1,3,1,19.42,62.00,39.24,
15.966,120.02628213414638,86.5231201922783,-2.0,0.0,-1.0,3,0,0,7,1,3,1,19.52,62.00,39.14,
15.979,119.97562821341464,86.58331201922783,-2.0,0.0,-1.0,3,0,0,7,1,3,1,19.52,62.00,39.04,
15.993,119.91656282134146,86.56233120192279,-2.0,0.0,-1.0,3,0,0,7,1,3,1,19.52,61.80,39.14,
16.008,119.95565628213414,86.46123312019229,-2.0,0.0,-1.0,3,0,0,7,1,3,1,19.72,61.80,39.34,
16.022,120.01356562821341,86.46012331201922,-2.0,0.0,-1.0,3,0,0,7,1,3,1,19.91,61.70,39.34,
16.035,120.13635656282135,86.44201233120192,-2.0,0.0,-1.0,3,0,0,7,1,3,1,19.91,61.61,39.44,
16.05,120.20263565628213,86.39520123312019,-2.0,0.0,-1.0,3,0,0,7,1,3,1,19.91,61.21,39.44,
16.064,120.21826356562822,86.27352012331201,-2.0,0.0,-1.0,3,0,0,7,0,3,1,20.01,61.31,39.44,
16.078,120.16582635656283,86.2973520123312,-1.0,0.0,-1.0,3,0,0,7,0,3,1,20.11,61.41,39.44,
16.093,120.10658263565628,86.42573520123312,-2.0,0.0,0.0,3,0,0,7,1,3,1,20.11,61.61,39.53,
16.106,120.13665826356564,86.4565735201233,-2.0,0.0,0.0,3,0,0,7,1,3,1,20.11,61.80,39.44,
16.12,120.13966582635656,86.50465735201234,-2.0,0.0,0.0,3,0,0,7,1,3,1,19.91,61.80,39.34,
16.135,120.24796658263566,86.52746573520125,-2.0,0.0,0.0,3,0,0,7,1,3,1,19.72,62.10,39.24,
16.148,120.28579665826358,86.52074657352011,-2.0,-1.0,0.0,3,0,0,7,1,3,1,19.72,62.59,39.04,
16.162,120.24457966582635,86.42107465735202,-2.0,-1.0,-1.0,3,0,0,7,2,3,1,19.72,62.98,38.65,
16.177,120.23145796658264,86.4111074657352,-2.0,0.0,0.0,3,0,0,7,2,3,1,19.62,63.18,38.55,
16.191,120.21214579665825,86.48211074657351,-2.0,-1.0,-1.0,3,0,0,7,2,3,1,19.33,63.27,38.46,
16.205,120.20121457966583,86.51621107465735,-1.0,0.0,-1.0,3,0,0,7,2,3,1,19.13,63.27,38.36,
16.22,120.14612145796659,86.56462110746573,-2.0,0.0,0.0,3,0,0,7,2,3,1,19.03,63.18,38.26,
16.233,120.20361214579665,86.51546211074658,-2.0,0.0,0.0,3,0,0,7,2,3,1,18.93,63.27,38.16,
16.247,120.20936121457966,86.51954621107465,-2.0,0.0,0.0,3,0,0,7,2,3,1,18.74,63.37,38.06,
16.262,120.22793612145797,86.47495462110747,-2.0,-1.0,-1.0,3,0,0,7,2,3,1,18.74,63.67,37.87,
16.276,120.3017936121458,86.38949546211074,-2.0,-1.0,-1.0,3,0,0,7,2,3,1,18.64,63.86,37.87,
16.289,120.19217936121458,86.39894954621107,-1.0,-1.0,-1.0,3,0,0,7,2,3,1,18.44,63.86,37.77,
16.304,120.10921793612145,86.3908949546211,-1.0,-1.0,-1.0,3,0,0,7,2,3,1,18.15,63.86,37.57,
16.318,120.02892179361214,86.3810894954621,-2.0,0.0,-1.0,3,0,0,7,2,3,1,18.05,63.77,37.57,
16.332,119.98489217936121,86.43410894954621,-2.0,0.0,0.0,3,0,0,7,2,3,1,17.85,63.47,37.57,
16.347,120.01648921793611,86.44841089495463,-2.0,0.0,0.0,3,0,0,7,2,3,1,17.76,63.37,37.47,
16.36,120.0826489217936,86.44084108949546,-2.0,0.0,0.0,3,0,0,7,2,3,1,17.56,63.27,37.38,
16.374,120.08926489217936,86.41308410894955,-2.0,0.0,0.0,3,0,0,7,2,3,1,17.46,63.47,37.18,
16.389,120.10792648921793,86.41030841089496,-2.0,0.0,-1.0,3,0,0,7,2,3,1,17.46,63.67,37.08,
16.403,120.0467926489218,86.45503084108948,-2.0,0.0,-1.0,3,0,0,7,2,3,1,17.46,63.77,36.98,
16.416,120.04967926489218,86.41450308410896,-2.0,0.0,-1.0,3,0,0,7,2,3,1,17.36,63.77,36.89,
16.431,120.08596792648922,86.4014503084109,-2.0,0.0,0.0,3,0,0,7,2,3,1,17.36,63.86,36.79,
16.445,120.16159679264892,86.42714503084109,-2.0,0.0,-1.0,3,0,0,7,2,3,1,17.27,63.86,36.69,
16.459,120.20515967926488,86.36671450308411,-2.0,-1.0,-1.0,3,0,0,7,2,3,1,17.07,63.77,36.59,
16.474,120.16451596792649,86.36067145030842,-2.0,0.0,-1.0,3,0,0,7,2,3,1,16.78,63.57,36.30,
16.487,120.14245159679265,86.39606714503084,-2.0,0.0,-1.0,3,0,0,7,2,3,1,16.68,63.47,36.20,
16.501,120.13124515967927,86.3906067145031,-2.0,0.0,-1.0,3,0,0,7,2,3,1,16.58,63.27,36.20,
16.516,120.06712451596792,86.43506067145032,-2.0,-1.0,-1.0,3,0,0,7,2,3,1,16.48,63.27,36.10,
16.53,120.04271245159678,86.48450606714502,-2.0,0.0,-1.0,3,0,0,7,2,3,1,16.19,63.37,35.90,
16.544,119.96827124515967,86.4624506067145,-2.0,0.0,0.0,3,0,0,7,2,3,1,15.99,63.47,35.81,
16.558,119.94282712451596,86.48724506067144,-2.0,0.0,0.0,3,0,0,7,2,3,1,15.89,63.47,35.61,
16.572,119.94928271245159,86.43572450606715,-2.0,0.0,0.0,3,0,0,7,2,3,1,15.79,63.77,35.22,
16.586,119.92292827124515,86.35857245060672,-2.0,-1.0,-1.0,3,0,0,6,2,3,1,15.40,63.86,35.02,
16.601,119.92029282712451,86.35085724506067,-2.0,-1.0,-1.0,3,0,0,6,2,3,1,15.21,63.96,34.92,
16.614,119.90202928271246,86.41308572450608,-2.0,-1.0,-1.0,3,0,0,6,2,3,1,15.01,63.67,34.83,
16.628,119.86420292827124,86.43730857245062,-2.0,0.0,0.0,3,0,0,6,2,3,1,15.01,63.77,34.53,
16.643,119.84242029282713,86.43973085724507,-2.0,-1.0,-1.0,3,0,0,6,2,3,1,14.62,63.67,34.43,
16.657,119.7502420292827,86.44897308572452,-2.0,0.0,-1.0,3,0,0,6,2,3,1,14.42,63.57,34.34,
16.671,119.75902420292827,86.38689730857246,-2.0,-1.0,-1.0,3,0,0,6,2,3,1,14.32,63.47,34.04,
16.686,119.75090242029283,86.38968973085724,-2.0,-1.0,-1.0,3,0,0,6,2,3,1,14.22,63.27,33.94,
16.699,119.77709024202929,86.35396897308573,-2.0,0.0,-1.0,3,0,0,6,2,3,1,13.93,63.08,33.94,
16.713,119.80670902420293,86.33239689730857,-2.0,0.0,-1.0,3,0,0,6,2,3,1,13.73,62.78,33.84,
16.728,119.85467090242028,86.35723968973086,-2.0,0.0,-1.0,3,0,0,6,2,3,1,13.54,62.29,33.75,
16.742,119.86846709024204,86.35972396897309,-1.0,0.0,-1.0,3,0,0,6,2,3,1,13.44,62.00,33.65,
16.756,119.8608467090242,86.3869723968973,-1.0,-1.0,-1.0,3,0,0,6,2,3,1,13.24,61.61,33.55,
16.771,119.86908467090242,86.34469723968974,-1.0,-1.0,-1.0,3,0,0,6,2,3,1,13.24,61.21,33.65,
16.784,119.77990846709024,86.28646972396898,-2.0,0.0,-1.0,3,0,0,6,2,3,1,13.44,60.92,33.84,
16.798,119.75299084670903,86.2716469723969,-2.0,0.0,-1.0,3,0,0,6,2,3,1,13.44,60.72,33.94,
16.813,119.7502990846709,86.3331646972397,-2.0,0.0,-1.0,3,0,0,6,2,3,1,13.44,60.63,33.94,
16.827,119.8040299084671,86.28531646972397,-1.0,0.0,-1.0,3,0,0,6,2,3,1,13.54,60.33,33.94,
16.841,119.79140299084672,86.27153164697239,-1.0,-1.0,-1.0,3,0,0,6,2,3,1,13.54,60.23,34.04,
16.855,119.84414029908467,86.28815316469723,-1.0,-1.0,-1.0,3,0,0,6,2,3,1,13.44,60.14,34.24,
16.869,119.88541402990846,86.29881531646973,-1.0,-1.0,-1.0,3,0,0,6,2,3,1,13.54,60.14,34.34,
16.883,119.94354140299085,86.32688153164698,-1.0,-1.0,-1.0,3,0,0,6,2,3,1,13.64,59.84,34.43,
16.898,119.88635414029908,86.2846881531647,-1.0,-1.0,-1.0,3,0,0,6,2,3,1,13.64,59.64,34.53,
16.912,119.8896354140299,86.29846881531647,-1.0,-1.0,-1.0,3,0,0,6,2,3,1,13.64,59.45,34.63,
16.926,119.88996354140298,86.30884688153165,-1.0,0.0,-1.0,3,0,0,6,2,3,1,13.73,58.57,34.73,
16.941,119.9349963541403,86.28288468815316,-1.0,-1.0,-1.0,3,0,0,6,2,3,1,13.73,58.27,35.02,
16.954,120.02049963541403,86.28928846881531,-1.0,0.0,-1.0,3,0,0,6,2,3,1,13.83,57.88,35.12,
16.968,119.9750499635414,86.34392884688154,-1.0,0.0,-1.0,3,0,0,6,2,3,1,13.93,57.58,35.22,
16.983,119.92550499635414,86.32239288468816,-1.0,0.0,-2.0,3,0,0,6,2,3,1,14.03,57.29,35.61,
16.997,119.96555049963541,86.27523928846881,-1.0,0.0,-1.0,3,0,0,6,2,3,1,14.13,57.00,35.90,
17.011,119.86155504996353,86.32452392884689,-1.0,0.0,-1.0,3,0,0,7,2,3,1,14.32,56.60,36.10,
17.025,119.84215550499636,86.39245239288469,-1.0,0.0,-2.0,3,0,0,7,2,3,1,14.52,55.72,36.40,
17.039,119.80421555049962,86.46224523928848,-1.0,0.0,-1.0,3,0,0,7,2,3,1,14.62,55.33,36.89,
17.053,119.75542155504996,86.46022452392884,-1.0,0.0,-2.0,3,0,0,7,2,3,1,14.72,54.84,37.28,
17.068,119.705542155505,86.51402245239288,-1.0,0.0,-1.0,3,0,0,7,2,3,1,15.01,54.45,37.57,
17.082,119.7725542155505,86.60040224523928,-1.0,0.0,-1.0,3,0,0,7,2,3,1,15.11,53.86,37.96,
17.095,119.84225542155504,86.59104022452394,-1.0,0.0,-1.0,3,0,0,7,2,3,1,15.40,53.56,38.46,
17.11,119.8492255421555,86.55410402245239,-1.0,0.0,-1.0,3,0,0,7,2,3,1,15.50,53.46,38.55,
17.124,119.78692255421555,86.61341040224525,-1.0,0.0,-1.0,3,0,0,7,2,3,1,15.60,53.37,38.65,
17.138,119.82569225542154,86.59234104022454,-1.0,0.0,-1.0,3,0,0,7,2,3,1,15.70,53.07,39.24,
17.153,119.84756922554214,86.58123410402246,-1.0,0.0,-1.0,3,0,0,7,2,3,1,16.09,52.78,39.63,
17.166,119.8317569225542,86.58012341040224,-1.0,0.0,-1.0,3,0,0,7,2,3,1,16.28,52.48,39.93,
17.18,119.80317569225541,86.61601234104023,-1.0,0.0,-1.0,3,0,0,7,2,3,1,16.38,52.29,40.22,
17.195,119.78231756922554,86.68260123410403,-1.0,0.0,-1.0,3,0,0,7,2,3,1,16.58,51.89,40.71,
17.209,119.66323175692256,86.6892601234104,-2.0,0.0,-1.0,3,0,0,7,2,3,1,16.97,51.99,40.91,
17.223,119.64232317569225,86.68992601234103,-2.0,0.0,-1.0,3,0,0,7,2,3,1,17.17,51.99,41.10,
17.236,119.72123231756923,86.7169926012341,-2.0,0.0,-1.0,3,0,0,7,2,3,1,17.36,51.89,41.30,
17.251,119.75612323175693,86.7106992601234,-2.0,0.0,-1.0,3,0,0,7,2,3,1,17.56,51.80,41.59,
17.265,119.86761232317569,86.68306992601235,-2.0,0.0,-1.0,3,0,0,7,2,3,1,17.76,51.80,41.79,
17.28,119.82476123231756,86.70730699260123,-2.0,0.0,-1.0,3,0,0,7,2,3,1,17.85,51.70,41.79,
17.294,119.79347612323176,86.73673069926012,-2.0,0.0,0.0,3,0,0,7,2,3,1,17.95,52.19,41.69,
17.307,119.77234761232316,86.74867306992601,-2.0,0.0,-1.0,3,0,0,7,2,3,1,18.05,52.39,41.79,
17.321,119.77923476123232,86.7318673069926,-2.0,0.0,-1.0,3,0,0,7,2,3,1,18.25,52.58,41.79,
17.336,119.86092347612323,86.72118673069926,-2.0,0.0,-1.0,3,0,0,7,2,3,1,18.64,53.07,41.89,
17.35,119.90509234761231,86.64811867306992,-2.0,0.0,-1.0,3,0,0,7,2,3,1,18.74,53.37,41.99,
17.363,119.95450923476123,86.67681186730701,-2.0,0.0,-1.0,3,0,0,7,2,3,1,18.84,53.37,41.99,
17.378,119.95945092347611,86.7066811867307,-2.0,0.0,-1.0,3,0,0,7,2,3,1,18.84,53.37,41.99,
17.392,119.94194509234761,86.69166811867306,-2.0,0.0,-1.0,3,0,0,7,2,3,1,19.03,53.56,42.08,
17.406,119.92219450923476,86.7081668118673,-2.0,0.0,-1.0,3,0,0,7,2,3,1,19.13,53.66,42.08,
17.421,119.95621945092347,86.65581668118674,-2.0,0.0,0.0,3,0,0,7,2,3,1,19.13,53.76,41.99,
17.434,120.03162194509234,86.60558166811867,-2.0,0.0,0.0,3,0,0,7,2,3,1,19.03,53.86,41.79,
17.448,120.04816219450923,86.62755816681187,-2.0,0.0,0.0,3,0,0,7,2,3,1,18.84,54.35,41.50,
17.463,119.95081621945091,86.63875581668118,-2.0,0.0,0.0,3,0,0,7,2,3,1,18.74,54.64,41.20,
17.476,119.94108162194509,86.66687558166812,-2.0,0.0,0.0,3,0,0,7,2,3,1,18.74,55.03,41.01,
17.49,119.8951081621945,86.63368755816681,-2.0,0.0,0.0,3,0,0,7,2,3,1,18.64,55.52,40.81,
17.505,119.85451081621945,86.59436875581669,-2.0,0.0,0.0,3,0,0,7,2,3,1,18.44,56.31,40.42,
17.518,119.85045108162194,86.62643687558166,-2.0,0.0,0.0,3,0,0,7,2,3,1,18.44,56.51,40.32,
17.532,119.9130451081622,86.63864368755816,-2.0,0.0,0.0,3,0,0,7,2,3,1,18.54,56.70,40.42,
17.547,119.94630451081622,86.68486436875581,-2.0,0.0,0.0,3,0,0,7,2,3,1,18.54,57.00,40.22,
17.561,119.98563045108162,86.68948643687558,-2.0,0.0,0.0,3,0,0,7,2,3,1,18.44,57.49,39.93,
17.574,120.02556304510816,86.61794864368755,-2.0,0.0,0.0,3,0,0,7,2,3,1,18.34,57.78,39.63,
17.589,119.97555630451082,86.55679486436875,-2.0,0.0,0.0,3,0,0,7,2,3,1,18.25,58.17,39.34,
17.603,119.99755563045107,86.58667948643688,-2.0,0.0,0.0,3,0,0,7,2,3,1,18.25,58.96,39.14,
17.616,119.9997555630451,86.5896679486437,-2.0,0.0,0.0,3,0,0,7,2,3,1,18.25,59.15,38.85,
17.631,120.0269755563045,86.58996679486438,-2.0,0.0,0.0,3,0,0,7,2,3,1,18.05,59.35,38.75,
17.645,120.03869755563045,86.57199667948643,-2.0,0.0,0.0,3,0,0,7,2,3,1,17.95,59.45,38.65,
17.659,119.98586975556304,86.50719966794865,-2.0,0.0,0.0,3,0,0,7,2,3,1,17.95,60.04,38.16,
17.673,120.00758697555631,86.49171996679486,-2.0,0.0,0.0,3,0,0,7,2,3,1,17.95,60.53,38.06,
17.687,119.96475869755562,86.47217199667949,-2.0,0.0,0.0,3,0,0,7,2,3,1,17.95,60.82,37.96,
17.701,119.95147586975555,86.45221719966796,-2.0,0.0,-1.0,3,0,0,7,2,3,1,18.05,61.21,37.96,
17.715,119.96814758697555,86.4772217199668,-2.0,0.0,-1.0,3,0,0,7,2,3,1,18.15,61.70,37.96,
17.729,119.97881475869755,86.53372217199669,-2.0,0.0,0.0,3,0,0,7,2,3,1,18.25,61.61,37.96,
17.743,119.99788147586975,86.58437221719967,-2.0,0.0,0.0,3,0,0,7,2,3,1,18.34,61.70,37.96,
17.758,119.96378814758697,86.54443722171997,-2.0,0.0,-1.0,3,0,0,7,2,3,1,18.44,61.80,37.96,
17.771,120.0773788147587,86.531443722172,-2.0,0.0,0.0,3,0,0,7,2,3,1,18.34,62.29,37.67,
17.785,120.05273788147586,86.5481443722172,-2.0,0.0,0.0,3,0,0,7,2,3,1,18.34,62.59,37.67,
17.8,120.05927378814758,86.51381443722173,-2.0,0.0,0.0,3,0,0,7,2,3,1,18.54,62.69,37.57,
17.814,120.06892737881476,86.43838144372218,-2.0,0.0,0.0,3,0,0,7,2,3,1,18.64,62.98,37.47,
17.827,120.07889273788147,86.4578381443722,-2.0,0.0,0.0,3,0,0,7,2,3,1,18.74,63.27,37.38,
17.842,120.09788927378816,86.50478381443723,-2.0,0.0,-1.0,3,0,0,7,2,3,1,18.84,63.67,37.47,
17.856,120.11778892737881,86.48247838144373,-2.0,0.0,-1.0,3,0,0,7,2,3,1,19.03,63.86,37.57,
17.87,120.07477889273788,86.47124783814438,-2.0,0.0,-1.0,3,0,0,7,2,3,1,19.23,64.16,37.67,
17.884,120.04347788927379,86.52412478381444,-2.0,0.0,-1.0,3,0,0,7,2,3,1,19.33,64.26,37.77,
17.898,120.01334778892738,86.50241247838144,-2.0,0.0,-1.0,3,0,0,7,2,3,1,19.33,64.26,37.67,
17.912,120.01033477889274,86.45524124783815,-2.0,0.0,-1.0,3,0,0,7,2,3,1,19.62,64.35,37.67,
17.927,120.06403347788927,86.42352412478382,-2.0,0.0,-1.0,3,0,0,7,2,3,1,19.72,64.45,37.87,
17.94,120.16840334778892,86.45635241247837,-2.0,0.0,-1.0,3,0,0,7,2,3,1,19.82,64.45,37.96,
17.954,120.1788403347789,86.47763524124784,-2.0,0.0,-1.0,3,0,0,7,2,3,1,19.91,64.35,38.16,
17.969,120.20688403347788,86.48876352412478,-2.0,0.0,0.0,3,0,0,7,2,3,1,20.11,64.06,38.36,
17.983,120.1916884033478,86.44487635241248,-2.0,0.0,-1.0,3,0,0,7,2,3,1,20.31,64.26,38.36,
17.997,120.26216884033477,86.38648763524125,-2.0,0.0,-1.0,3,0,0,7,2,3,1,20.31,64.55,38.36,
18.011,120.21521688403347,86.34464876352413,-2.0,0.0,-1.0,3,0,0,7,2,3,1,20.40,64.84,38.46,
18.025,120.25552168840335,86.32246487635241,-2.0,0.0,-1.0,3,0,0,7,2,3,1,20.90,65.33,38.75,
18.039,120.23255216884034,86.27524648763524,-2.0,0.0,-1.0,3,0,0,7,2,3,1,21.19,65.53,38.95,
18.054,120.19425521688405,86.27952464876353,-2.0,0.0,-1.0,3,0,0,7,2,3,1,21.39,65.43,39.04,
18.068,120.25342552168841,86.19895246487636,-1.0,0.0,-1.0,3,0,0,7,2,3,1,21.58,65.33,39.24,
18.081,120.34934255216884,86.20889524648763,-2.0,0.0,-1.0,3,0,0,7,2,3,1,21.78,64.94,39.53,
18.096,120.38593425521688,86.18288952464877,-1.0,0.0,-1.0,3,0,0,7,2,3,1,21.88,64.84,39.63,
18.11,120.4255934255217,86.20728895246488,-1.0,0.0,-1.0,3,0,0,7,2,3,1,21.97,64.75,39.73,
18.124,120.40255934255218,86.26372889524649,-2.0,0.0,0.0,3,0,0,7,2,3,1,22.17,64.55,39.93,
18.138,120.41825593425521,86.35937288952465,-2.0,0.0,0.0,3,0,0,7,2,3,1,22.46,64.55,40.12,
18.152,120.37482559342553,86.30593728895246,-2.0,0.0,0.0,3,0,0,7,2,3,1,22.56,64.75,40.12,
18.166,120.37048255934256,86.27359372889525,-2.0,0.0,0.0,3,0,0,7,2,3,1,22.56,65.04,40.22,
18.181,120.39704825593427,86.23435937288953,-2.0,0.0,0.0,3,0,0,7,2,3,1,22.66,65.83,40.12,
18.194,120.35470482559342,86.23943593728895,-2.0,0.0,-1.0,3,0,0,7,2,3,1,22.76,66.12,39.93,
18.208,120.35947048255933,86.2489435937289,-2.0,0.0,-1.0,3,0,0,7,2,3,1,22.86,66.41,39.93,
18.223,120.39594704825595,86.23189435937289,-2.0,0.0,-1.0,3,0,0,7,2,3,1,22.86,66.41,40.02,
18.237,120.50759470482559,86.24818943593729,-2.0,0.0,-1.0,3,0,0,7,2,3,1,22.96,66.12,40.22,
18.25,120.53675947048256,86.23181894359372,-2.0,0.0,0.0,3,0,0,7,2,3,1,23.05,66.02,40.22,
18.265,120.51267594704825,86.21218189435938,-2.0,0.0,-1.0,3,0,0,7,2,3,1,23.25,66.12,40.32,
18.279,120.47426759470483,86.22821818943594,-2.0,0.0,-1.0,3,0,0,7,2,3,1,23.35,66.32,40.22,
18.293,120.47042675947048,86.20282181894359,-2.0,0.0,-1.0,3,0,0,7,2,3,1,23.45,66.81,40.12,
18.308,120.50604267594704,86.28128218189435,-2.0,0.0,-1.0,3,0,0,7,2,3,1,23.45,66.81,40.12,
18.321,120.47360426759471,86.29812821818943,-2.0,0.0,-1.0,3,0,0,7,2,3,1,23.64,66.71,40.22,
18.335,120.45236042675947,86.18281282181894,-2.0,0.0,-1.0,3,0,0,7,2,3,1,23.74,66.81,40.32,
18.35,120.45923604267594,86.18028128218191,-2.0,0.0,-1.0,3,0,0,7,2,3,1,23.84,67.00,40.42,
18.364,120.45092360426759,86.23402812821818,-2.0,0.0,-1.0,3,0,0,7,2,3,1,23.94,67.20,40.42,
18.377,120.38709236042675,86.19440281282182,-2.0,0.0,-1.0,3,0,0,7,2,3,1,24.03,67.39,40.52,
18.392,120.37170923604269,86.27144028128218,-2.0,0.0,0.0,3,0,0,7,2,3,1,23.94,67.59,40.22,
18.406,120.36117092360426,86.29714402812822,-2.0,0.0,-1.0,3,0,0,7,2,3,1,23.84,67.59,40.02,
18.42,120.38711709236043,86.27271440281282,-2.0,0.0,0.0,3,0,0,7,2,3,1,23.84,67.59,39.93,
18.434,120.38071170923604,86.26127144028128,-2.0,0.0,0.0,3,0,0,7,2,3,1,23.74,67.69,40.02,
18.448,120.4160711709236,86.27812714402813,-2.0,0.0,0.0,3,0,0,7,2,3,1,23.74,67.98,39.73,
18.462,120.47360711709236,86.25281271440281,-2.0,0.0,0.0,3,0,0,7,2,3,1,23.64,68.28,39.73,
18.477,120.47936071170923,86.31328127144027,-2.0,0.0,0.0,3,0,0,7,2,3,1,23.74,68.67,39.53,
18.49,120.49793607117093,86.30132812714403,-2.0,0.0,0.0,3,0,0,7,2,3,1,23.74,69.06,39.44,
18.504,120.4997936071171,86.31813281271441,-2.0,0.0,0.0,3,0,0,7,2,3,1,23.74,69.85,39.24,
18.519,120.4909793607117,86.31081328127144,-2.0,0.0,0.0,3,0,0,7,2,3,1,23.74,70.34,39.14,
18.532,120.49909793607117,86.28308132812714,-2.0,0.0,0.0,3,0,0,7,2,3,1,23.74,70.63,39.14,
18.546,120.46390979360712,86.30730813281272,-2.0,0.0,0.0,3,0,0,7,2,3,1,23.74,71.12,38.95,
18.561,120.46039097936071,86.23773081328127,-2.0,0.0,0.0,3,0,0,7,2,3,1,23.64,71.22,38.75,
18.575,120.47803909793608,86.23077308132812,-2.0,0.0,0.0,3,0,0,7,2,3,1,23.74,71.61,38.55,
18.588,120.4978039097936,86.2030773081328,-2.0,0.0,0.0,3,0,0,7,2,3,1,23.64,71.81,38.46,
18.603,120.50878039097935,86.21830773081328,-2.0,0.0,0.0,3,0,0,7,2,3,1,23.64,72.59,38.16,
18.617,120.53687803909794,86.17483077308133,-2.0,0.0,0.0,3,0,0,7,2,3,1,23.64,73.18,37.96,
18.63,120.5576878039098,86.19748307730814,-2.0,0.0,0.0,3,0,0,7,2,3,1,23.74,73.58,37.87,
18.644,120.61376878039098,86.13674830773081,-2.0,0.0,0.0,3,0,0,7,2,3,1,23.74,73.97,37.77,
18.659,120.5833768780391,86.12167483077309,-2.0,0.0,0.0,3,0,0,7,2,3,1,23.84,74.75,37.57,
18.672,120.64333768780392,86.1021674830773,-2.0,0.0,-1.0,3,0,0,7,2,3,1,24.03,75.14,37.47,
18.686,120.6133337687804,86.06421674830773,-2.0,0.0,-1.0,3,0,0,7,2,3,1,24.23,75.54,37.57,
18.701,120.61933337687805,86.05142167483076,-2.0,0.0,-1.0,3,0,0,7,2,3,1,24.13,75.64,37.47,
18.715,120.61993333768781,86.07714216748307,-3.0,0.0,-1.0,3,0,0,7,2,3,1,24.13,75.64,37.38,
18.729,120.62899333376878,86.00771421674831,-3.0,0.0,0.0,3,0,0,7,2,3,1,24.13,75.73,37.18,
18.743,120.66589933337688,86.00977142167484,-2.0,0.0,0.0,3,0,0,7,2,3,1,24.13,75.93,36.98,
18.757,120.69658993333769,85.99197714216747,-2.0,0.0,0.0,3,0,0,7,2,3,1,24.23,76.62,36.98,
18.771,120.60965899333375,85.99919771421675,-2.0,0.0,0.0,3,0,0,7,2,3,1,24.33,77.11,37.08,
18.785,120.59196589933337,86.00891977142167,-2.0,0.0,0.0,3,0,0,7,2,3,1,24.52,77.60,37.08,
18.799,120.61719658993334,85.97389197714217,-2.0,0.0,0.0,3,0,0,6,2,3,1,24.82,78.19,37.08,
18.813,120.64671965899333,85.98838919771421,-2.0,0.0,0.0,3,0,0,7,2,3,1,25.11,79.17,36.98,
18.828,120.70367196589933,85.93583891977143,-2.0,0.0,-1.0,3,0,0,6,2,3,1,25.31,79.46,37.08,
18.841,120.73636719658992,85.92158389197715,-2.0,0.0,-1.0,3,0,0,6,2,3,1,25.41,79.66,37.08,
18.855,120.73963671965899,85.93815838919772,-2.0,0.0,0.0,3,0,0,6,2,3,1,25.51,79.66,37.08,
18.87,120.75796367196591,85.97581583891977,-2.0,0.0,0.0,3,0,0,6,2,3,1,25.60,79.76,37.08,
18.884,120.7867963671966,85.97058158389198,-2.0,0.0,0.0,3,0,0,6,2,3,1,25.51,79.95,36.98,
18.897,120.81667963671966,85.9250581583892,-2.0,0.0,0.0,3,0,0,6,2,3,1,25.51,80.15,36.89,
18.912,120.88266796367196,85.89350581583892,-2.0,0.0,0.0,3,0,0,6,2,3,1,25.51,80.34,36.89,
18.926,120.9702667963672,85.83635058158389,-2.0,0.0,0.0,3,0,0,6,2,3,1,25.51,80.93,36.59,
18.939,120.9610266796367,85.74963505815839,-2.0,0.0,-1.0,3,0,0,6,2,2,1,25.51,81.13,36.49,
18.954,120.88810266796366,85.78596350581586,-2.0,0.0,-1.0,3,0,0,6,2,2,1,25.51,81.42,36.49,
18.968,120.90781026679636,85.77159635058158,-2.0,0.0,0.0,3,0,0,6,2,2,1,25.41,81.72,36.49,
18.982,120.88278102667964,85.83315963505815,-2.0,0.0,0.0,3,0,0,6,2,2,1,25.31,81.82,36.40,
18.996,120.85327810266796,85.83031596350581,-2.0,0.0,0.0,3,0,0,6,2,2,1,25.31,81.82,36.30,
19.01,120.89532781026679,85.78503159635058,-2.0,0.0,0.0,3,0,0,6,2,2,1,25.21,81.82,36.20,
19.024,120.87253278102668,85.81650315963506,-2.0,0.0,0.0,3,0,0,6,2,2,1,25.21,81.91,36.10,
19.038,120.90625327810267,85.8016503159635,-2.0,0.0,-1.0,3,0,0,6,2,2,1,25.11,82.01,36.10,
19.052,120.88262532781026,85.76416503159636,-2.0,0.0,0.0,3,0,0,6,2,2,1,25.11,82.11,35.90,
