time,pitch,roll,gyrx,gyry,gyrz,f1,f2,f3,f4,f5,f6,f7,g1,g2,g3
0.399,43.78,63.83,-2.97,-0.54,-1.24,0.0,0.0,1.0,1.0,0.0,0.0,0.0,0.0,0.0,0.0,
0.422,50.620000000000005,73.289,-2.92,-2.11,-1.8,0.0,0.0,1.0,1.0,0.0,0.0,0.0,0.0,0.0,0.0,
0.446,56.83,82.2989,-2.24,-1.74,-3.02,0.0,0.0,1.0,1.0,0.0,0.0,0.0,0.0,0.0,0.0,
0.47,61.842999999999996,89.96789,-1.82,-3.31,-2.56,0.0,0.0,0.0,1.0,0.0,0.0,0.0,0.0,0.0,0.0,
0.493,66.3223,96.386789,-2.73,-1.86,-0.14,0.0,0.0,0.0,1.0,0.0,0.0,0.0,0.0,0.0,0.0,
0.518,70.33423,101.8076789,-4.92,0.8,0.98,0.0,0.0,0.0,1.0,0.0,0.0,0.0,0.0,0.0,0.0,
0.541,73.543423,106.39976788999999,-6.75,1.21,-1.6,0.0,0.0,1.0,1.0,0.0,0.0,0.0,0.0,0.0,0.0,
0.565,76.4383423,110.476976789,-7.6,1.7,-1.49,0.0,0.0,1.0,1.0,0.0,0.0,0.0,0.0,0.0,0.0,
0.588,78.85183423000001,113.9266976789,-7.72,1.5,-2.24,0.0,0.0,1.0,1.0,0.0,0.0,0.0,0.0,0.0,0.0,
0.612,80.731183423,116.80966976789,-6.49,-1.03,-4.66,0.0,0.0,0.0,1.0,0.0,0.0,0.0,0.0,0.0,0.0,
0.635,82.43111834230001,119.401966976789,-3.5,-3.99,-4.21,0.0,0.0,0.0,1.0,0.0,0.0,0.0,0.0,0.0,0.0,
0.66,83.71711183423,121.5601966976789,-2.06,-1.62,-1.89,0.0,0.0,1.0,1.0,0.0,0.0,0.0,0.0,0.0,0.0,
0.684,84.75471118342301,123.3870196697679,-2.35,0.5,-0.02,0.0,0.0,0.0,1.0,0.0,0.0,0.0,0.0,0.0,0.0,
0.707,85.5604711183423,125.02770196697678,-2.53,1.04,0.12,0.0,0.0,0.0,1.0,0.0,0.0,0.0,0.0,0.0,0.0,
0.731,86.28904711183424,126.37077019669766,-2.46,-0.57,-1.25,0.0,0.0,0.0,1.0,0.0,0.0,0.0,0.0,0.0,0.0,
0.754,87.18990471118343,127.36007701966976,-3.44,-1.3,-1.03,0.0,0.0,0.0,1.0,0.0,0.0,0.0,0.0,0.0,0.0,
0.778,87.70299047111835,128.29600770196697,-4.75,-0.11,-1.74,0.0,0.0,1.0,1.0,0.0,0.0,0.0,0.0,0.0,0.0,
0.802,88.01529904711184,129.0466007701967,-3.37,0.85,-1.92,0.0,0.0,0.0,1.0,0.0,0.0,0.0,0.0,0.0,0.0,
0.826,88.55052990471117,129.70666007701968,0.29,-2.06,-1.08,0.0,0.0,0.0,1.0,0.0,0.0,0.0,0.0,0.0,0.0,
0.849,88.82005299047111,129.96166600770198,1.2,-3.56,-0.24,0.0,0.0,1.0,1.0,0.0,0.0,0.0,0.0,0.0,0.0,
0.873,89.12600529904711,130.3831666007702,-1.76,-1.08,-0.33,0.0,0.0,1.0,1.0,0.0,0.0,0.0,0.0,0.0,0.0,
0.897,89.4896005299047,130.87531666007703,-3.74,0.42,1.15,0.0,0.0,0.0,1.0,0.0,0.0,0.0,0.0,0.0,0.0,
0.92,90.02096005299047,131.1855316660077,-2.1,-1.08,1.61,0.0,0.0,0.0,1.0,0.0,0.0,0.0,0.0,0.0,0.0,
0.945,90.32609600529904,131.30655316660076,-3.18,-0.27,-1.2,0.0,0.0,0.0,1.0,0.0,0.0,0.0,0.0,0.0,0.0,
0.968,90.77960960052991,131.62465531666007,-6.29,-0.33,-1.31,0.0,0.0,1.0,1.0,0.0,0.0,0.0,0.0,0.0,0.0,
0.992,91.20296096005299,131.989465531666,-7.97,-1.37,-0.32,0.0,0.0,1.0,1.0,0.0,0.0,0.0,0.0,0.0,0.0,
1.015,91.4432960960053,132.32294655316662,-5.6,-1.23,-0.85,0.0,0.0,1.0,1.0,0.0,0.0,0.0,0.0,0.0,0.0,
1.039,91.66532960960053,132.77029465531666,-1.47,-1.98,-1.07,0.0,0.0,0.0,1.0,0.0,0.0,0.0,0.0,0.0,0.0,
1.063,91.84953296096006,132.86002946553168,-2.29,-2.55,-0.19,0.0,0.0,0.0,1.0,0.0,0.0,0.0,0.0,0.0,0.0,
1.087,92.092953296096,132.86000294655318,-5.13,-0.78,0.59,0.0,0.0,0.0,1.0,0.0,0.0,0.0,0.0,0.0,0.0,
1.111,92.1262953296096,132.87800029465532,-6.5,1.13,-1.24,0.0,0.0,0.0,1.0,0.0,0.0,0.0,0.0,0.0,0.0,
1.134,92.05762953296096,132.82580002946554,-4.6,0.2,-3.79,0.0,0.0,0.0,1.0,0.0,0.0,0.0,0.0,0.0,0.0,
1.158,92.0867629532961,132.81158000294656,-3.98,-1.26,-4.16,0.0,0.0,1.0,1.0,0.0,0.0,0.0,0.0,0.0,0.0,
1.182,92.08067629532961,132.80115800029466,-5.92,-0.53,-1.73,0.0,0.0,1.0,1.0,0.0,0.0,0.0,0.0,0.0,0.0,
1.206,91.81006762953297,132.96211580002944,-6.69,-0.58,0.5,0.0,0.0,1.0,1.0,0.0,0.0,0.0,0.0,0.0,0.0,
1.229,91.66600676295332,133.10421158000295,-3.78,-2.08,0.69,0.0,0.0,1.0,1.0,0.0,0.0,0.0,0.0,0.0,0.0,
1.253,91.66060067629533,133.0734211580003,-1.3,-3.4,-0.78,0.0,0.0,1.0,1.0,0.0,0.0,0.0,0.0,0.0,0.0,
1.276,91.51606006762954,133.08834211580003,-3.04,-1.39,-1.14,0.0,0.0,1.0,1.0,0.0,0.0,0.0,0.0,0.0,0.0,
1.301,91.55560600676296,133.03583421158,-6.11,-0.3,0.52,0.0,0.0,1.0,1.0,0.0,0.0,0.0,0.0,0.0,0.0,
1.325,91.7395606006763,133.066583421158,-6.15,0.18,0.96,0.0,0.0,1.0,1.0,0.0,0.0,0.0,0.0,0.0,0.0,
1.348,91.68595606006764,133.1236583421158,-3.93,0.41,-0.79,0.0,0.0,1.0,1.0,0.0,0.0,0.0,0.0,0.0,0.0,
1.372,91.75259560600676,133.12036583421158,-2.79,-0.55,-1.76,0.0,0.0,1.0,1.0,0.0,0.0,0.0,0.0,0.0,0.0,
1.395,91.86725956060067,133.01203658342115,-5.54,-2.54,-0.7,0.0,0.0,1.0,1.0,0.0,0.0,0.0,0.0,0.0,0.0,
1.42,91.86072595606007,132.83020365834213,-8.17,-1.95,-0.34,0.0,0.0,1.0,1.0,0.0,0.0,0.0,0.0,0.0,0.0,
1.443,91.92307259560602,132.7130203658342,-8.7,-1.69,-0.89,0.0,0.0,1.0,1.0,0.0,0.0,0.0,0.0,0.0,0.0,
1.467,91.97430725956062,132.45830203658343,-8.55,-2.46,-2.05,0.0,0.0,1.0,1.0,0.0,0.0,0.0,0.0,0.0,0.0,
1.49,92.04243072595605,132.11783020365834,-11.45,-2.31,-3.34,0.0,0.0,1.0,1.0,0.0,0.0,0.0,0.0,0.0,0.0,
1.515,92.1122430725956,131.90378302036584,-13.78,-2.01,-2.75,0.0,0.0,1.0,1.0,0.0,0.0,0.0,0.0,0.0,0.0,
1.539,92.26322430725956,131.68437830203658,-14.37,-3.42,-1.66,0.0,0.0,1.0,1.0,0.0,0.0,0.0,0.0,0.0,0.0,
1.562,92.44932243072596,131.29343783020366,-16.96,-2.73,-1.64,0.0,0.0,1.0,1.0,0.0,0.0,0.0,0.0,0.0,0.0,
1.586,92.5489322430726,130.91234378302036,-18.58,-0.93,-2.73,0.0,0.0,1.0,1.0,0.0,0.0,0.0,0.0,0.0,0.0,
1.61,92.67589322430726,130.57723437830202,-18.54,-3.24,-4.23,0.0,0.0,1.0,1.0,0.0,0.0,0.0,0.0,0.0,0.0,
1.634,92.86858932243072,129.9947234378302,-21.36,-2.96,-4.94,0.0,0.0,1.0,1.0,0.0,0.0,0.0,0.0,0.0,0.0,
1.657,92.86085893224308,129.18947234378302,-24.89,-0.99,-6.65,0.0,0.0,1.0,1.0,0.0,0.0,0.0,0.0,0.0,0.0,
1.682,92.69808589322432,128.2359472343783,-31.16,-4.07,-8.12,0.0,0.0,1.0,1.0,0.0,0.0,0.0,0.0,0.0,0.0,
1.705,92.55580858932242,127.14159472343782,-37.02,-5.72,-11.27,0.0,0.0,1.0,1.0,0.0,0.0,0.0,0.0,0.0,0.0,
1.729,92.60458085893225,125.80815947234377,-42.28,-6.44,-14.56,0.0,0.0,1.0,1.0,0.0,0.0,0.0,0.0,0.0,0.0,
1.754,92.86145808589322,124.19881594723437,-46.99,-3.47,-14.03,0.0,0.0,1.0,1.0,0.0,0.0,0.0,0.0,0.0,0.0,
1.777,92.95914580858933,122.53488159472343,-54.44,2.4,-11.08,0.0,0.0,1.0,1.0,0.0,0.0,0.0,0.0,0.0,0.0,
1.801,92.91491458085893,120.55048815947234,-61.06,5.96,-7.01,0.0,0.0,1.0,1.0,0.0,0.0,0.0,0.0,0.0,0.0,
1.825,92.8474914580859,118.71404881594724,-71.87,5.05,-3.84,0.0,0.0,1.0,1.0,0.0,0.0,0.0,0.0,0.0,0.0,
1.849,92.87674914580859,117.43240488159472,-79.63,10.14,-0.82,0.0,0.0,1.0,1.0,0.0,0.0,0.0,0.0,0.0,0.0,
1.872,93.22167491458087,116.12524048815948,-74.63,13.27,0.01,0.0,0.0,1.0,1.0,0.0,0.0,0.0,0.0,0.0,0.0,
1.897,94.04816749145809,114.33852404881594,-72.4,11.83,1.31,0.0,0.0,1.0,1.0,0.0,0.0,0.0,0.1,0.0,0.0,
1.921,94.86881674914581,111.7568524048816,-84.47,1.37,11.4,0.0,0.0,1.0,1.0,0.0,0.0,0.0,0.0,0.0,0.0,
1.944,96.52588167491459,110.13968524048815,-88.75,-2.98,32.79,0.0,0.0,1.0,1.0,0.0,0.0,0.0,0.0,0.0,0.0,
1.968,96.00758816749146,107.6289685240488,-113.51,-5.66,2.38,0.0,0.0,2.0,1.0,0.0,0.0,0.0,0.1,0.0,0.0,
1.992,94.40775881674915,105.11889685240489,-112.01,47.18,-5.02,0.0,0.0,2.0,1.0,0.0,0.0,0.0,0.1,0.0,0.0,
2.016,94.12177588167492,104.2738896852405,-101.85,-5.72,3.85,0.0,0.0,2.0,1.0,0.0,0.0,0.0,0.0,0.0,0.0,
2.039,93.1031775881675,102.38938896852405,-90.59,18.89,-18.08,0.0,0.0,2.0,1.0,0.0,0.0,0.0,0.0,0.0,0.0,
2.064,92.39831775881675,100.1129388968524,-93.66,15.3,-16.71,0.0,0.0,2.0,1.0,0.0,0.0,0.0,0.0,0.0,0.0,
2.087,93.03883177588168,101.16329388968524,-86.47,28.72,4.58,0.0,0.0,2.0,1.0,0.0,0.0,0.0,0.0,0.0,0.0,
2.111,96.94588317758816,101.12432938896853,-62.62,-11.57,42.15,0.0,0.0,2.0,1.0,0.0,0.0,0.0,0.0,0.0,0.0,
2.136,97.05758831775881,98.42943293889684,-91.75,51.0,-18.42,0.0,0.0,2.0,1.0,0.0,0.0,0.0,0.1,0.0,0.0,
2.159,95.45775883177589,95.31594329388969,-81.85,17.44,-6.14,0.0,0.0,2.0,1.0,0.0,0.0,0.0,0.1,0.0,0.0,
2.183,95.17177588317759,92.10659432938897,-35.52,52.79,-17.16,0.0,0.0,2.0,1.0,0.0,0.0,0.0,0.0,0.0,0.0,
2.207,94.92717758831776,94.3416594329389,-95.69,70.95,13.64,0.0,0.0,2.0,1.0,0.0,0.0,0.0,0.0,0.0,0.0,
2.231,93.80471775883179,95.22216594329389,-72.54,23.55,2.53,0.0,0.0,2.0,1.0,0.0,0.0,0.0,0.0,0.1,0.0,
2.254,93.31447177588319,94.32921659432938,-30.23,-18.97,-19.45,0.0,0.0,2.0,1.0,0.0,0.0,0.0,0.0,0.0,0.0,
2.278,95.57844717758832,94.08692165943295,-16.48,-13.73,-12.74,0.0,0.0,3.0,1.0,0.0,0.0,0.0,0.0,0.0,0.0,
2.302,95.24684471775882,84.9096921659433,-38.26,-10.82,-7.56,0.0,0.0,3.0,1.0,0.0,0.0,0.0,0.0,0.0,0.0,
2.326,94.68268447177589,79.11396921659433,-66.62,18.5,0.39,0.0,0.0,3.0,1.0,0.0,0.0,0.0,0.0,0.0,0.0,
2.35,96.00326844717759,75.69039692165944,-85.31,18.13,20.47,0.0,0.0,3.0,1.0,0.0,0.0,0.0,0.0,0.0,0.0,
2.374,96.81932684471775,74.36703969216595,-97.75,28.81,19.62,0.0,0.0,2.0,1.0,0.0,0.0,0.0,0.1,0.0,0.0,
2.398,97.92693268447178,75.7737039692166,-98.4,36.78,27.22,0.0,0.0,2.0,1.0,0.0,0.0,0.0,0.1,0.0,0.0,
2.421,98.24469326844718,78.48837039692165,-94.75,40.81,25.79,0.0,0.0,2.0,1.0,0.0,0.0,0.0,0.0,0.0,0.0,
2.445,99.01446932684472,81.01883703969216,-74.11,46.47,18.05,0.0,0.0,2.0,1.0,0.0,0.0,0.0,0.0,0.0,0.0,
2.469,99.01044693268447,84.97988370396922,5.11,-0.41,7.04,0.0,0.0,2.0,2.0,0.0,0.0,0.0,0.1,0.0,0.0,
2.493,99.25304469326845,85.68198837039694,-1.25,0.44,-14.12,0.0,0.0,1.0,1.0,0.0,0.0,0.0,0.2,0.0,0.0,
2.516,101.11330446932685,84.5551988370397,-7.77,16.58,-0.73,0.0,0.0,1.0,1.0,0.0,0.0,0.0,0.0,0.49,0.0,
2.54,102.22633044693268,82.57051988370397,-13.52,12.74,-0.87,0.0,0.0,1.0,1.0,0.0,0.0,0.0,0.0,0.0,0.0,
2.564,102.79663304469327,81.1660519883704,-16.47,11.41,2.94,0.0,0.0,1.0,2.0,0.0,0.0,0.0,0.1,0.0,0.0,
2.588,102.99766330446933,79.47760519883704,-18.22,8.79,1.22,0.0,0.0,0.0,2.0,0.0,0.0,0.0,0.2,0.0,0.0,
2.612,102.94576633044693,77.89576051988371,-17.22,5.64,2.47,0.0,0.0,0.0,3.0,0.0,0.0,0.0,0.0,0.0,0.0,
2.635,103.46257663304468,76.23457605198837,-15.12,5.59,-3.18,0.0,0.0,1.0,3.0,0.0,0.0,0.0,0.0,0.0,0.0,
2.659,103.91925766330448,75.06045760519885,-10.07,-0.5,-1.76,0.0,0.0,1.0,4.0,0.0,0.0,0.0,0.0,0.0,0.0,
2.682,104.03692576633044,74.1870457605199,-10.18,0.61,0.4,0.0,0.0,2.0,4.0,0.0,0.0,0.0,0.0,0.0,0.0,
2.707,104.24669257663305,73.379704576052,-8.82,0.28,-2.24,0.0,0.0,2.0,4.0,0.0,0.0,0.0,0.0,0.0,0.0,
2.731,104.1146692576633,72.8399704576052,-9.93,0.93,-6.69,0.0,0.0,2.0,4.0,0.0,0.0,0.0,0.0,0.0,0.0,
2.754,103.95746692576634,72.28199704576052,-9.79,1.55,-10.55,0.0,0.0,3.0,4.0,0.0,0.0,0.0,0.0,0.0,0.0,
2.778,104.29274669257664,71.91119970457606,-12.69,-0.53,-9.75,0.0,0.0,3.0,4.0,0.0,0.0,0.0,0.0,0.0,0.0,
2.801,104.50627466925766,71.3161199704576,-10.6,-1.99,-10.51,0.0,0.0,4.0,4.0,0.0,0.0,0.0,0.0,0.0,0.0,
2.826,104.47362746692576,70.95961199704576,-12.97,-0.71,-12.15,0.0,0.0,4.0,5.0,0.0,0.0,0.0,0.0,0.0,0.0,
2.849,104.23636274669258,70.61796119970457,-15.3,-0.27,-15.37,0.0,0.0,4.0,5.0,0.0,0.0,0.0,0.0,0.0,0.0,
2.874,104.39263627466924,69.71079611997045,-15.06,-6.19,-17.37,0.0,0.0,5.0,5.0,1.0,0.0,0.0,0.0,1.96,0.0,
2.897,104.21026362746693,68.84607961199704,-15.62,-8.11,-20.84,0.0,0.0,5.0,4.0,1.0,0.0,0.0,0.0,1.28,0.0,
2.922,103.89502636274669,67.8506079611997,-14.52,-16.51,-26.97,0.0,0.0,5.0,4.0,1.0,0.0,0.0,0.0,1.37,0.0,
2.946,104.06150263627467,67.31006079611997,-12.04,-26.05,-31.47,0.0,0.0,5.0,4.0,1.0,0.0,0.0,0.0,1.08,0.0,
2.97,105.25715026362747,67.751006079612,-4.58,-25.5,-27.49,0.0,0.0,5.0,4.0,1.0,0.0,0.0,0.0,0.98,0.0,
2.995,107.09571502636274,68.7041006079612,5.8,-10.95,-14.47,0.0,0.0,4.0,4.0,1.0,0.0,0.0,0.0,0.88,0.0,
3.018,108.14357150263628,69.04241006079612,14.42,5.73,13.39,0.0,0.0,4.0,4.0,0.0,0.0,0.0,0.0,0.39,0.0,
3.042,107.30335715026362,69.67924100607961,17.08,6.66,20.38,0.0,0.0,3.0,4.0,0.0,0.0,0.0,0.0,0.0,0.0,
3.065,106.24733571502635,69.59892410060797,19.69,6.29,15.15,0.0,0.0,2.0,3.0,0.0,0.0,0.0,0.0,0.0,0.0,
3.09,105.61073357150264,69.9598924100608,16.6,4.89,10.18,0.0,0.0,1.0,3.0,0.0,0.0,0.0,0.0,0.0,0.0,
3.113,105.33107335715026,70.13098924100609,15.6,3.44,8.24,0.0,0.0,1.0,2.0,0.0,0.0,0.0,0.0,1.47,0.0,
3.137,105.39310733571503,70.6520989241006,7.15,0.68,7.73,0.0,0.0,0.0,2.0,0.0,0.0,0.0,0.0,0.0,0.0,
3.161,105.39931073357151,70.74020989241006,2.02,-0.1,3.64,0.0,0.0,0.0,1.0,0.0,0.0,0.0,0.0,0.0,0.0,
3.184,105.39993107335717,70.947020989241,1.21,-0.6,5.36,0.0,0.0,0.0,1.0,0.0,0.0,0.0,0.0,0.0,0.0,
3.208,105.28299310733571,71.1747020989241,-2.47,0.66,4.06,0.0,0.0,0.0,1.0,0.0,0.0,0.0,0.0,0.0,0.0,
3.231,105.30729931073358,71.1614702098924,-5.5,-0.27,0.84,0.0,0.0,0.0,2.0,0.0,0.0,0.0,0.0,0.0,0.0,
3.255,105.13872993107336,71.19614702098923,-7.42,-0.13,0.75,0.0,0.0,0.0,2.0,0.0,0.0,0.0,0.0,0.0,0.0,
3.278,104.95087299310734,71.04661470209892,-7.19,-0.56,-1.73,0.0,0.0,1.0,2.0,0.0,0.0,0.0,0.0,0.0,0.0,
3.303,105.04908729931073,70.9506614702099,-6.76,-1.69,-1.39,0.0,0.0,1.0,2.0,0.0,0.0,0.0,0.0,0.0,0.0,
3.326,105.22990872993108,70.770066147021,-6.25,-3.78,-0.68,0.0,0.0,1.0,2.0,0.0,0.0,0.0,0.0,0.0,0.0,
3.35,105.14899087299311,70.66200661470211,-5.19,-2.97,-0.03,0.0,0.0,1.0,2.0,0.0,0.0,0.0,0.0,0.0,0.0,
3.374,105.16789908729932,70.57920066147021,-3.58,-2.07,0.46,0.0,0.0,1.0,2.0,0.0,0.0,0.0,0.0,0.0,0.0,
3.397,105.13378990872994,70.59792006614703,-2.61,-1.92,1.27,0.0,0.0,1.0,2.0,0.0,0.0,0.0,0.0,0.0,0.0,
3.422,105.220378990873,70.65379200661471,-2.72,-2.04,1.74,0.0,0.0,0.0,2.0,0.0,0.0,0.0,0.0,0.0,0.0,
3.445,105.0580378990873,70.65937920066148,-2.54,-1.85,2.24,0.0,0.0,0.0,2.0,0.0,0.0,0.0,0.0,0.0,0.0,
3.469,104.97880378990872,70.53393792006614,-2.58,-1.25,1.14,0.0,0.0,0.0,2.0,0.0,0.0,0.0,0.0,0.0,0.0,
3.492,104.97088037899087,70.43139379200662,-1.63,-1.05,-0.25,0.0,0.0,0.0,2.0,0.0,0.0,0.0,0.0,0.0,0.0,
3.516,105.01508803789909,70.52913937920067,-1.77,-1.98,1.07,0.0,0.0,0.0,2.0,0.0,0.0,0.0,0.0,0.0,0.0,
3.54,104.9835088037899,70.57491393792006,-2.63,-1.73,-0.05,0.0,0.0,0.0,2.0,0.0,0.0,0.0,0.0,0.0,0.0,
3.564,105.016350880379,70.597491393792,-3.08,-1.4,0.33,0.0,0.0,0.0,2.0,0.0,0.0,0.0,0.0,0.0,0.0,
3.588,105.0466350880379,70.5187491393792,-3.63,-3.01,-0.24,0.0,0.0,0.0,2.0,0.0,0.0,0.0,0.0,0.0,0.0,
3.611,104.99566350880379,70.56487491393791,-4.24,-2.84,-0.37,0.0,0.0,0.0,2.0,0.0,0.0,0.0,0.0,0.0,0.0,
3.635,104.88256635088038,70.49748749139378,-4.03,-3.05,0.31,0.0,0.0,0.0,2.0,0.0,0.0,0.0,0.0,0.0,0.0,
3.659,104.69125663508804,70.47274874913938,-3.69,-2.82,0.75,0.0,0.0,0.0,2.0,0.0,0.0,0.0,0.0,0.0,0.0,
3.683,104.69912566350881,70.40727487491394,-3.95,-2.42,-0.31,0.0,0.0,0.0,2.0,0.0,0.0,0.0,0.0,0.0,0.0,
3.706,104.68191256635089,70.4727274874914,-4.1,-3.47,-0.5,0.0,0.0,0.0,2.0,0.0,0.0,0.0,0.0,0.0,0.0,
3.73,104.67119125663508,70.45227274874914,-4.56,-3.26,-0.17,0.0,0.0,0.0,2.0,0.0,0.0,0.0,0.0,0.0,0.0,
3.753,104.6791191256635,70.4862272748749,-4.75,-3.96,0.09,0.0,0.0,0.0,2.0,0.0,0.0,0.0,0.0,548.77,0.0,
3.778,104.60791191256635,70.46262272748749,-4.69,-4.56,1.16,0.0,0.0,0.0,2.0,0.0,0.0,0.0,0.0,0.0,0.0,
3.802,104.39379119125664,70.43326227274875,-4.31,-3.2,1.36,0.0,0.0,0.0,2.0,0.0,0.0,0.0,0.0,0.0,0.0,
3.825,104.33637911912567,70.40332622727487,-3.82,-1.8,0.79,0.0,0.0,0.0,2.0,0.0,0.0,0.0,0.0,0.0,0.0,
3.849,104.25863791191257,70.37333262272749,-3.59,-3.09,0.85,0.0,0.0,0.0,2.0,0.0,0.0,0.0,0.0,0.0,0.0,
3.872,104.13386379119126,70.31633326227275,-3.65,-3.18,0.75,0.0,0.0,0.0,2.0,0.0,0.0,0.0,0.0,0.0,0.0,
3.897,104.13938637911912,70.35563332622728,-3.73,-2.65,0.49,0.0,0.0,0.0,2.0,0.0,0.0,0.0,0.0,0.0,0.0,
3.92,103.94193863791192,70.36856333262273,-3.36,-3.07,0.13,0.0,0.0,0.0,2.0,0.0,0.0,0.0,0.0,0.0,0.0,
3.944,103.9671938637912,70.35185633326228,-3.65,-2.03,-0.71,0.0,0.0,0.0,2.0,0.0,0.0,0.0,0.0,0.0,0.0,
3.968,103.97871938637913,70.35918563332622,-3.23,-1.6,-1.02,0.0,0.0,0.0,2.0,0.0,0.0,0.0,0.0,0.0,0.0,
3.991,103.82687193863791,70.38691856333261,-3.09,-1.53,-0.41,0.0,0.0,0.0,2.0,0.0,0.0,0.0,0.0,0.0,0.0,
4.016,103.85668719386379,70.40769185633326,-3.07,-0.69,-0.76,0.0,0.0,0.0,2.0,0.0,0.0,0.0,0.0,0.0,0.0,
4.039,103.91366871938638,70.44576918563332,-3.61,-1.94,-1.05,0.0,0.0,0.0,2.0,0.0,0.0,0.0,0.0,0.0,0.0,
4.063,103.85636687193863,70.44057691856334,-3.79,-2.46,-1.32,0.0,0.0,0.0,2.0,0.0,0.0,0.0,0.0,0.0,0.0,
4.086,103.83263668719387,70.47605769185634,-3.57,-1.97,-1.39,0.0,0.0,0.0,2.0,0.0,0.0,0.0,0.0,0.0,0.0,
4.11,103.81226366871938,70.47960576918564,-3.63,-1.21,-1.62,0.0,0.0,0.0,2.0,0.0,0.0,0.0,0.0,0.0,0.0,
4.134,103.85522636687193,70.52496057691857,-3.82,-0.63,-1.6,0.0,0.0,0.0,2.0,0.0,0.0,0.0,0.0,0.0,0.0,
4.158,103.85952263668719,70.56549605769186,-3.53,-1.11,-1.06,0.0,0.0,0.0,2.0,0.0,0.0,0.0,0.0,0.0,0.0,
4.182,103.77895226366871,70.54254960576918,-3.34,-1.1,-1.56,0.0,0.0,0.0,2.0,0.0,0.0,0.0,0.0,0.0,0.0,
4.205,103.86989522636688,70.45925496057691,-2.98,-0.86,-1.08,0.0,0.0,0.0,2.0,0.0,0.0,0.0,0.0,0.0,0.0,
4.23,103.87898952263669,70.4689254960577,-2.91,-1.69,-1.05,0.0,0.0,0.0,2.0,0.0,0.0,0.0,0.0,0.0,0.0,
4.253,103.88889895226367,70.46089254960576,-3.1,-1.05,-1.3,0.0,0.0,0.0,2.0,0.0,0.0,0.0,0.0,0.0,0.0,
4.277,103.89888989522638,70.46908925496058,-3.09,-1.27,-1.01,0.0,0.0,0.0,2.0,0.0,0.0,0.0,0.0,0.0,0.0,
4.3,103.93588898952264,70.43390892549607,-3.31,-1.14,-0.87,0.0,0.0,0.0,2.0,0.0,0.0,0.0,0.0,0.0,0.0,
4.325,103.91258889895227,70.4573908925496,-3.58,-1.08,-1.27,0.0,0.0,0.0,2.0,0.0,0.0,0.0,0.0,0.0,0.0,
4.348,103.95525888989522,70.51373908925495,-3.3,-1.33,-1.18,0.0,0.0,0.0,2.0,0.0,0.0,0.0,0.0,0.0,0.0,
4.372,103.91452588898953,70.4833739089255,-3.53,-1.44,-1.37,0.0,0.0,0.0,2.0,0.0,0.0,0.0,0.0,0.0,0.0,
4.396,104.03645258889895,70.46233739089254,-3.44,-1.03,-0.96,0.0,0.0,0.0,2.0,0.0,0.0,0.0,0.0,0.0,0.0,
4.419,104.0036452588899,70.45123373908925,-3.31,-1.58,-1.06,0.0,0.0,0.0,2.0,0.0,0.0,0.0,0.0,0.0,0.0,
4.444,104.000364525889,70.49512337390892,-3.37,-1.52,-1.21,0.0,0.0,0.0,2.0,0.0,0.0,0.0,0.0,0.0,0.0,
4.467,103.9280364525889,70.5355123373909,-3.27,-1.25,-1.32,0.0,0.0,0.0,2.0,0.0,0.0,0.0,0.0,0.0,0.0,
4.491,103.89380364525888,70.55755123373909,-3.31,-1.08,-1.13,0.0,0.0,0.0,2.0,0.0,0.0,0.0,0.0,0.0,0.0,
4.514,103.9083803645259,70.5777551233739,-3.41,-1.72,-0.95,0.0,0.0,0.0,2.0,0.0,0.0,0.0,0.0,0.0,0.0,
4.539,103.9188380364526,70.57077551233739,-3.43,-1.33,-0.77,0.0,0.0,0.0,2.0,0.0,0.0,0.0,0.0,0.0,0.0,
4.562,103.90188380364526,70.56107755123374,-3.18,-0.69,-1.13,0.0,0.0,0.0,2.0,0.0,0.0,0.0,0.0,0.0,0.0,
4.586,103.85518838036452,70.53310775512338,-3.11,-0.63,-1.41,0.0,0.0,0.0,2.0,0.0,0.0,0.0,0.0,0.0,0.0,
4.61,103.83251883803645,70.53031077551233,-3.19,-1.08,-1.07,0.0,0.0,0.0,2.0,0.0,0.0,0.0,0.0,0.0,0.0,
4.634,103.84825188380364,70.53003107755123,-3.35,-1.0,-1.22,0.0,0.0,0.0,2.0,0.0,0.0,0.0,0.0,0.0,0.0,
4.658,103.84982518838036,70.46700310775512,-3.31,-1.66,-1.33,0.0,0.0,0.0,2.0,0.0,0.0,0.0,0.0,0.0,0.0,
4.681,103.82298251883803,70.45170031077551,-3.33,-1.24,-1.05,0.0,0.0,0.0,2.0,0.0,0.0,0.0,0.0,0.0,0.0,
4.705,103.8562982518838,70.44117003107755,-3.59,-1.37,-1.25,0.0,0.0,0.0,2.0,0.0,0.0,0.0,0.0,0.0,0.0,
4.729,103.92262982518838,70.42211700310776,-3.48,-1.66,-1.13,0.0,0.0,0.0,2.0,0.0,0.0,0.0,0.0,0.0,0.0,
4.753,103.92926298251885,70.42921170031079,-3.25,-1.79,-0.84,0.0,0.0,0.0,2.0,0.0,0.0,0.0,0.0,0.0,0.0,
4.776,103.97492629825189,70.42992117003108,-3.47,-1.21,-1.26,0.0,0.0,0.0,2.0,0.0,0.0,0.0,0.0,0.0,0.0,
4.8,104.01549262982519,70.42099211700311,-3.57,-1.17,-1.22,0.0,0.0,0.0,2.0,0.0,0.0,0.0,0.0,0.0,0.0,
4.825,104.01054926298252,70.40209921170032,-3.22,-1.09,-1.3,0.0,0.0,0.0,2.0,0.0,0.0,0.0,0.0,0.0,0.0,
4.848,104.09105492629824,70.42720992117003,-3.37,-1.49,-1.37,0.0,0.0,0.0,2.0,0.0,0.0,0.0,0.0,0.0,0.0,
4.872,104.09010549262983,70.438720992117,-3.38,-1.29,-0.72,0.0,0.0,0.0,2.0,0.0,0.0,0.0,0.0,0.0,0.0,
4.895,104.009010549263,70.4398720992117,-3.37,-1.47,-0.78,0.0,0.0,0.0,2.0,0.0,0.0,0.0,0.0,0.0,0.0,
4.92,104.06390105492629,70.42198720992117,-3.3,-0.99,-1.27,0.0,0.0,0.0,2.0,0.0,0.0,0.0,0.0,0.0,0.0,
4.943,104.06939010549263,70.46519872099212,-3.37,-0.61,-0.96,0.0,0.0,0.0,2.0,0.0,0.0,0.0,0.0,0.0,0.0,
4.967,104.07893901054926,70.36151987209921,-3.28,-0.53,-1.57,0.0,0.0,0.0,2.0,0.0,0.0,0.0,0.0,0.0,0.0,
4.99,104.11589390105493,70.32415198720992,-3.17,-0.95,-0.79,0.0,0.0,0.0,2.0,0.0,0.0,0.0,0.0,0.0,0.0,
5.014,104.1195893901055,70.338415198721,-3.08,-1.31,-0.77,0.0,0.0,0.0,2.0,0.0,0.0,0.0,0.0,0.0,0.0,
5.039,104.08395893901054,70.3578415198721,-2.89,-1.61,-0.27,0.0,0.0,0.0,2.0,0.0,0.0,0.0,0.0,0.0,0.0,
5.062,103.99939589390104,70.3867841519872,-3.02,-1.39,-0.4,0.0,0.0,0.0,2.0,0.0,0.0,0.0,0.0,0.0,0.0,
5.086,104.00893958939011,70.36267841519872,-3.16,-0.81,-1.44,0.0,0.0,0.0,2.0,0.0,0.0,0.0,0.0,0.0,0.0,
5.109,103.991893958939,70.37826784151987,-3.23,-1.18,-0.93,0.0,0.0,0.0,2.0,0.0,0.0,0.0,0.0,0.0,0.0,
5.134,103.96318939589389,70.37982678415199,-3.13,-1.0,-1.03,0.0,0.0,0.0,2.0,0.0,0.0,0.0,0.0,0.0,0.0,
5.157,103.9243189395894,70.3979826784152,-2.97,-0.66,-1.4,0.0,0.0,0.0,2.0,0.0,0.0,0.0,0.0,0.0,0.0,
5.181,103.86643189395895,70.39079826784152,-3.23,-0.73,-1.4,0.0,0.0,0.0,2.0,0.0,0.0,0.0,0.0,0.0,0.0,
5.204,103.9146431893959,70.43507982678415,-3.25,-1.05,-1.22,0.0,0.0,0.0,2.0,0.0,0.0,0.0,0.0,0.0,0.0,
5.229,103.92846431893959,70.4215079826784,-3.45,-1.49,-1.27,0.0,0.0,0.0,2.0,0.0,0.0,0.0,0.0,0.0,0.0,
5.253,104.01084643189395,70.50115079826784,-3.09,-1.81,-1.11,0.0,0.0,0.0,2.0,0.0,0.0,0.0,0.0,0.0,0.0,
5.276,104.09108464318939,70.54511507982679,-3.6,-1.64,-0.89,0.0,0.0,0.0,2.0,0.0,0.0,0.0,0.0,0.0,0.0,
5.3,104.05410846431893,70.54951150798267,-3.26,-1.03,-0.9,0.0,0.0,0.0,2.0,0.0,0.0,0.0,0.0,0.0,0.0,
5.324,104.10441084643189,70.53195115079826,-2.97,-1.11,-1.16,0.0,0.0,0.0,2.0,0.0,0.0,0.0,0.0,0.0,0.0,
5.348,104.03744108464319,70.48519511507983,-3.14,-1.13,-1.37,0.0,0.0,0.0,2.0,0.0,0.0,0.0,0.0,0.0,0.0,
5.371,103.98574410846433,70.50751951150798,-3.1,-1.17,-1.44,0.0,0.0,0.0,2.0,0.0,0.0,0.0,0.0,0.0,0.0,
5.395,103.96257441084643,70.51875195115079,-3.01,-1.5,-1.45,0.0,0.0,0.0,2.0,0.0,0.0,0.0,0.0,0.0,0.0,
5.42,103.96025744108464,70.54687519511508,-3.27,-0.92,-1.45,0.0,0.0,0.0,2.0,0.0,0.0,0.0,0.0,0.0,0.0,
5.443,103.98702574410845,70.54968751951151,-3.62,-0.96,-1.27,0.0,0.0,0.0,2.0,0.0,0.0,0.0,0.0,0.0,0.0,
5.467,103.99870257441086,70.60396875195114,-3.47,-0.81,-1.1,0.0,0.0,0.0,2.0,0.0,0.0,0.0,0.0,0.0,0.0,
5.49,104.02687025744109,70.58239687519512,-3.4,-1.02,-1.14,0.0,0.0,0.0,2.0,0.0,0.0,0.0,0.0,0.0,0.0,
5.514,104.03868702574411,70.53523968751952,-3.5,-1.44,-0.91,0.0,0.0,0.0,2.0,0.0,0.0,0.0,0.0,0.0,0.0,
5.538,104.07586870257441,70.58452396875195,-3.27,-1.6,-1.17,0.0,0.0,0.0,2.0,0.0,0.0,0.0,0.0,0.0,0.0,
5.562,104.05258687025743,70.5624523968752,-3.24,-1.16,-1.56,0.0,0.0,0.0,2.0,0.0,0.0,0.0,0.0,0.0,0.0,
5.585,104.08625868702575,70.51524523968752,-3.21,-1.31,-1.39,0.0,0.0,0.0,2.0,0.0,0.0,0.0,0.0,0.0,0.0,
5.609,104.03562586870258,70.53752452396876,-3.35,-1.54,-1.05,0.0,0.0,0.0,2.0,0.0,0.0,0.0,0.0,0.0,0.0,
5.634,104.03956258687026,70.53975245239688,-3.32,-1.37,-1.31,0.0,0.0,0.0,2.0,0.0,0.0,0.0,0.0,0.0,0.0,
5.657,103.99495625868701,70.53097524523969,-3.33,-1.6,-1.06,0.0,0.0,0.0,2.0,0.0,0.0,0.0,0.0,0.0,0.0,
5.681,103.9994956258687,70.56609752452397,-3.38,-1.11,-1.03,0.0,0.0,0.0,2.0,0.0,0.0,0.0,0.0,0.0,0.0,
5.704,104.00894956258688,70.5336097524524,-3.54,-0.34,-1.5,0.0,0.0,0.0,2.0,0.0,0.0,0.0,0.0,0.0,0.0,
5.729,104.06389495625868,70.54836097524523,-3.12,-0.97,-1.2,0.0,0.0,0.0,2.0,0.0,0.0,0.0,0.0,0.0,0.0,
5.752,104.12338949562586,70.54983609752452,-3.34,-0.95,-1.24,0.0,0.0,0.0,2.0,0.0,0.0,0.0,0.0,0.0,0.0,
5.776,104.06633894956259,70.52298360975244,-3.27,-1.27,-0.64,0.0,0.0,0.0,2.0,0.0,0.0,0.0,0.0,0.0,0.0,
5.799,104.08763389495627,70.54729836097525,-3.37,-1.17,-1.29,0.0,0.0,0.0,2.0,0.0,0.0,0.0,0.0,0.0,0.0,
5.824,104.06276338949563,70.50472983609752,-3.2,-1.22,-1.31,0.0,0.0,0.0,2.0,0.0,0.0,0.0,0.0,0.0,0.0,
5.848,104.02427633894956,70.56347298360976,-3.24,-2.09,-0.62,0.0,0.0,0.0,2.0,0.0,0.0,0.0,0.0,0.0,0.0,
5.871,104.00242763389497,70.58734729836098,-3.47,-2.16,-0.96,0.0,0.0,0.0,2.0,0.0,0.0,0.0,0.0,0.0,0.0,
5.895,103.98224276338951,70.5897347298361,-3.46,-1.65,-1.22,0.0,0.0,0.0,2.0,0.0,0.0,0.0,0.0,0.0,0.0,
5.919,103.99822427633896,70.5269734729836,-3.53,-1.43,-1.29,0.0,0.0,0.0,2.0,0.0,0.0,0.0,0.0,0.0,0.0,
5.943,104.0088224276339,70.56569734729835,-3.44,-1.51,-0.98,0.0,0.0,0.0,2.0,0.0,0.0,0.0,0.0,0.0,0.0,
5.966,104.0008822427634,70.55156973472984,-3.45,-1.21,-0.53,0.0,0.0,0.0,2.0,0.0,0.0,0.0,0.0,0.0,0.0,
5.99,103.98208822427634,70.57715697347298,-3.24,-1.66,-0.41,0.0,0.0,0.0,2.0,0.0,0.0,0.0,0.0,0.0,0.0,
6.014,103.88120882242764,70.4987156973473,-3.08,-1.56,-0.53,0.0,0.0,0.0,2.0,0.0,0.0,0.0,0.0,0.0,0.0,
6.038,103.93412088224277,70.50887156973474,-3.11,-0.86,-1.02,0.0,0.0,0.0,2.0,0.0,0.0,0.0,0.0,0.0,0.0,
6.062,103.93041208822427,70.48288715697348,-3.3,-1.2,-1.56,0.0,0.0,0.0,2.0,0.0,0.0,0.0,0.0,0.0,0.0,
6.085,103.89404120882243,70.48028871569736,-3.3,-1.63,-1.27,0.0,0.0,0.0,2.0,0.0,0.0,0.0,0.0,0.0,0.0,
6.11,103.86340412088225,70.51602887156973,-3.21,-1.98,-0.57,0.0,0.0,0.0,2.0,0.0,0.0,0.0,0.0,0.0,0.0,
6.133,103.95034041208822,70.45660288715698,-3.24,-1.5,-0.53,0.0,0.0,0.0,2.0,0.0,0.0,0.0,0.0,0.0,0.0,
6.157,103.92303404120882,70.4866602887157,-3.22,-1.94,-0.38,0.0,0.0,0.0,2.0,0.0,0.0,0.0,0.0,0.0,0.0,
6.18,104.02830340412089,70.48066602887157,-3.36,-1.73,-0.69,0.0,0.0,0.0,2.0,0.0,0.0,0.0,0.0,0.0,0.0,
6.205,103.90383034041209,70.53406660288717,-3.58,-0.73,-1.78,0.0,0.0,0.0,2.0,0.0,0.0,0.0,0.0,0.0,0.0,
6.228,103.93638303404121,70.43140666028872,-3.31,-0.84,-1.56,0.0,0.0,0.0,2.0,0.0,0.0,0.0,0.0,0.0,0.0,
6.252,103.93963830340412,70.40314066602888,-3.04,-1.05,-1.86,0.0,0.0,0.0,2.0,0.0,0.0,0.0,0.0,0.0,0.0,
6.276,103.97596383034042,70.39131406660289,-2.93,-1.03,-1.27,0.0,0.0,0.0,2.0,0.0,0.0,0.0,0.0,0.0,0.0,
6.3,103.96159638303403,70.40813140666029,-2.99,-0.95,-1.88,0.0,0.0,0.0,2.0,0.0,0.0,0.0,0.0,0.0,0.0,
6.324,103.93315963830341,70.40981314066603,-2.8,-1.31,-1.46,0.0,0.0,0.0,2.0,0.0,0.0,0.0,0.0,0.0,0.0,
6.347,103.75931596383035,70.42798131406661,-2.36,-1.8,-2.65,0.0,0.0,0.0,2.0,0.0,0.0,0.0,0.0,0.0,0.0,
6.371,103.73293159638303,70.25879813140665,0.66,-1.24,-2.69,0.0,0.0,0.0,2.0,0.0,0.0,0.0,0.0,0.0,0.0,
6.394,103.82029315963831,70.33187981314067,1.73,-3.21,-3.18,0.0,0.0,0.0,1.0,0.0,0.0,0.0,0.0,0.0,0.0,
6.419,103.84702931596384,70.25818798131407,1.35,-4.55,-5.59,0.0,0.0,0.0,1.0,0.0,0.0,0.0,0.0,0.0,0.0,
6.443,103.76870293159638,70.5928187981314,0.79,-6.54,-4.57,0.0,0.0,0.0,1.0,0.0,0.0,0.0,0.0,0.0,0.0,
6.466,103.36487029315964,70.68928187981314,-0.56,-4.82,-5.63,0.0,0.0,0.0,1.0,0.0,0.0,0.0,0.0,0.0,0.0,
6.49,103.50448702931595,70.8609281879813,-1.8,-5.27,-6.75,0.0,0.0,0.0,1.0,0.0,0.0,0.0,0.0,0.0,0.0,
6.513,103.5274487029316,70.68909281879813,0.71,-5.27,-5.76,0.0,0.0,0.0,1.0,0.0,0.0,0.0,0.0,0.0,0.0,
6.538,104.06074487029318,70.23990928187982,4.01,-4.65,-8.16,0.0,0.0,0.0,1.0,0.0,0.0,0.0,0.0,0.0,0.0,
6.561,104.37507448702931,69.44799092818798,0.99,-0.5,-2.53,0.0,0.0,0.0,1.0,0.0,0.0,0.0,0.0,0.0,0.0,
6.585,104.99150744870293,68.1267990928188,-8.18,0.98,1.68,0.0,0.0,0.0,1.0,0.0,0.0,0.0,0.0,0.0,0.0,
6.608,105.8991507448703,67.04967990928189,-11.13,1.23,7.04,0.0,0.0,0.0,1.0,0.0,0.0,0.0,0.1,0.0,0.0,
6.632,106.63791507448703,67.69796799092818,-7.4,5.37,9.52,0.0,0.0,0.0,1.0,0.0,0.0,0.0,0.1,0.0,0.0,
6.656,106.24379150744869,70.83179679909283,2.79,10.48,11.84,0.0,0.0,0.0,1.0,0.0,0.0,0.0,0.0,0.0,0.0,
6.679,104.18837915074486,74.45717967990927,14.15,9.87,8.74,0.0,0.0,0.0,1.0,0.0,0.0,0.0,0.0,0.0,0.0,
6.703,104.00983791507448,73.99171796799094,-5.02,9.66,12.37,0.0,0.0,0.0,1.0,0.0,0.0,0.0,0.0,0.0,0.0,
6.726,104.15398379150744,72.54117179679909,-1.47,0.88,5.46,0.0,0.0,0.0,2.0,0.0,0.0,0.0,0.0,0.0,0.0,
6.75,104.16839837915074,72.0181171796799,11.75,0.74,-4.82,0.0,0.0,0.0,1.0,0.0,0.0,0.0,0.0,0.0,0.0,
6.774,103.83683983791508,72.04681171796798,18.42,-5.88,-1.44,0.0,0.0,0.0,1.0,0.0,0.0,0.0,0.0,0.0,0.0,
6.798,103.66868398379151,72.96768117179678,21.21,-8.59,1.21,0.0,0.0,0.0,0.0,0.0,0.0,0.0,0.0,0.0,0.0,
6.821,103.49886839837916,73.58176811717969,25.66,-8.08,12.15,0.0,0.0,0.0,0.0,0.0,0.0,0.0,0.0,0.0,0.0,
6.845,104.10288683983791,72.68917681171797,47.51,-18.66,16.35,0.0,0.0,0.0,0.0,0.0,0.0,0.0,0.0,0.0,0.0,
6.868,103.65928868398379,72.90591768117181,69.2,-19.31,14.24,0.0,0.0,0.0,0.0,0.0,0.0,0.0,0.0,0.0,0.0,
6.892,103.58792886839836,76.55459176811718,44.16,-13.6,8.08,0.0,0.0,0.0,0.0,0.0,0.0,0.0,0.0,0.0,0.0,
6.916,102.16779288683985,79.18745917681173,-4.99,15.98,17.39,0.0,0.0,0.0,0.0,0.0,0.0,0.0,0.0,0.0,0.0,
6.939,102.27777928868399,78.86574591768118,-32.79,0.46,21.98,0.0,0.0,0.0,0.0,0.0,0.0,0.0,0.0,0.0,0.0,
6.964,102.5317779288684,78.02357459176812,-47.77,0.95,12.36,0.0,0.0,0.0,0.0,0.0,0.0,0.0,0.0,5.59,0.0,
6.987,103.17817779288683,75.95035745917681,-40.27,-3.5,0.86,0.0,0.0,0.0,0.0,0.0,0.0,0.0,0.0,7.55,0.0,
7.011,102.99981777928869,74.45603574591769,-28.98,-13.84,1.11,0.0,0.0,0.0,0.0,0.0,0.0,0.0,0.0,7.06,0.0,
7.034,102.13598177792888,74.32460357459178,-22.08,-8.62,6.03,0.0,0.0,0.0,0.0,0.0,0.0,0.0,0.0,6.77,0.0,
7.058,101.43759817779289,75.22046035745917,-41.2,0.2,5.27,0.0,0.0,0.0,0.0,0.0,0.0,0.0,0.0,6.38,0.0,
7.081,101.06175981777928,73.58204603574592,-52.24,9.04,7.14,0.0,0.0,0.0,0.0,0.0,0.0,0.0,0.0,5.89,0.0,
7.105,101.19517598177792,71.6812046035746,-18.74,7.28,6.06,0.0,0.0,1.0,0.0,0.0,0.0,0.0,0.0,5.2,0.0,
7.129,101.3345175981778,70.96012046035746,-1.26,5.05,3.95,0.0,0.0,1.0,0.0,0.0,0.0,0.0,0.0,4.32,0.0,
7.152,101.61845175981779,70.94201204603574,-0.92,4.1,6.89,0.0,0.0,1.0,0.0,0.0,0.0,0.0,0.0,3.34,0.0,
7.176,101.78184517598179,71.75020120460358,-12.47,3.58,1.87,0.0,0.0,1.0,0.0,0.0,0.0,0.0,0.0,2.84,0.0,
7.199,101.78018451759817,71.33602012046036,-32.26,8.33,2.68,0.0,0.0,1.0,0.0,0.0,0.0,0.0,0.0,2.55,0.0,
7.224,102.08601845175981,69.94460201204605,4.11,7.47,1.44,0.0,0.0,1.0,1.0,0.0,0.0,0.0,0.0,1.86,0.0,
7.247,102.17060184517598,70.0394602012046,10.96,7.36,4.28,0.0,0.0,1.0,1.0,0.0,0.0,0.0,0.0,1.18,0.0,
7.271,102.5120601845176,70.87694602012046,0.43,3.53,-2.77,0.0,0.0,1.0,1.0,0.0,0.0,0.0,0.0,0.2,0.0,
7.294,102.85220601845175,72.15769460201204,-37.24,1.45,-17.02,0.0,0.0,1.0,3.0,0.0,0.0,0.0,0.0,0.0,0.0,
7.318,102.52622060184517,70.6297694602012,-29.89,6.31,-11.98,0.0,0.0,1.0,5.0,0.0,0.0,0.0,0.0,0.0,0.0,
7.342,103.2226220601845,69.14497694602012,7.42,0.74,2.27,0.0,0.0,1.0,5.0,0.0,0.0,0.0,0.0,0.0,0.0,
7.365,103.33726220601845,68.99649769460201,21.15,-0.44,1.56,0.0,0.0,1.0,3.0,0.0,0.0,0.0,0.0,0.0,0.0,
7.39,103.36672622060185,69.6926497694602,23.07,1.78,5.84,0.0,0.0,1.0,2.0,0.0,0.0,0.0,0.0,0.0,0.0,
7.413,103.46867262206018,70.17626497694603,11.4,0.11,-1.87,0.0,0.0,1.0,1.0,0.0,0.0,0.0,0.0,0.0,0.0,
7.437,103.61386726220601,70.1886264976946,6.54,4.82,-8.73,0.0,0.0,1.0,1.0,0.0,0.0,0.0,0.0,0.0,0.0,
7.46,103.7093867262206,70.20786264976945,12.37,0.66,-1.71,0.0,0.0,0.0,1.0,0.0,0.0,0.0,0.0,0.0,0.0,
7.484,103.61093867262205,70.64178626497694,17.98,-3.72,9.86,0.0,0.0,0.0,1.0,0.0,0.0,0.0,0.0,0.0,0.0,
7.507,103.32209386726221,71.7201786264977,16.91,-6.88,28.2,0.0,0.0,1.0,0.0,0.0,0.0,0.0,0.0,0.0,0.0,
7.531,103.05920938672622,72.99801786264977,3.25,1.96,46.68,0.0,0.0,0.0,0.0,0.0,0.0,0.0,0.0,0.0,0.0,
7.555,103.14992093867261,72.83780178626498,-6.7,7.92,43.08,0.0,0.0,0.0,0.0,0.0,0.0,0.0,0.0,0.0,0.0,
7.579,103.85199209386727,72.44378017862651,-7.24,11.07,19.5,0.0,0.0,0.0,1.0,0.0,0.0,0.0,0.0,0.0,0.0,
7.603,104.57919920938673,71.59437801786265,-7.53,6.31,-2.89,0.0,0.0,0.0,1.0,0.0,0.0,0.0,0.0,0.0,0.0,
7.626,104.47191992093866,72.05843780178627,-12.56,11.27,0.5,0.0,0.0,0.0,1.0,0.0,0.0,0.0,0.0,0.0,0.0,
7.65,105.11819199209387,71.76284378017863,-13.19,7.27,3.08,0.0,0.0,0.0,2.0,0.0,0.0,0.0,0.0,0.0,0.0,
7.673,104.9218191992094,71.40028437801786,-7.79,6.75,1.23,0.0,0.0,0.0,2.0,0.0,0.0,0.0,0.0,0.0,0.0,
7.697,104.61418191992094,71.08502843780178,-5.82,12.58,-2.38,0.0,0.0,0.0,2.0,0.0,0.0,0.0,0.0,0.0,0.0,
7.721,104.5294181919921,70.85550284378017,-2.32,15.6,-2.58,0.0,0.0,0.0,3.0,0.0,0.0,0.0,0.0,0.0,0.0,
7.745,104.52994181919921,71.00355028437801,-6.92,19.22,-7.05,0.0,0.0,1.0,4.0,0.0,0.0,0.0,0.0,0.0,0.0,
7.769,105.01599418191992,71.5403550284378,-14.81,21.73,-10.92,0.0,0.0,1.0,5.0,0.0,0.0,0.0,0.0,0.0,0.0,
7.793,106.19859941819199,70.00103550284378,-17.36,7.31,-13.39,0.0,0.0,1.0,6.0,0.0,0.0,0.0,0.0,0.0,0.0,
7.817,106.3348599418192,69.87410355028437,-22.73,5.41,-16.56,0.0,0.0,2.0,9.0,0.0,0.0,0.0,0.0,0.0,0.0,
7.84,105.7274859941819,69.47441035502844,-1.66,13.16,-8.7,0.0,0.0,2.0,10.0,0.0,0.0,0.0,0.0,0.0,0.0,
7.865,105.2257485994182,69.29044103550284,1.14,21.72,-17.02,0.0,0.0,2.0,11.0,0.0,0.0,0.0,0.0,2.65,0.0,
7.888,105.6165748599418,69.21804410355028,4.49,26.2,-19.85,0.0,0.0,2.0,12.0,0.0,0.0,0.0,0.0,6.18,0.0,
7.913,106.85265748599417,69.55280441035504,2.62,22.67,-17.73,0.0,0.0,2.0,11.0,0.0,0.0,0.0,0.0,10.99,0.0,
7.937,108.43426574859942,70.0362804410355,1.82,12.27,-8.15,0.0,0.0,2.0,11.0,0.0,0.0,0.0,0.0,16.19,0.0,
7.961,109.19542657485994,70.38162804410355,4.66,5.79,-4.41,0.0,0.0,1.0,10.0,0.0,0.0,0.0,0.0,21.97,0.0,
7.985,109.17254265748599,70.53316280441035,9.4,4.56,-4.92,0.0,0.0,1.0,9.0,0.0,0.0,0.0,0.0,24.72,0.0,
8.008,109.0172542657486,71.13331628044104,7.56,8.44,-8.43,0.0,0.0,1.0,9.0,0.0,0.0,0.0,0.0,25.02,0.0,
8.032,109.53272542657486,71.76033162804411,-1.07,10.06,-9.06,0.0,0.0,1.0,9.0,0.0,0.0,0.0,0.0,24.82,0.0,
8.055,110.38527254265749,71.93103316280443,-7.16,7.14,-7.58,0.0,0.0,1.0,9.0,0.0,0.0,0.0,0.0,25.6,0.0,
8.08,110.83952725426575,71.87610331628045,-9.6,5.85,-7.47,0.0,0.0,2.0,9.0,0.0,0.0,0.0,0.0,27.57,0.0,
8.103,110.82195272542657,71.77161033162804,-8.55,2.25,-5.71,0.0,0.0,2.0,10.0,0.0,0.0,0.0,0.0,30.12,0.0,
8.127,110.92819527254265,71.82416103316281,-16.83,1.65,-7.98,0.0,0.0,2.0,11.0,0.0,0.0,0.0,0.0,31.78,0.0,
8.152,111.31681952725427,71.46041610331629,-19.54,-0.84,-6.03,0.0,0.0,3.0,1.0,0.0,0.0,0.0,0.0,38.95,0.0,
8.175,111.65268195272543,71.12704161033163,-16.59,-1.5,-1.86,0.0,0.0,4.0,3.0,0.0,0.0,0.0,0.0,44.34,0.0,
8.2,111.65026819527256,70.83270416103316,-12.47,-3.43,0.45,0.0,0.0,4.0,5.0,0.0,0.0,0.0,0.0,47.87,0.0,
8.223,111.46102681952726,70.66827041610333,-11.51,-3.11,-0.32,0.0,0.0,5.0,7.0,0.0,0.0,0.0,0.0,50.42,0.0,
8.248,111.62210268195273,70.47182704161034,-11.07,-5.43,0.45,0.0,0.0,5.0,8.0,0.0,0.0,0.0,0.0,51.5,0.0,
8.271,111.76421026819527,70.11018270416103,-9.7,-5.88,3.17,0.0,0.0,5.0,9.0,0.0,0.0,0.0,0.0,51.5,0.0,
8.296,111.97642102681952,69.9300182704161,-8.84,-7.53,6.96,0.0,0.0,5.0,10.0,0.0,0.0,0.0,0.0,51.21,0.0,
8.32,111.98864210268195,69.7680018270416,-8.4,-9.53,9.79,0.0,0.0,5.0,10.0,0.0,0.0,0.0,0.0,50.13,0.0,
8.344,111.65686421026821,69.44580018270416,-5.36,-8.85,7.68,0.0,0.0,5.0,10.0,0.0,0.0,0.0,0.0,48.66,0.0,
8.368,111.20968642102682,69.21558001827042,-2.81,-8.02,5.18,0.0,0.0,4.0,9.0,0.0,0.0,0.0,0.0,46.7,0.0,
8.392,110.85896864210268,69.47155800182705,-4.92,-9.12,0.89,0.0,0.0,4.0,8.0,0.0,0.0,0.0,0.0,44.05,0.0,
8.416,110.89589686421027,69.4881558001827,-8.87,-12.92,1.57,0.0,0.0,4.0,6.0,0.0,0.0,0.0,0.0,40.71,0.0,
8.44,110.89958968642102,69.36381558001827,-9.69,-16.12,4.98,0.0,0.0,4.0,5.0,0.0,0.0,0.0,0.0,36.49,0.0,
8.464,111.14295896864209,69.03638155800182,-11.06,-25.28,9.41,0.0,0.0,3.0,3.0,0.0,0.0,0.0,0.0,31.69,0.0,
8.488,110.66329589686421,68.72463815580018,-11.15,-38.73,10.98,0.0,0.0,3.0,12.0,0.0,0.0,0.0,0.0,24.43,0.0,
8.512,109.51732958968643,68.45946381558002,-12.68,-44.7,8.43,0.0,0.0,2.0,10.0,0.0,0.0,0.0,0.0,15.21,0.0,
8.537,108.24173295896863,68.279946381558,-10.27,-45.44,4.0,0.0,0.0,2.0,8.0,0.0,0.0,0.0,0.0,6.77,0.0,
8.56,106.69217329589685,67.9649946381558,-10.39,-42.4,-0.6,0.0,0.0,1.0,6.0,0.0,0.0,0.0,0.0,0.0,0.0,
8.584,105.45721732958968,67.78049946381559,-12.97,-40.9,-5.88,0.0,0.0,1.0,4.0,0.0,0.0,0.0,0.0,0.0,0.0,
8.608,104.64972173295897,67.41104994638155,-17.6,-39.47,-4.08,0.0,0.0,0.0,3.0,0.0,0.0,0.0,0.0,0.0,0.0,
8.632,102.8589721732959,65.85310499463816,-28.89,-32.75,-5.81,0.0,0.0,0.0,2.0,0.0,0.0,0.0,0.1,0.0,0.0,
8.656,101.6358972173296,65.58931049946382,-27.53,-26.89,-6.04,0.0,0.0,0.0,1.0,0.0,0.0,0.0,0.2,0.0,0.0,
8.68,101.70258972173296,65.85093104994638,-13.61,-23.39,-1.28,0.0,0.0,0.0,1.0,0.0,0.0,0.0,0.1,0.1,0.0,
8.705,102.10525897217329,65.57109310499465,-0.02,-19.28,7.63,0.0,0.0,0.0,1.0,0.0,0.0,0.0,0.0,1.08,0.0,
8.728,102.29852589721732,64.46310931049948,5.66,-14.49,12.68,0.0,0.0,0.0,1.0,0.0,0.0,0.0,0.1,1.47,0.0,
8.752,102.63285258972174,64.70331093104996,8.42,-1.66,10.6,0.0,0.0,0.0,2.0,0.0,0.0,0.0,0.1,5.59,0.0,
8.775,103.26928525897218,66.86933109310499,11.66,16.06,5.17,0.0,0.0,1.0,2.0,0.0,0.0,0.0,0.2,5.2,0.0,
8.799,103.50392852589722,68.5349331093105,12.57,26.39,15.8,0.0,0.0,0.0,2.0,0.0,0.0,0.0,0.2,4.41,0.0,
8.823,102.72639285258973,68.32349331093104,11.65,17.19,17.89,0.0,0.0,0.0,2.0,0.0,0.0,0.0,0.1,0.98,0.0,
8.847,101.93763928525897,68.5543493310931,4.86,16.32,14.6,0.0,0.0,0.0,3.0,0.0,0.0,0.0,0.0,2.06,0.0,
8.87,101.4627639285259,68.41543493310932,1.72,16.69,7.56,0.0,0.0,0.0,3.0,0.0,0.0,0.0,0.0,1.18,0.0,
8.894,101.26227639285258,68.36554349331094,-1.08,16.21,0.7,0.0,0.0,0.0,3.0,0.0,0.0,0.0,0.0,1.08,0.0,
8.918,101.50322763928527,68.05455434933108,-2.58,13.31,-1.85,0.0,0.0,1.0,3.0,0.0,0.0,0.0,0.0,0.0,0.0,
8.941,101.81532276392852,68.01445543493311,-0.79,10.58,-1.08,0.0,0.0,1.0,4.0,0.0,0.0,0.0,0.0,0.0,0.0,
8.966,102.29653227639284,68.05544554349332,-1.37,9.63,-0.66,0.0,0.0,1.0,4.0,0.0,0.0,0.0,0.0,0.0,0.0,
8.989,102.63265322763928,68.23054455434934,-4.47,7.98,0.64,0.0,0.0,1.0,4.0,0.0,0.0,0.0,0.0,0.0,0.0,
9.013,102.80126532276392,68.40105445543493,-8.27,5.07,1.99,0.0,0.0,1.0,5.0,0.0,0.0,0.0,0.0,0.0,0.0,
9.036,102.8811265322764,68.3011054455435,-10.13,3.13,1.74,0.0,0.0,1.0,5.0,0.0,0.0,0.0,0.0,0.0,0.0,
9.06,102.77211265322765,68.04811054455435,-10.33,3.48,1.04,0.0,0.0,2.0,6.0,0.0,0.0,0.0,0.0,0.0,0.0,
9.083,102.76121126532277,67.70781105445543,-7.73,3.87,0.69,0.0,0.0,2.0,7.0,0.0,0.0,0.0,0.0,0.0,0.0,
9.107,102.88612112653229,67.54778110544554,-6.28,2.37,-0.09,0.0,0.0,2.0,8.0,0.0,0.0,0.0,0.0,0.0,0.0,
9.131,103.09661211265323,67.54077811054457,-6.85,0.62,1.41,0.0,0.0,2.0,9.0,0.0,0.0,0.0,0.0,0.0,0.0,
9.155,103.25266121126532,67.40507781105445,-7.0,-1.36,2.12,0.0,0.0,2.0,9.0,0.0,0.0,0.0,0.0,0.0,0.0,
9.179,103.30426612112653,67.17550778110545,-7.38,-2.15,2.62,0.0,0.0,3.0,10.0,0.0,0.0,0.0,0.0,0.0,0.0,
9.202,103.16542661211265,66.92755077811056,-6.13,-0.33,-0.66,0.0,0.0,3.0,11.0,0.0,0.0,0.0,0.0,0.0,0.0,
9.226,103.14254266121127,66.75875507781105,-3.56,0.89,-0.96,0.0,0.0,3.0,11.0,0.0,0.0,0.0,0.0,0.0,0.0,
9.25,103.14025426612113,66.7868755077811,-2.92,2.19,-1.39,0.0,0.0,3.0,11.0,0.0,0.0,0.0,0.0,0.0,0.0,
9.274,103.19402542661211,66.68168755077811,-2.77,2.7,-1.52,0.0,0.0,3.0,11.0,0.0,0.0,0.0,0.0,0.0,0.0,
9.297,103.32540254266121,66.63516875507781,-2.11,2.08,-0.36,0.0,0.0,3.0,12.0,0.0,0.0,0.0,0.0,0.0,0.0,
9.321,103.41054025426612,66.63051687550778,-1.61,1.42,-0.74,0.0,0.0,3.0,12.0,0.0,0.0,0.0,0.0,0.0,0.0,
9.346,103.49105402542662,66.63005168755078,-1.89,2.64,-2.07,0.0,0.0,3.0,12.0,0.0,0.0,0.0,0.0,0.0,0.0,
9.369,103.59810540254266,66.72900516875507,-2.66,2.32,-2.56,0.0,0.0,3.0,0.0,0.0,0.0,0.0,0.0,0.0,0.0,
9.393,103.68081054025426,66.7749005168755,-3.59,2.26,-3.11,0.0,0.0,3.0,0.0,0.0,0.0,0.0,0.0,0.0,0.0,
9.416,103.79708105402543,66.77949005168756,-4.48,1.89,-3.05,0.0,0.0,3.0,0.0,0.0,0.0,0.0,0.0,0.0,0.0,
9.44,103.87170810540255,66.77094900516875,-4.81,0.89,-2.6,0.0,0.0,3.0,1.0,0.0,0.0,0.0,0.0,0.0,0.0,
9.463,103.90617081054026,66.75209490051688,-3.6,-0.57,-1.67,0.0,0.0,3.0,2.0,0.0,0.0,0.0,0.0,0.0,0.0,
9.488,104.07161708105403,66.73220949005169,-3.06,-0.84,-1.22,0.0,0.0,3.0,2.0,0.0,0.0,0.0,0.0,0.0,0.0,
9.511,104.1241617081054,66.75722094900517,-3.92,-1.25,-0.74,0.0,0.0,4.0,2.0,0.0,0.0,0.0,0.0,0.0,0.0,
9.535,104.18341617081055,66.69672209490052,-5.93,-1.82,-1.61,0.0,0.0,4.0,2.0,0.0,0.0,0.0,0.0,0.0,0.0,
9.559,104.20734161708106,66.59167220949004,-5.26,-1.51,-1.05,0.0,0.0,4.0,3.0,0.0,0.0,0.0,0.0,0.0,0.0,
9.583,104.1467341617081,66.64416722094902,-4.86,-1.3,-0.72,0.0,0.0,4.0,3.0,0.0,0.0,0.0,0.0,0.0,0.0,
9.607,104.14967341617083,66.6404167220949,-5.48,-1.49,-0.75,0.0,0.0,4.0,3.0,0.0,0.0,0.0,0.0,0.0,0.0,
9.63,104.1229673416171,66.63104167220949,-5.95,-1.89,0.11,0.0,0.0,4.0,4.0,0.0,0.0,0.0,0.0,0.0,0.0,
9.654,104.09329673416173,66.55810416722095,-7.02,-1.91,-0.63,0.0,0.0,4.0,5.0,0.0,0.0,0.0,0.0,0.0,0.0,
9.677,104.15332967341617,66.3798104167221,-7.69,-2.82,-0.97,0.0,0.0,4.0,5.0,0.0,0.0,0.0,0.0,0.0,0.0,
9.702,104.15933296734161,66.2899810416722,-6.64,-2.44,-0.78,0.0,0.0,4.0,6.0,0.0,0.0,0.0,0.0,0.0,0.0,
9.725,104.07893329673415,66.15499810416722,-5.63,-1.92,-0.85,0.0,0.0,4.0,7.0,0.0,0.0,0.0,0.0,0.59,0.0,
9.749,104.06189332967342,66.09649981041672,-4.6,-1.21,-0.75,0.0,0.0,4.0,8.0,0.0,0.0,0.0,0.0,0.78,0.0,
9.773,104.04218933296735,66.10864998104168,-4.15,-1.34,-0.95,0.0,0.0,4.0,8.0,0.0,0.0,0.0,0.0,1.57,0.0,
9.797,103.98621893329674,66.15486499810416,-4.34,-1.12,-1.63,0.0,0.0,4.0,8.0,0.0,0.0,0.0,0.0,1.86,0.0,
9.821,104.04362189332967,66.10548649981041,-3.53,-0.46,-2.13,0.0,0.0,4.0,8.0,0.0,0.0,0.0,0.0,2.06,0.0,
9.844,104.13936218933299,66.06454864998103,-3.05,0.01,-2.06,0.0,0.0,4.0,9.0,0.0,0.0,0.0,0.0,2.26,0.0,
9.868,104.1669362189333,66.0334548649981,-3.11,-0.63,-1.39,0.0,0.0,4.0,9.0,0.0,0.0,0.0,0.0,2.26,0.0,
9.892,104.18769362189333,65.96734548649981,-3.16,-0.88,-0.91,0.0,0.0,4.0,10.0,0.0,0.0,0.0,0.0,2.06,0.0,
9.916,104.18076936218935,65.97873454864998,-3.22,-1.08,-0.62,0.0,0.0,4.0,10.0,0.0,0.0,0.0,0.0,1.86,0.0,
9.939,104.18007693621895,65.90787345486501,-2.98,-0.87,-0.86,0.0,0.0,4.0,10.0,0.0,0.0,0.0,0.0,1.77,0.0,
9.964,104.22500769362189,65.88278734548649,-3.04,-1.08,-1.06,0.0,0.0,4.0,10.0,0.0,0.0,0.0,0.0,1.86,0.0,
9.988,104.31050076936218,65.84427873454865,-2.21,-1.63,-1.15,0.0,0.0,4.0,9.0,0.0,0.0,0.0,0.0,1.77,0.0,
10.011,104.26505007693622,65.84042787345487,-1.08,-2.0,-0.37,0.0,0.0,4.0,9.0,0.0,0.0,0.0,0.0,1.57,0.0,
10.036,104.12550500769362,65.87604278734548,-0.83,-1.99,-0.64,0.0,0.0,4.0,8.0,0.0,0.0,0.0,0.0,1.28,0.0,
10.059,104.10255050076935,66.01460427873455,-1.38,-1.69,-0.93,0.0,0.0,4.0,8.0,0.0,0.0,0.0,0.0,0.98,0.0,
10.083,104.01925505007694,66.14546042787345,-1.62,-1.66,-1.4,0.0,0.0,4.0,7.0,0.0,0.0,0.0,0.0,0.59,0.0,
10.107,104.0559255050077,66.17654604278735,-1.73,-1.69,-1.37,0.0,0.0,4.0,6.0,0.0,0.0,0.0,0.0,0.2,0.0,
10.131,104.02359255050077,66.22465460427874,-2.01,-2.05,-0.73,0.0,0.0,4.0,6.0,0.0,0.0,0.0,0.0,0.0,0.0,
10.156,103.99335925505007,66.31046546042786,-2.7,-1.91,-1.03,0.0,0.0,4.0,5.0,0.0,0.0,0.0,0.0,0.0,0.0,
10.179,103.990335925505,66.30104654604278,-2.89,-2.15,-0.97,0.0,0.0,4.0,5.0,0.0,0.0,0.0,0.0,0.0,0.0,
10.203,103.9990335925505,66.22810465460428,-1.4,-2.29,-0.35,0.0,0.0,4.0,5.0,0.0,0.0,0.0,0.0,0.0,0.0,
10.227,103.94590335925506,66.31081046546042,-1.16,-1.76,-0.79,0.0,0.0,3.0,4.0,0.0,0.0,0.0,0.0,0.0,0.0,
10.251,103.9315903359255,66.34608104654603,-1.97,-1.75,-1.3,0.0,0.0,3.0,4.0,0.0,0.0,0.0,0.0,0.0,0.0,
10.275,103.92115903359256,66.36760810465461,-2.76,-1.4,-1.5,0.0,0.0,3.0,4.0,0.0,0.0,0.0,0.0,0.0,0.0,
10.299,103.92911590335926,66.39676081046547,-2.9,-1.81,-1.07,0.0,0.0,3.0,4.0,0.0,0.0,0.0,0.0,0.0,0.0,
10.323,104.03791159033592,66.39067608104655,-3.34,-2.19,-0.68,0.0,0.0,3.0,5.0,0.0,0.0,0.0,0.0,0.0,0.0,
10.347,103.99479115903358,66.37206760810466,-3.43,-2.25,-0.64,0.0,0.0,3.0,4.0,0.0,0.0,0.0,0.0,0.0,0.0,
10.371,103.97247911590337,66.34320676081046,-1.96,-2.76,-0.5,0.0,0.0,3.0,4.0,0.0,0.0,0.0,0.0,0.0,0.0,
10.395,103.85324791159033,66.39432067608105,-2.52,-2.47,-0.77,0.0,0.0,3.0,3.0,0.0,0.0,0.0,0.0,0.0,0.0,
10.419,103.85032479115904,66.3814320676081,-3.31,-2.5,-0.93,0.0,0.0,3.0,4.0,0.0,0.0,0.0,0.0,0.0,0.0,
10.443,103.84103247911591,66.41614320676081,-3.64,-1.76,-0.85,0.0,0.0,3.0,3.0,0.0,0.0,0.0,0.0,0.0,0.0,
10.467,103.7681032479116,66.50961432067608,-3.79,-2.08,-1.15,0.0,0.0,3.0,3.0,0.0,0.0,0.0,0.0,0.0,0.0,
10.491,103.74281032479115,66.6179614320676,-4.4,-1.78,-1.29,0.0,0.0,3.0,4.0,0.0,0.0,0.0,0.0,0.0,0.0,
10.515,103.68628103247913,66.59279614320677,-4.88,-1.29,-1.28,0.0,0.0,3.0,4.0,0.0,0.0,0.0,0.0,0.0,0.0,
10.539,103.67162810324791,66.51827961432069,-4.82,-1.76,-1.16,0.0,0.0,3.0,4.0,0.0,0.0,0.0,0.0,0.0,0.0,
10.563,103.71516281032478,66.49282796143206,-4.1,-1.56,-0.77,0.0,0.0,3.0,5.0,0.0,0.0,0.0,0.0,0.0,0.0,
10.587,103.72851628103248,66.4632827961432,-3.42,-2.34,-0.23,0.0,0.0,4.0,5.0,0.0,0.0,0.0,0.0,0.0,0.0,
10.61,103.69385162810325,66.38832827961431,-2.95,-2.93,-0.04,0.0,0.0,3.0,5.0,0.0,0.0,0.0,0.0,0.0,0.0,
10.635,103.65438516281033,66.43483282796143,-3.19,-2.84,-0.27,0.0,0.0,3.0,4.0,0.0,0.0,0.0,0.0,0.0,0.0,
10.658,103.63243851628103,66.43948328279615,-4.0,-3.34,-0.5,0.0,0.0,4.0,5.0,0.0,0.0,0.0,0.0,0.0,0.0,
10.682,103.62124385162811,66.44894832827961,-4.84,-2.82,-1.14,0.0,0.0,4.0,5.0,0.0,0.0,0.0,0.0,0.0,0.0,
10.705,103.59312438516281,66.41389483282796,-4.54,-2.08,-1.43,0.0,0.0,4.0,5.0,0.0,0.0,0.0,0.0,0.0,0.0,
10.73,103.59031243851629,66.3563894832828,-3.32,-2.17,-1.36,0.0,0.0,4.0,6.0,0.0,0.0,0.0,0.0,0.0,0.0,
10.754,103.51803124385164,66.39563894832828,-2.79,-1.92,-1.02,0.0,0.0,4.0,6.0,0.0,0.0,0.0,0.0,0.0,0.0,
10.778,103.54680312438515,66.43556389483282,-3.38,-1.84,-0.69,0.0,0.0,4.0,6.0,0.0,0.0,0.0,0.0,0.0,0.0,
10.802,103.58568031243853,66.44855638948329,-3.72,-2.34,-1.0,0.0,0.0,4.0,6.0,0.0,0.0,0.0,0.0,0.0,0.0,
10.825,103.57156803124384,66.43185563894833,-3.45,-2.95,-0.69,0.0,0.0,4.0,6.0,0.0,0.0,0.0,0.0,0.0,0.0,
10.85,103.52515680312437,66.45718556389483,-3.73,-2.73,-0.78,0.0,0.0,4.0,6.0,0.0,0.0,0.0,0.0,0.0,0.0,
10.873,103.46651568031243,66.45971855638948,-3.77,-1.82,-0.76,0.0,0.0,4.0,6.0,0.0,0.0,0.0,0.0,0.0,0.0,
10.897,103.42465156803124,66.45997185563894,-3.01,-0.86,-1.0,0.0,0.0,4.0,6.0,0.0,0.0,0.0,0.0,0.0,0.0,
10.92,103.39346515680313,66.43299718556389,-2.65,-0.54,-1.32,0.0,0.0,4.0,6.0,0.0,0.0,0.0,0.0,0.0,0.0,
10.945,103.3363465156803,66.33129971855638,-3.55,0.28,-2.46,0.0,0.0,4.0,6.0,0.0,0.0,0.0,0.0,0.0,0.0,
10.969,103.32163465156803,66.26712997185564,-2.79,1.17,-2.15,0.0,0.0,4.0,6.0,0.0,0.0,0.0,0.0,0.0,0.0,
10.992,103.3561634651568,66.23371299718556,-1.96,1.53,-1.75,0.0,0.0,4.0,6.0,0.0,0.0,0.0,0.0,0.0,0.0,
11.016,103.44061634651568,66.28437129971856,-1.91,1.5,-1.54,0.0,0.0,3.0,6.0,0.0,0.0,0.0,0.0,0.0,0.0,
11.04,103.48506163465156,66.27143712997186,-1.6,1.55,-1.41,0.0,0.0,3.0,5.0,0.0,0.0,0.0,0.0,0.0,0.0,
11.064,103.46250616346515,66.2611437129972,-1.13,2.66,-2.76,0.0,0.0,3.0,5.0,0.0,0.0,0.0,0.0,0.0,0.0,
11.087,103.5412506163465,66.24211437129972,-0.54,4.45,-3.98,0.0,0.0,3.0,5.0,0.0,0.0,0.0,0.0,0.0,0.0,
11.111,103.68412506163465,66.27621143712997,-0.86,4.98,-3.59,0.0,0.0,3.0,5.0,0.0,0.0,0.0,0.0,0.0,0.0,
11.136,103.79741250616347,66.34262114371299,-0.75,5.22,-3.85,0.0,0.0,3.0,6.0,0.0,0.0,0.0,0.0,0.29,0.0,
11.159,103.97074125061634,66.3492621143713,0.18,4.69,-3.17,0.0,0.0,3.0,5.0,0.0,0.0,0.0,0.0,1.37,0.0,
11.183,104.05107412506165,66.43992621143714,0.46,4.05,-2.5,0.0,0.0,3.0,6.0,0.0,0.0,0.0,0.0,2.45,0.0,
11.206,104.18510741250617,66.63799262114371,-0.03,3.34,-1.95,0.0,0.0,3.0,5.0,0.0,0.0,0.0,0.0,3.34,0.0,
11.23,104.3065107412506,66.75679926211437,-0.55,2.61,-1.9,0.0,0.0,3.0,5.0,0.0,0.0,0.0,0.0,4.41,0.0,
11.254,104.48965107412506,66.87667992621144,-0.98,1.69,-1.08,0.0,0.0,3.0,5.0,0.0,0.0,0.0,0.0,5.3,0.0,
11.278,104.5889651074125,66.95166799262114,-0.06,0.15,0.5,0.0,0.0,3.0,4.0,0.0,0.0,0.0,0.0,6.08,0.0,
11.301,104.66189651074126,67.02216679926212,-0.39,-1.81,0.66,0.0,0.0,3.0,4.0,0.0,0.0,0.0,0.0,6.47,0.0,
11.325,104.66918965107412,67.02921667992622,-0.47,-2.79,0.12,0.0,0.0,3.0,2.0,0.0,0.0,0.0,0.0,6.57,0.0,
11.35,104.69691896510741,67.07492166799263,-2.35,-5.64,-0.66,0.0,0.0,3.0,1.0,0.0,0.0,0.0,0.0,6.08,0.0,
11.373,104.59169189651074,67.09749216679926,-2.76,-8.66,-1.02,0.0,0.0,3.0,12.0,0.0,0.0,0.0,0.0,5.0,0.0,
11.397,104.38316918965108,67.08174921667992,0.2,-12.79,-1.23,0.0,0.0,2.0,10.0,0.0,0.0,0.0,0.0,3.14,0.0,
11.421,103.8403169189651,67.359174921668,1.68,-23.38,-1.79,0.0,0.0,2.0,7.0,0.0,0.0,0.0,0.0,0.29,0.0,
11.445,102.97603169189651,67.6029174921668,-4.51,-61.39,4.21,0.0,0.0,1.0,4.0,0.0,0.0,0.0,0.0,0.0,0.0,
11.469,101.86360316918964,68.69829174921668,-40.23,-84.62,18.92,0.0,0.0,0.0,1.0,0.0,0.0,0.0,0.0,0.0,0.0,
11.493,101.72536031691897,70.77882917492167,-32.04,-23.53,-0.39,0.0,0.0,0.0,1.0,0.0,0.0,0.0,0.2,0.0,0.0,
11.517,101.4235360316919,74.52388291749216,-20.74,-12.28,-12.27,0.0,0.0,0.0,1.0,0.0,0.0,0.0,0.2,0.0,0.0,
11.541,101.30335360316919,78.58838829174923,-20.89,-34.37,-6.34,0.0,0.0,0.0,1.0,0.0,0.0,0.0,0.1,1.96,0.0,
11.566,100.35533536031693,83.08083882917492,-11.17,-0.99,-7.68,0.0,0.0,1.0,0.0,0.0,0.0,0.0,0.2,1.77,0.0,
11.589,98.6855335360317,87.16608388291749,-23.79,2.6,2.05,0.0,0.0,1.0,1.0,0.0,0.0,0.0,0.2,2.75,0.0,
11.613,96.91655335360318,89.63560838829174,-33.49,13.01,9.33,0.0,0.0,1.0,1.0,0.0,0.0,0.0,0.1,2.06,0.0,
11.637,95.57865533536034,90.99856083882918,-4.59,15.49,6.04,0.0,0.0,0.0,0.0,0.0,0.0,0.0,0.1,1.96,0.0,
11.661,94.77886553353603,91.97185608388291,27.98,3.66,-2.46,0.0,0.0,0.0,0.0,0.0,0.0,0.0,0.2,2.16,0.0,
11.684,93.9788865533536,91.97018560838828,49.6,-12.57,-14.08,0.0,0.0,0.0,0.0,0.0,0.0,0.0,0.0,2.45,0.0,
11.708,93.34088865533536,91.12401856083883,49.54,-20.01,-22.31,0.0,0.0,1.0,0.0,0.0,0.0,0.0,0.2,2.84,0.0,
11.732,93.11508886553354,89.32940185608388,37.31,-21.43,-25.94,0.0,0.0,1.0,0.0,0.0,0.0,0.0,0.29,3.04,0.0,
11.756,93.15550888655335,86.7829401856084,31.66,-16.97,-29.73,0.0,0.0,1.0,0.0,0.0,0.0,0.0,0.2,3.24,0.0,
11.781,93.97855088865533,83.46829401856083,33.13,-18.75,-36.15,0.0,0.0,1.0,0.0,0.0,0.0,0.0,0.2,3.34,0.0,
11.804,95.95085508886552,79.86082940185608,47.17,-28.67,-37.47,0.0,0.0,1.0,0.0,0.0,0.0,0.0,0.29,3.43,0.0,
11.828,98.26308550888655,76.67408294018561,65.05,-22.89,-25.95,0.0,0.0,1.0,0.0,0.0,0.0,0.0,0.29,3.73,0.0,
11.852,100.81630855088865,73.38540829401856,78.18,2.22,-7.66,0.0,0.0,1.0,0.0,0.0,0.0,0.0,0.29,3.73,0.0,
11.876,104.02363085508885,69.67254082940185,80.37,28.08,7.28,0.0,0.0,1.0,0.0,0.0,0.0,0.0,0.29,4.51,0.0,
11.899,107.5123630855089,65.42225408294019,79.11,40.92,24.24,0.0,0.0,1.0,0.0,0.0,0.0,0.0,0.2,4.61,0.0,
11.924,109.99423630855088,61.37922540829402,70.92,43.76,41.13,0.0,0.0,1.0,0.0,0.0,0.0,0.0,0.29,4.32,0.0,
11.948,111.50242363085509,57.6449225408294,54.36,50.91,49.14,0.0,0.0,1.0,0.0,0.0,0.0,0.0,0.2,4.22,0.0,
11.971,111.86024236308552,53.95949225408294,32.24,53.35,59.02,0.0,0.0,1.0,0.0,0.0,0.0,0.0,0.2,4.12,0.0,
11.996,108.73702423630856,47.371949225408294,-33.91,30.22,50.17,0.0,0.0,1.0,0.0,0.0,0.0,0.0,0.29,4.12,0.0,
12.019,107.36270242363085,51.99619492254083,-44.34,25.15,41.22,0.0,0.0,1.0,0.0,0.0,0.0,0.0,0.1,3.14,0.0,
12.043,103.99427024236309,58.86661949225408,-67.44,14.85,44.54,0.0,0.0,0.0,0.0,0.0,0.0,0.0,0.1,2.06,0.0,
12.067,102.3524270242363,57.72666194922541,-86.69,5.67,36.44,0.0,0.0,0.0,0.0,0.0,0.0,0.0,0.0,1.08,0.0,
12.091,102.19724270242364,59.223666194922544,-91.93,33.43,23.56,0.0,0.0,0.0,0.0,0.0,0.0,0.0,0.0,0.69,0.0,
12.114,103.77472427024237,58.09536661949225,-78.32,19.93,-26.37,0.0,0.0,0.0,0.0,0.0,0.0,0.0,0.0,7.06,0.0,
12.138,103.76147242702423,58.711536661949225,-45.84,6.33,-23.98,0.0,0.0,0.0,1.0,0.0,0.0,0.0,0.0,5.3,0.0,
12.162,104.02114724270241,59.70915366619492,-27.73,21.44,-16.76,0.0,0.0,0.0,3.0,0.0,0.0,0.0,0.0,3.43,0.0,
12.186,104.03811472427024,60.52891536661949,-3.92,25.89,-7.39,0.0,0.0,0.0,4.0,0.0,0.0,0.0,0.0,3.53,0.0,
12.21,104.27381147242703,61.63689153666194,13.84,31.85,-17.68,0.0,0.0,0.0,4.0,0.0,0.0,0.0,0.0,9.03,0.0,
12.234,104.8913811472427,63.13368915366619,21.36,34.46,-25.92,0.0,0.0,0.0,4.0,0.0,0.0,0.0,0.0,14.42,0.0,
12.258,105.82613811472427,65.33536891536662,14.45,35.23,-26.2,0.0,0.0,0.0,4.0,0.0,0.0,0.0,0.0,18.84,0.0,
12.282,107.48561381147243,67.53553689153667,-2.13,28.47,-18.69,0.0,0.0,1.0,4.0,0.0,0.0,0.0,0.0,22.96,0.0,
12.306,109.20856138114725,68.97955368915366,-15.7,16.92,-8.44,0.0,0.0,1.0,5.0,0.0,0.0,0.0,0.0,27.86,0.0,
12.331,110.37985613811472,69.97895536891536,-18.33,5.19,2.26,0.0,0.0,1.0,6.0,0.0,0.0,0.0,0.0,32.86,0.0,
12.354,111.24398561381147,69.65589553689155,-25.11,4.63,2.73,0.0,0.0,1.0,7.0,0.0,0.0,0.0,0.0,36.79,0.0,
12.378,111.52839856138115,69.99258955368916,-31.48,0.43,-2.69,0.0,0.0,2.0,8.0,0.0,0.0,0.0,0.0,41.1,0.0,
12.402,111.85383985613812,70.04425895536892,-38.15,-10.76,1.1,0.0,0.0,2.0,10.0,0.0,0.0,0.0,0.0,46.21,0.0,
12.427,111.47238398561382,69.4374258955369,-25.73,-11.43,6.27,0.0,0.0,3.0,12.0,0.0,0.0,0.0,0.0,51.99,0.0,
12.45,111.43423839856139,69.2957425895537,-23.28,-12.56,8.25,0.0,0.0,3.0,2.0,0.0,0.0,0.0,0.0,56.41,0.0,
12.475,111.11542383985613,68.94857425895536,-27.69,-20.11,12.99,0.0,0.0,3.0,5.0,0.0,0.0,0.0,0.0,56.11,0.0,
12.499,110.3995423839856,68.37385742589554,-26.63,-22.73,12.09,0.0,0.0,3.0,8.0,0.0,0.0,0.0,0.0,52.29,0.0,
12.523,109.45495423839856,67.82138574258956,-21.43,-13.47,0.91,0.0,0.0,4.0,14.0,0.0,0.0,0.0,0.0,48.85,0.0,
12.548,109.04549542383987,67.81113857425896,-19.88,-6.52,-2.79,0.0,0.0,4.0,16.0,0.0,0.0,0.0,0.0,47.48,0.0,
12.572,109.139549542384,67.49511385742589,-21.79,-6.68,-0.69,0.0,0.0,5.0,18.0,2.0,0.0,0.0,0.0,48.95,0.0,
12.597,109.0949549542384,67.09451138574259,-18.21,-8.02,2.85,0.0,0.0,5.0,20.0,2.0,0.0,0.0,0.0,50.52,0.0,
12.62,108.84749549542384,66.90145113857426,-12.7,-5.89,7.05,0.0,0.0,6.0,22.0,2.0,0.0,0.0,0.0,52.88,0.0,
12.645,108.86774954954238,66.73814511385743,-15.49,-6.85,8.18,0.0,0.0,6.0,23.0,2.0,0.0,0.0,0.0,56.02,0.0,
12.668,108.88777495495424,66.76681451138573,-23.89,-10.92,7.44,0.0,0.0,7.0,24.0,2.0,0.0,0.0,0.0,59.84,0.0,
12.693,108.61977749549543,66.12168145113857,-27.82,-13.27,6.6,0.0,0.0,8.0,27.0,2.0,0.0,0.0,0.0,64.26,0.0,
12.718,108.45797774954954,65.68816814511385,-27.37,-14.32,6.21,0.0,0.0,9.0,31.0,3.0,0.0,0.0,0.0,68.96,0.0,
12.742,108.12679777495495,65.39281681451138,-29.47,-18.19,9.26,0.0,0.0,10.0,32.0,4.0,0.0,0.0,0.0,73.97,0.0,
12.766,107.51767977749549,65.23728168145114,-39.27,-25.57,8.97,0.0,0.0,10.0,35.0,4.0,0.0,0.0,0.0,79.36,0.0,
12.79,106.85376797774956,64.01572816814512,-45.82,-29.76,8.2,0.0,0.0,11.0,37.0,4.0,0.0,1.0,0.0,84.95,0.0,
12.815,106.00437679777495,63.50657281681451,-52.3,-31.86,-2.57,0.0,0.0,1.0,39.0,0.0,0.0,2.0,0.0,87.9,0.0,
12.839,105.85643767977749,63.059657281681446,-59.27,-25.34,-0.63,0.0,0.0,4.0,37.0,7.0,0.0,3.0,0.0,88.19,0.0,
12.864,105.40964376797774,62.43896572816814,-64.05,0.09,5.08,0.0,0.0,8.0,35.0,7.0,0.0,4.0,0.0,84.56,0.0,
12.889,105.37396437679779,60.85589657281682,-76.26,-5.4,2.6,0.0,0.0,8.0,28.0,8.0,0.0,5.0,0.0,75.24,0.0,
12.912,104.34439643767978,59.88758965728168,-84.98,8.15,0.79,0.0,0.0,11.0,19.0,8.0,0.0,6.0,0.0,63.08,0.0,
12.937,103.37743964376797,58.81875896572817,-102.52,6.76,-16.57,0.0,0.0,12.0,12.0,9.0,0.0,7.0,0.0,53.66,0.0,
12.961,102.07474396437681,58.51387589657281,-118.53,29.79,-24.56,0.0,0.0,13.0,5.0,8.0,0.0,8.0,0.0,44.05,0.0,
12.986,101.15247439643767,58.02438758965728,-128.86,56.24,-14.01,0.0,0.0,13.0,3.0,8.0,1.0,9.0,0.0,35.32,0.0,
13.01,101.87024743964378,55.68943875896573,-145.59,75.53,-30.55,0.0,0.0,11.0,4.0,7.0,1.0,9.0,0.0,25.7,0.0,
13.036,103.85002474396437,53.34094387589657,-163.08,66.37,-33.88,0.0,0.0,4.0,6.0,5.0,2.0,8.0,0.0,24.82,0.0,
13.061,107.26100247439643,51.46809438758966,-154.97,46.56,-14.44,0.0,0.0,8.0,5.0,3.0,2.0,7.0,0.0,18.74,0.0,
13.085,111.59810024743965,49.10280943875897,-145.35,71.13,-22.35,0.0,0.0,5.0,3.0,1.0,1.0,3.0,0.0,15.89,0.0,
13.109,118.07081002474396,44.582280943875894,-108.69,5.76,36.75,0.0,0.0,3.0,2.0,0.0,1.0,1.0,0.0,11.58,0.0,
13.133,116.38708100247439,47.568228094387585,-58.29,96.55,34.21,0.0,0.0,1.0,0.0,0.0,1.0,1.0,0.0,7.26,0.0,
13.157,118.96370810024744,60.12482280943876,5.64,-41.56,83.82,0.0,0.0,0.0,0.0,0.0,1.0,1.0,0.0,6.08,0.0,
13.181,117.88937081002473,66.69048228094388,56.44,-46.84,70.06,0.0,0.0,0.0,0.0,0.0,1.0,1.0,0.0,12.36,0.0,
13.205,115.99993708100249,69.48004822809439,68.51,-35.95,57.72,0.0,0.0,0.0,0.0,0.0,1.0,1.0,0.0,26.98,0.0,
13.23,114.34399370810024,70.37100482280944,85.97,-31.82,42.64,0.0,0.0,0.0,0.0,0.0,1.0,1.0,0.0,25.11,0.0,
13.253,115.04239937081003,69.97410048228095,98.53,-33.2,21.24,0.0,0.0,0.0,0.0,0.0,1.0,1.0,0.0,24.92,0.0,
13.278,116.138239937081,68.73741004822809,111.56,-41.25,1.91,0.0,0.0,0.0,0.0,0.0,1.0,1.0,0.0,24.52,0.0,
13.301,116.5898239937081,67.90274100482281,129.5,-45.08,-5.38,0.0,0.0,0.0,0.0,0.0,1.0,1.0,0.0,22.96,0.0,
13.326,115.76198239937082,66.64927410048229,158.46,-47.05,-18.42,0.0,0.0,0.0,0.0,0.0,1.0,1.0,0.0,22.46,0.0,
13.349,115.37319823993708,65.35392741004821,174.66,-46.6,-30.04,0.0,0.0,0.0,0.0,0.0,1.0,1.0,0.0,22.17,0.0,
13.374,115.10031982399371,63.55939274100482,180.6,-48.54,-45.02,0.0,0.0,0.0,0.0,0.0,1.0,1.0,0.0,21.58,0.0,
13.399,115.03703198239937,61.60693927410048,170.17,-42.46,-52.02,0.0,0.0,0.0,0.0,0.0,1.0,1.0,0.0,21.09,0.0,
13.422,114.40070319823994,59.080693927410046,155.21,-38.99,-65.99,0.0,0.0,0.0,0.0,0.0,1.0,1.0,0.0,21.09,0.0,
13.447,113.90507031982399,56.43406939274101,126.96,-27.92,-65.97,0.0,0.0,0.0,0.0,0.0,1.0,1.0,0.0,20.6,0.0,
13.47,114.0715070319824,53.2984069392741,88.23,-12.68,-48.5,0.0,0.0,1.0,0.0,0.0,1.0,1.0,0.0,20.7,0.0,
13.495,114.35815070319825,50.11384069392741,33.73,7.69,-11.62,0.0,0.0,1.0,0.0,0.0,1.0,1.0,0.0,20.21,0.0,
13.518,115.02581507031982,46.98738406939274,-25.57,9.92,32.29,0.0,0.0,1.0,0.0,0.0,1.0,1.0,0.0,19.62,0.0,
13.543,110.70058150703198,43.101738406939276,-65.97,6.8,28.5,0.0,0.0,1.0,0.0,0.0,1.0,1.0,0.0,18.84,0.0,
13.566,105.64205815070319,45.881173840693926,18.95,41.11,52.44,0.0,0.0,1.0,2.0,0.0,1.0,1.0,0.0,18.64,0.0,
13.591,103.57020581507032,48.42711738406939,9.9,22.21,3.99,0.0,0.0,2.0,4.0,0.0,1.0,1.0,0.0,13.15,0.0,
13.615,102.28302058150703,51.57071173840694,-10.68,24.61,3.34,0.0,0.0,2.0,7.0,0.0,1.0,1.0,0.0,14.42,0.0,
13.639,102.20830205815071,53.75707117384069,-7.6,14.31,-8.84,0.0,0.0,3.0,8.0,0.0,1.0,1.0,0.0,29.04,0.0,
13.663,103.35283020581508,55.532707117384064,-6.61,5.15,-8.7,0.0,0.0,3.0,9.0,0.0,1.0,1.0,0.0,24.13,0.0,
13.687,104.5202830205815,56.94327071173841,-5.73,5.66,3.34,0.0,0.0,3.0,9.0,0.0,1.0,1.0,0.0,8.83,0.0,
13.711,104.99702830205815,58.11032707117384,-2.76,7.5,9.96,0.0,0.0,3.0,11.0,1.0,1.0,1.0,0.0,15.7,0.0,
13.734,105.0087028302058,59.02803270711739,-1.5,3.84,9.84,0.0,0.0,3.0,12.0,0.0,1.0,1.0,0.0,16.87,0.0,
13.759,104.44287028302057,59.98380327071174,-1.63,1.76,5.18,0.0,0.0,4.0,2.0,0.0,1.0,1.0,0.0,16.87,0.0,
13.783,104.04428702830207,60.790380327071176,-2.58,3.21,-1.23,0.0,0.0,4.0,3.0,0.0,1.0,1.0,0.0,17.27,0.0,
13.806,104.2204287028302,61.537038032707116,-3.14,2.31,-3.24,0.0,0.0,4.0,4.0,0.0,1.0,1.0,0.0,17.76,0.0,
13.831,104.60704287028302,62.05270380327071,-1.28,-0.13,-1.53,0.0,0.0,4.0,4.0,1.0,1.0,1.0,0.0,17.56,0.0,
13.854,104.84370428702832,62.75227038032707,-0.6,-0.9,1.12,0.0,0.0,4.0,4.0,0.0,1.0,1.0,0.0,16.87,0.0,
13.879,104.93937042870283,63.22722703803271,2.33,-0.64,4.73,0.0,0.0,3.0,3.0,0.0,1.0,1.0,0.0,16.19,0.0,
13.902,104.60693704287029,63.598722703803276,1.11,-0.18,2.53,0.0,0.0,3.0,2.0,0.0,1.0,1.0,0.0,15.21,0.0,
13.927,104.27669370428703,63.99587227038034,1.31,1.79,-1.82,0.0,0.0,3.0,2.0,0.0,1.0,1.0,0.0,14.72,0.0,
13.95,104.18966937042872,64.36858722703803,0.55,3.22,-4.56,0.0,0.0,3.0,2.0,0.0,1.0,1.0,0.0,14.72,0.0,
13.974,104.41496693704286,64.7028587227038,0.12,3.49,-3.94,0.0,0.0,3.0,1.0,0.0,1.0,1.0,0.0,14.72,0.0,
13.999,104.67149669370428,65.00628587227038,-0.18,1.95,-1.69,0.0,0.0,3.0,1.0,0.0,1.0,1.0,0.0,14.81,0.0,
14.022,104.77814966937044,65.18062858722705,1.27,1.63,0.35,0.0,0.0,3.0,1.0,0.0,1.0,1.0,0.0,15.01,0.0,
14.046,104.76181496693705,65.4140628587227,1.05,1.42,0.42,0.0,0.0,3.0,1.0,0.0,1.0,1.0,0.0,15.3,0.0,
14.07,104.71518149669369,65.68040628587227,-0.62,1.62,-1.98,0.0,0.0,3.0,1.0,0.0,1.0,1.0,0.0,15.6,0.0,
14.094,104.64751814966937,65.79704062858723,-0.73,2.95,-3.32,0.0,0.0,3.0,1.0,0.0,1.0,1.0,0.0,15.7,0.0,
14.118,104.73075181496692,65.94370406285871,-1.78,2.58,-4.17,0.0,0.0,3.0,1.0,0.0,1.0,1.0,0.0,15.89,0.0,
14.142,104.91907518149668,66.12037040628587,-1.99,2.54,-3.66,0.0,0.0,3.0,2.0,0.0,1.0,1.0,0.0,16.28,0.0,
14.166,105.06390751814966,66.21003704062858,-3.44,1.24,-2.89,0.0,0.0,3.0,2.0,1.0,1.0,1.0,0.0,16.97,0.0,
14.19,105.21339075181497,66.22800370406286,-3.65,0.73,-2.82,0.0,0.0,3.0,2.0,1.0,1.0,1.0,0.0,17.36,0.0,
14.214,105.31833907518148,66.23880037040628,-3.13,0.24,-2.73,0.0,0.0,3.0,2.0,1.0,1.0,1.0,0.0,17.85,0.0,
14.238,105.40983390751815,66.35688003704063,-3.5,-0.33,-2.59,0.0,0.0,3.0,3.0,1.0,1.0,1.0,0.0,18.05,0.0,
14.262,105.52698339075181,66.49468800370407,-5.55,-1.0,-2.32,0.0,0.0,3.0,3.0,1.0,1.0,1.0,0.0,18.25,0.0,
14.286,105.61969833907517,66.53546880037041,-6.6,-1.61,-1.01,0.0,0.0,3.0,4.0,1.0,1.0,1.0,0.0,18.54,0.0,
14.31,105.69196983390752,66.49454688003703,-5.2,-2.39,-0.29,0.0,0.0,4.0,4.0,1.0,1.0,1.0,0.0,18.84,0.0,
14.334,105.56419698339076,66.5174546880037,-4.35,-1.64,-0.98,0.0,0.0,4.0,5.0,1.0,1.0,1.0,0.0,18.93,0.0,
14.358,105.57841969833908,66.43874546880038,-3.76,-0.95,-1.43,0.0,0.0,4.0,5.0,1.0,1.0,1.0,0.0,19.13,0.0,
14.383,105.6248419698339,66.36787454688005,-2.5,0.14,-0.89,0.0,0.0,4.0,5.0,1.0,1.0,1.0,0.0,19.33,0.0,
14.406,105.6114841969834,66.41478745468801,-2.79,0.34,-1.08,0.0,0.0,4.0,5.0,1.0,1.0,1.0,0.0,19.72,0.0,
14.431,105.62814841969833,66.4374787454688,-3.41,-0.74,-0.54,0.0,0.0,4.0,6.0,1.0,1.0,1.0,0.0,20.21,0.0,
14.454,105.58481484196983,66.45774787454687,-3.92,-0.69,-0.31,0.0,0.0,4.0,6.0,1.0,1.0,1.0,0.0,21.09,0.0,
14.479,105.59848148419697,66.47777478745469,-3.99,-0.33,-0.99,0.0,0.0,4.0,6.0,1.0,1.0,1.0,0.0,21.39,0.0,
14.502,105.7168481484197,66.47977747874548,-4.41,-0.85,-0.63,0.0,0.0,4.0,6.0,1.0,1.0,1.0,0.0,21.78,0.0,
14.527,105.78268481484199,66.38097774787455,-5.61,-2.63,-0.25,0.0,0.0,4.0,6.0,1.0,1.0,1.0,0.0,21.88,0.0,
14.551,105.8162684814842,66.33509777478746,-6.72,-3.01,-0.64,0.0,0.0,4.0,7.0,1.0,1.0,1.0,0.0,22.17,0.0,
14.575,105.72062684814841,66.28550977747875,-5.97,-2.53,-1.2,0.0,0.0,4.0,8.0,1.0,1.0,1.0,0.0,22.17,0.0,
14.599,105.67506268481485,66.23555097774788,-5.39,-2.21,-1.66,0.0,0.0,4.0,8.0,1.0,1.0,1.0,0.0,22.37,0.0,
14.623,105.74250626848148,66.16755509777478,-6.1,-3.28,-1.08,0.0,0.0,4.0,9.0,1.0,1.0,1.0,0.0,22.66,0.0,
14.647,105.76725062684814,66.11575550977747,-6.7,-4.05,-0.59,0.0,0.0,4.0,10.0,1.0,1.0,1.0,0.0,22.46,0.0,
14.671,105.82372506268482,65.98457555097774,-6.82,-5.05,-0.31,0.0,0.0,4.0,10.0,1.0,1.0,1.0,0.0,22.46,0.0,
14.696,105.65837250626849,65.91745755509777,-8.2,-4.95,-1.24,0.0,0.0,4.0,11.0,1.0,1.0,1.0,0.0,22.27,0.0,
14.72,105.50683725062684,65.81174575550978,-6.89,-3.76,-2.32,0.0,0.0,5.0,11.0,1.0,1.0,1.0,0.0,21.97,0.0,
14.744,105.47368372506268,65.67517457555098,-5.49,-2.8,-2.19,0.0,0.0,5.0,11.0,1.0,1.0,1.0,0.0,22.07,0.0,
14.768,105.55136837250627,65.6975174575551,-4.1,-2.32,-1.47,0.0,0.0,5.0,12.0,1.0,1.0,1.0,0.0,22.27,0.0,
14.792,105.53213683725063,65.6457517457555,-4.47,-2.89,-0.05,0.0,0.0,5.0,12.0,1.0,1.0,1.0,0.0,22.66,0.0,
14.817,105.44921368372506,65.64057517457555,-4.4,-2.32,-0.63,0.0,0.0,5.0,12.0,1.0,1.0,1.0,0.0,22.66,0.0,
14.84,105.4769213683725,65.56805751745756,-4.95,-2.49,-0.96,0.0,0.0,5.0,13.0,1.0,1.0,1.0,0.0,22.56,0.0,
14.865,105.43469213683726,65.55180575174575,-4.35,-2.32,-0.41,0.0,0.0,5.0,13.0,1.0,1.0,1.0,0.0,22.37,0.0,
14.888,105.40346921368374,65.47818057517458,-3.99,-2.6,-0.39,0.0,0.0,5.0,13.0,1.0,1.0,1.0,0.0,22.07,0.0,
14.913,105.35534692136837,65.43481805751746,-4.47,-2.85,-0.63,0.0,0.0,5.0,13.0,1.0,1.0,1.0,0.0,21.88,0.0,
14.938,105.29653469213685,65.35848180575174,-4.24,-2.85,-0.22,0.0,0.0,5.0,13.0,1.0,1.0,1.0,0.0,21.29,0.0,
14.961,105.20065346921369,65.35084818057517,-3.94,-3.11,-0.08,0.0,0.0,5.0,14.0,1.0,1.0,1.0,0.0,21.09,0.0,
14.986,105.17306534692138,65.36808481805753,-4.61,-3.89,0.11,0.0,0.0,5.0,14.0,1.0,1.0,1.0,0.0,20.9,0.0,
15.009,105.11630653469214,65.28880848180576,-4.5,-3.21,-0.18,0.0,0.0,5.0,14.0,1.0,1.0,1.0,0.0,20.8,0.0,
15.034,105.09263065346921,65.17288084818057,-3.33,-2.47,-0.63,0.0,0.0,5.0,14.0,1.0,1.0,1.0,0.0,20.5,0.0,
15.058,105.00926306534691,65.21528808481806,-3.12,-2.55,-0.76,0.0,0.0,5.0,14.0,1.0,1.0,1.0,0.0,20.6,0.0,
15.082,104.9649263065347,65.22852880848181,-3.88,-2.81,-0.24,0.0,0.0,5.0,14.0,1.0,1.0,1.0,0.0,20.5,0.0,
15.107,104.96049263065346,65.16685288084818,-3.17,-1.78,-0.32,0.0,0.0,5.0,14.0,1.0,1.0,1.0,0.0,20.11,0.0,
15.13,104.91504926306534,65.13368528808482,-2.11,-0.57,-0.34,0.0,0.0,5.0,16.0,1.0,1.0,1.0,0.0,19.91,0.0,
15.155,104.90150492630654,65.13036852880848,-2.08,-0.39,-0.68,0.0,0.0,5.0,14.0,1.0,1.0,1.0,0.0,19.62,0.0,
15.179,104.90015049263066,65.14803685288085,-2.44,-1.11,-0.86,0.0,0.0,5.0,14.0,1.0,1.0,1.0,0.0,19.52,0.0,
15.203,104.90001504926308,65.12280368528809,-2.79,-1.44,-1.22,0.0,0.0,5.0,14.0,1.0,1.0,1.0,0.0,19.13,0.0,
15.227,104.92700150492632,65.09328036852881,-2.68,-1.39,-1.3,0.0,0.0,5.0,13.0,1.0,1.0,1.0,0.0,18.93,0.0,
15.251,104.86670015049262,65.14432803685288,-1.89,-0.6,-1.37,0.0,0.0,5.0,12.0,1.0,1.0,1.0,0.0,18.84,0.0,
15.276,104.82467001504925,65.23043280368528,-0.94,0.01,-1.59,0.0,0.0,5.0,11.0,1.0,1.0,1.0,0.0,18.44,0.0,
15.3,104.81146700150492,65.23004328036853,-0.4,0.59,-1.61,0.0,0.0,4.0,11.0,1.0,1.0,1.0,0.0,18.05,0.0,
15.324,104.9181467001505,65.28400432803686,0.49,0.86,-1.74,0.0,0.0,4.0,12.0,1.0,1.0,1.0,0.0,17.76,0.0,
15.348,104.95581467001504,65.34340043280368,2.99,1.7,-1.53,0.0,0.0,4.0,8.0,1.0,1.0,1.0,0.0,17.46,0.0,
15.372,104.9595814670015,65.47534004328037,5.61,3.04,-0.9,0.0,0.0,4.0,6.0,1.0,1.0,1.0,0.0,17.07,0.0,
15.395,105.06795814670015,65.68653400432802,7.83,3.08,-1.18,0.0,0.0,3.0,4.0,0.0,1.0,1.0,0.0,16.58,0.0,
15.42,105.16879581467002,65.97765340043281,4.81,1.38,-1.04,0.0,0.0,3.0,2.0,0.0,1.0,1.0,0.0,16.09,0.0,
15.443,105.20587958146699,66.23176534004328,1.46,0.18,-1.22,0.0,0.0,3.0,1.0,0.0,1.0,1.0,0.0,15.79,0.0,
15.467,105.23658795814669,66.28417653400433,0.64,0.37,-1.27,0.0,0.0,3.0,12.0,0.0,1.0,1.0,0.0,15.01,0.0,
15.492,105.27565879581468,66.28941765340043,6.66,2.49,2.47,0.0,0.0,2.0,11.0,0.0,1.0,1.0,0.0,14.72,0.0,
15.515,105.37856587958146,66.49694176534004,8.29,4.42,3.1,0.0,0.0,2.0,10.0,0.0,1.0,1.0,0.0,14.42,0.0,
15.54,105.41585658795815,66.787694176534,4.82,2.34,0.21,0.0,0.0,2.0,9.0,0.0,1.0,1.0,0.0,14.42,0.0,
15.563,105.52758565879581,67.0417694176534,-0.24,1.05,-1.71,0.0,0.0,2.0,9.0,0.0,1.0,1.0,0.0,13.83,0.0,
15.587,105.61975856587958,67.15717694176534,-3.56,-0.31,-2.2,0.0,0.0,2.0,9.0,0.0,1.0,1.0,0.0,11.09,0.0,
15.611,105.61097585658796,67.22271769417654,-5.26,-1.67,-1.99,0.0,0.0,2.0,10.0,0.0,1.0,1.0,0.0,10.59,0.0,
15.635,105.6190975856588,67.26527176941765,-7.66,-2.82,-2.91,0.0,0.0,2.0,10.0,0.0,1.0,1.0,0.0,10.69,0.0,
15.66,105.55690975856588,67.17952717694176,-7.42,-3.24,-2.51,0.0,0.0,2.0,11.0,0.0,1.0,1.0,0.0,10.99,0.0,
15.684,105.5236909758566,67.08995271769417,-5.63,-2.78,-1.73,0.0,0.0,2.0,11.0,0.0,1.0,1.0,0.0,11.09,0.0,
15.708,105.50236909758566,67.07199527176941,-4.86,-2.31,-1.89,0.0,0.0,2.0,11.0,0.0,1.0,1.0,0.0,11.67,0.0,
15.732,105.50023690975857,67.02519952717694,-4.96,-3.24,-1.48,0.0,0.0,2.0,11.0,0.0,1.0,1.0,0.0,11.97,0.0,
15.756,105.43702369097586,66.98451995271769,-5.59,-3.32,-1.02,0.0,0.0,3.0,11.0,0.0,1.0,1.0,0.0,12.16,0.0,
15.78,105.31370236909758,66.90845199527178,-5.34,-2.28,-1.28,0.0,0.0,3.0,12.0,0.0,1.0,1.0,0.0,12.07,0.0,
15.805,105.28337023690976,66.91884519952718,-5.02,-1.79,-1.15,0.0,0.0,3.0,12.0,0.0,1.0,1.0,0.0,12.26,0.0,
15.828,105.28933702369099,66.86588451995271,-4.75,-2.2,-1.18,0.0,0.0,3.0,12.0,0.0,1.0,1.0,0.0,12.26,0.0,
15.853,105.28993370236911,66.81558845199527,-3.39,-2.02,-0.31,0.0,0.0,3.0,0.0,0.0,1.0,1.0,0.0,12.36,0.0,
15.877,105.23599337023691,66.73855884519952,-2.23,-1.34,-0.31,0.0,0.0,3.0,0.0,0.0,1.0,1.0,0.0,12.36,0.0,
15.901,105.17659933702369,66.71285588451994,-2.05,-0.78,-0.59,0.0,0.0,3.0,0.0,0.0,1.0,1.0,0.0,12.36,0.0,
15.926,105.11665993370237,66.782285588452,-1.9,-0.75,-0.89,0.0,0.0,3.0,12.0,0.0,1.0,1.0,0.0,12.36,0.0,
15.949,105.13766599337023,66.7442285588452,0.45,0.39,-0.53,0.0,0.0,2.0,12.0,0.0,1.0,1.0,0.0,12.16,0.0,
15.974,105.25676659933701,66.86642285588452,-0.01,1.07,-0.21,0.0,0.0,2.0,11.0,0.0,1.0,1.0,0.0,12.16,0.0,
15.997,105.2866766599337,66.95964228558846,-1.45,0.09,-0.55,0.0,0.0,2.0,11.0,0.0,1.0,1.0,0.0,12.26,0.0,
16.022,105.37066766599337,66.99596422855885,-2.56,-0.14,-1.05,0.0,0.0,2.0,11.0,0.0,1.0,1.0,0.0,12.26,0.0,
16.046,105.33406676659934,67.02659642285589,-3.66,-0.78,-1.35,0.0,0.0,2.0,11.0,0.0,1.0,1.0,0.0,12.36,0.0,
16.07,105.27640667665993,67.04765964228558,-3.35,-1.18,-1.27,0.0,0.0,2.0,11.0,0.0,1.0,1.0,0.0,12.36,0.0,
16.095,105.27064066766599,66.93276596422857,-1.77,-0.24,-0.54,0.0,0.0,2.0,11.0,0.0,1.0,1.0,0.0,12.46,0.0,
16.118,105.30606406676661,66.97527659642286,-0.85,-0.06,-0.11,0.0,0.0,2.0,11.0,0.0,1.0,1.0,0.0,12.46,0.0,
16.143,105.32760640667665,67.00652765964229,-1.44,-0.6,-0.66,0.0,0.0,2.0,11.0,0.0,1.0,1.0,0.0,12.56,0.0,
16.166,105.29376064066767,67.10865276596424,-2.7,-0.69,-1.48,0.0,0.0,2.0,11.0,0.0,1.0,1.0,0.0,12.65,0.0,
16.191,105.30837606406678,67.13686527659642,-3.24,-0.34,-1.47,0.0,0.0,2.0,11.0,0.0,1.0,1.0,0.0,12.56,0.0,
16.216,105.37283760640668,67.19368652765965,-3.53,-1.15,-1.27,0.0,0.0,2.0,11.0,0.0,1.0,1.0,0.0,12.56,0.0,
16.239,105.43328376064066,67.23536865276596,-4.12,-0.98,-1.07,0.0,0.0,2.0,11.0,0.0,1.0,1.0,0.0,12.46,0.0,
16.264,105.43932837606407,67.24853686527659,-3.27,-0.95,-0.88,0.0,0.0,2.0,11.0,0.0,1.0,1.0,0.0,12.46,0.0,
16.287,105.4219328376064,67.33085368652766,-3.27,-1.22,-0.83,0.0,0.0,2.0,11.0,0.0,1.0,1.0,0.0,12.65,0.0,
16.312,105.42919328376065,67.35708536865276,-2.66,-0.76,-1.01,0.0,0.0,2.0,11.0,0.0,1.0,1.0,0.0,12.65,0.0,
16.336,105.38491932837606,67.35070853686527,-2.58,-0.41,-0.74,0.0,0.0,2.0,11.0,0.0,1.0,1.0,0.0,12.75,0.0,
16.36,105.3804919328376,67.30507085368653,-2.02,-0.92,-0.75,0.0,0.0,2.0,11.0,0.0,1.0,1.0,0.0,12.95,0.0,
16.385,105.44304919328376,67.35450708536865,-2.4,-0.77,-0.66,0.0,0.0,2.0,11.0,0.0,1.0,1.0,0.0,12.85,0.0,
16.408,105.52130491932837,67.35945070853687,-3.27,-0.68,-1.14,0.0,0.0,2.0,11.0,0.0,1.0,1.0,0.0,12.95,0.0,
16.433,105.56513049193282,67.35094507085368,-3.46,-0.31,-1.57,0.0,0.0,2.0,11.0,0.0,1.0,1.0,0.0,13.15,0.0,
16.457,105.57851304919329,67.38609450708537,-3.83,-0.08,-1.68,0.0,0.0,2.0,11.0,0.0,1.0,1.0,0.0,13.24,0.0,
16.481,105.56185130491933,67.30860945070853,-2.98,-0.44,-1.31,0.0,0.0,2.0,11.0,0.0,1.0,1.0,0.0,13.54,0.0,
16.505,105.59618513049192,67.36386094507085,-3.07,-0.85,-1.02,0.0,0.0,2.0,11.0,0.0,1.0,1.0,0.0,13.64,0.0,
16.529,105.57261851304918,67.34238609450709,-3.63,-1.46,-1.17,0.0,0.0,2.0,11.0,0.0,1.0,1.0,0.0,13.83,0.0,
16.553,105.5702618513049,67.29523860945072,-4.43,-1.49,-1.37,0.0,0.0,2.0,11.0,0.0,1.0,1.0,0.0,13.93,0.0,
16.578,105.61502618513049,67.26352386094507,-4.8,-1.66,-1.51,0.0,0.0,3.0,11.0,0.0,1.0,1.0,0.0,13.93,0.0,
16.602,105.61050261851305,67.25135238609451,-5.02,-1.49,-1.92,0.0,0.0,3.0,12.0,0.0,1.0,1.0,0.0,14.42,0.0,
16.626,105.67305026185132,67.21413523860944,-5.02,-1.68,-1.8,0.0,0.0,3.0,12.0,0.0,1.0,1.0,0.0,14.42,0.0,
16.65,105.65230502618513,67.21041352386094,-5.25,-2.2,-1.88,0.0,0.0,3.0,12.0,0.0,1.0,1.0,0.0,14.42,0.0,
16.674,105.65023050261851,67.21004135238609,-5.63,-2.25,-2.21,0.0,0.0,3.0,0.0,0.0,1.0,1.0,0.0,14.62,0.0,
16.699,105.59602305026185,67.1920041352386,-5.52,-2.01,-1.83,0.0,0.0,3.0,1.0,0.0,1.0,1.0,0.0,14.72,0.0,
16.722,105.5816023050262,67.21720041352386,-5.65,-2.1,-1.59,0.0,0.0,3.0,1.0,0.0,1.0,1.0,0.0,15.11,0.0,
16.747,105.58016023050263,67.19272004135237,-6.14,-1.76,-1.61,0.0,0.0,3.0,2.0,0.0,1.0,1.0,0.0,15.21,0.0,
16.771,105.63401602305026,67.07327200413525,-5.54,-1.85,-1.2,0.0,0.0,3.0,2.0,0.0,1.0,1.0,0.0,15.3,0.0,
16.795,105.54040160230502,67.04332720041353,-4.98,-1.98,-1.03,0.0,0.0,3.0,3.0,0.0,1.0,1.0,0.0,15.21,0.0,
16.819,105.5220401602305,66.98633272004136,-5.15,-2.17,-1.01,0.0,0.0,3.0,3.0,0.0,1.0,1.0,0.0,15.3,0.0,
16.843,105.59220401602303,66.90863327200414,-4.49,-1.63,-1.24,0.0,0.0,3.0,3.0,0.0,1.0,1.0,0.0,15.5,0.0,
16.867,105.58122040160231,66.87386332720043,-4.29,-1.78,-0.71,0.0,0.0,3.0,3.0,0.0,1.0,1.0,0.0,15.5,0.0,
16.891,105.51712204016023,66.82538633272004,-4.4,-1.74,-0.96,0.0,0.0,3.0,4.0,0.0,1.0,1.0,0.0,15.7,0.0,
16.915,105.46571220401603,66.829538633272,-4.21,-1.86,-0.97,0.0,0.0,3.0,4.0,0.0,1.0,1.0,0.0,15.7,0.0,
16.94,105.4605712204016,66.72195386332719,-4.48,-2.12,-0.86,0.0,0.0,3.0,4.0,0.0,1.0,1.0,0.0,15.6,0.0,
16.963,105.46005712204015,66.67519538633272,-4.01,-1.86,-0.96,0.0,0.0,3.0,4.0,0.0,1.0,1.0,0.0,15.6,0.0,
16.988,105.45100571220401,66.65251953863327,-3.96,-2.01,-0.89,0.0,0.0,3.0,4.0,0.0,1.0,1.0,0.0,15.3,0.0,
17.011,105.4231005712204,66.64125195386333,-4.02,-1.89,-0.95,0.0,0.0,4.0,4.0,0.0,1.0,1.0,0.0,15.11,0.0,
17.036,105.40231005712205,66.60412519538633,-3.83,-2.04,-0.95,0.0,0.0,4.0,4.0,0.0,1.0,1.0,0.0,15.01,0.0,
17.059,105.37323100571221,66.54641251953865,-3.73,-1.78,-0.79,0.0,0.0,4.0,5.0,0.0,1.0,1.0,0.0,14.81,0.0,
17.084,105.33432310057121,66.49564125195386,-3.4,-1.79,-1.01,0.0,0.0,4.0,5.0,0.0,1.0,1.0,0.0,14.62,0.0,
17.107,105.34843231005712,66.50856412519539,-3.4,-1.05,-1.47,0.0,0.0,4.0,5.0,0.0,1.0,1.0,0.0,14.52,0.0,
17.132,105.34084323100572,66.55485641251954,-3.52,-1.44,-1.52,0.0,0.0,4.0,5.0,0.0,1.0,1.0,0.0,14.52,0.0,
17.157,105.40308432310057,66.53248564125195,-3.88,-1.9,-1.14,0.0,0.0,4.0,4.0,0.0,1.0,1.0,0.0,14.52,0.0,
17.18,105.40930843231006,66.5302485641252,-3.95,-1.84,-1.19,0.0,0.0,4.0,5.0,0.0,1.0,1.0,0.0,14.42,0.0,
17.205,105.37393084323102,66.51202485641252,-3.46,-1.43,-1.11,0.0,0.0,4.0,5.0,0.0,1.0,1.0,0.0,14.42,0.0,
17.228,105.3523930843231,66.51020248564126,-2.77,-1.24,-1.0,0.0,0.0,4.0,5.0,0.0,1.0,1.0,0.0,14.52,0.0,
17.253,105.3322393084323,66.48302024856413,-2.32,-1.34,-0.95,0.0,0.0,4.0,5.0,0.0,1.0,1.0,0.0,14.52,0.0,
17.276,105.32122393084322,66.48030202485641,-2.25,-0.98,-0.91,0.0,0.0,3.0,5.0,0.0,1.0,1.0,0.0,14.42,0.0,
17.301,105.34712239308432,66.45303020248565,-2.18,-0.92,-0.95,0.0,0.0,3.0,4.0,0.0,1.0,1.0,0.0,14.32,0.0,
17.325,105.34971223930843,66.54030302024856,-2.07,-0.94,-1.1,0.0,0.0,3.0,4.0,0.0,1.0,1.0,0.0,549.85,0.0,
17.349,105.32297122393084,66.60303030202485,-2.92,-1.04,-1.24,0.0,0.0,3.0,4.0,0.0,1.0,1.0,0.0,14.52,0.0,
17.373,105.32929712239307,66.59130303020248,-3.65,-0.85,-1.35,0.0,0.0,3.0,4.0,0.0,1.0,1.0,0.0,14.52,0.0,
17.397,105.3209297122393,66.55413030302024,-2.75,-0.91,-1.42,0.0,0.0,3.0,4.0,0.0,1.0,1.0,0.0,14.22,0.0,
17.421,105.33809297122394,66.58641303030203,-2.12,-1.08,-1.11,0.0,0.0,3.0,4.0,0.0,1.0,1.0,0.0,13.93,0.0,
17.445,105.34880929712239,66.60764130303019,-2.53,-1.15,-0.85,0.0,0.0,3.0,4.0,0.0,1.0,1.0,0.0,13.83,0.0,
17.469,105.31388092971224,66.62776413030302,-2.77,-1.38,-0.91,0.0,0.0,3.0,4.0,0.0,1.0,1.0,0.0,13.73,0.0,
17.494,105.31038809297124,66.6387764130303,-3.21,-1.35,-1.1,0.0,0.0,3.0,4.0,0.0,1.0,1.0,0.0,13.83,0.0,
17.517,105.29203880929713,66.71187764130303,-3.63,-1.31,-1.18,0.0,0.0,3.0,4.0,0.0,1.0,1.0,0.0,13.73,0.0,
17.542,105.29920388092971,66.75518776413031,-3.08,-1.81,-1.06,0.0,0.0,3.0,4.0,0.0,1.0,1.0,0.0,13.64,0.0,
17.566,105.28192038809297,66.70551877641303,-2.61,-1.92,-0.84,0.0,0.0,3.0,4.0,0.0,1.0,1.0,0.0,13.64,0.0,
17.59,105.2621920388093,66.7815518776413,-2.98,-1.76,-0.94,0.0,0.0,3.0,3.0,0.0,1.0,1.0,0.0,13.44,0.0,
17.614,105.26921920388092,66.82515518776412,-2.97,-1.43,-1.17,0.0,0.0,3.0,3.0,0.0,1.0,1.0,0.0,13.34,0.0,
17.638,105.26992192038809,66.83851551877642,-3.43,-1.27,-1.5,0.0,0.0,3.0,3.0,0.0,1.0,1.0,0.0,13.24,0.0,
17.662,105.26099219203881,66.83985155187764,-3.47,-1.93,-1.29,0.0,0.0,3.0,3.0,0.0,1.0,1.0,0.0,13.24,0.0,
17.686,105.27809921920388,66.81298515518776,-3.27,-1.92,-1.0,0.0,0.0,3.0,3.0,0.0,1.0,1.0,0.0,13.24,0.0,
17.711,105.21680992192037,66.86429851551878,-3.43,-1.67,-0.92,0.0,0.0,3.0,3.0,0.0,1.0,1.0,0.0,13.15,0.0,
17.734,105.26468099219203,66.88742985155187,-3.65,-1.81,-0.81,0.0,0.0,3.0,3.0,0.0,1.0,1.0,0.0,12.95,0.0,
17.759,105.26046809921921,66.81774298515519,-3.71,-1.68,-0.6,0.0,0.0,3.0,3.0,0.0,1.0,1.0,0.0,12.95,0.0,
17.782,105.26904680992192,66.76577429851552,-3.17,-1.67,-0.68,0.0,0.0,3.0,3.0,0.0,1.0,1.0,0.0,12.85,0.0,
17.807,105.24290468099218,66.76957742985155,-3.4,-1.75,-1.0,0.0,0.0,3.0,3.0,0.0,1.0,1.0,0.0,12.75,0.0,
17.83,105.15929046809921,66.82395774298516,-3.89,-1.79,-1.0,0.0,0.0,3.0,4.0,0.0,1.0,1.0,0.0,12.75,0.0,
17.855,105.15992904680992,66.79339577429852,-3.79,-1.57,-1.26,0.0,0.0,3.0,4.0,0.0,1.0,1.0,0.0,12.65,0.0,
17.879,105.16899290468099,66.82633957742985,-3.19,-1.67,-0.99,0.0,0.0,3.0,3.0,0.0,1.0,1.0,0.0,12.65,0.0,
17.903,105.12489929046811,66.82963395774298,-3.62,-1.56,-0.92,0.0,0.0,3.0,4.0,0.0,1.0,1.0,0.0,12.65,0.0,
17.927,105.06648992904681,66.8119633957743,-3.37,-1.83,-0.99,0.0,0.0,3.0,4.0,0.0,1.0,1.0,0.0,12.56,0.0,
17.951,105.04264899290467,66.70219633957743,-2.97,-1.48,-1.07,0.0,0.0,3.0,3.0,0.0,1.0,1.0,0.0,12.46,0.0,
17.975,105.06726489929046,66.71821963395774,-3.5,-1.44,-1.12,0.0,0.0,3.0,3.0,0.0,1.0,1.0,0.0,12.46,0.0,
17.999,105.03372648992905,66.72882196339577,-3.44,-1.85,-0.89,0.0,0.0,3.0,3.0,0.0,1.0,1.0,0.0,12.46,0.0,
18.023,105.00337264899291,66.74788219633957,-3.06,-1.6,-1.0,0.0,0.0,3.0,3.0,0.0,1.0,1.0,0.0,12.46,0.0,
18.048,104.98233726489929,66.80378821963396,-3.25,-1.59,-1.2,0.0,0.0,3.0,3.0,0.0,1.0,1.0,0.0,12.46,0.0,
18.072,105.03423372648993,66.80037882196339,-3.36,-1.29,-1.21,0.0,0.0,3.0,3.0,0.0,1.0,1.0,0.0,12.36,0.0,
18.096,105.039423372649,66.80003788219634,-3.18,-1.51,-1.2,0.0,0.0,3.0,3.0,0.0,1.0,1.0,0.0,12.36,0.0,
18.12,105.1029423372649,66.81800378821963,-3.59,-1.6,-1.42,0.0,0.0,3.0,3.0,0.0,1.0,1.0,0.0,12.36,0.0,
18.144,105.10929423372649,66.83780037882197,-3.95,-1.57,-1.17,0.0,0.0,3.0,3.0,0.0,1.0,1.0,0.0,12.26,0.0,
18.168,105.10992942337265,66.7947800378822,-3.78,-1.94,-1.07,0.0,0.0,3.0,3.0,0.0,1.0,1.0,0.0,12.36,0.0,
18.192,105.13699294233727,66.77247800378822,-3.08,-1.68,-1.0,0.0,0.0,3.0,3.0,0.0,1.0,1.0,0.0,12.36,0.0,
18.216,105.04069929423372,66.84224780037881,-2.9,-1.66,-0.69,0.0,0.0,3.0,3.0,0.0,1.0,1.0,0.0,12.36,0.0,
18.24,104.99506992942337,66.87622478003789,-2.81,-1.55,-1.01,0.0,0.0,3.0,3.0,0.0,1.0,1.0,0.0,12.26,0.0,
18.265,105.02650699294233,66.8976224780038,-2.7,-1.21,-0.75,0.0,0.0,3.0,3.0,0.0,1.0,1.0,0.0,12.36,0.0,
18.288,105.04765069929424,66.92676224780038,-2.51,-1.47,-0.8,0.0,0.0,3.0,3.0,0.0,1.0,1.0,0.0,12.26,0.0,
18.313,105.00476506992942,66.93867622478004,-2.74,-1.7,-1.01,0.0,0.0,3.0,3.0,0.0,1.0,1.0,0.0,12.36,0.0,
18.336,104.95547650699294,66.939867622478,-2.87,-1.56,-1.05,0.0,0.0,3.0,2.0,0.0,0.0,1.0,0.0,12.36,0.0,
18.361,105.0045476506993,66.90398676224781,-2.18,-1.27,-0.86,0.0,0.0,3.0,2.0,0.0,0.0,1.0,0.0,12.36,0.0,
18.384,105.00945476506993,66.93639867622478,-2.31,-1.47,-0.73,0.0,0.0,3.0,2.0,0.0,0.0,1.0,0.0,12.75,0.0,
18.409,105.03694547650699,66.93063986762249,-2.75,-1.41,-0.91,0.0,0.0,3.0,2.0,0.0,0.0,1.0,0.0,12.65,0.0,
18.434,104.9946945476507,66.93906398676225,-2.92,-1.31,-1.12,0.0,0.0,3.0,2.0,0.0,0.0,1.0,0.0,12.36,0.0,
18.457,104.94546945476506,67.01190639867622,-2.94,-1.66,-1.05,0.0,0.0,3.0,2.0,0.0,0.0,1.0,0.0,12.16,0.0,
18.482,104.8595469454765,67.03719063986763,-2.92,-1.67,-1.08,0.0,0.0,3.0,2.0,0.0,0.0,1.0,0.0,12.16,0.0,
18.505,104.86895469454765,67.00371906398676,-2.05,-1.79,-1.01,0.0,0.0,3.0,2.0,0.0,0.0,1.0,0.0,12.16,0.0,
18.53,104.82489546945476,67.02737190639868,-1.59,-1.44,-0.66,0.0,0.0,3.0,1.0,0.0,0.0,1.0,0.0,11.97,0.0,
18.553,104.81148954694548,66.99373719063986,-1.85,-1.25,-1.18,0.0,0.0,2.0,0.0,0.0,0.0,1.0,0.0,11.97,0.0,
18.578,104.85514895469454,66.99037371906398,-2.94,-1.08,-1.32,0.0,0.0,2.0,0.0,0.0,0.0,1.0,0.0,11.97,0.0,
18.601,104.85951489546945,66.9810373719064,-3.53,-1.29,-1.36,0.0,0.0,2.0,0.0,0.0,0.0,1.0,0.0,11.38,0.0,
18.626,104.89595148954695,66.95310373719065,-2.55,-1.63,-1.06,0.0,0.0,2.0,0.0,0.0,0.0,1.0,0.0,11.18,0.0,
18.65,104.93559514895469,66.95931037371906,-1.18,-1.26,-0.14,0.0,0.0,2.0,12.0,0.0,0.0,1.0,0.0,11.18,0.0,
18.674,104.96655951489547,67.05893103737189,-1.87,-1.18,-0.57,0.0,0.0,2.0,12.0,0.0,0.0,1.0,0.0,11.18,0.0,
18.699,104.92465595148954,67.09589310373718,-3.06,-1.34,-0.56,0.0,0.0,2.0,11.0,0.0,0.0,1.0,0.0,11.09,0.0,
18.722,104.97446559514896,67.08158931037372,-3.35,-1.08,-0.57,0.0,0.0,2.0,11.0,0.0,0.0,1.0,0.0,10.99,0.0,
18.747,104.9524465595149,67.06215893103737,-3.33,-1.06,-0.52,0.0,0.0,2.0,12.0,0.0,0.0,1.0,0.0,10.99,0.0,
18.77,104.95924465595148,67.03321589310374,-3.24,-1.27,-0.82,0.0,0.0,2.0,11.0,0.0,0.0,1.0,0.0,11.09,0.0,
18.795,104.95092446559514,67.10232158931038,-3.18,-1.63,-0.84,0.0,0.0,2.0,11.0,0.0,0.0,1.0,0.0,11.18,0.0,
18.82,104.90509244655952,67.11823215893105,-2.84,-1.14,-0.89,0.0,0.0,2.0,11.0,0.0,0.0,1.0,0.0,11.18,0.0,
18.843,104.93650924465595,67.1558232158931,-2.71,-1.0,-0.77,0.0,0.0,2.0,11.0,0.0,0.0,1.0,0.0,11.28,0.0,
18.868,104.8856509244656,67.16858232158931,-2.69,-0.92,-1.08,0.0,0.0,2.0,11.0,0.0,0.0,1.0,0.0,11.18,0.0,
18.891,104.93456509244655,67.16085823215893,-2.52,-0.69,-1.01,0.0,0.0,2.0,11.0,0.0,0.0,1.0,0.0,11.28,0.0,
18.916,104.98445650924465,67.1600858232159,-3.08,-0.89,-1.08,0.0,0.0,2.0,11.0,0.0,0.0,1.0,0.0,11.28,0.0,
18.94,104.96244565092447,67.16000858232158,-2.74,-1.26,-0.92,0.0,0.0,2.0,11.0,0.0,0.0,1.0,0.0,11.38,0.0,
18.964,104.94224456509244,67.08800085823216,-3.53,-1.56,-0.98,0.0,0.0,2.0,11.0,0.0,0.0,1.0,0.0,11.38,0.0,
18.989,104.96722445650924,67.08980008582323,-2.69,-0.86,-0.59,0.0,0.0,2.0,11.0,0.0,0.0,1.0,0.0,11.18,0.0,
19.012,104.95172244565092,67.10798000858232,-1.22,-0.47,0.25,0.0,0.0,2.0,11.0,0.0,0.0,1.0,0.0,11.28,0.0,
19.037,104.9051722445651,67.23579800085822,-0.17,-0.22,0.54,0.0,0.0,2.0,11.0,0.0,0.0,1.0,0.0,11.38,0.0,
19.06,104.90051722445652,67.29357980008582,-1.65,-0.23,-0.63,0.0,0.0,2.0,10.0,0.0,0.0,1.0,0.0,11.28,0.0,
19.085,104.93605172244565,67.29935798000858,-3.06,-0.7,-1.31,0.0,0.0,2.0,10.0,0.0,0.0,1.0,0.0,10.4,0.0,
19.109,104.95760517224456,67.36293579800086,-2.02,-0.64,-0.41,0.0,0.0,2.0,10.0,0.0,0.0,1.0,0.0,10.2,0.0,
19.133,104.94176051722445,67.34229357980009,-2.82,-1.38,-0.66,0.0,0.0,2.0,10.0,0.0,0.0,1.0,0.0,10.1,0.0,
19.158,104.92217605172245,67.39422935798001,-2.39,-1.16,-0.44,0.0,0.0,2.0,10.0,0.0,0.0,1.0,0.0,10.1,0.0,
19.182,104.94721760517224,67.426422935798,-1.18,-0.7,0.1,0.0,0.0,2.0,10.0,0.0,0.0,1.0,0.0,9.91,0.0,
19.206,105.00372176051722,67.51064229357979,-1.34,-1.02,0.21,0.0,0.0,2.0,10.0,0.0,0.0,1.0,0.0,10.01,0.0,
19.229,105.04537217605173,67.54606422935798,-2.49,-1.13,-0.47,0.0,0.0,2.0,10.0,0.0,0.0,1.0,0.0,9.81,0.0,
19.254,104.99553721760518,67.6216064229358,-2.6,-1.44,-0.66,0.0,0.0,2.0,10.0,0.0,0.0,1.0,0.0,9.71,0.0,
19.278,104.94555372176052,67.62016064229358,-2.66,-1.18,-0.71,0.0,0.0,2.0,10.0,0.0,0.0,1.0,0.0,9.61,0.0,
19.302,104.89555537217605,67.64701606422936,-2.09,-0.82,-0.47,0.0,0.0,2.0,10.0,0.0,0.0,1.0,0.0,9.61,0.0,
19.326,104.9175555372176,67.63170160642294,-2.47,-0.67,-0.4,0.0,0.0,2.0,9.0,0.0,0.0,1.0,0.0,9.32,0.0,
19.35,104.93775555372176,67.6121701606423,-2.66,-0.9,-0.47,0.0,0.0,2.0,9.0,0.0,0.0,1.0,0.0,9.32,0.0,
19.374,104.88577555537216,67.65521701606423,-3.6,-1.4,-1.15,0.0,0.0,2.0,9.0,0.0,0.0,1.0,0.0,9.22,0.0,
19.398,104.89857755553723,67.67752170160642,-2.69,-1.36,-0.96,0.0,0.0,2.0,9.0,0.0,0.0,1.0,0.0,9.42,0.0,
19.422,104.90885775555371,67.66175217016064,-2.48,-1.31,-0.7,0.0,0.0,2.0,9.0,0.0,0.0,1.0,0.0,9.32,0.0,
19.446,104.85588577555536,67.66917521701606,-2.92,-1.5,-0.58,0.0,0.0,2.0,9.0,0.0,0.0,1.0,0.0,8.83,0.0,
19.47,104.87758857755553,67.6789175217016,-3.86,-1.31,-1.21,0.0,0.0,2.0,9.0,0.0,0.0,1.0,0.0,8.73,0.0,
