time,t1:pitch,t1:roll,t1:gyrx,t1:gyry,t1:gyrz,t2:pitch,t2:roll,t2:gyrx,t2:gyry,t2:gyrz,k1:pitch,k1:roll,k1:gyrx,k1:gyry,k1:gyrz,k2:pitch,k2:roll,k2:gyrx,k2:gyry,k2:gyrz,W:pitch,W:roll,W:gyrx,W:gyry,W:gyrz,B:pitch,B:roll,B:gyrx,B:gyry,B:gyrz
0.28500000000000003,13.5,13.5,0.0,-0.0,0.0,27.860093797110487,20.90435986742009,0.09923664122137404,0.6183206106870229,0.19083969465648856,13.5,13.5,0.0,-0.0,0.0,40.50000003085199,25.500000013711997,0.0,-0.0,0.0,99.0,142.0,-2.0,-7.0,0.0,60.33,55.68,-4.0,0.0,-1.0,
0.318,24.975,24.975,0.0,-0.0,0.0,51.5411735246544,38.67306575472717,0.09923664122137404,0.6183206106870229,0.19083969465648856,24.975,24.975,0.0,-0.0,0.0,74.92500005707618,47.1750000253672,0.0,-0.0,0.0,99.0,142.0,-1.0,-7.0,0.0,65.83,60.69,-4.0,0.0,0.0,
0.352,34.728750000000005,34.728750000000005,0.0,-0.0,0.0,71.67009129306672,53.77646575893819,0.09923664122137404,0.6183206106870229,0.19083969465648856,34.728750000000005,34.728750000000005,0.0,-0.0,0.0,104.18625007936674,65.59875003527412,0.0,-0.0,0.0,99.0,142.0,-2.0,-7.0,0.0,70.58,65.03,-4.0,0.0,0.0,
0.386,43.0194375,43.0194375,0.0,-0.0,0.0,88.77147408507435,66.43173910895783,0.10687022900763359,0.6183206106870229,0.19083969465648856,43.0194375,43.0194375,0.0,-0.0,0.0,129.0583125983137,81.258937543695,0.0,-0.0,0.0,99.0,142.0,-2.0,-7.0,0.0,74.53,68.69,-4.0,0.0,0.0,
0.42000000000000004,50.066521875,50.066521875,0.0,-0.0,0.0,103.30764945828084,77.18872145647451,0.10687022900763359,0.6183206106870229,0.19083969465648856,50.066521875,50.066521875,0.0,-0.0,0.0,150.19956573941863,94.57009692585274,0.0,-0.0,0.0,99.0,142.0,-2.0,-6.0,0.0,77.93,71.86,-3.0,0.0,0.0,
0.45499999999999996,56.05654359375,56.05654359375,0.0,-0.0,0.0,115.66339852550635,86.33215645186368,0.10687022900763359,0.6183206106870229,0.19083969465648856,56.05654359375,56.05654359375,0.0,-0.0,0.0,168.1696309093578,105.88458240068682,0.0,-0.0,0.0,99.0,142.0,-2.0,-6.0,0.0,80.79,74.43,-3.0,0.0,0.0,
0.488,61.1480620546875,61.1480620546875,0.0,-0.0,0.0,126.10421493326609,94.0252822417203,0.09923664122137404,0.6335877862595419,0.19083969465648856,61.1480620546875,61.1480620546875,0.0,-0.0,0.0,183.44418630380613,115.5018950542958,0.0,-0.0,0.0,99.0,142.0,-2.0,-6.0,0.0,83.25,76.76,-4.0,0.0,-1.0,
0.522,49.72339203635295,74.26836946937159,0.04580152671755725,-0.32061068702290074,0.3893129770992366,134.97890887986188,100.56443916309844,0.09923664122137404,0.6335877862595419,0.19083969465648856,65.47585274648438,65.47585274648438,0.0,-0.0,0.0,196.4275583890872,123.67661080986342,0.0,-0.0,0.0,99.0,142.0,-2.0,-6.0,0.0,85.27,78.67,-3.0,0.0,0.0,
0.558,40.012422520768574,85.42063077185306,0.04580152671755725,-0.32061068702290074,0.3893129770992366,142.52239873446828,106.12272254626986,0.09923664122137404,0.6335877862595419,0.19083969465648856,69.15447483451172,69.15447483451172,0.0,-0.0,0.0,207.4634246615761,130.6251192020959,0.0,-0.0,0.0,99.0,142.0,-3.0,-6.0,0.0,87.04,80.29,-4.0,0.0,0.0,
0.594,31.75809843252186,94.9000528789623,0.04580152671755725,-0.32061068702290074,0.3893129770992366,148.87463083699785,110.72111588740368,0.10687022900763359,0.6335877862595419,0.183206106870229,72.28130360933496,72.28130360933496,0.0,-0.0,0.0,216.84391099319168,136.53135133549353,0.0,-0.0,0.0,99.0,142.0,-3.0,-6.0,0.0,88.65,81.6,-5.0,0.0,0.0,
0.63,24.76268361544765,102.86998792429156,0.05343511450381679,-0.32061068702290074,0.3816793893129771,154.27402812414797,114.62975022736744,0.10687022900763359,0.6335877862595419,0.183206106870229,74.93910806793471,74.93910806793471,0.0,-0.0,0.0,224.8173243750649,141.5516486488815,0.0,-0.0,0.0,99.0,142.0,-3.0,-6.0,0.0,89.97,82.81,-5.0,0.0,0.0,
0.6659999999999999,18.81658102093457,109.64443271282144,0.05343511450381679,-0.32061068702290074,0.3816793893129771,158.8635158182256,117.95208941633663,0.10687022900763359,0.6335877862595419,0.183206106870229,77.1982418577445,77.1982418577445,0.0,-0.0,0.0,231.59472574965716,145.81890136526127,0.0,-0.0,0.0,99.0,142.0,-3.0,-6.0,0.0,91.06,83.78,-4.0,0.0,0.0,
0.7,13.762393815598454,115.40271078307184,0.05343511450381679,-0.32061068702290074,0.3816793893129771,162.9713877699188,121.09347511876632,0.10687022900763359,0.6259541984732825,0.19083969465648856,79.11850557908282,79.11850557908282,0.0,-0.0,0.0,237.35551691806057,149.44606617418407,0.0,-0.0,0.0,99.0,142.0,-3.0,-6.0,0.0,91.96,84.6,-5.0,0.0,0.0,
0.736,9.466334691062755,120.29724714278468,0.05343511450381679,-0.32061068702290074,0.3816793893129771,166.4100945632362,123.71697953891858,0.10687022900763359,0.6259541984732825,0.183206106870229,80.7507297422204,80.7507297422204,0.0,-0.0,0.0,242.2521894112035,152.52915626176843,0.0,-0.0,0.0,99.0,142.0,-3.0,-6.0,0.0,92.75,85.35,-5.0,1.0,0.0,
0.772,5.814684435207413,124.45760304854059,0.05343511450381679,-0.32061068702290074,0.3816793893129771,169.332995337556,125.946958296048,0.10687022900763359,0.6259541984732825,0.183206106870229,64.52291533087774,93.12738291527792,-0.366412213740458,-0.0,0.2366412213740458,246.41436103037495,155.14978283621517,0.0,-0.0,0.0,99.0,142.0,-3.0,-6.0,0.0,93.41,85.9,-5.0,1.0,0.0,
0.81,2.7107817177303706,127.99390556843312,0.05343511450381679,-0.32061068702290074,0.3816793893129771,171.81746099572786,127.842440239608,0.10687022900763359,0.6259541984732825,0.183206106870229,50.72927308123647,103.64753811237681,-0.366412213740458,-0.0,0.2366412213740458,249.95220690667068,157.3773154244949,0.0,-0.0,0.0,99.0,142.0,-1.0,-6.0,0.0,93.91,86.46,-4.0,0.0,0.0,
0.847,0.0004067628895620956,131.00727923162088,0.022900763358778626,-0.2900763358778626,0.3816793893129771,173.9292568051739,129.45359989163398,0.10687022900763359,0.6259541984732825,0.183206106870229,39.00467716904139,112.58967002991086,-0.366412213740458,-0.0,0.2366412213740458,252.95937590152207,159.27071812453266,0.0,-0.0,0.0,99.0,142.0,-1.0,-6.0,0.0,94.38,86.89,-4.0,0.0,0.0,
0.885,-2.3034119487251252,133.56864684533048,0.022900763358778626,-0.2900763358778626,0.3816793893129771,175.72428324320305,130.82308559585607,0.10687022900763359,0.6259541984732825,0.183206106870229,29.038770643675576,120.1904821598148,-0.366412213740458,-0.0,0.2366412213740458,255.51546954714576,160.88011041956474,0.0,-0.0,0.0,99.0,142.0,-1.0,-8.0,0.0,94.81,87.21,-4.0,0.0,0.0,
0.923,-4.26165785359761,135.7458093169836,0.022900763358778626,-0.2900763358778626,0.3816793893129771,177.25005571552782,131.98714844444487,0.10687022900763359,0.6259541984732825,0.183206106870229,20.567750097114633,126.65117247023316,-0.366412213740458,-0.0,0.2366412213740458,257.6881491459259,162.24809387034202,0.0,-0.0,0.0,99.0,142.0,-2.0,-6.0,0.0,95.19,87.51,-4.0,0.0,0.0,
0.959,-5.926166872739222,137.5963974178888,0.022900763358778626,-0.2900763358778626,0.3816793893129771,178.54696231700387,132.97660186574535,0.10687022900763359,0.6259541984732825,0.183206106870229,13.367382632537835,132.14275923408877,-0.366412213740458,-0.0,0.2366412213740458,259.534926804889,163.4108798035027,0.0,-0.0,0.0,99.0,142.0,-3.0,-7.0,0.0,95.58,87.84,-3.0,0.0,0.0,
0.997,-7.340999539009591,139.1693973036582,0.022900763358778626,-0.2900763358778626,0.3816793893129771,179.64933292825853,133.81763727385075,0.10687022900763359,0.6259541984732825,0.183206106870229,7.247070287647555,136.81060798336605,-0.366412213740458,-0.0,0.2366412213740458,261.10468781500765,164.3992478466893,0.0,-0.0,0.0,99.0,142.0,-3.0,-5.0,0.0,95.83,88.02,-3.0,0.0,0.0,
1.034,-8.543607305339405,140.5064472065622,0.022900763358778626,-0.2900763358778626,0.3816793893129771,180.58634794782498,134.53251737074032,0.10687022900763359,0.6259541984732825,0.183206106870229,2.0228126908753534,140.89087309474922,-0.3511450381679389,-0.015267175572519083,0.25190839694656486,262.4389846736085,165.2393606833979,0.0,-0.0,0.0,99.0,142.0,-3.0,-5.0,0.0,95.99,88.2,-4.0,0.0,0.0,
1.072,-9.68946629141332,141.7759754694282,0.05343511450381679,-0.32061068702290074,0.37404580152671757,181.38281071445647,135.14016545309647,0.10687022900763359,0.6259541984732825,0.183206106870229,-2.4178062663810183,144.3590984394249,-0.3511450381679389,-0.015267175572519083,0.25190839694656486,263.5731370034192,165.95345659460023,0.0,-0.0,0.0,99.0,142.0,-3.0,-5.0,0.0,96.19,88.38,-4.0,0.0,0.0,
1.1099999999999999,-10.663446429576148,142.8550744928643,0.05343511450381679,-0.32061068702290074,0.37404580152671757,182.05980406609322,135.65666632309922,0.10687022900763359,0.6259541984732825,0.183206106870229,-6.192332380048934,147.30708998239925,-0.3511450381679389,-0.015267175572519083,0.25190839694656486,264.5371664837583,166.56043811912218,0.0,-0.0,0.0,99.0,142.0,-4.0,-4.0,0.0,96.34,88.48,-4.0,0.0,0.0,
1.147,-11.491329547014551,143.772308662785,0.05343511450381679,-0.32061068702290074,0.37404580152671757,182.63524841498446,136.09569206260153,0.10687022900763359,0.6259541984732825,0.183206106870229,-9.400679576666661,149.81288279392743,-0.3511450381679389,-0.015267175572519083,0.25190839694656486,265.35659154204654,167.07637241496585,0.0,-0.0,0.0,99.0,142.0,-2.0,-6.0,0.0,96.5,88.57,-4.0,0.0,0.0,
1.185,-12.195030196837195,144.55195770721758,0.05343511450381679,-0.32061068702290074,0.37404580152671757,183.12437611154203,136.46886394117848,0.10687022900763359,0.6259541984732825,0.183206106870229,-12.12777469379173,151.9428066837264,-0.3511450381679389,-0.015267175572519083,0.25190839694656486,266.05310284159157,167.51491656643296,0.0,-0.0,0.0,99.0,142.0,-2.0,-7.0,-1.0,96.66,88.69,-4.0,0.0,0.0,
1.2229999999999999,-12.79317574918644,145.2146593949853,0.05343511450381679,-0.32061068702290074,0.37404580152671757,183.54013465361595,136.78606003796892,0.10687022900763359,0.6259541984732825,0.183206106870229,-14.44580554334804,153.7532419900555,-0.3511450381679389,-0.015267175572519083,0.25190839694656486,266.6451374462048,167.88767909518,0.0,-0.0,0.0,99.0,142.0,-2.0,-6.0,0.0,96.77,88.7,-4.0,0.0,0.0,
1.259,-13.3015994686833,145.77795582958782,0.05343511450381679,-0.32061068702290074,0.37404580152671757,183.88795643633773,137.04712893983518,0.10687022900763359,0.6183206106870229,0.1984732824427481,-16.4161317654709,155.29211200043525,-0.3511450381679389,-0.015267175572519083,0.25190839694656486,267.1483668601261,168.204527244615,0.0,-0.0,0.0,99.0,142.0,-2.0,-6.0,0.0,96.82,88.81,-4.0,0.0,0.0,
1.297,-13.670196093486766,146.1184047544093,0.04580152671755725,-0.29770992366412213,0.3893129770992366,184.18360495165126,137.2690375064215,0.10687022900763359,0.6183206106870229,0.1984732824427481,-18.090909054275333,156.60015150925804,-0.3511450381679389,-0.015267175572519083,0.25190839694656486,267.57611186195913,168.47384817163476,0.0,-0.0,0.0,99.0,142.0,-2.0,-6.0,0.0,96.96,88.89,-4.0,0.0,0.0,
1.334,-13.983503224569713,146.40778634050756,0.04580152671755725,-0.29770992366412213,0.3893129770992366,184.43490618966774,137.4576597880199,0.10687022900763359,0.6183206106870229,0.1984732824427481,-19.5144697497591,157.7119850917574,-0.3511450381679389,-0.015267175572519083,0.25190839694656486,267.93969511351725,168.70277095960154,0.0,-0.0,0.0,99.0,142.0,-2.0,-6.0,0.0,96.95,88.93,-3.0,0.0,0.0,
1.372,-14.249814285990217,146.65376068869108,0.04580152671755725,-0.29770992366412213,0.3893129770992366,184.64851224198176,137.6179887273785,0.10687022900763359,0.6183206106870229,0.1984732824427481,-20.724496340920304,158.65704363688187,-0.3511450381679389,-0.015267175572519083,0.25190839694656486,268.2487408773417,168.8973553293733,0.0,-0.0,0.0,99.0,142.0,-1.0,-7.0,0.0,96.92,89.01,-3.0,0.0,0.0,
1.41,-14.476178688197646,146.86283888464706,0.04580152671755725,-0.29770992366412213,0.3893129770992366,184.83007738644866,137.75426832583332,0.10687022900763359,0.6183206106870229,0.1984732824427481,-21.753018943407326,159.46034340023766,-0.3511450381679389,-0.015267175572519083,0.25190839694656486,268.5114297765924,169.0627520436793,0.0,-0.0,0.0,99.0,142.0,-2.0,-6.0,0.0,96.89,89.04,-3.0,0.0,0.0,
1.447,-14.66858843007396,147.04055535120966,0.04580152671755725,-0.29770992366412213,0.3893129770992366,184.98440775924556,137.87010598451994,0.10687022900763359,0.6183206106870229,0.1984732824427481,-22.558519828037838,160.06175059965338,-0.35877862595419846,-0.007633587786259542,0.21374045801526717,268.7347153409555,169.2033392508394,0.0,-0.0,0.0,99.0,142.0,-2.0,-6.0,0.0,96.84,89.14,-3.0,0.0,0.0,
1.485,-14.832136710668827,147.19161434778786,0.04580152671755725,-0.29770992366412213,0.3893129770992366,185.00160975029416,137.792627200087,0.10687022900763359,0.6259541984732825,0.183206106870229,-23.243195579973772,160.57294671915676,-0.35877862595419846,-0.007633587786259542,0.21374045801526717,268.92450807066416,169.3228383769255,0.0,-0.0,0.0,99.0,142.0,-2.0,-6.0,0.0,96.87,89.18,-2.0,0.0,0.0,
1.522,-14.971152749174465,147.32001449487933,0.04580152671755725,-0.29770992366412213,0.3893129770992366,185.01623144268547,137.726770233319,0.10687022900763359,0.6259541984732825,0.183206106870229,-23.825169969119315,161.0074634207346,-0.35877862595419846,-0.007633587786259542,0.21374045801526717,269.08583189091655,169.42441263409867,0.0,-0.0,0.0,99.0,142.0,-2.0,-7.0,0.0,96.92,89.3,-3.0,0.0,-1.0,
1.56,-15.089316381904256,147.42915461990708,0.04580152671755725,-0.29770992366412213,0.3893129770992366,185.0286598812181,137.6707918115662,0.10687022900763359,0.6259541984732825,0.183206106870229,-24.319848199893027,161.37680261707578,-0.35877862595419846,-0.007633587786259542,0.21374045801526717,269.22295713813105,169.51075075269586,0.0,-0.0,0.0,99.0,142.0,-3.0,-6.0,0.0,96.95,89.31,-4.0,-1.0,-2.0,
1.597,-15.18975546972458,147.52192372618066,0.04580152671755725,-0.29770992366412213,0.3893129770992366,185.0392240539708,137.62321015307631,0.10687022900763359,0.6259541984732825,0.183206106870229,-24.74032469605068,161.6907409339658,-0.35877862595419846,-0.007633587786259542,0.21374045801526717,269.33951359826335,169.58413815350346,0.0,-0.0,0.0,99.0,142.0,-3.0,-6.0,0.0,96.93,89.38,-4.0,0.0,0.0,
1.635,-15.275128694371853,147.60077746651322,0.04580152671755725,-0.29770992366412213,0.3893129770992366,185.0482036008106,137.58276574335991,0.10687022900763359,0.6259541984732825,0.183206106870229,-25.097729717784688,161.9575885033223,-0.35877862595419846,-0.007633587786259542,0.21374045801526717,269.43858658937586,169.64651744418993,0.0,-0.0,0.0,99.0,142.0,-3.0,-6.0,-1.0,96.97,89.42,-3.0,0.0,0.0,
1.672,-15.304542854075287,147.80299224246022,0.05343511450381679,-0.31297709923664124,0.40458015267175573,185.05583621562445,137.54838799510097,0.10687022900763359,0.6259541984732825,0.183206106870229,-25.401523986258596,162.18440893727535,-0.35877862595419846,-0.007633587786259542,0.21374045801526717,269.5227986318215,169.69953984127343,0.0,-0.0,0.0,99.0,142.0,-3.0,-6.0,-1.0,96.87,89.45,-4.0,0.0,0.0,
1.71,-15.329544889823206,147.97487480201517,0.05343511450381679,-0.31297709923664124,0.40458015267175573,185.06232393821622,137.51916690908087,0.10687022900763359,0.6259541984732825,0.183206106870229,-25.659749114461416,162.37720630613543,-0.35877862595419846,-0.007633587786259542,0.21374045801526717,269.5943788679003,169.74460887879442,0.0,-0.0,0.0,99.0,142.0,-3.0,-6.0,0.0,96.84,89.39,-3.0,0.0,0.0,
1.748,-15.350796620208936,148.12097497763688,0.05343511450381679,-0.31297709923664124,0.40458015267175573,185.06783850241922,137.4943289859638,0.10687022900763359,0.6259541984732825,0.183206106870229,-25.879240473433814,162.54108406966648,-0.35877862595419846,-0.007633587786259542,0.21374045801526717,269.65522206856724,169.78291756068725,0.0,-0.0,0.0,99.0,142.0,-3.0,-6.0,0.0,96.79,89.51,-4.0,0.0,0.0,
1.785,-15.368860591036807,148.24516012691532,0.05343511450381679,-0.31297709923664124,0.40458015267175573,185.07252588199177,137.47321675131425,0.10687022900763359,0.6259541984732825,0.183206106870229,-26.065808128560352,162.68038016866788,-0.35877862595419846,-0.007633587786259542,0.21374045801526717,269.70693878913414,169.81547994029617,0.0,-0.0,0.0,99.0,142.0,-3.0,-6.0,0.0,96.8,89.49,-4.0,0.0,0.0,
1.823,-15.384214966240497,148.350717503802,0.05343511450381679,-0.31297709923664124,0.40458015267175573,185.07651015462844,137.45527135186217,0.10687022900763359,0.6259541984732825,0.183206106870229,-26.224390635417908,162.79878185281908,-0.35877862595419846,-0.007633587786259542,0.21374045801526717,269.750898001616,169.84315796296374,0.0,-0.0,0.0,99.0,142.0,-3.0,-6.0,0.0,96.81,89.47,-4.0,0.0,0.0,
1.86,-15.397266185163634,148.4404412741557,0.05343511450381679,-0.31297709923664124,0.40458015267175573,185.0798967863696,137.4400177623279,0.10687022900763359,0.6259541984732825,0.183206106870229,-26.35918576624683,162.8994232843476,-0.35877862595419846,-0.007633587786259542,0.21374045801526717,269.7882633322256,169.86668428223118,0.0,-0.0,0.0,99.0,142.0,-2.0,-6.0,0.0,96.83,89.46,-4.0,0.0,0.0,
1.897,-15.408359721248301,148.5167064789563,0.05343511450381679,-0.31297709923664124,0.40458015267175573,185.13078814697172,137.49715562830517,0.10687022900763359,0.6259541984732825,0.20610687022900764,-26.473761627451417,162.98496850114682,-0.35877862595419846,-0.007633587786259542,0.21374045801526717,269.8200238632437,169.8866816536085,0.0,-0.0,0.0,99.0,142.0,-2.0,-6.0,0.0,96.93,89.53,-3.0,0.0,0.0,
1.934,-15.417789226920267,148.58153190303685,0.05343511450381679,-0.31297709923664124,0.40458015267175573,185.17404580348352,137.54572281438584,0.10687022900763359,0.6259541984732825,0.20610687022900764,-26.571151109475313,163.0576819354262,-0.35877862595419846,-0.007633587786259542,0.21374045801526717,256.3695480770424,163.91860011246482,0.0,-0.0,0.015267175572519083,99.0,142.0,-2.0,-6.0,0.0,96.95,89.51,-3.0,0.0,0.0,
1.974,-15.425804306741439,148.6366335135053,0.05343511450381679,-0.31297709923664124,0.40458015267175573,185.21081481151856,137.58700492255443,0.10687022900763359,0.6259541984732825,0.20610687022900764,-26.653932169195624,163.11948835456363,-0.35877862595419846,-0.007633587786259542,0.21374045801526717,244.9366436587713,158.8457308024927,0.0,-0.0,0.015267175572519083,100.0,142.0,-2.0,-6.0,0.0,96.99,89.52,-3.0,0.0,0.0,
2.013,-15.432617124589434,148.6834698824035,0.05343511450381679,-0.31297709923664124,0.40458015267175573,185.24206846834832,137.6220947144977,0.10687022900763359,0.6259541984732825,0.20610687022900764,-26.72429606995789,163.17202381083047,-0.35877862595419846,-0.007633587786259542,0.21374045801526717,235.21867490324087,154.5337918890164,0.0,-0.0,0.015267175572519083,99.0,142.0,-2.0,-5.0,0.0,96.98,89.61,-2.0,-1.0,0.0,
2.052,-15.43840801976023,148.72328079596696,0.05343511450381679,-0.31297709923664124,0.40458015267175573,185.26863407665363,137.65192103764952,0.10687022900763359,0.6259541984732825,0.20610687022900764,-26.784105385605816,163.21667894865726,-0.35877862595419846,-0.007633587786259542,0.21374045801526717,226.96966525322998,150.87610402029102,0.0,-0.0,0.015267175572519083,99.0,142.0,-3.0,-4.0,0.0,96.79,89.62,-3.0,-1.0,-1.0,
2.091,-15.443330280655406,148.7571200724959,0.05343511450381679,-0.31297709923664124,0.40458015267175573,185.29121484371313,137.67727341232853,0.10687022900763359,0.6259541984732825,0.20610687022900764,-26.834943303906552,163.25463581581005,-0.35877862595419846,-0.007633587786259542,0.21374045801526717,219.94674325853074,147.759609124145,0.0,-0.0,0.015267175572519083,99.0,142.0,-2.0,-4.0,0.0,96.65,89.58,-2.0,-2.0,-2.0,
2.13,-15.447514202416306,148.78588345754548,0.05343511450381679,-0.31297709923664124,0.40458015267175573,185.31040849571372,137.6988229308057,0.10687022900763359,0.6259541984732825,0.20610687022900764,-26.87815553446218,163.28689915288993,-0.35877862595419846,-0.007633587786259542,0.21374045801526717,213.9885233552264,145.1180486701503,0.0,-0.0,0.015267175572519083,99.0,142.0,-3.0,-1.0,0.0,96.52,89.58,-3.0,-1.0,-1.0,
2.169,-15.451070535913072,148.81033233483765,0.05343511450381679,-0.31297709923664124,0.40458015267175573,185.3267230999142,137.7171400215113,0.10687022900763359,0.6259541984732825,0.20610687022900764,-26.914885930434462,163.31432298940783,-0.35877862595419846,-0.007633587786259542,0.21374045801526717,208.9240364374177,142.87272228425482,0.0,-0.0,0.015267175572519083,100.0,142.0,-3.0,-1.0,0.0,96.36,89.65,0.0,-3.0,-3.0,
2.208,-15.535961070048494,149.07518703117378,-0.007633587786259542,-0.2748091603053435,0.3282442748091603,185.34059051348464,137.73270954861107,0.10687022900763359,0.6259541984732825,0.20610687022900764,-26.946106767010903,163.33763325044802,-0.35877862595419846,-0.007633587786259542,0.21374045801526717,204.6192225572803,140.96419485624364,0.0,-0.0,0.015267175572519083,100.0,142.0,-3.0,-1.0,0.0,96.4,89.64,0.0,-5.0,-9.0,
2.248,-15.608118024063604,149.3003135230595,-0.007633587786259542,-0.2748091603053435,0.3282442748091603,185.3523778150195,137.74594364664586,0.10687022900763359,0.6259541984732825,0.20610687022900764,-26.97264447810088,163.35744697233218,-0.35877862595419846,-0.007633587786259542,0.21374045801526717,200.96179174343038,139.3445222744525,0.22900763358778625,0.25190839694656486,-0.05343511450381679,100.0,142.0,-3.0,-1.0,0.0,96.27,90.01,-3.0,-3.0,-13.0,
2.287,-15.669451434976448,149.49167104116233,-0.007633587786259542,-0.2748091603053435,0.3282442748091603,185.0849044988243,137.37809543035465,0.0916030534351145,0.5343511450381679,0.183206106870229,-26.995201532527357,163.37428863593374,-0.35877862595419846,-0.007633587786259542,0.21374045801526717,197.85297555165795,137.96780057992999,0.22900763358778625,0.25190839694656486,-0.05343511450381679,100.0,142.0,-3.0,-1.0,0.0,96.2,90.05,0.0,-7.0,-2.0,
2.326,-15.56924436926123,148.99334919251618,-0.022900763358778626,-0.24427480916030533,0.40458015267175573,184.85755218005838,137.06542444650714,0.0916030534351145,0.5343511450381679,0.183206106870229,-27.014375028789864,163.38860404999505,-0.35877862595419846,-0.007633587786259542,0.21374045801526717,195.21048178865138,136.79758713958586,0.22900763358778625,0.25190839694656486,-0.05343511450381679,100.0,142.0,-3.0,-1.0,0.0,95.94,90.04,3.0,-15.0,-11.0,
2.366,-15.484068363403296,148.56977562116694,-0.022900763358778626,-0.24427480916030533,0.40458015267175573,184.66430270910735,136.79965411023673,0.0916030534351145,0.5343511450381679,0.183206106870229,-27.030672500612994,163.40077215194717,-0.35877862595419846,-0.007633587786259542,0.21374045801526717,192.99767242219662,135.8259141202997,0.22900763358778625,0.25190839694656486,-0.05343511450381679,101.0,141.0,-6.0,11.0,4.0,95.68,90.15,2.0,-8.0,-4.0,
2.406,-15.41166875842405,148.2097380855201,-0.022900763358778626,-0.24427480916030533,0.40458015267175573,184.50004065879895,136.5737493244069,0.0916030534351145,0.5343511450381679,0.183206106870229,-27.044525351662653,163.41111503860645,-0.35877862595419846,-0.007633587786259542,0.21374045801526717,191.09457773326824,134.98465338522985,0.22900763358778625,0.25190839694656486,-0.05343511450381679,102.0,141.0,-4.0,8.0,4.0,95.49,90.49,0.0,-3.0,-3.0,
2.445,-15.35012909419169,147.90370618022027,-0.022900763358778626,-0.24427480916030533,0.40458015267175573,184.36041791603682,136.38173025645153,0.0916030534351145,0.5343511450381679,0.183206106870229,-27.056300275054866,163.41990649226688,-0.35877862595419846,-0.007633587786259542,0.21374045801526717,189.486035467736,134.28134468091594,0.6717557251908397,0.6335877862595419,0.0,102.0,141.0,-4.0,8.0,4.0,95.11,90.73,3.0,-6.0,-5.0,
2.484,-15.297820379594185,147.6435790607154,-0.022900763358778626,-0.24427480916030533,0.40458015267175573,184.24173858468902,136.21851404868949,0.0916030534351145,0.5343511450381679,0.183206106870229,-27.066308959938247,163.42737922787822,-0.35877862595419846,-0.007633587786259542,0.21374045801526717,188.0685156591848,133.64485290929866,0.6717557251908397,0.6335877862595419,0.0,103.0,141.0,0.0,4.0,-3.0,95.02,90.96,1.0,1.0,-4.0,
2.524,-14.498815740005107,146.55403159234226,-0.09923664122137404,-0.11450381679389313,0.26717557251908397,184.14086115304337,136.07978027209174,0.0916030534351145,0.5343511450381679,0.183206106870229,-27.07481634208912,163.43373105314785,-0.35877862595419846,-0.007633587786259542,0.21374045801526717,186.8636238219163,133.10383490342397,0.6717557251908397,0.6335877862595419,0.0,103.0,141.0,0.0,4.0,-3.0,95.15,90.84,0.0,7.0,-6.0,
2.563,-13.81966179635439,145.6279162442251,-0.09923664122137404,-0.11450381679389313,0.26717557251908397,184.05511533614458,135.96185656198364,0.0916030534351145,0.5343511450381679,0.183206106870229,-27.082047616917365,163.43913010462705,-0.35877862595419846,-0.007633587786259542,0.21374045801526717,185.86459541650706,132.66330978069448,0.6717557251908397,0.6335877862595419,0.0,104.0,142.0,-2.0,4.0,-1.0,95.57,90.86,2.0,6.0,-1.0,
2.603,-13.24238094425128,144.8407181983255,-0.09923664122137404,-0.11450381679389313,0.26717557251908397,183.9822313917806,135.86162140839176,0.0916030534351145,0.5343511450381679,0.183206106870229,-27.088194200521368,163.44371929838437,-0.35877862595419846,-0.007633587786259542,0.21374045801526717,185.02941010135277,132.2845243802132,0.46564885496183206,0.8396946564885496,-0.648854961832061,104.0,142.0,-2.0,4.0,-1.0,90.09,94.33,3.0,-20.0,8.0,
2.642,-12.751692219963639,144.17159985931085,-0.09923664122137404,-0.11450381679389313,0.26717557251908397,183.92028003907123,135.77642152783866,0.0916030534351145,0.5343511450381679,0.183206106870229,-27.09341879658477,163.44762011307807,-0.35877862595419846,-0.007633587786259542,0.21374045801526717,184.394230087808,131.99606030089987,0.46564885496183206,0.8396946564885496,-0.648854961832061,105.0,141.0,-6.0,9.0,0.0,90.57,94.37,7.0,-7.0,14.0,
2.682,-12.334606804319142,143.6028492711484,-0.09923664122137404,-0.11450381679389313,0.26717557251908397,183.86762138926827,135.70400162936855,0.0916030534351145,0.5343511450381679,0.183206106870229,-27.097859703238665,163.45093580556775,-0.35877862595419846,-0.007633587786259542,0.21374045801526717,183.89168517928948,131.76761501164825,0.46564885496183206,0.8396946564885496,-0.648854961832061,106.0,142.0,-8.0,11.0,0.0,90.78,94.05,6.0,-4.0,14.0,
2.722,-11.98008420102132,143.1194112712103,-0.09923664122137404,-0.11450381679389313,0.26717557251908397,183.82286153693573,135.64244471566894,0.0916030534351145,0.5343511450381679,0.183206106870229,-27.101634473894475,163.45375414418396,-0.35877862595419846,-0.007633587786259542,0.21374045801526717,183.4458435733335,131.56506220855857,0.46564885496183206,0.8396946564885496,-0.648854961832061,107.0,142.0,-7.0,7.0,1.0,91.57,94.6,-4.0,0.0,7.0,
2.761,-11.678739988218172,142.70848897126294,-0.09923664122137404,-0.11450381679389313,0.26717557251908397,183.7848156624531,135.59012133902428,0.0916030534351145,0.5343511450381679,0.183206106870229,-27.104843028951912,163.45614973200773,-0.35877862595419846,-0.007633587786259542,0.21374045801526717,183.1229090975683,131.4180132347574,0.46564885496183206,0.8396946564885496,-0.648854961832061,108.0,142.0,-10.0,6.0,1.0,89.47,93.68,4.0,-3.0,9.0,
2.801,-11.422597407335497,142.35920501630767,-0.09923664122137404,-0.11450381679389313,0.26717557251908397,183.75247666914285,135.5456464688763,0.0916030534351145,0.5343511450381679,0.183206106870229,-27.107570300750734,163.45818598165795,-0.35877862595419846,-0.007633587786259542,0.21374045801526717,182.7923839038705,131.26790069820134,0.46564885496183206,0.8396946564885496,-0.648854961832061,108.0,143.0,-7.0,5.0,3.0,89.11,94.68,-2.0,-5.0,11.0,
2.84,-10.606743870955532,142.08199511482692,0.061068702290076333,-0.0916030534351145,0.007633587786259542,183.72498852482914,135.50784282925054,0.0916030534351145,0.5343511450381679,0.183206106870229,-27.109888481779734,163.45991679386063,-0.35877862595419846,-0.007633587786259542,0.21374045801526717,182.51143748922738,131.1403050421287,0.46564885496183206,0.8396946564885496,-0.648854961832061,108.0,143.0,-7.0,5.0,3.0,91.29,93.2,-2.0,80.0,120.0,
2.879,-9.913268365032561,141.8463666985683,0.061068702290076333,-0.0916030534351145,0.007633587786259542,183.7016236021625,135.4757097355686,0.0916030534351145,0.5343511450381679,0.183206106870229,-27.111858935654382,163.4613879842329,-0.35877862595419846,-0.007633587786259542,0.21374045801526717,182.28348590212735,131.04432087717868,0.46564885496183206,0.7709923664122137,-0.3893129770992366,108.0,143.0,-7.0,5.0,3.0,89.9,95.01,-20.0,106.0,-2.0,
2.919,-9.323814184998035,141.64608254474845,0.061068702290076333,-0.0916030534351145,0.007633587786259542,182.85641842411434,134.24436073405855,0.1984732824427481,0.7022900763358778,0.22137404580152673,-27.113533821447835,163.46263849604935,-0.35877862595419846,-0.007633587786259542,0.21374045801526717,182.08972705309233,130.96273433697115,0.46564885496183206,0.7709923664122137,-0.3893129770992366,108.0,143.0,-7.0,5.0,3.0,93.62,97.79,8.0,1.0,-8.0,
2.958,-8.82277813196869,141.4758410140016,0.061068702290076333,-0.0916030534351145,0.007633587786259542,182.1379940227734,133.197714082775,0.1984732824427481,0.7022900763358778,0.22137404580152673,-27.114957474372268,163.4637014310933,-0.35877862595419846,-0.007633587786259542,0.21374045801526717,182.14831868310816,131.00500158170294,0.46564885496183206,0.7709923664122137,-0.3893129770992366,111.0,142.0,-18.0,-11.0,1.0,94.66,95.64,11.0,14.0,21.0,
2.998,-9.104525208304986,143.1095402538504,-0.19083969465648856,-0.4198473282442748,0.4122137404580153,181.5273332816336,132.308064429184,0.1984732824427481,0.7022900763358778,0.22137404580152673,-27.116167579358038,163.46460492588068,-0.35877862595419846,-0.007633587786259542,0.21374045801526717,182.19812156862162,131.04092873972496,0.46564885496183206,0.7709923664122137,-0.3893129770992366,111.0,142.0,-18.0,-11.0,1.0,95.29,94.38,2.0,-33.0,24.0,
3.038,-9.344010223190839,144.49818460772192,-0.19083969465648856,-0.4198473282442748,0.4122137404580153,181.00827165166476,131.55186222363162,0.1984732824427481,0.7022900763358778,0.22137404580152673,-27.117196168595942,163.46537289644996,-0.35877862595419846,-0.007633587786259542,0.21374045801526717,182.0984006009556,131.00046267461684,0.46564885496183206,0.7709923664122137,-0.3893129770992366,112.0,141.0,-11.0,-12.0,-10.0,96.56,93.79,-15.0,53.0,-19.0,
3.078,-9.547572485843814,145.6785323085127,-0.19083969465648856,-0.4198473282442748,0.4122137404580153,180.56706926619125,130.90909034891212,0.1984732824427481,0.7022900763358778,0.22137404580152673,-27.11807046944816,163.46602567143384,-0.35877862595419846,-0.007633587786259542,0.21374045801526717,181.97302524683138,130.94576327584423,0.46564885496183206,0.7709923664122137,-0.3893129770992366,110.0,141.0,-9.0,-12.0,1.0,98.71,93.05,-8.0,28.0,-6.0,
3.118,-9.720600409098843,146.68182785418486,-0.19083969465648856,-0.4198473282442748,0.4122137404580153,180.19204723853878,130.36273425540054,0.1984732824427481,0.7022900763358778,0.22137404580152673,-27.118813625172546,163.46658053017015,-0.35877862595419846,-0.007633587786259542,0.21374045801526717,181.9070687274339,130.91957203031822,0.46564885496183206,0.7709923664122137,-0.3893129770992366,108.0,140.0,-11.0,-7.0,-3.0,100.62,93.38,-10.0,14.0,4.0,
3.158,-9.867674143865617,147.53462906800618,-0.19083969465648856,-0.4198473282442748,0.4122137404580153,179.87327851503417,129.8983315759157,0.1984732824427481,0.7022900763358778,0.22137404580152673,-27.119445307538275,163.467052160096,-0.35877862595419846,-0.007633587786259542,0.21374045801526717,181.87130832276657,130.90745879765325,0.46564885496183206,0.7709923664122137,-0.3893129770992366,108.0,139.0,-12.0,-3.0,0.0,101.74,93.36,-3.0,20.0,2.0,
3.198,-9.992686818417376,148.25951009975432,-0.19083969465648856,-0.4198473282442748,0.4122137404580153,179.60232510005525,129.50358929835357,0.1984732824427481,0.7022900763358778,0.22137404580152673,-27.11998223754914,163.46745304553298,-0.35877862595419846,-0.007633587786259542,0.21374045801526717,181.94237983508583,130.9478805116034,0.46564885496183206,0.7709923664122137,-0.3893129770992366,108.0,138.0,-17.0,-1.0,-1.0,103.05,92.99,-5.0,12.0,5.0,
3.238,-10.09894759178637,148.87565897674023,-0.19083969465648856,-0.4198473282442748,0.4122137404580153,179.37201469732315,129.16805836242577,0.1984732824427481,0.7022900763358778,0.22137404580152673,-35.68523788700114,164.36557156097754,-0.33587786259541985,-0.04580152671755725,0.19083969465648856,182.00279062055716,130.982238968461,0.46564885496183206,0.7709923664122137,-0.3893129770992366,108.0,138.0,-17.0,-1.0,-1.0,103.79,92.78,-5.0,20.0,-7.0,
3.278,-10.189269249150016,149.39938552217825,-0.19083969465648856,-0.4198473282442748,0.4122137404580153,179.1762508550009,128.88285706688714,0.1984732824427481,0.7022900763358778,0.22137404580152673,-42.96570518903535,165.1289722991054,-0.33587786259541985,-0.04580152671755725,0.19083969465648856,181.93236929510084,130.95057636904247,0.46564885496183206,0.7709923664122137,-0.3893129770992366,109.0,136.0,-11.0,-3.0,0.0,104.07,92.53,-1.0,24.0,-6.0,
3.318,-10.266042657909114,149.84455308580058,-0.19083969465648856,-0.4198473282442748,0.4122137404580153,179.00985158902697,128.6404359656793,0.1984732824427481,0.7022900763358778,0.22137404580152673,-49.154102395764426,165.7778629265141,-0.33587786259541985,-0.04580152671755725,0.19083969465648856,181.77096509065356,130.87289571990883,0.46564885496183206,0.7709923664122137,-0.3893129770992366,109.0,136.0,-6.0,-5.0,-8.0,105.0,92.23,0.0,0.0,5.0,
3.357,-10.331300055354347,150.22294551487957,-0.19083969465648856,-0.4198473282442748,0.4122137404580153,178.86841221294912,128.43437802965263,0.1984732824427481,0.7022900763358778,0.22137404580152673,-54.41424002148414,166.3294199598115,-0.33587786259541985,-0.04580152671755725,0.19083969465648856,181.6743956209644,130.82717773314727,0.46564885496183206,0.7709923664122137,-0.3893129770992366,108.0,136.0,-8.0,-5.0,-7.0,105.26,91.88,5.0,1.0,2.0,
3.397,-10.386768843182796,150.5445790795967,-0.19083969465648856,-0.4198473282442748,0.4122137404580153,178.74818874328295,128.25922878402997,0.1984732824427481,0.7022900763358778,0.22137404580152673,-58.885357003345895,166.7982434381143,-0.33587786259541985,-0.04580152671755725,0.19083969465648856,181.53137325910936,130.75785023241494,0.46564885496183206,0.7709923664122137,-0.3893129770992366,108.0,136.0,-5.0,-5.0,-9.0,105.62,91.86,1.0,3.0,5.0,
3.435,-10.433917312836979,150.81796760960626,-0.19083969465648856,-0.4198473282442748,0.4122137404580153,178.6459987940667,128.1103519252507,0.1984732824427481,0.7022900763358778,0.22137404580152673,-62.685806437928385,167.19674339467167,-0.33587786259541985,-0.04580152671755725,0.19083969465648856,181.6061097650565,130.7198085046918,0.05343511450381679,-0.022900763358778626,0.10687022900763359,108.0,136.0,-5.0,-5.0,-9.0,106.36,92.06,0.0,3.0,-5.0,
3.474,-10.473993512043032,151.05034786011439,-0.19083969465648856,-0.4198473282442748,0.4122137404580153,178.5591373372329,127.98380659528833,0.1984732824427481,0.7022900763358778,0.22137404580152673,-65.9161884573235,167.53546835774543,-0.33587786259541985,-0.04580152671755725,0.19083969465648856,181.57483535555411,130.71340155540352,0.0,0.007633587786259542,0.03816793893129771,108.0,136.0,-5.0,-5.0,-9.0,106.75,92.45,5.0,-12.0,7.0,
3.513,-10.508058281368179,151.2478710730463,-0.19083969465648856,-0.4198473282442748,0.4122137404580153,178.48530509892416,127.8762430648203,0.1984732824427481,0.7022900763358778,0.22137404580152673,-68.74858454758837,167.68356364990916,-0.5343511450381679,0.015267175572519083,0.549618320610687,181.5482521074771,130.7079556485085,0.0,0.007633587786259542,0.03816793893129771,108.0,136.0,-5.0,-5.0,-9.0,106.96,92.94,-1.0,-11.0,8.0,
3.553,-10.537013335294553,151.41576580403841,-0.19083969465648856,-0.4198473282442748,0.4122137404580153,178.81873524422969,128.45277018940342,0.09923664122137404,0.648854961832061,0.183206106870229,-71.1561212243135,167.80944464824833,-0.5343511450381679,0.015267175572519083,0.549618320610687,181.52565634661164,130.70332662764773,0.0,0.007633587786259542,0.03816793893129771,108.0,136.0,-5.0,-5.0,-9.0,107.05,93.42,-2.0,-3.0,0.0,
3.592,-10.56162513113197,151.55847632538172,-0.19083969465648856,-0.4198473282442748,0.4122137404580153,179.1021508677394,128.9428182452991,0.09923664122137404,0.648854961832061,0.183206106870229,-73.20252739952986,167.91644349683662,-0.5343511450381679,0.015267175572519083,0.549618320610687,181.3387962041717,130.6181451010745,0.0,0.007633587786259542,0.03816793893129771,105.0,136.0,-1.0,-6.0,8.0,107.37,93.78,-4.0,-2.0,2.0,
3.631,-10.582545157593776,151.67978026852353,-0.19083969465648856,-0.4198473282442748,0.4122137404580153,179.34305414772263,129.3593590928104,0.09923664122137404,0.648854961832061,0.183206106870229,-74.94197264846376,168.00739251813667,-0.5343511450381679,0.015267175572519083,0.549618320610687,181.1380416744681,130.52542334276933,0.0,0.007633587786259542,0.03816793893129771,106.0,136.0,0.0,-8.0,8.0,107.67,93.95,-3.0,-8.0,0.0,
3.671,-10.60032718008631,151.7828886201941,-0.19083969465648856,-0.4198473282442748,0.4122137404580153,179.54782193570838,129.713418813195,0.09923664122137404,0.648854961832061,0.183206106870229,-76.42050111005759,168.08469918624172,-0.5343511450381679,0.015267175572519083,0.549618320610687,180.96740032422005,130.44660984820993,0.0,0.007633587786259542,0.03816793893129771,107.0,136.0,0.0,-10.0,5.0,107.85,93.94,-7.0,-5.0,-2.0,
3.71,-10.615441899204965,151.87053071911404,-0.19083969465648856,-0.4198473282442748,0.4122137404580153,179.72187455549627,130.01436957552193,0.09923664122137404,0.648854961832061,0.183206106870229,-77.67725030241233,168.15040985413103,-0.5343511450381679,0.015267175572519083,0.549618320610687,180.8223551765092,130.37961837783445,0.0,0.007633587786259542,0.03816793893129771,108.0,136.0,0.0,-11.0,2.0,107.82,93.96,-9.0,-4.0,-5.0,
3.75,-10.628289410455821,151.945026503196,-0.19083969465648856,-0.4198473282442748,0.4122137404580153,179.86981928231597,130.2701777234998,0.09923664122137404,0.648854961832061,0.183206106870229,-78.74548711591386,168.20626392183692,-0.5343511450381679,0.015267175572519083,0.549618320610687,180.6571433923254,130.3023581672973,0.0,0.007633587786259542,0.03816793893129771,109.0,135.0,1.0,-10.0,1.0,107.77,93.79,-10.0,-6.0,-4.0,
3.789,-10.639209795019049,152.00834791966568,-0.19083969465648856,-0.4198473282442748,0.4122137404580153,179.99557230011274,130.48761464928103,0.09923664122137404,0.648854961832061,0.183206106870229,-79.65348840739016,168.25373987938693,-0.5343511450381679,0.015267175572519083,0.549618320610687,180.43287453809472,130.19605666495914,0.0,0.007633587786259542,0.03816793893129771,109.0,135.0,3.0,-11.0,-3.0,107.77,93.46,-11.0,0.0,-8.0,
3.829,-10.648492121897792,152.0621711236649,-0.19083969465648856,-0.4198473282442748,0.4122137404580153,180.10246236523997,130.67243603619505,0.09923664122137404,0.648854961832061,0.183206106870229,-80.42528950514502,168.29409444330443,-0.5343511450381679,0.015267175572519083,0.549618320610687,180.20033457075314,130.08538982296966,0.0,0.007633587786259542,0.03816793893129771,109.0,135.0,4.0,-11.0,-2.0,107.41,92.91,-4.0,-3.0,-7.0,
3.868,-10.656382099744725,152.10792084706424,-0.19083969465648856,-0.4198473282442748,0.4122137404580153,180.37349228167278,130.93087803084694,0.05343511450381679,0.5725190839694656,0.24427480916030533,-81.08132043823665,168.32839582263432,-0.5343511450381679,0.015267175572519083,0.549618320610687,180.0026755985128,129.9913230072786,0.0,0.007633587786259542,0.03816793893129771,109.0,135.0,4.0,-11.0,-2.0,107.1,92.85,-8.0,-3.0,-2.0,
3.907,-10.663088580914618,152.14680811195367,-0.19083969465648856,-0.4198473282442748,0.4122137404580153,180.39731108436027,130.8919317915399,0.061068702290076333,0.5725190839694656,0.2595419847328244,-81.63894673136453,168.35755199506474,-0.5343511450381679,0.015267175572519083,0.549618320610687,179.83466547210853,129.9113662139412,0.0,0.007633587786259542,0.03816793893129771,109.0,135.0,4.0,-11.0,-2.0,106.76,92.82,-8.0,-1.0,-2.0,
3.946,-10.668789089909026,152.1798622871097,-0.19083969465648856,-0.4198473282442748,0.4122137404580153,180.41755706664463,130.8588274881289,0.061068702290076333,0.5725190839694656,0.2595419847328244,-82.10933676536722,168.34359343294233,-0.44274809160305345,0.08396946564885496,0.26717557251908397,179.69185686466489,129.8434029396044,0.0,0.007633587786259542,0.03816793893129771,109.0,135.0,4.0,-11.0,-2.0,106.46,92.69,-4.0,-3.0,-1.0,
3.985,-10.673634522554273,152.20795833599232,-0.19083969465648856,-0.4198473282442748,0.4122137404580153,180.41366112643965,130.8071620421076,0.061068702290076333,0.6106870229007634,0.2748091603053435,-82.5091682942695,168.33172865513828,-0.44274809160305345,0.08396946564885496,0.26717557251908397,179.5704695483378,129.78563415641815,0.0,0.007633587786259542,0.03816793893129771,109.0,135.0,4.0,-11.0,-2.0,106.2,92.77,-6.0,-5.0,0.0,
4.024,-10.677753140302734,152.23183997754253,-0.19083969465648856,-0.4198473282442748,0.4122137404580153,180.4103495772654,130.76324641298947,0.061068702290076333,0.6106870229007634,0.2748091603053435,-82.84902509383645,168.32164359400483,-0.44274809160305345,0.08396946564885496,0.26717557251908397,179.59304060837968,129.79747157909347,0.0,0.007633587786259542,0.03816793893129771,107.0,137.0,1.0,-8.0,-3.0,105.84,92.73,-3.0,-5.0,0.0,
4.063000000000001,-10.681253965388924,152.25213937286023,-0.19083969465648856,-0.4198473282442748,0.4122137404580153,180.40753476046729,130.72591812823907,0.061068702290076333,0.6106870229007634,0.2748091603053435,-83.13790337346835,168.3130712920414,-0.44274809160305345,0.08396946564885496,0.26717557251908397,179.65414941804488,129.82785084908545,0.0,0.007633587786259542,0.03816793893129771,106.0,138.0,0.0,-9.0,-2.0,105.6,92.68,-6.0,-2.0,1.0,
4.102,-10.684229666712186,152.26939385888028,-0.19083969465648856,-0.4198473282442748,0.4122137404580153,180.40514216618888,130.69418908620125,0.061068702290076333,0.6106870229007634,0.2748091603053435,-83.38344991115547,168.3057848353725,-0.44274809160305345,0.08396946564885496,0.26717557251908397,179.70609190626033,129.85367322857863,0.0,0.007633587786259542,0.03816793893129771,106.0,138.0,0.0,-9.0,-1.0,105.54,92.49,-4.0,-2.0,0.0,
4.1419999999999995,-10.686759012836959,152.2840601719973,-0.19083969465648856,-0.4198473282442748,0.4122137404580153,180.40310846105226,130.6672194004691,0.061068702290076333,0.6106870229007634,0.2748091603053435,-83.59216446818952,168.29959134720391,-0.44274809160305345,0.08396946564885496,0.26717557251908397,179.75024302124345,129.87562225114783,0.0,0.007633587786259542,0.03816793893129771,106.0,139.0,0.0,-9.0,0.0,105.39,92.38,-5.0,0.0,0.0,
4.18,-10.688908957043015,152.2965265381468,-0.19083969465648856,-0.4198473282442748,0.4122137404580153,180.40137981168613,130.64429516759677,0.061068702290076333,0.6106870229007634,0.2748091603053435,-83.76957184166847,168.29432688226063,-0.44274809160305345,0.08396946564885496,0.26717557251908397,179.82969487760872,129.91459638104962,0.0,0.007633587786259542,0.03816793893129771,105.0,139.0,-1.0,-8.0,-1.0,105.38,92.37,-4.0,0.0,0.0,
4.220000000000001,-10.690736409618165,152.30712294937385,-0.19083969465648856,-0.4198473282442748,0.4122137404580153,180.3999104597249,130.62480956965527,0.061068702290076333,0.6106870229007634,0.2748091603053435,-83.92036810912556,168.28985208705885,-0.44274809160305345,0.08396946564885496,0.26717557251908397,179.93915036911022,129.96804070257295,0.0,0.007633587786259542,0.03816793893129771,106.0,139.0,-2.0,-8.0,0.0,105.21,92.26,-5.0,-2.0,0.0,
4.259,-10.692289744307041,152.31612989891684,-0.19083969465648856,-0.4198473282442748,0.4122137404580153,180.39866151055787,130.60824681140502,0.061068702290076333,0.6106870229007634,0.2748091603053435,-84.0485449364641,168.28604851113732,-0.44274809160305345,0.08396946564885496,0.26717557251908397,180.03218753688648,130.01346837586777,0.0,0.007633587786259542,0.03816793893129771,106.0,139.0,-2.0,-9.0,-3.0,105.35,92.25,-5.0,-1.0,-2.0,
4.298,-10.693610078792586,152.32378580602838,-0.19083969465648856,-0.4198473282442748,0.4122137404580153,180.3975999037659,130.5941684668923,0.061068702290076333,0.6106870229007634,0.2748091603053435,-84.15749523970186,168.28281547160404,-0.44274809160305345,0.08396946564885496,0.26717557251908397,180.1950979948252,130.09270647544523,0.0,0.007633587786259542,0.03816793893129771,105.0,139.0,-4.0,-9.0,0.0,105.14,92.33,-4.0,-1.0,-1.0,
4.337,-10.694732363105299,152.3302933270732,-0.19083969465648856,-0.4198473282442748,0.4122137404580153,180.3966975379927,130.58220187405652,0.061068702290076333,0.6106870229007634,0.2748091603053435,-84.25010299745395,168.28006738800073,-0.44274809160305345,0.08396946564885496,0.26717557251908397,180.24974301874423,130.1194342828092,0.0,0.007633587786259542,0.03816793893129771,105.0,138.0,-2.0,-7.0,0.0,105.05,92.43,-5.0,-3.0,0.0,
4.376,-10.695686304771105,152.3358247199613,-0.19083969465648856,-0.4198473282442748,0.4122137404580153,180.3959305270855,130.5720302701461,0.061068702290076333,0.6106870229007634,0.2748091603053435,-84.32881959154322,168.27773151693793,-0.44274809160305345,0.08396946564885496,0.26717557251908397,180.2961912890754,130.1421529190686,0.0,0.007633587786259542,0.03816793893129771,105.0,138.0,-2.0,-6.0,-2.0,105.03,92.38,-4.0,0.0,0.0,
4.414,-10.69649715518704,152.3405264039162,-0.19083969465648856,-0.4198473282442748,0.4122137404580153,180.3952785678144,130.5633844068222,0.061068702290076333,0.6106870229007634,0.2748091603053435,-83.86052001134286,168.13236968549896,-0.4122137404580153,-0.015267175572519083,0.17557251908396945,180.3356723188569,130.16146375988907,0.0,0.007633587786259542,0.03816793893129771,105.0,138.0,-2.0,-6.0,-2.0,104.91,92.48,-4.0,0.0,-1.0,
4.453,-10.697186378040584,152.34452283527784,-0.19083969465648856,-0.4198473282442748,0.4122137404580153,180.39472440243392,130.5560354229969,0.061068702290076333,0.6106870229007634,0.2748091603053435,-83.46246536817254,168.00881212877584,-0.4122137404580153,-0.015267175572519083,0.17557251908396945,180.40113008384535,130.16587880757555,0.015267175572519083,-0.03816793893129771,0.1297709923664122,105.0,138.0,-2.0,-6.0,-2.0,104.87,92.26,-5.0,-2.0,0.0,
4.493,-10.697772217466097,152.34791980193523,-0.19083969465648856,-0.4198473282442748,0.4122137404580153,180.39425336186054,130.5497887867454,0.061068702290076333,0.6106870229007634,0.2748091603053435,-83.13576120964458,167.84105176878995,-0.3969465648854962,-0.0,0.2748091603053435,180.45676918408554,130.16963159810905,0.015267175572519083,-0.03816793893129771,0.1297709923664122,105.0,138.0,-2.0,-6.0,-2.0,104.79,92.14,-4.0,-1.0,0.0,
4.532,-10.698270180977783,152.35080722359402,-0.19083969465648856,-0.4198473282442748,0.4122137404580153,180.39385297737314,130.54447914593163,0.061068702290076333,0.6106870229007634,0.2748091603053435,-82.85806267489582,167.69845546280195,-0.3969465648854962,-0.0,0.2748091603053435,180.5040624192897,130.17282147006253,0.015267175572519083,-0.03816793893129771,0.1297709923664122,105.0,138.0,-2.0,-7.0,-2.0,104.81,92.04,-3.0,-2.0,-1.0,
4.571,-10.698693449962716,152.35326153200398,-0.19083969465648856,-0.4198473282442748,0.4122137404580153,180.39351265055888,130.53996595123994,0.061068702290076333,0.6106870229007634,0.2748091603053435,-82.62201892035935,167.57724860271216,-0.3969465648854962,-0.0,0.2748091603053435,180.54426166921326,130.175532861223,0.015267175572519083,-0.03816793893129771,0.1297709923664122,105.0,139.0,-2.0,-6.0,-3.0,104.85,92.07,-4.0,-2.0,0.0,
4.61,-10.69905322859991,152.35534769415247,-0.19083969465648856,-0.4198473282442748,0.4122137404580153,180.39322337276676,130.53612973575198,0.061068702290076333,0.6106870229007634,0.2748091603053435,-82.42138172900337,167.47422277163582,-0.3969465648854962,-0.0,0.2748091603053435,180.63648429322248,130.19208896853291,0.015267175572519083,-0.03816793893129771,0.1297709923664122,105.0,139.0,-3.0,-6.0,-1.0,104.55,92.06,-2.0,0.0,-1.0,
4.649,-10.699359040441525,152.35712093197867,-0.19083969465648856,-0.4198473282442748,0.4122137404580153,180.39297748664345,130.53286895258722,0.061068702290076333,0.6106870229007634,0.2748091603053435,-82.3789965128445,167.36025026488824,-0.35877862595419846,-0.0,0.26717557251908397,180.71487352363033,130.20616165974639,0.015267175572519083,-0.03816793893129771,0.1297709923664122,105.0,139.0,-3.0,-6.0,-1.0,104.54,92.07,-3.0,0.0,-1.0,
4.689,-10.699618980506898,152.35862818413094,-0.19083969465648856,-0.4198473282442748,0.4122137404580153,180.39276848343863,130.53009728689716,0.061068702290076333,0.6106870229007634,0.2748091603053435,-82.34296907910945,167.2633736341528,-0.35877862595419846,-0.0,0.26717557251908397,180.66538724621986,130.1896198039742,0.015267175572519083,-0.03816793893129771,0.1297709923664122,104.0,139.0,-1.0,-6.0,0.0,104.42,92.09,-3.0,3.0,-2.0,
4.728,-10.699839929562463,152.35990934846038,-0.19083969465648856,-0.4198473282442748,0.4122137404580153,180.39259083071454,130.52774137106064,0.061068702290076333,0.6106870229007634,0.2748091603053435,-82.31234576043465,167.18102849802767,-0.35877862595419846,-0.0,0.26717557251908397,180.62332391042096,130.17555922656786,0.015267175572519083,-0.03816793893129771,0.1297709923664122,104.0,139.0,-1.0,-7.0,0.0,104.34,92.2,-3.0,1.0,-2.0,
4.767,-10.700027736259695,152.3609983381404,-0.19083969465648856,-0.4198473282442748,0.4122137404580153,180.39243982589906,130.5257388425996,0.061068702290076333,0.6106870229007634,0.2748091603053435,-82.28631593956108,167.11103513232132,-0.35877862595419846,-0.0,0.26717557251908397,180.6456339366748,130.1778599542525,0.015267175572519083,-0.03816793893129771,0.1297709923664122,104.0,139.0,-2.0,-6.0,0.0,104.38,92.39,-4.0,0.0,-1.0,
4.806,-10.700187371952342,152.3619239793684,-0.19083969465648856,-0.4198473282442748,0.4122137404580153,180.3923114718059,130.5240366934077,0.061068702290076333,0.6106870229007634,0.2748091603053435,-82.26419059181855,167.0515407714709,-0.35877862595419846,-0.0,0.26717557251908397,180.66459745899058,130.17981557278446,0.015267175572519083,-0.03816793893129771,0.1297709923664122,104.0,139.0,-2.0,-6.0,-1.0,104.34,92.48,-3.0,0.0,-1.0,
4.845,-10.700323062291092,152.36271077441222,-0.19083969465648856,-0.4198473282442748,0.4122137404580153,180.3922023708267,130.5225898665946,0.061068702290076333,0.6106870229007634,0.2748091603053435,-82.24538404623739,167.00097056474806,-0.35877862595419846,-0.0,0.26717557251908397,180.680716452959,130.18147784853662,0.015267175572519083,-0.03816793893129771,0.1297709923664122,104.0,139.0,-2.0,-5.0,1.0,104.37,92.6,-3.0,-1.0,0.0,
4.883,-10.70043839907903,152.36337955019945,-0.19083969465648856,-0.4198473282442748,0.4122137404580153,180.3921096349944,130.52136006380343,0.061068702290076333,0.6106870229007634,0.2748091603053435,-82.22939848249341,166.95798588903364,-0.35877862595419846,-0.0,0.26717557251908397,180.75247085940637,130.19714220774952,0.015267175572519083,-0.03816793893129771,0.1297709923664122,105.0,139.0,-3.0,-5.0,0.0,104.31,92.66,-4.0,0.0,0.0,
4.922,-10.700536435348775,152.3639480096186,-0.19083969465648856,-0.4198473282442748,0.4122137404580153,180.3744883563602,130.5003750896517,0.09923664122137404,0.6335877862595419,0.17557251908396945,-82.21581075331102,166.92144891467638,-0.35877862595419846,-0.0,0.26717557251908397,180.81346210488664,130.2104569130805,0.015267175572519083,-0.03816793893129771,0.1297709923664122,105.0,139.0,-3.0,-5.0,0.0,104.38,92.54,-4.0,0.0,0.0,
4.961,-10.70061976617806,152.3644312001249,-0.19083969465648856,-0.4198473282442748,0.4122137404580153,180.3595102695211,130.48253786162272,0.09923664122137404,0.6335877862595419,0.17557251908396945,-82.06308338621511,166.9910563990769,-0.35877862595419846,-0.007633587786259542,0.2595419847328244,180.86530466354486,130.2217744126118,0.015267175572519083,-0.03816793893129771,0.1297709923664122,105.0,139.0,-3.0,-5.0,0.0,104.27,92.55,-5.0,0.0,0.0,
5.001,-10.700690597382952,152.36484191205523,-0.19083969465648856,-0.4198473282442748,0.4122137404580153,180.3467788957079,130.4673762177981,0.09923664122137404,0.6335877862595419,0.17557251908396945,-81.90861403003075,167.03382279019058,-0.37404580152671757,-0.0,0.2595419847328244,180.90937083840436,130.23139428721345,0.015267175572519083,-0.03816793893129771,0.1297709923664122,105.0,139.0,-3.0,-5.0,0.0,104.21,92.47,-4.0,0.0,-1.0,
5.04,-10.700750803907109,152.36519101719603,-0.19083969465648856,-0.4198473282442748,0.4122137404580153,180.39959196291304,130.5434952552131,0.10687022900763359,0.6259541984732825,0.19083969465648856,-81.77731507727404,167.0701742226372,-0.37404580152671757,-0.0,0.2595419847328244,180.94682708703493,130.2395711806248,0.015267175572519083,-0.03816793893129771,0.1297709923664122,105.0,139.0,-3.0,-5.0,0.0,104.14,92.51,-5.0,0.0,-1.0,
5.079,-10.700801979452644,152.3654877565657,-0.19083969465648856,-0.4198473282442748,0.4122137404580153,180.4444830700374,130.60819643701583,0.10687022900763359,0.6259541984732825,0.19083969465648856,-81.66571096743084,167.10107294021682,-0.37404580152671757,-0.0,0.2595419847328244,180.92061163679668,130.23227011520092,0.015267175572519083,-0.03816793893129771,0.1297709923664122,105.0,139.0,-2.0,-6.0,-1.0,104.08,92.58,-4.0,0.0,0.0,
5.119,-10.700845478666348,152.3657399850299,-0.19083969465648856,-0.4198473282442748,0.4122137404580153,180.4826405110931,130.66319244154818,0.10687022900763359,0.6259541984732825,0.19083969465648856,-81.57084747406412,167.1273368501595,-0.37404580152671757,-0.0,0.2595419847328244,180.89832850409417,130.22606420959062,0.015267175572519083,-0.03816793893129771,0.1297709923664122,105.0,139.0,-2.0,-6.0,0.0,104.11,92.52,-4.0,0.0,-1.0,
5.158,-10.700882452997996,152.3659543792245,-0.19083969465648856,-0.4198473282442748,0.4122137404580153,180.4692323711842,130.64873704499962,0.0916030534351145,0.6335877862595419,0.20610687022900764,-81.49021350470241,167.14966117361078,-0.37404580152671757,-0.0,0.2595419847328244,180.87938784129705,130.22078918982186,0.015267175572519083,-0.03816793893129771,0.1297709923664122,105.0,139.0,-2.0,-6.0,0.0,104.13,92.49,-4.0,-1.0,-1.0,
5.197,-10.700913881179899,152.3661366142899,-0.19083969465648856,-0.4198473282442748,0.4122137404580153,180.45783545226163,130.63644995793334,0.0916030534351145,0.6335877862595419,0.20610687022900764,-81.37406736908484,167.14803403276747,-0.366412213740458,-0.0,0.2595419847328244,180.86328827791948,130.2163054230184,0.015267175572519083,-0.03816793893129771,0.1297709923664122,105.0,139.0,-2.0,-6.0,0.0,104.11,92.43,-4.0,0.0,-1.0,
5.237,-10.700940595134515,152.36629151409548,-0.19083969465648856,-0.4198473282442748,0.4122137404580153,180.3945456460316,130.54169621155734,0.08396946564885496,0.6335877862595419,0.1984732824427481,-81.27534315380991,167.14665096305066,-0.366412213740458,-0.0,0.2595419847328244,180.84960364904856,130.2124942212355,0.015267175572519083,-0.03816793893129771,0.1297709923664122,105.0,139.0,-2.0,-6.0,0.0,104.11,92.4,-4.0,0.0,-1.0,
5.276,-10.70096330199594,152.36642317893023,-0.19083969465648856,-0.4198473282442748,0.4122137404580153,180.34074931073604,130.46115552713775,0.08396946564885496,0.6335877862595419,0.1984732824427481,-81.19142757082622,167.14547535379137,-0.366412213740458,-0.0,0.2595419847328244,180.82696727468456,130.2111771921411,0.0,-0.0,0.04580152671755725,105.0,139.0,-2.0,-6.0,0.0,103.99,92.38,-4.0,0.0,0.0,
5.315,-10.70098260282815,152.36653509403976,-0.19083969465648856,-0.4198473282442748,0.4122137404580153,180.29502242573483,130.3926959453811,0.08396946564885496,0.6335877862595419,0.1984732824427481,-81.12009932529008,167.14447608592099,-0.366412213740458,-0.0,0.2595419847328244,180.8601186959885,130.22533504387093,0.0,-0.0,0.04580152671755725,105.0,139.0,-3.0,-5.0,-1.0,104.02,92.45,-4.0,0.0,0.0,
5.353,-10.700999008535529,152.36663022188287,-0.19083969465648856,-0.4198473282442748,0.4122137404580153,180.2561545734838,130.33450530088794,0.08396946564885496,0.6335877862595419,0.1984732824427481,-81.05947031658437,167.14362670823115,-0.366412213740458,-0.0,0.2595419847328244,180.88829740409682,130.23736921784126,0.0,-0.0,0.04580152671755725,105.0,139.0,-3.0,-5.0,0.0,103.94,92.38,-4.0,0.0,0.0,
5.392,-10.701012953386801,152.36671108054952,-0.19083969465648856,-0.4198473282442748,0.4122137404580153,180.22311689907042,130.28504325306875,0.08396946564885496,0.6335877862595419,0.1984732824427481,-81.00793565918451,167.1429047371948,-0.366412213740458,-0.0,0.2595419847328244,180.9122493059889,130.24759826571605,0.0,-0.0,0.04580152671755725,105.0,139.0,-3.0,-5.0,0.0,103.98,92.4,-4.0,1.0,0.0,
5.431,-10.701024806510382,152.36677981041618,-0.19083969465648856,-0.4198473282442748,0.4122137404580153,180.19503487581906,130.24300051242244,0.08396946564885496,0.6335877862595419,0.1984732824427481,-80.96413120039463,167.14229106181392,-0.366412213740458,-0.0,0.2595419847328244,180.92978514633884,130.25629295640962,0.0,-0.0,0.05343511450381679,105.0,139.0,-3.0,-5.0,0.0,104.0,92.44,-4.0,0.0,0.0,
5.47,-10.701034881665425,152.3668382308028,-0.19083969465648856,-0.4198473282442748,0.4122137404580153,180.1711651560554,130.20726418287308,0.08396946564885496,0.6335877862595419,0.1984732824427481,-80.92689741042324,167.14176943774015,-0.366412213740458,-0.0,0.2595419847328244,180.94196694783687,130.26442864538964,0.0,-0.0,0.04580152671755725,105.0,139.0,-3.0,-5.0,0.0,104.16,92.49,-4.0,1.0,0.0,
5.509,-10.701043445547212,152.36688788813146,-0.19083969465648856,-0.4198473282442748,0.4122137404580153,180.15087589425627,130.17688830275614,0.08396946564885496,0.6335877862595419,0.1984732824427481,-80.89524868894755,167.14132605727744,-0.366412213740458,-0.0,0.2595419847328244,180.9523214791102,130.27059877913217,0.0,-0.0,0.030534351145038167,105.0,139.0,-3.0,-5.0,0.0,104.17,92.38,-3.0,0.0,0.0,
5.548,-10.70105072484673,152.3669300968608,-0.19083969465648856,-0.4198473282442748,0.4122137404580153,180.13363002172704,130.15106880465675,0.08396946564885496,0.6335877862595419,0.1984732824427481,-80.86834727569321,167.14094918388415,-0.366412213740458,-0.0,0.2595419847328244,181.01165636493047,130.2911192529472,0.0,-0.0,0.030534351145038167,104.0,139.0,-4.0,-5.0,0.0,104.06,92.4,-4.0,0.0,0.0,
5.587,-10.701056912251321,152.36696597428076,-0.19083969465648856,-0.4198473282442748,0.4122137404580153,180.11897103007718,130.12912223127225,0.08396946564885496,0.6335877862595419,0.1984732824427481,-80.84548107442703,167.14062884149985,-0.366412213740458,-0.0,0.2595419847328244,181.0530072670663,130.31006410164838,0.0,-0.0,0.04580152671755725,104.0,139.0,-4.0,-5.0,0.0,104.27,92.42,-5.0,9.0,-2.0,
5.626,-10.701062171545225,152.3669964700877,-0.19083969465648856,-0.4198473282442748,0.4122137404580153,180.1065108871748,130.11046764389542,0.08396946564885496,0.6335877862595419,0.1984732824427481,-80.9132390801083,167.12608263328107,-0.35877862595419846,-0.0,0.2366412213740458,181.08815553388175,130.32616722304437,0.0,-0.0,0.04580152671755725,104.0,139.0,-4.0,-5.0,0.0,104.58,92.47,-4.0,1.0,-1.0,
5.665,-10.701066641945042,152.36702239152362,-0.19083969465648856,-0.4198473282442748,0.4122137404580153,180.09591976570778,130.09461124462513,0.08396946564885496,0.6335877862595419,0.1984732824427481,-80.97083338493738,167.11371835629512,-0.35877862595419846,-0.0,0.2366412213740458,181.13709570117823,130.33934591971985,0.0,-0.0,0.030534351145038167,104.0,139.0,-4.0,-5.0,0.0,104.42,92.53,-1.0,-12.0,2.0,
5.704,-10.701070441784887,152.36704442474414,-0.19083969465648856,-0.4198473282442748,0.4122137404580153,180.0869173124608,130.08113330524537,0.08396946564885496,0.6335877862595419,0.1984732824427481,-81.01978854404209,167.10320872085705,-0.35877862595419846,-0.0,0.2366412213740458,181.17869484338024,130.350547811894,0.0,-0.0,0.030534351145038167,105.0,139.0,-4.0,-4.0,1.0,104.52,92.53,-2.0,-3.0,1.0,
5.743,-10.701073671648755,152.3670631529816,-0.19083969465648856,-0.4198473282442748,0.4122137404580153,180.0792652272009,130.06967705677258,0.08396946564885496,0.6335877862595419,0.1984732824427481,-81.07966096227135,167.09484445211544,-0.3435114503816794,-0.007633587786259542,0.22137404580152673,181.21405411425195,130.360069420242,0.0,-0.0,0.030534351145038167,105.0,139.0,-4.0,-4.0,1.0,104.61,92.45,-4.0,4.0,-3.0,
5.782,-10.701076417033043,152.36707907198343,-0.19083969465648856,-0.4198473282442748,0.4122137404580153,180.07276095472997,130.05993924557072,0.08396946564885496,0.6335877862595419,0.1984732824427481,-81.13055251776622,167.08773482368505,-0.3435114503816794,-0.007633587786259542,0.22137404580152673,181.138043917943,130.3371129529482,0.0,-0.0,0.030534351145038167,105.0,139.0,-2.0,-7.0,0.0,104.55,92.52,-3.0,-2.0,0.0,
5.821,-10.701078750609687,152.36709260313498,-0.19083969465648856,-0.4198473282442748,0.4122137404580153,180.06723232312967,130.05166210604912,0.08396946564885496,0.6335877862595419,0.1984732824427481,-81.17381033993686,167.08169163951922,-0.3435114503816794,-0.007633587786259542,0.22137404580152673,181.0734352510804,130.31759995574845,0.0,-0.0,0.030534351145038167,105.0,139.0,-2.0,-7.0,-1.0,104.45,92.54,-4.0,-1.0,0.0,
5.86,-10.701080734149835,152.36710410461382,-0.19083969465648856,-0.4198473282442748,0.4122137404580153,180.06253298626942,130.04462653745577,0.08396946564885496,0.6335877862595419,0.1984732824427481,-81.21057948878192,167.07655493297827,-0.3435114503816794,-0.007633587786259542,0.22137404580152673,181.01851788424722,130.30101390812865,0.0,-0.0,0.030534351145038167,105.0,139.0,-2.0,-6.0,0.0,104.18,92.8,-6.0,2.0,2.0,
5.899,-10.701082420158961,152.36711388087082,-0.19083969465648856,-0.4198473282442748,0.4122137404580153,180.0585385499382,130.03864630415143,0.08396946564885496,0.6335877862595419,0.1984732824427481,-81.2418332653002,167.07218873241845,-0.3435114503816794,-0.007633587786259542,0.22137404580152673,180.97183812243898,130.28691576765183,0.0,-0.0,0.030534351145038167,105.0,139.0,-2.0,-6.0,0.0,104.22,92.69,-5.0,0.0,-1.0,
5.938,-10.701083853266718,152.36712219068926,-0.19083969465648856,-0.4198473282442748,0.4122137404580153,180.05514327905667,130.03356310584275,0.08396946564885496,0.6335877862595419,0.1984732824427481,-81.26839897534074,167.06847746194262,-0.3435114503816794,-0.007633587786259542,0.22137404580152673,180.932160324902,130.27493234824652,0.0,-0.0,0.030534351145038167,105.0,139.0,-2.0,-6.0,0.0,104.16,92.74,-4.0,0.0,0.0,
5.977,-10.701085071408311,152.36712925403495,-0.19083969465648856,-0.4198473282442748,0.4122137404580153,180.05225729880738,130.02924238728036,0.08396946564885496,0.6335877862595419,0.1984732824427481,-81.23313228078754,167.09210552917983,-0.366412213740458,-0.0,0.29770992366412213,180.89843419699554,130.264746441752,0.0,-0.0,0.030534351145038167,105.0,139.0,-2.0,-6.0,0.0,104.1,92.65,-4.0,0.0,0.0,
6.016,-10.701086106828665,152.36713525787877,-0.19083969465648856,-0.4198473282442748,0.4122137404580153,180.09470645560435,130.09532982148235,0.0916030534351145,0.6335877862595419,0.1984732824427481,-81.20315559041731,167.11218938633147,-0.366412213740458,-0.0,0.29770992366412213,180.86976698827507,130.25608842123168,0.0,-0.0,0.030534351145038167,105.0,139.0,-2.0,-6.0,0.0,104.01,92.63,-4.0,1.0,-1.0,
6.055,-10.398138942528936,151.53881731703865,0.03816793893129771,-0.3053435114503817,0.37404580152671757,180.1307882388818,130.15150414055404,0.0916030534351145,0.6335877862595419,0.1984732824427481,-81.17767540360262,167.12926066491036,-0.366412213740458,-0.0,0.29770992366412213,180.84539986086267,130.2487291037894,0.0,-0.0,0.030534351145038167,105.0,139.0,-2.0,-6.0,0.0,104.0,92.61,-5.0,1.0,-1.0,
6.094,-10.140633852874167,150.83474706732454,0.03816793893129771,-0.3053435114503817,0.37404580152671757,180.16145775466762,130.19925231176498,0.0916030534351145,0.6335877862595419,0.1984732824427481,-81.15601724481013,167.1437712517024,-0.366412213740458,-0.0,0.29770992366412213,180.82468780256212,130.24247368396345,0.0,-0.0,0.030534351145038167,105.0,139.0,-2.0,-6.0,0.0,103.91,92.62,-5.0,0.0,0.0,
6.133,-9.921754526667613,150.23628735506756,0.03816793893129771,-0.3053435114503817,0.37404580152671757,180.18752684308558,130.23983825729428,0.0916030534351145,0.6335877862595419,0.1984732824427481,-81.13760780983651,167.1561052504756,-0.366412213740458,-0.0,0.29770992366412213,180.80708255300667,130.23715657711142,0.0,-0.0,0.030534351145038167,105.0,139.0,-2.0,-7.0,-1.0,103.94,92.6,-4.0,0.0,0.0,
6.172,-9.735707099392043,149.7275965996491,0.03816793893129771,-0.3053435114503817,0.37404580152671757,180.20968556824084,130.2743363109942,0.0916030534351145,0.6335877862595419,0.1984732824427481,-81.12195979010895,167.16658914943287,-0.366412213740458,-0.0,0.29770992366412213,180.79211809088451,130.23263703628717,0.0,-0.0,0.030534351145038167,105.0,139.0,-2.0,-6.0,0.0,103.96,92.63,-4.0,0.0,0.0,
6.211,-9.577566786207807,149.29520945754342,0.03816793893129771,-0.3053435114503817,0.37404580152671757,180.2285204846228,130.3036596566391,0.0916030534351145,0.6335877862595419,0.1984732824427481,-81.10865897334051,167.17550046354654,-0.366412213740458,-0.0,0.29770992366412213,180.77939829808068,130.22879542658657,0.0,-0.0,0.030534351145038167,105.0,139.0,-2.0,-6.0,0.0,103.95,92.65,-4.0,1.0,0.0,
6.249,-9.443147520001208,148.9276803867536,0.03816793893129771,-0.3053435114503817,0.37404580152671757,180.24453016354747,130.32858450043727,0.0916030534351145,0.6335877862595419,0.1984732824427481,-81.09735327908734,167.18307508054318,-0.366412213740458,-0.0,0.29770992366412213,180.82162532251604,130.24105574504003,0.0,-0.0,0.030534351145038167,105.0,139.0,-3.0,-6.0,0.0,103.94,92.59,-4.0,2.0,0.0,
6.288,-9.328891143725597,148.61528067658224,0.03816793893129771,-0.3053435114503817,0.37404580152671757,180.25813839063343,130.34977061766574,0.0916030534351145,0.6335877862595419,0.1984732824427481,-81.08774343897215,167.18951350499032,-0.366412213740458,-0.0,0.29770992366412213,180.80447944496748,130.2359513290265,0.0,-0.0,0.030534351145038167,105.0,139.0,-2.0,-6.0,0.0,103.88,92.52,-4.0,1.0,0.0,
6.327,-9.2050961425615,148.31092978567256,0.04580152671755725,-0.3053435114503817,0.3816793893129771,180.26970538365651,130.36777881730993,0.0916030534351145,0.6335877862595419,0.1984732824427481,-81.07957507487424,167.1949861657704,-0.366412213740458,-0.0,0.29770992366412213,180.78990544905122,130.231612575415,0.0,-0.0,0.030534351145038167,105.0,139.0,-2.0,-6.0,0.0,103.92,92.54,-4.0,1.0,0.0,
6.366,-9.099870391572017,148.05223152839932,0.04580152671755725,-0.3053435114503817,0.3816793893129771,180.27953732772613,130.38308578700747,0.0916030534351145,0.6335877862595419,0.1984732824427481,-81.07263196539103,167.1996379274334,-0.366412213740458,-0.0,0.29770992366412213,180.830556400841,130.2434503215442,0.0,-0.0,0.030534351145038167,105.0,139.0,-3.0,-6.0,0.0,104.07,92.53,-4.0,1.0,0.0,
6.405,-9.010428503230955,147.83233800971706,0.04580152671755725,-0.3053435114503817,0.3816793893129771,180.28789448018532,130.3960967112504,0.0916030534351145,0.6335877862595419,0.1984732824427481,-81.06673032233027,167.203591924847,-0.366412213740458,-0.0,0.29770992366412213,180.8651097098623,130.25351240575404,0.0,-0.0,0.030534351145038167,105.0,139.0,-3.0,-6.0,0.0,104.18,92.56,-4.0,3.0,-1.0,
6.444,-8.934402898141053,147.64542851883715,0.04580152671755725,-0.3053435114503817,0.3816793893129771,180.29499805977562,130.4071559968569,0.0916030534351145,0.6335877862595419,0.1984732824427481,-81.06171392572864,167.20695282264853,-0.366412213740458,-0.0,0.29770992366412213,180.89448002253042,130.26206517733237,0.0,-0.0,0.030534351145038167,105.0,139.0,-3.0,-6.0,0.0,104.24,92.55,-5.0,2.0,0.0,
6.483,-8.869781133814637,147.48655545158923,0.04580152671755725,-0.3053435114503817,0.3816793893129771,180.30103610242736,130.4165563896224,0.0916030534351145,0.6335877862595419,0.1984732824427481,-81.05744998861726,167.20980958577985,-0.366412213740458,-0.0,0.29770992366412213,180.9194447882983,130.26933503317397,0.0,-0.0,0.030534351145038167,105.0,139.0,-3.0,-6.0,0.0,104.34,92.48,-4.0,0.0,0.0,
6.522,-8.814852634137184,147.3515133444285,0.04580152671755725,-0.3053435114503817,0.3816793893129771,180.30616843868134,130.4245467234731,0.0916030534351145,0.6335877862595419,0.1984732824427481,-81.05382564207258,167.21223783444145,-0.366412213740458,-0.0,0.29770992366412213,180.94066483920102,130.27551441063932,0.0,-0.0,0.030534351145038167,105.0,139.0,-3.0,-6.0,0.0,104.4,92.48,-4.0,0.0,0.0,
6.561,-8.768163409411347,147.23672755334186,0.04580152671755725,-0.3053435114503817,0.3816793893129771,180.31053092449724,130.43133850724618,0.0916030534351145,0.6335877862595419,0.1984732824427481,-81.0507449475096,167.21430184580385,-0.366412213740458,-0.0,0.29770992366412213,180.95870188246832,130.28076688148488,0.0,-0.0,0.030534351145038167,105.0,138.0,-3.0,-6.0,0.0,104.45,92.51,-5.0,1.0,0.0,
6.599,-8.725763336596511,147.12923940257224,0.04580152671755725,-0.29770992366412213,0.37404580152671757,180.31423903744076,130.4371115234533,0.0916030534351145,0.6335877862595419,0.1984732824427481,-81.04812635713105,167.21605625546187,-0.366412213740458,-0.0,0.29770992366412213,180.97403336924555,130.2852314817036,0.0,-0.0,0.030534351145038167,105.0,138.0,-3.0,-6.0,0.0,104.49,92.48,-4.0,0.0,0.0,
6.638,-8.689723274703901,147.03787447441806,0.04580152671755725,-0.29770992366412213,0.37404580152671757,180.31739093344274,130.44201858722934,0.0916030534351145,0.6335877862595419,0.1984732824427481,-81.04590055530932,167.2175475036712,-0.366412213740458,-0.0,0.29770992366412213,180.93402628468758,130.27350070519051,0.0,-0.0,0.030534351145038167,105.0,139.0,-2.0,-7.0,0.0,104.53,92.52,-5.0,0.0,0.0,
6.676,-8.659089222095183,146.96021428548698,0.04580152671755725,-0.29770992366412213,0.37404580152671757,180.32007004504442,130.44618959143898,0.0916030534351145,0.6335877862595419,0.1984732824427481,-81.04400862376082,167.2188150646491,-0.366412213740458,-0.0,0.29770992366412213,180.9530591111319,130.2790552318534,0.0,-0.0,0.030534351145038167,105.0,139.0,-3.0,-6.0,0.0,104.53,92.57,-5.0,1.0,0.0,
6.715,-8.633050277377773,146.89420312489557,0.04580152671755725,-0.29770992366412213,0.37404580152671757,180.32234728990585,130.44973494501718,0.0916030534351145,0.6335877862595419,0.1984732824427481,-81.04240048194461,167.21989249148032,-0.366412213740458,-0.0,0.29770992366412213,180.9682609355971,130.28352313112214,-0.007633587786259542,-0.0,0.015267175572519083,105.0,139.0,-3.0,-6.0,0.0,104.54,92.6,-5.0,1.0,0.0,
6.754,-8.610917174367975,146.83809363839288,0.04580152671755725,-0.29770992366412213,0.37404580152671757,180.32428294803807,130.45274849555867,0.0916030534351145,0.6335877862595419,0.1984732824427481,-81.04103356140084,167.2208083042869,-0.366412213740458,-0.0,0.29770992366412213,180.92846887421436,130.27185800275737,-0.007633587786259542,-0.0,0.015267175572519083,105.0,138.0,-2.0,-6.0,0.0,104.48,92.65,-5.0,4.0,0.0,
6.793,-8.592104036809646,146.7904005748656,0.04580152671755725,-0.29770992366412213,0.37404580152671757,180.38015718465238,130.5406386044382,0.09923664122137404,0.6259541984732825,0.1984732824427481,-81.03987167893862,167.22158674517243,-0.366412213740458,-0.0,0.29770992366412213,180.894645622039,130.26194264364733,-0.007633587786259542,-0.0,0.015267175572519083,105.0,138.0,-2.0,-6.0,0.0,104.11,92.77,-6.0,8.0,3.0,
6.832,-8.576112869885065,146.74986147086742,0.04580152671755725,-0.29770992366412213,0.37404580152671757,180.42765028577458,130.6153451969858,0.09923664122137404,0.6259541984732825,0.1984732824427481,-81.03888407884574,167.22224841992517,-0.366412213740458,-0.0,0.29770992366412213,180.86337042395203,130.25434943615565,0.0,-0.0,0.030534351145038167,105.0,138.0,-2.0,-6.0,0.0,104.16,92.82,-8.0,13.0,5.0,
6.872,-8.562520377999173,146.71540323246893,0.04580152671755725,-0.29770992366412213,0.37404580152671757,180.4680194217284,130.67884580065126,0.09923664122137404,0.6259541984732825,0.1984732824427481,-81.03804461876678,167.22281084346497,-0.366412213740458,-0.0,0.29770992366412213,180.88823809660752,130.26374293664378,0.0,-0.0,0.030534351145038167,105.0,138.0,-3.0,-6.0,0.0,104.42,92.85,-7.0,29.0,4.0,
6.911,-8.550966759896165,146.68611372983023,0.04580152671755725,-0.29770992366412213,0.37404580152671757,180.5023331872892,130.7328213137669,0.09923664122137404,0.6259541984732825,0.1984732824427481,-81.03733107769966,167.22328890347382,-0.366412213740458,-0.0,0.29770992366412213,180.9093756183647,130.2717274120587,0.0,-0.0,0.030534351145038167,105.0,138.0,-3.0,-5.0,3.0,104.51,92.71,-5.0,31.0,10.0,
6.95,-8.541146184508607,146.6612176525873,0.04580152671755725,-0.29770992366412213,0.37404580152671757,180.53149988801584,130.7787004999152,0.09923664122137404,0.6259541984732825,0.1984732824427481,-81.29125188186953,167.21482448816747,-0.366412213740458,-0.007633587786259542,0.25190839694656486,180.92734251185828,130.2785142161614,0.0,-0.0,0.030534351145038167,105.0,138.0,-3.0,-5.0,3.0,103.84,92.29,-8.0,37.0,9.0,
6.989,-8.532798695429182,146.64005598693086,0.04580152671755725,-0.29770992366412213,0.37404580152671757,180.55629158363348,130.81769780814125,0.09923664122137404,0.6259541984732825,0.1984732824427481,-81.1773448706414,166.89746784579296,-0.3282442748091603,-0.07633587786259542,0.17557251908396945,180.94261437132783,130.28428299964867,0.0,-0.0,0.030534351145038167,105.0,138.0,-3.0,-5.0,3.0,104.07,91.79,-9.0,58.0,-4.0,
7.028,-8.525703329711671,146.62206857112287,0.04580152671755725,-0.29770992366412213,0.37404580152671757,180.5512334982777,130.7974276282939,0.183206106870229,0.5801526717557252,0.20610687022900764,-81.08052391109749,166.62771469977463,-0.3282442748091603,-0.07633587786259542,0.17557251908396945,180.95559545187695,130.28918646561286,0.0,-0.0,0.030534351145038167,105.0,138.0,-3.0,-5.0,3.0,104.17,91.65,-13.0,72.0,0.0,
7.068,-8.519672268851787,146.60677926768608,0.04580152671755725,-0.29770992366412213,0.37404580152671757,180.54693412572527,130.78019797542362,0.183206106870229,0.5801526717557252,0.20610687022900764,-80.99822609548517,166.39842452565904,-0.3282442748091603,-0.07633587786259542,0.17557251908396945,182.2399485252951,130.68761246532327,0.0,-0.0,0.030534351145038167,107.0,138.0,-28.0,20.0,15.0,104.21,92.14,-15.0,72.0,13.0,
7.107,-8.514545867120885,146.5937833597648,0.04580152671755725,-0.29770992366412213,0.37404580152671757,180.5432796590557,130.7655527704839,0.183206106870229,0.5801526717557252,0.20610687022900764,-80.73577646802141,166.25465274059218,-0.2824427480916031,-0.08396946564885496,0.015267175572519083,183.3316486377005,131.0262745650771,0.0,-0.0,0.030534351145038167,107.0,138.0,-28.0,20.0,15.0,105.68,92.39,-16.0,94.0,12.0,
7.145,-8.51018842564962,146.58273683803174,0.04580152671755725,-0.29770992366412213,0.37404580152671757,180.54017336238658,130.75310434628514,0.183206106870229,0.5801526717557252,0.20610687022900764,-80.51269428467722,166.13244672328534,-0.2824427480916031,-0.08396946564885496,0.015267175572519083,184.80363150235706,131.4851495940615,0.0,-0.0,0.030534351145038167,107.0,138.0,-39.0,22.0,12.0,107.72,91.96,-16.0,92.0,13.0,
7.185,-8.506484600399045,146.57334729455863,0.04580152671755725,-0.29770992366412213,0.37404580152671757,180.53753301021783,130.7425231857162,0.183206106870229,0.5801526717557252,0.20610687022900764,-80.32307442883466,166.0285716085745,-0.2824427480916031,-0.08396946564885496,0.015267175572519083,187.09294253048228,132.20930635979124,0.0,-0.0,0.030534351145038167,107.0,139.0,-61.0,26.0,25.0,113.8,93.26,-22.0,114.0,-2.0,
7.224,-8.503336348936054,146.56536618260645,0.04580152671755725,-0.29770992366412213,0.37404580152671757,180.5352887108744,130.7335291992326,0.183206106870229,0.5801526717557252,0.20610687022900764,-80.16189755136848,165.94027776107032,-0.2824427480916031,-0.08396946564885496,0.015267175572519083,189.7420081592404,133.05916300585844,0.0,-0.0,0.030534351145038167,110.0,139.0,-77.0,24.0,28.0,114.31,93.44,-19.0,57.0,18.0,
7.263,-8.500660335192514,146.55858223744713,0.04580152671755725,-0.29770992366412213,0.37404580152671757,180.53338105643246,130.72588431072154,0.183206106870229,0.5801526717557252,0.20610687022900764,-80.02489720552224,165.86522799069178,-0.2824427480916031,-0.08396946564885496,0.015267175572519083,191.95117674684258,133.7671425215761,0.0,-0.0,0.030534351145038167,114.0,139.0,-76.0,4.0,29.0,114.2,92.81,0.0,-62.0,18.0,
7.303,-8.498385723510504,146.55281588406172,0.04580152671755725,-0.29770992366412213,0.37404580152671757,180.53175955015683,130.71938615548714,0.183206106870229,0.5801526717557252,0.20610687022900764,-79.90844691155291,165.80143568587,-0.2824427480916031,-0.08396946564885496,0.015267175572519083,191.43559844116405,133.59689535207792,0.0,-0.0,0.030534351145038167,123.0,143.0,-25.0,-16.0,23.0,114.01,91.4,-12.0,-22.0,7.0,
7.342,-8.496452303580796,146.5479144836841,0.04580152671755725,-0.29770992366412213,0.37404580152671757,180.53038126982256,130.7138627235379,0.183206106870229,0.5801526717557252,0.20610687022900764,-79.809464161679,165.74721222677147,-0.2824427480916031,-0.08396946564885496,0.015267175572519083,189.25753684031204,132.91478221744822,0.0,-0.0,0.030534351145038167,124.0,146.0,9.0,-34.0,-10.0,114.96,89.68,-2.0,-12.0,-2.0,
7.381,-8.494808896640544,146.54374829336314,0.04580152671755725,-0.29770992366412213,0.37404580152671757,177.5362401376898,125.33184385430641,0.19083969465648856,0.8244274809160306,0.44274809160305345,-79.72532882428617,165.70112228653772,-0.2824427480916031,-0.08396946564885496,0.015267175572519083,187.40618447958786,132.33498605301298,0.0,-0.0,0.030534351145038167,124.0,146.0,9.0,-34.0,-10.0,118.12,89.2,-3.0,6.0,-10.0,
7.421,-8.49341200074133,146.54020703159028,0.04580152671755725,-0.29770992366412213,0.37404580152671757,176.43610237635684,123.69664637235489,-0.061068702290076333,0.8931297709923665,0.6412213740458015,-79.65381378750226,165.66194583733903,-0.2824427480916031,-0.08396946564885496,0.015267175572519083,185.8325349729723,131.84215931324303,0.0,-0.0,0.030534351145038167,124.0,146.0,9.0,-34.0,-10.0,121.33,88.6,2.0,36.0,-8.0,
7.46,-8.492224639226997,146.53719695908336,0.04580152671755725,-0.29770992366412213,0.37404580152671757,177.14488017555232,124.81331396428548,-0.0916030534351145,0.9007633587786259,0.4351145038167939,-79.59302600623595,165.62864585552018,-0.2824427480916031,-0.08396946564885496,0.015267175572519083,184.49493289234906,131.42325658443858,0.0,-0.0,0.030534351145038167,124.0,146.0,9.0,-34.0,-10.0,123.95,87.41,7.0,22.0,4.0,
7.499,-8.491215381939815,146.5346383974525,0.04580152671755725,-0.29770992366412213,0.37404580152671757,177.74734130486846,125.76248141742649,-0.0916030534351145,0.9007633587786259,0.4351145038167939,-30.05890644182481,142.39256855400393,-0.1450381679389313,-1.0458015267175573,0.7022900763358778,183.3579711238193,131.06718926495478,0.0,-0.0,0.030534351145038167,124.0,146.0,9.0,-34.0,-10.0,126.0,87.61,3.0,29.0,0.0,
7.539,-8.49035751324571,146.53246362006627,0.04580152671755725,-0.29770992366412213,0.37404580152671757,178.2594332647872,126.56927375259633,-0.0916030534351145,0.9007633587786259,0.4351145038167939,12.045095187924648,122.64190284771512,-0.1450381679389313,-1.0458015267175573,0.7022900763358778,184.77713959765617,131.50447207211107,0.0,-0.0,0.030534351145038167,114.0,130.0,-38.0,-42.0,-10.0,128.21,87.26,9.0,17.0,7.0,
7.578,-8.48962832485572,146.53061505928798,0.04580152671755725,-0.29770992366412213,0.37404580152671757,178.69471143071812,127.2550472374907,-0.0916030534351145,0.9007633587786259,0.4351145038167939,47.83349657321169,105.85383699736961,-0.1450381679389313,-1.0458015267175573,0.7022900763358778,186.7017132436678,132.1056601438796,0.0,-0.0,0.030534351145038167,110.0,125.0,-53.0,-37.0,12.0,129.48,86.85,0.0,8.0,11.0,
7.617,-8.48900851472423,146.52904378262642,0.04580152671755725,-0.29770992366412213,0.37404580152671757,179.0646978717594,127.83795469965092,-0.0916030534351145,0.9007633587786259,0.4351145038167939,78.25363775070568,91.58398102457593,-0.1450381679389313,-1.0458015267175573,0.7022900763358778,188.43078374349875,132.64685339499357,0.0,-0.0,0.030534351145038167,107.0,121.0,-55.0,-16.0,29.0,130.73,86.02,-5.0,2.0,4.0,
7.657,-8.488481676112462,146.5277081974641,0.04580152671755725,-0.29770992366412213,0.37404580152671757,179.37918634664447,128.3334260424871,-0.0916030534351145,0.9007633587786259,0.4351145038167939,104.11075775157556,79.45460344770132,-0.1450381679389313,-1.0458015267175573,0.7022900763358778,190.2664799134023,133.22648566743737,0.0,-0.0,0.030534351145038167,105.0,118.0,-63.0,-23.0,27.0,131.52,85.27,-6.0,-3.0,0.0,
7.696,-8.48803386329246,146.52657295007612,0.04580152671755725,-0.29770992366412213,0.37404580152671757,179.6465015502968,128.75457668389788,-0.0916030534351145,0.9007633587786259,0.4351145038167939,126.08930975231496,69.14463250735788,-0.1450381679389313,-1.0458015267175573,0.7022900763358778,191.87178410210942,133.7339936288944,0.0,-0.0,0.030534351145038167,102.0,115.0,-64.0,-28.0,27.0,132.05,85.09,-8.0,-14.0,0.0,
7.736,-8.487653222395458,146.52560798979636,0.04580152671755725,-0.29770992366412213,0.37404580152671757,179.87371947340125,129.11255472909704,-0.0916030534351145,0.9007633587786259,0.4351145038167939,142.94079940672916,60.38720098119637,-0.2595419847328244,-0.030534351145038167,0.015267175572519083,193.2362926625105,134.1653753961329,0.0,-0.0,0.030534351145038167,102.0,115.0,-64.0,-28.0,27.0,132.16,84.85,-9.0,-23.0,-1.0,
7.775,-13.296801354951999,148.68901788826344,0.2824427480916031,-1.7404580152671756,0.5267175572519084,180.06685470804007,129.41683606751633,-0.0916030534351145,0.9007633587786259,0.4351145038167939,157.26456561298122,52.94338418395908,-0.2595419847328244,-0.030534351145038167,0.015267175572519083,194.39612493885141,134.5320498982856,0.0,-0.0,0.030534351145038167,102.0,115.0,-64.0,-28.0,27.0,131.94,84.5,-7.0,-31.0,-2.0,
7.815,-17.384577267625055,150.52791630196046,0.2824427480916031,-1.7404580152671756,0.5267175572519084,180.23101965748305,129.67547520517272,-0.0916030534351145,0.9007633587786259,0.4351145038167939,170.8482554207967,46.73498166877217,-0.2748091603053435,0.2366412213740458,-0.022900763358778626,195.3819823737412,134.8437232251154,0.0,-0.0,0.030534351145038167,102.0,115.0,-64.0,-28.0,27.0,131.76,84.98,-9.0,-34.0,3.0,
7.855,-20.859186793397157,152.09097995360293,0.2824427480916031,-1.7404580152671756,0.5267175572519084,180.37055986450957,129.89531847218066,-0.0916030534351145,0.9007633587786259,0.4351145038167939,182.39439175743985,41.457839530863296,-0.2748091603053435,0.2366412213740458,-0.022900763358778626,164.03702494645228,120.4238677083271,-0.2748091603053435,-0.12213740458015267,0.42748091603053434,102.0,115.0,-64.0,-28.0,27.0,130.87,84.43,-8.0,-33.0,-1.0,
7.895,-23.81260489030344,153.41958405749904,0.2824427480916031,-1.7404580152671756,0.5267175572519084,180.48916904048212,130.0821852491374,-0.0916030534351145,0.9007633587786259,0.4351145038167939,192.47530490247,37.33057220468253,-0.3435114503816794,0.5877862595419847,-0.13740458015267176,137.3938111332567,108.16699051905702,-0.2748091603053435,-0.12213740458015267,0.42748091603053434,102.0,115.0,-64.0,-28.0,27.0,130.22,83.83,-9.0,-33.0,3.0,
7.936,-26.323010272673784,154.54889754581072,0.2824427480916031,-1.7404580152671756,0.5267175572519084,180.5899868400588,130.24102200955065,-0.0916030534351145,0.9007633587786259,0.4351145038167939,201.8942079567063,33.27210023477702,-0.48091603053435117,0.3511450381679389,-0.183206106870229,114.74707939204043,97.74864490817747,-0.2748091603053435,-0.12213740458015267,0.42748091603053434,102.0,115.0,-64.0,-28.0,27.0,130.69,82.8,0.0,-63.0,5.0,
7.976,-30.90326874998754,156.3222120118199,0.3969465648854962,-1.5190839694656488,0.42748091603053434,180.67568196969896,130.3760332559019,-0.0916030534351145,0.9007633587786259,0.4351145038167939,209.9002755528072,29.82239906035733,-0.48091603053435117,0.3511450381679389,-0.183206106870229,95.49735741200662,88.89305113892985,-0.2748091603053435,-0.12213740458015267,0.42748091603053434,102.0,115.0,-64.0,-28.0,27.0,129.77,82.22,-4.0,-36.0,-6.0,
8.017,-34.796488455704235,157.82952930792766,0.3969465648854962,-1.5190839694656488,0.42748091603053434,180.7485228298931,130.49079281530044,-0.0916030534351145,0.9007633587786259,0.4351145038167939,217.7328564827952,50.6132297423034,-0.4580152671755725,0.3511450381679389,-0.05343511450381679,79.13509372897788,81.36579643506937,-0.2748091603053435,-0.12213740458015267,0.42748091603053434,102.0,115.0,-64.0,-28.0,27.0,129.36,82.01,-9.0,-21.0,-10.0,
8.057,-38.10572520556342,159.11074900961927,0.3969465648854962,-1.5190839694656488,0.42748091603053434,180.8104375610581,130.58833844078922,-0.0916030534351145,0.9007633587786259,0.4351145038167939,224.390550273285,68.28543582195756,-0.4580152671755725,0.3511450381679389,-0.05343511450381679,67.26379148626627,76.65859108509036,-0.2748091603053435,-0.12213740458015267,0.42748091603053434,75.0,79.0,0.0,0.0,0.0,128.18,82.66,4.0,-46.0,6.0,
8.096,-40.91857644294372,160.19978575605717,0.3969465648854962,-1.5190839694656488,0.42748091603053434,180.8630650825484,130.67125222245468,-0.0916030534351145,0.9007633587786259,0.4351145038167939,230.04958999520133,83.3068109896636,-0.4580152671755725,0.3511450381679389,-0.05343511450381679,57.140753160554986,72.62917284295179,-0.2748091603053435,-0.12213740458015267,0.42748091603053434,106.0,76.0,-1.0,0.0,-7.0,126.53,83.11,5.0,-18.0,-11.0,
8.136,-43.30949999471697,161.1254669905294,0.3969465648854962,-1.5190839694656488,0.42748091603053434,180.90779847581513,130.74172893687032,-0.0916030534351145,0.9007633587786259,0.4351145038167939,182.33954470730225,95.73993630975284,-0.4351145038167939,0.09923664122137404,-0.3282442748091603,48.5361705837004,69.204167337134,-0.2748091603053435,-0.12213740458015267,0.42748091603053434,106.0,76.0,-1.0,0.0,-7.0,125.93,83.87,5.0,-17.0,-4.0,
8.176,-45.34178501372425,161.91229603983078,0.3969465648854962,-1.5190839694656488,0.42748091603053434,180.94582186009185,130.80163414412362,-0.0916030534351145,0.9007633587786259,0.4351145038167939,141.78600621258803,106.30809283182867,-0.4351145038167939,0.09923664122137404,-0.3282442748091603,41.28713823218682,66.34950004650173,-0.2748091603053435,-0.12213740458015267,0.42748091603053434,114.0,69.0,1.0,1.0,-21.0,126.75,83.13,-4.0,25.0,-34.0,
8.216000000000001,-47.06922727988042,162.58110073173697,0.3969465648854962,-1.5190839694656488,0.42748091603053434,190.92418710740532,136.21514294922605,0.11450381679389313,1.0458015267175573,0.16030534351145037,107.31549849208096,115.29102587559314,-0.4351145038167939,0.09923664122137404,-0.3282442748091603,35.12546073340028,63.923032849464306,-0.2748091603053435,-0.12213740458015267,0.42748091603053434,114.0,69.0,1.0,1.0,-21.0,124.84,84.04,-8.0,12.0,-5.0,
8.255,-48.537553206113174,163.14958471985722,0.3969465648854962,-1.5190839694656488,0.42748091603053434,199.40579756762176,140.81662543356313,0.11450381679389313,1.0458015267175573,0.16030534351145037,78.01556692964995,122.92651896279293,-0.4351145038167939,0.09923664122137404,-0.3282442748091603,29.92046535523008,61.888826322160966,-0.2748091603053435,-0.12213740458015267,0.42748091603053434,108.0,80.0,2.0,2.0,0.0,123.98,84.61,0.0,2.0,-7.0,
8.295,-49.78563024341102,163.6327961097594,0.3969465648854962,-1.5190839694656488,0.42748091603053434,206.32064142209362,144.65539060139912,0.16030534351145037,0.9007633587786259,0.183206106870229,53.11062510158359,129.41668808691276,-0.4351145038167939,0.09923664122137404,-0.3282442748091603,25.496219283785404,60.15975077395312,-0.2748091603053435,-0.12213740458015267,0.42748091603053434,108.0,80.0,2.0,2.0,0.0,123.71,85.57,-4.0,0.0,-14.0,
8.335,-50.84649572511418,164.04352579117625,0.3969465648854962,-1.5190839694656488,0.42748091603053434,212.19825869839468,147.91834099405972,0.16030534351145037,0.9007633587786259,0.183206106870229,31.941424547727173,134.93333184241462,-0.4351145038167939,0.09923664122137404,-0.3282442748091603,21.95919740900721,70.59817007849048,-0.08396946564885496,0.12213740458015267,-0.22900763358778625,108.0,80.0,2.0,2.0,0.0,122.97,86.72,-14.0,17.0,-11.0,
8.375,-51.748231384561876,164.3926460203806,0.3969465648854962,-1.5190839694656488,0.42748091603053434,217.1942333832506,150.69184882782122,0.16030534351145037,0.9007633587786259,0.183206106870229,65.54407558884292,139.9501937158382,-0.2900763358778626,0.16793893129770993,0.35877862595419846,18.952728815445745,79.47082648734724,-0.08396946564885496,0.12213740458015267,-0.22900763358778625,108.0,80.0,2.0,2.0,0.0,122.36,87.87,-7.0,8.0,-21.0,
8.415,-52.514706695092414,164.68939821520428,0.3969465648854962,-1.5190839694656488,0.42748091603053434,221.44081186537812,153.04933048651847,0.16030534351145037,0.9007633587786259,0.183206106870229,94.1063289737913,144.21452630824822,-0.2900763358778626,0.16793893129770993,0.35877862595419846,16.967446617245557,86.93880328925114,-0.08396946564885496,0.12213740458015267,-0.22900763358778625,104.0,90.0,6.0,9.0,12.0,121.33,88.62,0.0,15.0,-27.0,
8.454,-53.16621070904337,164.9416375808044,0.3969465648854962,-1.5190839694656488,0.42748091603053434,225.05040357518652,155.05318989641114,0.16030534351145037,0.9007633587786259,0.183206106870229,118.38424435099742,147.83920901179675,-0.2900763358778626,0.16793893129770993,0.35877862595419846,13.851256551374368,93.47107086539116,-0.08396946564885496,0.12213740458015267,-0.22900763358778625,103.0,93.0,-4.0,3.0,-9.0,120.28,89.64,-2.0,2.0,-16.0,
8.494,-53.71998912090169,165.15604104156455,0.3969465648854962,-1.5190839694656488,0.42748091603053434,228.11855652852364,156.75647039481993,0.16030534351145037,0.9007633587786259,0.183206106870229,139.02047242162263,150.920189309813,-0.2900763358778626,0.16793893129770993,0.35877862595419846,11.202494995383857,99.02349830511017,-0.08396946564885496,0.12213740458015267,-0.22900763358778625,103.0,96.0,-4.0,2.0,-6.0,119.99,90.1,-6.0,-1.0,-3.0,
8.534,-54.19070077098125,165.33828398321066,0.3969465648854962,-1.5190839694656488,0.42748091603053434,230.72648653886023,158.2042588184674,0.16030534351145037,0.9007633587786259,0.183206106870229,156.56126628165404,153.53902256312682,-0.2900763358778626,0.16793893129770993,0.35877862595419846,8.808612644163796,103.7615056236716,-0.08396946564885496,0.12213740458015267,-0.22900763358778625,104.0,99.0,-5.0,-3.0,-1.0,119.71,91.1,-11.0,0.0,0.0,
8.574,-54.590805673548886,165.49319048360985,0.3969465648854962,-1.5190839694656488,0.42748091603053434,232.9432270476463,159.43487897856772,0.16030534351145037,0.9007633587786259,0.183206106870229,119.86956335332144,155.62649740622874,-0.366412213740458,-0.04580152671755725,0.07633587786259542,6.773812645626745,107.78881184444882,-0.08396946564885496,0.12213740458015267,-0.22900763358778625,104.0,99.0,-5.0,-3.0,-1.0,119.37,91.92,-7.0,2.0,1.0,
8.614,-54.93089484073137,165.62486100894915,0.3969465648854962,-1.5190839694656488,0.42748091603053434,236.11466368629698,160.18208196896583,0.1297709923664122,0.7175572519083969,0.20610687022900764,88.68161586423872,157.40085102286537,-0.366412213740458,-0.04580152671755725,0.07633587786259542,5.044232646870252,111.21202213210945,-0.08396946564885496,0.12213740458015267,-0.22900763358778625,104.0,99.0,-5.0,-3.0,-1.0,119.62,92.52,-5.0,-5.0,9.0,
8.654,-58.680216661146346,142.61714538148146,0.07633587786259542,-0.4351145038167939,0.4351145038167939,238.81038482915005,160.81720451080423,0.1297709923664122,0.7175572519083969,0.20610687022900764,62.17186049851842,158.9090515970065,-0.366412213740458,-0.04580152671755725,0.07633587786259542,3.574089647927232,114.121750876621,-0.08396946564885496,0.12213740458015267,-0.22900763358778625,104.0,99.0,-5.0,-3.0,-1.0,119.65,93.4,-8.0,-3.0,17.0,
8.694,-61.86714020849907,123.06058709813392,0.07633587786259542,-0.4351145038167939,0.4351145038167939,241.10174780057514,161.35705867136687,0.1297709923664122,0.7175572519083969,0.20610687022900764,39.63856843765616,160.19102208502647,-0.366412213740458,-0.04580152671755725,0.07633587786259542,1.4806856791499876,116.70556398886544,-0.08396946564885496,0.12213740458015267,-0.22900763358778625,105.0,103.0,-11.0,-1.0,0.0,119.73,93.64,-4.0,-3.0,22.0,
8.734,-64.5760252237489,106.43751255728853,0.07633587786259542,-0.4351145038167939,0.4351145038167939,242.38507362254808,161.90106163715265,0.183206106870229,0.8931297709923665,0.16793893129770993,20.48527018592324,161.28069699984346,-0.366412213740458,-0.04580152671755725,0.07633587786259542,-0.2987076943106701,118.9018051342732,-0.08396946564885496,0.12213740458015267,-0.22900763358778625,105.0,103.0,-11.0,-1.0,0.0,120.04,93.06,1.0,-3.0,17.0,
8.774,-66.87857748671124,92.30789919756994,0.07633587786259542,-0.4351145038167939,0.4351145038167939,243.47590057122505,162.36346415807057,0.183206106870229,0.8931297709923665,0.16793893129770993,4.20496667195026,162.2069206774379,-0.366412213740458,-0.04580152671755725,0.07633587786259542,-1.6722117204768236,120.75020475302419,-0.08396946564885496,0.12213740458015267,-0.22900763358778625,106.0,104.0,-10.0,-5.0,3.0,119.87,92.78,1.0,-6.0,14.0,
8.813,-69.33221318230463,80.05241903936245,-0.015267175572519083,-0.32061068702290074,0.2748091603053435,244.4031034776005,162.7565063008508,0.183206106870229,0.8931297709923665,0.16793893129770993,-9.633291314926776,162.99421080339314,-0.366412213740458,-0.04580152671755725,0.07633587786259542,-2.8396901427180543,122.32134442896253,-0.08396946564885496,0.12213740458015267,-0.22900763358778625,106.0,104.0,-10.0,-5.0,3.0,119.56,93.05,-6.0,0.0,22.0,
8.853,-71.41780352355902,69.63526090488608,-0.015267175572519083,-0.32061068702290074,0.2748091603053435,245.19122594801962,163.090592122214,0.183206106870229,0.8931297709923665,0.16793893129770993,-21.395810603772254,163.6634074104551,-0.366412213740458,-0.04580152671755725,0.07633587786259542,-2.6990713340740986,123.5093333767838,-0.08396946564885496,0.12213740458015267,-0.22900763358778625,106.0,103.0,-2.0,-26.0,13.0,119.36,91.99,-3.0,1.0,23.0,
8.893,-73.19055531362525,60.780676490581165,-0.015267175572519083,-0.32061068702290074,0.2748091603053435,245.86113004787586,163.3745650703727,0.183206106870229,0.8931297709923665,0.16793893129770993,-31.39395199929091,164.23222452645777,-0.366412213740458,-0.04580152671755725,0.07633587786259542,-3.0077187358754656,124.57446543459419,-0.08396946564885496,0.12213740458015267,-0.22900763358778625,105.0,102.0,-5.0,-18.0,8.0,119.88,90.55,0.0,-1.0,21.0,
8.932,-74.69739433518154,53.254279738421985,-0.015267175572519083,-0.32061068702290074,0.2748091603053435,247.05090506206457,163.8074600031803,0.3511450381679389,0.8473282442748091,0.04580152671755725,-39.89237218548177,164.71571907506004,-0.366412213740458,-0.04580152671755725,0.07633587786259542,-3.2700690274066275,125.47982768373302,-0.08396946564885496,0.12213740458015267,-0.22900763358778625,105.0,102.0,-5.0,-18.0,8.0,119.64,89.82,-2.0,-7.0,35.0,
8.972,-75.9782075035044,46.85684249908668,-0.015267175572519083,-0.32061068702290074,0.2748091603053435,248.6266254599104,164.2566050367505,0.3435114503816794,0.7938931297709924,0.09923664122137404,-47.116029343744,165.12668944137198,-0.366412213740458,-0.04580152671755725,0.07633587786259542,-3.4930667752081153,126.24938559550102,-0.08396946564885496,0.12213740458015267,-0.22900763358778625,105.0,102.0,-5.0,-18.0,8.0,119.1,88.52,6.0,-8.0,27.0,
9.012,-76.88663731687679,41.383023037455246,-0.13740458015267176,-0.0916030534351145,0.5343511450381679,249.96598779807934,164.63837831528517,0.3435114503816794,0.7938931297709924,0.09923664122137404,-53.2561379282669,165.47601425273712,-0.366412213740458,-0.04580152671755725,0.07633587786259542,-3.68261486083938,126.90350982050383,-0.08396946564885496,0.12213740458015267,-0.22900763358778625,105.0,102.0,-5.0,-18.0,8.0,118.99,87.35,0.0,-7.0,10.0,
9.052,-77.65880265824333,36.73027649506852,-0.13740458015267176,-0.0916030534351145,0.5343511450381679,251.10444578552293,164.96288560203965,0.3435114503816794,0.7938931297709924,0.09923664122137404,-58.47523022511136,165.7729403423975,-0.366412213740458,-0.04580152671755725,0.07633587786259542,-4.1273482372420975,127.49638963972185,-0.08396946564885496,0.12213740458015267,-0.22900763358778625,100.0,100.0,-7.0,-21.0,0.0,118.11,86.5,-7.0,0.0,0.0,
9.092,-77.5074982010849,56.24279815235846,-0.04580152671755725,0.03816793893129771,0.4351145038167939,252.07213507485,165.23871679578096,0.3435114503816794,0.7938931297709924,0.09923664122137404,-62.91145867742915,166.02532751860883,-0.366412213740458,-0.04580152671755725,0.07633587786259542,-4.505371607184407,128.00033748605716,-0.08396946564885496,0.12213740458015267,-0.22900763358778625,100.0,100.0,-7.0,-21.0,0.0,117.53,85.62,-6.0,2.0,7.0,
9.132,-77.37888941250023,72.82844156105492,-0.04580152671755725,0.03816793893129771,0.4351145038167939,252.894670970778,165.47317331046108,0.3435114503816794,0.7938931297709924,0.09923664122137404,-66.68225286189929,166.23985661838844,-0.366412213740458,-0.04580152671755725,0.07633587786259542,-4.282197748134654,128.50198288196336,0.09923664122137404,-0.08396946564885496,0.15267175572519084,100.0,100.0,-7.0,-21.0,0.0,117.43,84.63,-4.0,-3.0,-2.0,
9.172,-77.26957194220326,86.9262384584469,-0.04580152671755725,0.03816793893129771,0.4351145038167939,253.5938264823168,165.67246134793916,0.3435114503816794,0.7938931297709924,0.09923664122137404,-69.88742791869888,166.42220635320112,-0.366412213740458,-0.04580152671755725,0.07633587786259542,-4.176902227668693,128.99703156890305,0.08396946564885496,-0.06870229007633588,-0.05343511450381679,100.0,100.0,-7.0,-21.0,0.0,117.07,83.86,-5.0,0.0,-5.0,
9.212,-77.17665209245084,98.90936582123008,-0.04580152671755725,0.03816793893129771,0.4351145038167939,254.1881086671248,165.84185617979554,0.3435114503816794,0.7938931297709924,0.09923664122137404,-72.61182671697853,166.5772036277919,-0.366412213740458,-0.04580152671755725,0.07633587786259542,-3.7811021036281396,129.26390422027572,0.08396946564885496,-0.06870229007633588,-0.05343511450381679,106.0,86.0,-3.0,-9.0,5.0,117.21,83.82,-3.0,5.0,-7.0,
9.251,-77.09767022016128,109.09502407959579,-0.04580152671755725,0.03816793893129771,0.4351145038167939,254.69324852421158,165.98584178687346,0.3435114503816794,0.7938931297709924,0.09923664122137404,-74.92756569551624,166.70895131119406,-0.366412213740458,-0.04580152671755725,0.07633587786259542,-3.5213320466592335,129.52928050124626,0.08396946564885496,-0.06870229007633588,-0.05343511450381679,102.0,90.0,-4.0,-10.0,0.0,116.63,83.52,-1.0,6.0,-7.0,
9.29,-77.03053562871516,117.75283359920664,-0.04580152671755725,0.03816793893129771,0.4351145038167939,254.7891172988247,142.66369791225637,0.17557251908396945,0.6412213740458015,0.25190839694656486,-76.8959438272733,166.8209368420859,-0.366412213740458,-0.04580152671755725,0.07633587786259542,-3.300527498235663,129.75485034007121,0.08396946564885496,-0.06870229007633588,-0.05343511450381679,102.0,90.0,-4.0,-10.0,0.0,116.6,83.68,-4.0,1.0,-3.0,
9.33,-76.97347122598595,125.11197169087586,-0.04580152671755725,0.03816793893129771,0.4351145038167939,254.87060575724584,122.83987561883183,0.17557251908396945,0.6412213740458015,0.25190839694656486,-78.56906523926679,166.91612454334395,-0.366412213740458,-0.04580152671755725,0.07633587786259542,-3.1128436320756285,129.94658470307243,0.08396946564885496,-0.06870229007633588,-0.05343511450381679,99.0,94.0,-4.0,-6.0,1.0,116.63,83.81,-2.0,-5.0,0.0,
9.369,-76.92496648366613,131.3672390687947,-0.04580152671755725,0.03816793893129771,0.4351145038167939,254.93987094690382,105.98962666942097,0.17557251908396945,0.6412213740458015,0.25190839694656486,-79.99121843946125,166.9970340894133,-0.366412213740458,-0.04580152671755725,0.07633587786259542,-2.7232344522316687,129.99389244934352,0.08396946564885496,-0.06870229007633588,-0.05343511450381679,97.0,95.0,-1.0,-7.0,4.0,116.23,83.61,-3.0,-8.0,-1.0,
9.407,-76.88373745269428,136.6842163400257,-0.04580152671755725,0.03816793893129771,0.4351145038167939,254.9987463581131,91.66691506242174,0.17557251908396945,0.6412213740458015,0.25190839694656486,-81.20004865962656,167.06580720357223,-0.366412213740458,-0.04580152671755725,0.07633587786259542,-2.2385998892128285,129.95694062483807,0.08396946564885496,-0.06870229007633588,-0.05343511450381679,96.0,96.0,1.0,-2.0,0.0,116.21,83.71,-3.0,-6.0,-6.0,
9.446,-76.8486927763682,141.20364702057205,-0.04580152671755725,0.03816793893129771,0.4351145038167939,255.048790457641,79.49261019647238,0.17557251908396945,0.6412213740458015,0.25190839694656486,-82.22755434676708,167.12426435060735,-0.366412213740458,-0.04580152671755725,0.07633587786259542,-1.9033938907225516,129.96411327842637,0.08396946564885496,-0.06870229007633588,-0.05343511450381679,96.0,97.0,0.0,-3.0,-1.0,116.17,84.17,0.0,-6.0,-4.0,
9.486,-76.4975318280706,145.1299078546241,0.015267175572519083,-0.5038167938931297,0.31297709923664124,255.0913279422397,69.14445106041543,0.17557251908396945,0.6412213740458015,0.25190839694656486,-83.1009341808365,167.1739529255872,-0.366412213740458,-0.04580152671755725,0.07633587786259542,-1.6184687920058165,129.97021003397643,0.08396946564885496,-0.06870229007633588,-0.05343511450381679,96.0,97.0,0.0,-3.0,-1.0,116.04,84.72,0.0,-5.0,-10.0,
9.525,-76.19904502201766,148.46722956356834,0.015267175572519083,-0.5038167938931297,0.31297709923664124,255.1274848041486,60.348515794767025,0.17557251908396945,0.6412213740458015,0.25190839694656486,-83.84330703979552,167.21618821432006,-0.366412213740458,-0.04580152671755725,0.07633587786259542,-1.529736986572114,130.05254781415744,0.08396946564885496,-0.06870229007633588,-0.05343511450381679,96.0,98.0,-2.0,-2.0,2.0,115.74,85.43,-1.0,-3.0,-8.0,
9.564,-75.94533123687265,151.30395301617094,0.015267175572519083,-0.5038167938931297,0.31297709923664124,255.15821813677115,52.87197081896589,0.17557251908396945,0.6412213740458015,0.25190839694656486,-84.47432396991067,167.252088209743,-0.366412213740458,-0.04580152671755725,0.07633587786259542,-1.3008604234779444,130.04537938934783,0.08396946564885496,-0.06870229007633588,-0.05343511450381679,96.0,99.0,0.0,0.0,3.0,115.52,86.15,0.0,-9.0,0.0,
9.603,-75.72967451949938,153.71516795088314,0.015267175572519083,-0.5038167938931297,0.31297709923664124,255.18434146950034,46.516907589534924,0.17557251908396945,0.6412213740458015,0.25190839694656486,-85.01068836050857,167.2826032058525,-0.366412213740458,-0.04580152671755725,0.07633587786259542,-0.876164119629799,129.92357258886557,0.08396946564885496,-0.06870229007633588,-0.05343511450381679,97.0,99.0,3.0,0.0,2.0,115.07,86.49,0.0,2.0,-7.0,
9.641,-75.54636630973211,155.7647006453885,0.015267175572519083,-0.5038167938931297,0.31297709923664124,254.93817242443902,64.66692067378594,0.061068702290076333,0.5801526717557252,0.2366412213740458,-85.46659809251676,167.30854095254557,-0.366412213740458,-0.04580152671755725,0.07633587786259542,-0.5151722613588753,129.82003680845563,0.08396946564885496,-0.06870229007633588,-0.05343511450381679,97.0,99.0,3.0,0.0,2.0,114.77,86.94,0.0,-8.0,0.0,
9.68,-75.39055433142993,157.50680343571807,0.015267175572519083,-0.5038167938931297,0.31297709923664124,254.72892873613694,80.0944317953993,0.061068702290076333,0.5801526717557252,0.2366412213740458,-85.85412136472374,167.3305880372347,-0.366412213740458,-0.04580152671755725,0.07633587786259542,0.09796974981589401,129.57811266258113,0.08396946564885496,-0.06870229007633588,-0.05343511450381679,98.0,100.0,7.0,-1.0,1.0,114.63,86.96,-3.0,-2.0,-1.0,
9.719,-75.25811414987307,158.9875908074982,0.015267175572519083,-0.5038167938931297,0.31297709923664124,254.55107160108014,93.20781624877065,0.061068702290076333,0.5801526717557252,0.2366412213740458,-86.18351614609966,167.34932805922043,-0.366412213740458,-0.04580152671755725,0.07633587786259542,0.3128415276699637,129.52639587111386,0.08396946564885496,-0.06870229007633588,-0.05343511450381679,99.0,101.0,3.0,-2.0,3.0,114.75,87.05,-5.0,0.0,-4.0,
9.758,-76.27094533626762,160.48852137923103,0.09923664122137404,-0.31297709923664124,0.3511450381679389,254.39989303628187,104.3541930341363,0.061068702290076333,0.5801526717557252,0.2366412213740458,-86.46350171026921,167.3652570779083,-0.366412213740458,-0.04580152671755725,0.07633587786259542,0.49548253884592297,129.4824365983667,0.08396946564885496,-0.06870229007633588,-0.05343511450381679,99.0,101.0,3.0,-2.0,3.0,114.75,87.29,-7.0,-7.0,-3.0,
9.797,-77.131851844703,161.76431236520392,0.09923664122137404,-0.31297709923664124,0.3511450381679389,254.27139125620334,113.82861330169712,0.061068702290076333,0.5801526717557252,0.2366412213740458,-86.70148943981332,167.378796743793,-0.366412213740458,-0.04580152671755725,0.07633587786259542,0.4205761731273871,129.5607848559257,0.08396946564885496,-0.06870229007633588,-0.05343511450381679,99.0,102.0,0.0,-4.0,0.0,114.65,87.45,-8.0,-2.0,-2.0,
9.835,-77.86362237687305,162.84873470328088,0.09923664122137404,-0.31297709923664124,0.3511450381679389,254.1621647431366,121.8818705291238,0.061068702290076333,0.5801526717557252,0.2366412213740458,-86.90377900992581,167.390305459795,-0.366412213740458,-0.04580152671755725,0.07633587786259542,0.2801723821908946,129.6659625792688,0.08396946564885496,-0.06870229007633588,-0.05343511450381679,99.0,101.0,-1.0,-6.0,-2.0,114.73,87.73,-5.0,-2.0,-4.0,
9.874,-78.4856273292176,163.7704936906463,0.09923664122137404,-0.31297709923664124,0.3511450381679389,254.71117620143715,128.8627645296204,0.09923664122137404,0.648854961832061,0.15267175572519084,-87.07572514452144,167.4000878683967,-0.366412213740458,-0.04580152671755725,0.07633587786259542,0.1608291598948759,129.75536364411045,0.08396946564885496,-0.06870229007633588,-0.05343511450381679,99.0,101.0,-1.0,-6.0,-2.0,114.66,88.04,-8.0,0.0,-6.0,
9.913,-78.77606230257723,164.55324652794806,0.08396946564885496,-0.366412213740458,0.3969465648854962,255.17783594099262,134.7965244300425,0.09923664122137404,0.648854961832061,0.15267175572519084,-87.22187935892771,167.40840291570814,-0.366412213740458,-0.04580152671755725,0.07633587786259542,0.05938742094326001,129.8313545492258,0.08396946564885496,-0.06870229007633588,-0.05343511450381679,99.0,101.0,-1.0,-6.0,-2.0,114.58,88.44,-7.0,3.0,-5.0,
9.952,-79.02293202993292,165.21858643965456,0.08396946564885496,-0.366412213740458,0.3969465648854962,255.57449671961479,139.8402203454013,0.09923664122137404,0.648854961832061,0.15267175572519084,-87.34611044117304,167.41547070592287,-0.366412213740458,-0.04580152671755725,0.07633587786259542,-0.3335271893147454,130.0501164207909,0.08396946564885496,-0.06870229007633588,-0.05343511450381679,100.0,101.0,-5.0,-4.0,-6.0,114.59,88.74,-5.0,0.0,-1.0,
9.992,-79.23277129818524,165.78412536460507,0.08396946564885496,-0.366412213740458,0.3969465648854962,255.91165838144363,144.12736187345627,0.09923664122137404,0.648854961832061,0.15267175572519084,-87.45170686108156,167.42147832760537,-0.366412213740458,-0.04580152671755725,0.07633587786259542,-0.5908933694928484,130.19756087168417,0.08396946564885496,-0.06870229007633588,-0.05343511450381679,100.0,101.0,-4.0,-3.0,-7.0,114.55,88.76,-1.0,-4.0,0.0,
10.031,-79.41113467619972,166.264833450813,0.08396946564885496,-0.366412213740458,0.3969465648854962,256.1982457939981,147.771432172303,0.09923664122137404,0.648854961832061,0.15267175572519084,-35.66624529491373,167.38016604491108,-0.33587786259541985,-0.022900763358778626,0.2900763358778626,-0.809654622644236,130.32288865494343,0.08396946564885496,-0.06870229007633588,-0.05343511450381679,100.0,101.0,-4.0,-3.0,-7.0,114.31,88.7,-1.0,0.0,-2.0,
10.07,-79.56274354751203,166.67343532408975,0.08396946564885496,-0.366412213740458,0.3969465648854962,256.4418450946695,150.86889192632273,0.09923664122137404,0.648854961832061,0.15267175572519084,8.35139703632894,167.34505060462095,-0.33587786259541985,-0.022900763358778626,0.2900763358778626,-0.9956016878229156,130.4294172707138,0.08396946564885496,-0.06870229007633588,-0.05343511450381679,101.0,102.0,-4.0,-5.0,-4.0,114.14,88.67,-2.0,0.0,-1.0,
10.109,-79.69161108812749,167.02074691637497,0.08396946564885496,-0.366412213740458,0.3969465648854962,256.6489045002401,153.5017327172395,0.09923664122137404,0.648854961832061,0.15267175572519084,45.74887395509924,167.33219477150064,-0.3511450381679389,-0.030534351145038167,0.31297709923664124,-1.1536566932247931,130.5199665941186,0.08396946564885496,-0.06870229007633588,-0.05343511450381679,101.0,102.0,-4.0,-5.0,-4.0,114.06,88.65,-2.0,-1.0,-1.0,
10.148,-79.80114849765063,167.31596176981742,0.08396946564885496,-0.366412213740458,0.3969465648854962,256.82490499497516,155.73964738951875,0.09923664122137404,0.648854961832061,0.15267175572519084,77.53672933605401,167.3212673133484,-0.3511450381679389,-0.030534351145038167,0.31297709923664124,-1.2037234487500799,130.54941110317944,-0.015267175572519083,0.007633587786259542,0.03816793893129771,101.0,102.0,-4.0,-5.0,-4.0,114.06,88.56,-3.0,-2.0,-1.0,
10.188,-80.16597285790228,167.6717857791272,0.03816793893129771,-0.29770992366412213,0.3969465648854962,256.97450541549995,157.6418748609561,0.09923664122137404,0.648854961832061,0.15267175572519084,104.55640640986553,167.31197897391897,-0.3511450381679389,-0.030534351145038167,0.31297709923664124,-1.2462801909465735,130.57443893588115,-0.015267175572519083,0.007633587786259542,0.03816793893129771,101.0,102.0,-4.0,-5.0,-4.0,114.13,88.63,-4.0,-1.0,-2.0,
10.227,-80.47607356411616,167.9742361870405,0.03816793893129771,-0.29770992366412213,0.3969465648854962,257.10166577294603,159.25876821167788,0.09923664122137404,0.648854961832061,0.15267175572519084,127.52313192260533,167.30408388540397,-0.3511450381679389,-0.030534351145038167,0.31297709923664124,-1.17088217279524,130.5419386284309,-0.015267175572519083,0.007633587786259542,0.03816793893129771,101.0,102.0,-2.0,-5.0,0.0,114.13,88.71,-5.0,0.0,0.0,
10.266,-80.80773093593176,168.21509808653866,0.04580152671755725,-0.29770992366412213,0.3969465648854962,257.2097520767752,160.63312755979138,0.09923664122137404,0.648854961832061,0.15267175572519084,147.04484860843417,167.29737306016622,-0.3511450381679389,-0.030534351145038167,0.31297709923664124,-1.1067938573666065,130.5143133670982,-0.015267175572519083,0.007633587786259542,0.03816793893129771,101.0,102.0,-2.0,-5.0,0.0,114.15,88.78,-5.0,-1.0,0.0,
10.304,-81.08963970197502,168.4198307011121,0.04580152671755725,-0.29770992366412213,0.3969465648854962,257.30162543502996,161.80133300568784,0.09923664122137404,0.648854961832061,0.15267175572519084,163.63830779138868,167.29166885871413,-0.3511450381679389,-0.030534351145038167,0.31297709923664124,-1.052318789252268,130.4908318949654,-0.015267175572519083,0.007633587786259542,0.03816793893129771,100.0,102.0,-2.0,-5.0,-1.0,114.08,88.93,-5.0,0.0,1.0,
10.343,-81.32926215311178,168.59385342349952,0.04580152671755725,-0.29770992366412213,0.3969465648854962,257.37971778954653,162.79430763469983,0.09923664122137404,0.648854961832061,0.15267175572519084,177.74274809690002,167.28682028747986,-0.3511450381679389,-0.030534351145038167,0.31297709923664124,-1.0060149813550803,130.4708726436525,-0.015267175572519083,0.007633587786259542,0.03816793893129771,100.0,102.0,-2.0,-6.0,-1.0,114.14,88.97,-4.0,0.0,1.0,
10.382,-81.53294123657804,168.74177273752883,0.04580152671755725,-0.29770992366412213,0.3969465648854962,257.44609629088563,163.63833606936004,0.09923664122137404,0.648854961832061,0.15267175572519084,189.73152235658463,167.28269900193072,-0.3511450381679389,-0.030534351145038167,0.31297709923664124,-1.0224494229840104,130.48079826098854,-0.015267175572519083,0.007633587786259542,0.03816793893129771,100.0,102.0,-3.0,-5.0,-1.0,114.12,89.03,-4.0,1.0,1.0,
10.422,-81.70606845752435,168.86750415445374,0.04580152671755725,-0.29770992366412213,0.3969465648854962,257.5025180170239,164.3557602388212,0.09923664122137404,0.648854961832061,0.15267175572519084,199.92198047731657,167.27919590921394,-0.3511450381679389,-0.030534351145038167,0.31297709923664124,-1.036418698368601,130.48923503572416,-0.015267175572519083,0.007633587786259542,0.03816793893129771,100.0,102.0,-3.0,-7.0,0.0,114.06,89.06,-4.0,0.0,1.0,
10.461,-81.85322659532872,168.97437585883992,0.04580152671755725,-0.29770992366412213,0.3969465648854962,257.55047648424136,164.9655707828632,0.09923664122137404,0.648854961832061,0.15267175572519084,208.5838698799387,167.2762182804047,-0.3511450381679389,-0.030534351145038167,0.31297709923664124,-1.048292582445503,130.49640629424943,-0.015267175572519083,0.007633587786259542,0.03816793893129771,100.0,102.0,-3.0,-7.0,1.0,114.03,89.06,-4.0,2.0,3.0,
10.5,-81.97831101246243,169.06521680756816,0.04580152671755725,-0.29770992366412213,0.3969465648854962,257.59124118137623,165.48390974529892,0.09923664122137404,0.648854961832061,0.15267175572519084,215.94647587216753,167.27368729591683,-0.3511450381679389,-0.030534351145038167,0.31297709923664124,-1.0583853839108697,130.50250186399592,-0.015267175572519083,0.007633587786259542,0.03816793893129771,101.0,101.0,-3.0,-8.0,0.0,114.08,88.97,-4.0,2.0,2.0,
10.539,-82.08463276702608,169.14243161398718,0.04580152671755725,-0.29770992366412213,0.3969465648854962,257.6258911739409,165.92449786336925,0.09923664122137404,0.648854961832061,0.15267175572519084,222.20469096556204,167.27153595910215,-0.3511450381679389,-0.030534351145038167,0.31297709923664124,-1.0669642651564313,130.50768309828044,-0.015267175572519083,0.007633587786259542,0.03816793893129771,101.0,102.0,-3.0,-8.0,0.0,114.06,88.89,-4.0,3.0,1.0,
10.578,-82.17500625840519,169.20806419944336,0.04580152671755725,-0.29770992366412213,0.3969465648854962,257.6553436676208,166.29899776372903,0.09923664122137404,0.648854961832061,0.15267175572519084,227.52417379494736,167.26970732280967,-0.3511450381679389,-0.030534351145038167,0.31297709923664124,-1.185794656443351,130.56584246119715,-0.015267175572519083,0.007633587786259542,0.03816793893129771,101.0,101.0,-5.0,-8.0,1.0,114.04,88.88,-3.0,2.0,1.0,
10.617,-82.25182372607743,169.26385189708108,0.04580152671755725,-0.29770992366412213,0.3969465648854962,257.68037828724874,166.61732267903486,0.09923664122137404,0.648854961832061,0.15267175572519084,232.04573419992488,167.26815298196107,-0.3511450381679389,-0.030534351145038167,0.31297709923664124,-1.2868004890372327,130.61527791967637,-0.015267175572519083,0.007633587786259542,0.03816793893129771,100.0,101.0,-5.0,-8.0,0.0,114.02,88.75,-3.0,1.0,1.0,
10.656,-82.31711857359883,169.31127144007314,0.04580152671755725,-0.29770992366412213,0.3969465648854962,257.6302515840015,166.87737900201006,0.11450381679389313,0.648854961832061,0.1984732824427481,235.88906054415577,167.26683179223974,-0.3511450381679389,-0.030534351145038167,0.31297709923664124,-1.372655446742032,130.6572980593837,-0.015267175572519083,0.007633587786259542,0.03816793893129771,100.0,101.0,-5.0,-8.0,0.0,113.98,88.72,-3.0,1.0,1.0,
10.695,-82.37261919399202,169.3515780516164,0.04580152671755725,-0.29770992366412213,0.3969465648854962,257.58764388624127,167.09842687653898,0.11450381679389313,0.648854961832061,0.1984732824427481,239.16927255541054,167.2183677737464,-0.37404580152671757,-0.0,0.20610687022900764,-1.4456321607911116,130.6930151781349,-0.015267175572519083,0.007633587786259542,0.03816793893129771,100.0,101.0,-5.0,-8.0,0.0,113.97,88.63,-3.0,1.0,1.0,
10.734,-82.41979472132624,169.3858386714282,0.04580152671755725,-0.29770992366412213,0.3969465648854962,257.43847280595395,167.29328052203422,0.09923664122137404,0.6259541984732825,0.21374045801526717,241.95745276497712,167.17717335802706,-0.37404580152671757,-0.0,0.20610687022900764,-1.5076623677328291,130.72337472907347,-0.015267175572519083,0.007633587786259542,0.03816793893129771,100.0,101.0,-5.0,-8.0,0.0,114.0,88.46,-3.0,0.0,2.0,
10.772,-82.45989391956032,169.4149601982682,0.04580152671755725,-0.29770992366412213,0.3969465648854962,257.3116773877097,167.45890612070517,0.09923664122137404,0.6259541984732825,0.21374045801526717,244.32740594310872,167.1421581046656,-0.37404580152671757,-0.0,0.20610687022900764,-1.5046282720819104,130.72230801789107,-0.015267175572519083,0.007633587786259542,0.03816793893129771,100.0,101.0,-4.0,-8.0,0.0,114.02,88.43,-5.0,1.0,0.0,
10.811,-82.49397823805928,169.43971349608222,0.04580152671755725,-0.29770992366412213,0.3969465648854962,257.20390128220214,167.59968787957547,0.09923664122137404,0.6259541984732825,0.21374045801526717,246.34186614452057,167.11239513930838,-0.37404580152671757,-0.0,0.20610687022900764,-1.5020492907786296,130.72140131338602,-0.015267175572519083,0.007633587786259542,0.03816793893129771,100.0,101.0,-4.0,-7.0,0.0,113.97,88.46,-4.0,1.0,1.0,
10.85,-82.5229499087834,169.46075379922414,0.04580152671755725,-0.29770992366412213,0.3969465648854962,257.11229159252065,167.71935237461523,0.09923664122137404,0.6259541984732825,0.21374045801526717,248.05415731572063,167.08709661875474,-0.37404580152671757,-0.0,0.20610687022900764,-1.4440785859940273,130.693747630262,-0.015267175572519083,0.007633587786259542,0.03816793893129771,100.0,101.0,-3.0,-7.0,1.0,114.02,88.34,-3.0,0.0,1.0,
10.889,-82.54757582889891,169.47863805689474,0.04580152671755725,-0.29770992366412213,0.3969465648854962,257.0344233562914,167.82106719539902,0.09923664122137404,0.6259541984732825,0.21374045801526717,249.50960481124068,167.06559287628414,-0.37404580152671757,-0.0,0.20610687022900764,-1.3948034869271153,130.67024199960662,-0.015267175572519083,0.007633587786259542,0.03816793893129771,99.0,101.0,-3.0,-7.0,0.0,114.08,88.3,-4.0,0.0,0.0,
10.928,-82.56850786099709,169.49383967591476,0.04580152671755725,-0.29770992366412213,0.3969465648854962,256.9682353554966,167.90752479306525,0.09923664122137404,0.6259541984732825,0.21374045801526717,250.74673518243273,167.04731469518413,-0.37404580152671757,-0.0,0.20610687022900764,-1.3529196527202403,130.65026221354952,-0.015267175572519083,0.007633587786259542,0.03816793893129771,99.0,101.0,-3.0,-8.0,0.0,114.12,88.23,-5.0,3.0,0.0,
10.967,-82.58630008828054,169.50676105208177,0.04580152671755725,-0.29770992366412213,0.3969465648854962,256.9119755548209,167.98101375108155,0.09923664122137404,0.6259541984732825,0.21374045801526717,251.79829599794598,167.03177824124913,-0.37404580152671757,-0.0,0.20610687022900764,-1.3730969643212099,130.66016237969572,-0.015267175572519083,0.007633587786259542,0.03816793893129771,99.0,101.0,-4.0,-7.0,0.0,114.07,88.22,-3.0,-1.0,1.0,
11.006,-82.60142348147147,169.51774422182373,0.04580152671755725,-0.29770992366412213,0.3969465648854962,256.86415472424665,168.0434793653954,0.09923664122137404,0.6259541984732825,0.21374045801526717,252.69212269113223,167.01857225540437,-0.37404580152671757,-0.0,0.20610687022900764,-1.390247679182034,130.66857752092,-0.015267175572519083,0.007633587786259542,0.03816793893129771,99.0,101.0,-4.0,-8.0,0.0,114.06,88.3,-3.0,0.0,0.0,
11.045,-82.61427836568377,169.5270799161044,0.04580152671755725,-0.29770992366412213,0.3969465648854962,256.8235070182585,168.09657513756216,0.09923664122137404,0.6259541984732825,0.21374045801526717,253.45187538034054,167.00734716743634,-0.37404580152671757,-0.0,0.20610687022900764,-1.4078907923015316,130.69048020017374,0.0,-0.007633587786259542,0.022900763358778626,99.0,101.0,-4.0,-8.0,0.0,114.13,88.28,-5.0,3.0,0.0,
11.083,-82.62520501726422,169.53501525624299,0.04580152671755725,-0.29770992366412213,0.3969465648854962,256.7889564681686,168.14170654390392,0.09923664122137404,0.6259541984732825,0.21374045801526717,254.09766516616762,166.9978058426635,-0.37404580152671757,-0.0,0.20610687022900764,-1.3663757172579798,130.67856382914636,0.0,-0.007633587786259542,0.022900763358778626,99.0,101.0,-3.0,-7.0,0.0,114.19,88.17,-3.0,0.0,1.0,
11.122,-82.63449267110761,169.54176029536077,0.04580152671755725,-0.29770992366412213,0.3969465648854962,256.75958850059214,168.1800682392944,0.09923664122137404,0.6259541984732825,0.21374045801526717,254.64658648412063,166.98969571660658,-0.37404580152671757,-0.0,0.20610687022900764,-1.3310879034709608,130.66843491377307,0.0,-0.007633587786259542,0.022900763358778626,99.0,101.0,-3.0,-7.0,1.0,114.17,88.1,-3.0,0.0,0.0,
11.161,-82.64238717687448,169.5474935786109,0.04580152671755725,-0.29770992366412213,0.3969465648854962,256.7346257281522,168.21267568037632,0.09923664122137404,0.6259541984732825,0.21374045801526717,255.1131696043807,166.98280210945822,-0.37404580152671757,-0.0,0.20610687022900764,-1.3576049829471193,130.69035898409885,0.0,-0.007633587786259542,0.022900763358778626,99.0,101.0,-4.0,-8.0,1.0,114.17,88.06,-4.0,0.0,0.0,
11.199,-82.64909750677633,169.5523668693735,0.04580152671755725,-0.29770992366412213,0.3969465648854962,256.7134073715782,168.24039200529594,0.09923664122137404,0.6259541984732825,0.21374045801526717,255.50976525660172,166.9769425433821,-0.37404580152671757,-0.0,0.20610687022900764,-1.3428859177193264,130.713030866534,0.0,-0.007633587786259542,0.007633587786259542,99.0,101.0,-4.0,-8.0,1.0,114.22,87.99,-4.0,1.0,0.0,
