time,pitch,roll,gyrx,gyry,gyrz,f1,f2,f3,f4,f5,f6,f7,g1,g2,g3
0.435,57.7,86.96,-3.24,-1.31,1.83,0.0,0.0,0.0,0.0,0.0,0.0,0.0,0.0,0.0,0.0,
0.458,62.299,94.03399999999999,-6.98,-0.21,2.88,0.0,0.0,0.0,0.0,0.0,0.0,0.0,0.0,0.0,0.0,
0.482,66.43990000000001,100.6814,-6.15,-0.5,0.21,0.0,0.0,0.0,0.0,0.0,0.0,0.0,0.0,0.0,0.0,
0.505,70.11198999999999,106.44914,-3.56,-1.31,-2.18,0.0,0.0,0.0,0.0,0.0,0.0,0.0,0.0,0.0,0.0,
0.529,73.19719900000001,111.417914,-3.25,-0.64,-1.24,0.0,0.0,0.0,0.0,0.0,0.0,0.0,0.0,0.0,0.0,
0.553,75.9537199,115.57779140000001,-4.63,-0.73,0.26,0.0,0.0,0.0,0.0,0.0,0.0,0.0,0.0,0.0,0.0,
0.577,78.07437199,119.09877913999999,-5.56,-1.11,1.39,0.0,0.0,0.0,0.0,0.0,0.0,0.0,0.0,0.0,0.0,
0.601,79.90643719900001,122.08787791399999,-5.98,-0.98,1.52,0.0,0.0,0.0,0.0,0.0,0.0,0.0,0.0,0.0,0.0,
0.624,81.58364371990001,124.4657877914,-3.39,-1.68,-0.33,0.0,0.0,0.0,0.0,0.0,0.0,0.0,0.0,0.0,0.0,
0.648,83.00236437199,126.77357877914,-2.84,-1.6,-0.66,0.0,0.0,0.0,0.0,0.0,0.0,0.0,0.0,0.0,0.0,
0.671,84.17023643719901,128.59735787791402,-4.61,-1.28,1.63,0.0,0.0,0.0,0.0,0.0,0.0,0.0,0.0,0.0,0.0,
0.696,85.3670236437199,130.0397357877914,-5.52,-3.13,-0.4,0.0,0.0,0.0,0.0,0.0,0.0,0.0,0.0,0.0,0.0,
0.719,86.251702364372,131.32697357877913,-9.28,-2.31,-0.7,0.0,0.0,0.0,0.0,0.0,0.0,0.0,0.0,0.0,0.0,
0.743,87.0421702364372,132.39169735787792,-8.85,-1.18,-1.63,0.0,0.0,0.0,0.0,0.0,0.0,0.0,0.0,0.0,0.0,
0.766,87.89521702364372,133.3621697357878,-5.18,-2.16,-2.45,0.0,0.0,0.0,0.0,0.0,0.0,0.0,0.0,0.0,0.0,
0.791,88.55652170236436,134.22421697357876,-5.64,-1.44,-1.07,0.0,0.0,0.0,0.0,0.0,0.0,0.0,0.0,0.0,0.0,
0.815,88.94665217023643,134.85042169735786,-5.87,-1.79,-1.47,0.0,0.0,0.0,0.0,0.0,0.0,0.0,0.0,0.0,0.0,
0.838,89.35466521702365,135.3990421697358,-6.58,-2.36,-2.84,0.0,0.0,0.0,0.0,0.0,0.0,0.0,0.0,0.0,0.0,
0.862,89.62046652170237,135.85890421697357,-6.6,-1.83,-2.31,0.0,0.0,0.0,0.0,0.0,0.0,0.0,0.0,0.0,0.0,
0.886,89.83604665217023,136.23789042169736,-4.62,-1.83,-1.73,0.0,0.0,0.0,0.0,0.0,0.0,0.0,0.0,0.0,0.0,
0.91,90.07360466521702,136.4827890421697,-4.32,-1.63,-1.15,0.0,0.0,0.0,0.0,0.0,0.0,0.0,0.0,0.0,0.0,
0.933,90.2233604665217,136.69627890421697,-5.32,-1.82,-1.11,0.0,0.0,0.0,0.0,0.0,0.0,0.0,0.0,0.0,0.0,
0.957,90.35533604665218,136.88862789042167,-6.76,-1.02,-0.41,0.0,0.0,0.0,0.0,0.0,0.0,0.0,0.0,0.0,0.0,
0.98,90.36853360466523,136.98886278904217,-5.11,-1.63,-1.73,0.0,0.0,0.0,0.0,0.0,0.0,0.0,0.0,0.0,0.0,
1.005,90.27985336046652,137.1788862789042,-4.85,-1.87,-2.11,0.0,0.0,0.0,0.0,0.0,0.0,0.0,0.0,0.0,0.0,
1.029,90.25298533604666,137.37788862789043,-5.64,-2.03,-2.42,0.0,0.0,0.0,0.0,0.0,0.0,0.0,0.0,0.0,0.0,
1.052,90.50229853360467,137.47878886278906,-4.15,-2.44,-2.89,0.0,0.0,0.0,0.0,0.0,0.0,0.0,0.0,0.0,0.0,
1.076,90.63522985336047,137.5338788862789,-3.88,-0.19,0.29,0.0,0.0,0.0,0.0,0.0,0.0,0.0,0.0,0.0,0.0,
1.1,90.77452298533606,137.6023878886279,-3.32,-0.85,1.16,0.0,0.0,0.0,0.0,0.0,0.0,0.0,0.0,0.0,0.0,
1.124,90.7164522985336,137.6992387888628,-3.77,-1.44,1.07,0.0,0.0,0.0,0.0,0.0,0.0,0.0,0.0,0.0,0.0,
1.147,90.82764522985336,137.74492387888628,-5.37,-1.41,-1.37,0.0,0.0,0.0,0.0,0.0,0.0,0.0,0.0,0.0,0.0,
1.171,90.78476452298533,137.82149238788864,-3.8,-0.06,-2.4,0.0,0.0,0.0,0.0,0.0,0.0,0.0,0.0,0.0,0.0,
1.195,90.82547645229853,138.00014923878888,-1.56,-0.83,-2.39,0.0,0.0,0.0,0.0,0.0,0.0,0.0,0.0,0.0,0.0,
1.219,90.87454764522985,138.02701492387888,-1.03,-1.05,-0.78,0.0,0.0,0.0,0.0,0.0,0.0,0.0,0.0,0.0,0.0,
1.243,90.771454764523,138.1197014923879,-3.1,-0.11,1.14,0.0,0.0,0.0,0.0,0.0,0.0,0.0,0.0,0.0,0.0,
1.266,90.63514547645231,138.21897014923877,-4.97,0.82,1.32,0.0,0.0,0.0,0.0,0.0,0.0,0.0,0.0,0.0,0.0,
1.29,90.65751454764522,138.22889701492386,-0.83,-0.55,0.05,0.0,0.0,0.0,0.0,0.0,0.0,0.0,0.0,0.0,0.0,
1.313,90.60575145476452,138.22988970149237,0.8,-1.44,-0.59,0.0,0.0,0.0,0.0,0.0,0.0,0.0,0.0,0.0,0.0,
1.337,90.44757514547646,138.21198897014924,-1.6,-0.4,-0.11,0.0,0.0,0.0,0.0,0.0,0.0,0.0,0.0,0.0,0.0,
1.361,90.33275751454764,138.12919889701493,-3.08,-1.24,-0.23,0.0,0.0,0.0,0.0,0.0,0.0,0.0,0.0,0.0,0.0,
1.385,90.31227575145478,138.1929198897015,-5.24,-1.27,0.28,0.0,0.0,0.0,0.0,0.0,0.0,0.0,0.0,0.0,0.0,
1.409,90.49922757514548,138.06429198897015,-2.38,-1.37,0.42,0.0,0.0,0.0,0.0,0.0,0.0,0.0,0.0,0.0,0.0,
1.432,90.58092275751456,137.85342919889703,0.05,-2.06,-1.18,0.0,0.0,0.0,0.0,0.0,0.0,0.0,0.0,0.0,0.0,
1.456,90.50809227575145,137.8323429198897,-6.05,-1.29,-0.56,0.0,0.0,0.0,0.0,0.0,0.0,0.0,0.0,0.0,0.0,
1.48,90.49180922757515,137.79423429198897,-9.89,-1.31,-0.74,0.0,0.0,0.0,0.0,0.0,0.0,0.0,0.0,0.0,0.0,
1.504,90.62518092275752,137.5834234291989,-8.13,-2.33,-0.99,0.0,0.0,0.0,0.0,0.0,0.0,0.0,0.0,0.0,0.0,
1.527,90.91751809227576,137.34634234291988,-6.08,-3.19,-1.71,0.0,0.0,0.0,0.0,0.0,0.0,0.0,0.0,0.0,0.0,
1.551,91.24375180922758,136.96263423429198,-9.87,-2.39,-1.24,0.0,0.0,0.0,0.0,0.0,0.0,0.0,0.0,0.0,0.0,
1.575,91.18637518092277,136.7082634234292,-21.33,1.68,0.36,0.0,0.0,0.0,0.0,0.0,0.0,0.0,0.0,0.0,0.0,
1.599,90.90163751809227,136.25082634234292,-28.11,3.85,1.47,0.0,0.0,0.0,0.0,0.0,1.0,0.0,0.0,0.0,0.0,
1.623,90.29716375180924,135.5120826342343,-23.95,1.05,-6.27,0.0,0.0,0.0,0.0,0.0,1.0,0.0,0.0,0.1,0.0,
1.646,89.82271637518092,134.55620826342343,-20.42,-4.01,-12.33,0.0,0.0,0.0,0.0,0.0,1.0,0.0,0.0,0.2,0.0,
1.671,89.77527163751807,132.35462082634234,-27.5,-3.49,-8.4,0.0,0.0,0.0,0.0,0.0,1.0,0.0,0.0,0.2,0.0,
1.694,90.1035271637518,129.89346208263424,-48.92,-0.89,1.43,0.0,0.0,0.0,0.0,0.0,1.0,0.0,0.0,0.1,0.0,
1.718,90.38835271637518,128.8463462082634,-79.27,6.67,13.76,0.0,0.0,0.0,0.0,0.0,1.0,0.0,0.0,0.0,0.0,
1.741,90.44383527163751,127.85963462082634,-84.61,9.63,17.01,0.0,0.0,0.0,0.0,0.0,1.0,0.0,0.0,0.0,0.0,
1.766,90.31438352716374,126.92396346208263,-66.99,4.96,7.82,0.0,0.0,0.0,0.0,0.0,1.0,0.0,0.0,0.0,0.0,
1.789,90.42743835271636,125.95739634620826,-48.96,-2.46,-6.35,0.0,0.0,0.0,0.0,0.0,1.0,0.0,0.0,0.0,0.0,
1.813,91.23074383527164,125.02373963462082,-53.77,-1.79,-4.03,0.0,0.0,0.0,0.0,0.0,1.0,0.0,0.0,0.0,0.0,
1.837,92.02207438352715,123.87737396346208,-68.57,5.68,7.66,0.0,0.0,0.0,0.0,0.0,1.0,0.0,0.0,0.0,0.0,
1.861,92.79420743835271,123.32173739634622,-77.3,8.82,15.26,0.0,0.0,0.0,0.0,0.0,1.0,0.0,0.0,0.0,0.0,
1.885,92.72742074383528,123.83317373963462,-76.05,10.88,16.59,0.0,0.0,0.0,0.0,0.0,1.0,0.0,0.0,0.0,0.0,
1.908,92.85574207438354,122.73231737396347,-54.12,3.71,6.49,0.0,0.0,0.0,0.0,0.0,1.0,0.0,0.0,0.0,0.0,
1.932,92.97657420743835,121.18223173739635,-40.25,-6.44,-9.67,0.0,0.0,0.0,0.0,0.0,1.0,0.0,0.0,0.0,0.0,
1.956,93.19565742074383,118.99322317373964,-48.75,0.67,-4.17,0.0,0.0,0.0,0.0,0.0,1.0,0.0,0.0,0.0,0.0,
1.98,93.37056574207438,116.44332231737395,-67.92,5.02,-1.83,0.0,0.0,0.0,0.0,0.0,1.0,0.0,0.0,0.0,0.0,
2.003,93.10005657420743,115.3423322317374,-87.36,13.98,3.97,0.0,0.0,0.0,0.0,0.0,1.0,0.0,0.0,0.0,0.0,
2.028,92.74900565742074,114.76423322317375,-81.47,17.9,4.69,0.0,0.0,0.0,0.0,0.0,1.0,0.0,0.0,0.0,0.0,
2.052,91.98490056574208,114.28342332231738,-58.4,5.66,-10.27,0.0,0.0,0.0,0.0,0.0,1.0,0.0,0.0,0.0,0.0,
2.076,91.3594900565742,113.21834233223173,-48.45,-5.44,-16.68,0.0,0.0,0.0,0.0,0.0,1.0,0.0,0.0,0.0,0.0,
2.1,90.78394900565742,111.49183423322317,-52.47,-6.67,-12.37,0.0,0.0,0.0,0.0,0.0,1.0,0.0,0.0,0.0,0.0,
2.124,90.61839490056573,109.18618342332232,-59.32,-6.73,-4.73,0.0,0.0,0.0,0.0,0.0,1.0,0.0,0.0,0.0,0.0,
2.148,90.35883949005657,107.90261834233223,-65.73,-4.86,1.98,0.0,0.0,0.0,0.0,0.0,1.0,0.0,0.0,0.0,0.0,
2.171,90.50388394900565,106.60426183423321,-72.17,0.63,12.16,0.0,0.0,0.0,0.0,0.0,1.0,0.0,0.0,0.0,0.0,
2.196,90.92338839490057,105.36742618342333,-68.24,0.02,11.75,0.0,0.0,0.0,0.0,0.0,1.0,0.0,0.0,0.0,0.0,
2.22,91.22633883949005,104.08274261834234,-59.55,-4.12,7.95,0.0,0.0,0.0,0.0,0.0,1.0,0.0,0.0,0.0,0.0,
2.243,91.13063388394902,102.52327426183423,-53.55,-9.06,2.01,0.0,0.0,0.0,0.0,0.0,1.0,0.0,0.0,0.0,0.0,
2.268,90.8420633883949,101.71032742618343,-56.05,-11.73,0.46,0.0,0.0,0.0,0.0,0.0,1.0,0.0,0.0,0.0,0.0,
2.291,90.5702063388395,101.53903274261833,-60.18,-11.44,2.53,0.0,0.0,0.0,0.0,0.0,1.0,0.0,0.1,0.0,0.0,
2.315,90.77702063388395,101.53090327426185,-56.49,-14.44,1.8,0.0,0.0,0.0,0.0,0.0,1.0,0.0,0.1,0.0,0.0,
2.339,91.39170206338838,99.64909032742618,-41.8,-19.18,-5.28,0.0,0.0,0.0,0.0,0.0,1.0,0.0,0.0,0.0,0.0,
2.363,91.95717020633883,97.84990903274262,-29.5,-20.88,-9.47,0.0,0.0,0.0,0.0,0.0,1.0,0.0,0.0,0.0,0.0,
2.386,91.87871702063389,96.88699090327427,-36.92,-1.0,-7.87,0.0,0.0,0.0,0.0,0.0,1.0,0.0,0.0,0.0,0.0,
2.411,91.4298717020634,100.25569909032743,-0.54,-26.51,-40.27,0.0,0.0,0.0,0.0,0.0,1.0,0.0,0.2,0.0,0.0,
2.435,89.75598717020634,104.21956990903274,-1.48,-10.47,6.33,0.0,0.0,0.0,0.0,0.0,1.0,0.0,1.08,0.0,0.0,
2.459,88.91359871702063,102.42895699090327,-28.82,4.34,13.56,0.0,0.0,0.0,0.0,0.0,0.0,0.0,0.78,0.0,0.0,
2.483,89.15335987170208,97.06589569909033,0.76,-7.32,-3.5,0.0,0.0,0.0,0.0,0.0,1.0,0.0,0.1,0.0,0.0,
2.506,90.29333598717021,95.72858956990903,17.76,0.31,2.38,0.0,0.0,0.0,0.0,0.0,1.0,0.0,0.29,0.0,0.0,
2.53,90.21833359871701,95.6668589569909,-7.17,-1.31,-0.36,0.0,0.0,0.0,0.0,0.0,1.0,0.0,0.29,0.0,0.0,
2.553,89.7608333598717,93.6626858956991,-20.3,1.63,2.34,0.0,0.0,0.0,0.0,0.0,1.0,0.0,0.49,0.0,0.0,
2.577,89.87708333598717,90.78026858956991,-11.95,-3.34,-3.51,0.0,0.0,0.0,0.0,0.0,1.0,0.0,0.39,0.0,0.0,
2.601,89.87070833359873,88.69202685895698,-6.89,-10.24,-9.19,0.0,0.0,0.0,0.0,0.0,1.0,0.0,0.39,0.0,0.0,
2.625,89.83407083335986,87.81720268589571,-13.95,-9.82,-8.22,0.0,0.0,0.0,0.0,0.0,1.0,0.0,0.49,0.0,0.0,
2.649,89.82140708333597,88.33272026858957,-17.73,-9.85,-3.57,0.0,0.0,0.0,0.0,0.0,0.0,0.0,0.78,0.0,0.0,
2.673,89.7751407083336,89.60827202685896,-13.02,-10.05,-2.31,0.0,0.0,0.0,0.0,0.0,1.0,0.0,0.98,0.0,0.0,
2.697,89.43751407083337,92.0128272026859,-8.52,-5.51,3.22,0.0,0.0,0.0,0.0,0.0,1.0,0.0,0.98,0.0,0.0,
2.721,88.85475140708334,93.9722827202686,-4.42,-1.15,4.42,0.0,0.0,0.0,0.0,0.0,1.0,0.0,0.78,0.0,0.0,
2.745,88.71547514070834,94.72622827202687,-6.31,0.37,1.37,0.0,0.0,0.0,0.0,0.0,1.0,0.0,0.78,0.0,0.0,
2.768,88.62954751407084,93.71262282720268,-8.21,0.76,2.81,0.0,0.0,0.0,0.0,0.0,1.0,0.0,0.78,0.0,0.0,
2.793,88.75595475140707,92.27926228272027,-8.54,0.61,4.37,0.0,0.0,0.0,0.0,0.0,1.0,0.0,0.69,0.0,0.0,
2.817,88.9485954751407,91.18192622827203,-6.29,-2.31,2.51,0.0,0.0,0.0,0.0,0.0,1.0,0.0,0.59,0.0,0.0,
2.84,89.13885954751407,90.16319262282721,-5.92,-3.78,0.8,0.0,0.0,0.0,0.0,0.0,1.0,0.0,0.59,0.0,0.0,
2.865,89.3828859547514,89.63831926228272,-6.46,-4.42,0.62,0.0,0.0,0.0,0.0,0.0,1.0,0.0,0.69,0.0,0.0,
2.888,89.43428859547514,89.75683192622826,-5.56,-2.44,2.89,0.0,0.0,0.0,0.0,0.0,1.0,0.0,0.78,0.0,0.0,
2.912,89.23242885954751,90.56068319262283,-2.03,-1.0,4.4,0.0,0.0,0.0,0.0,0.0,1.0,0.0,0.88,0.0,0.0,
2.936,88.89724288595475,92.31506831926228,1.58,1.52,5.68,0.0,0.0,0.0,0.0,0.0,0.0,0.0,0.88,0.0,0.0,
2.96,88.75572428859547,94.46150683192623,7.63,1.37,5.21,0.0,0.0,0.0,0.0,0.0,0.0,0.0,0.88,0.0,0.0,
2.983,88.53457242885955,93.56915068319262,-2.2,-2.85,4.31,0.0,0.0,0.0,0.0,0.0,0.0,0.0,0.98,0.0,0.0,
3.007,88.52145724288594,92.91291506831928,3.9,-5.08,0.21,0.0,0.0,0.0,0.0,0.0,0.0,0.0,0.59,0.0,0.0,
3.032,88.27714572428859,92.72129150683193,-1.68,-1.68,1.19,0.0,0.0,0.0,0.0,0.0,0.0,0.0,0.39,0.0,0.0,
3.055,88.06371457242886,92.46812915068318,-4.73,-2.12,1.36,0.0,0.0,0.0,0.0,0.0,0.0,0.0,0.39,0.0,0.0,
3.079,88.1593714572429,92.28081291506832,-4.18,0.85,3.67,0.0,0.0,0.0,0.0,0.0,0.0,0.0,0.29,0.0,0.0,
3.102,88.3669371457243,91.94708129150682,-2.31,1.95,5.08,0.0,0.0,0.0,0.0,0.0,0.0,0.0,0.29,0.0,0.0,
3.127,88.49569371457244,91.80570812915069,-1.8,-0.52,1.82,0.0,0.0,0.0,0.0,0.0,0.0,0.0,0.2,0.0,0.0,
3.15,88.53556937145726,91.62057081291506,-3.39,-0.15,0.34,0.0,0.0,0.0,0.0,0.0,0.0,0.0,0.29,0.0,0.0,
3.174,88.52155693714572,91.44005708129151,-3.06,0.47,1.59,0.0,0.0,0.0,0.0,0.0,0.0,0.0,0.29,0.0,0.0,
3.198,88.55615569371457,91.31400570812914,-2.66,-0.09,0.48,0.0,0.0,0.0,0.0,0.0,0.0,0.0,0.39,0.0,0.0,
3.222,88.67661556937145,91.28340057081292,-2.53,-0.87,-0.63,0.0,0.0,0.0,0.0,0.0,0.0,0.0,0.39,0.0,0.0,
3.246,88.78766155693714,91.1903400570813,-2.98,-0.92,-0.41,0.0,0.0,0.0,0.0,0.0,0.0,0.0,0.39,0.0,0.0,
3.27,88.72676615569371,91.15403400570814,-2.76,-1.13,-0.71,0.0,0.0,0.0,0.0,0.0,0.0,0.0,0.29,0.0,0.0,
3.294,88.81067661556938,90.9794034005708,-3.26,-0.4,-0.26,0.0,0.0,0.0,0.0,0.0,0.0,0.0,0.29,0.0,0.0,
3.318,88.88206766155695,90.96194034005707,-3.2,-0.71,-0.93,0.0,0.0,0.0,0.0,0.0,0.0,0.0,0.29,0.0,0.0,
3.342,88.9252067661557,90.95119403400571,-2.82,-0.94,-1.4,0.0,0.0,0.0,0.0,0.0,0.0,0.0,0.39,0.0,0.0,
3.365,88.92052067661558,90.91411940340058,-3.02,0.17,-1.35,0.0,0.0,0.0,0.0,0.0,0.0,0.0,0.39,0.0,0.0,
3.39,88.92005206766156,90.89241194034005,-3.56,0.2,0.07,0.0,0.0,0.0,0.0,0.0,0.0,0.0,0.39,0.0,0.0,
3.414,88.99200520676617,90.863241194034,-3.11,0.42,0.01,0.0,0.0,0.0,0.0,0.0,0.0,0.0,0.39,0.0,0.0,
3.437,89.01720052067661,90.8963241194034,-3.03,0.32,-0.24,0.0,0.0,0.0,0.0,0.0,0.0,0.0,0.49,0.0,0.0,
3.462,89.10072005206766,90.86363241194034,-3.18,0.36,0.19,0.0,0.0,0.0,0.0,0.0,0.0,0.0,0.39,0.0,0.0,
3.485,89.14507200520677,90.82436324119404,-3.35,-0.39,-0.22,0.0,0.0,0.0,0.0,0.0,0.0,0.0,0.39,0.0,0.0,
3.509,89.23950720052068,90.8204363241194,-3.29,-1.01,-0.1,0.0,0.0,0.0,0.0,0.0,0.0,0.0,0.49,0.0,0.0,
3.533,89.32095072005207,90.77504363241194,-3.27,-1.6,-0.28,0.0,0.0,0.0,0.0,0.0,0.0,0.0,0.49,0.0,0.0,
3.557,89.24809507200521,90.77950436324119,-3.73,-2.02,0.4,0.0,0.0,0.0,0.0,0.0,0.0,0.0,0.59,0.0,0.0,
3.58,89.14180950720052,90.75295043632411,-2.74,-2.59,-1.02,0.0,0.0,0.0,0.0,0.0,0.0,0.0,0.49,0.0,0.0,
3.605,89.05918095072005,90.7232950436324,-2.8,-1.71,-1.02,0.0,0.0,0.0,0.0,0.0,0.0,0.0,0.59,0.0,0.0,
3.629,89.10491809507201,90.77432950436324,-3.24,-1.13,-0.5,0.0,0.0,0.0,0.0,0.0,1.0,0.0,0.59,0.0,0.0,
3.653,89.06449180950722,90.76143295043633,-3.44,-1.25,-0.28,0.0,0.0,0.0,0.0,0.0,1.0,0.0,0.49,0.0,0.0,
3.677,89.04244918095073,90.76014329504365,-3.18,-0.93,-0.04,0.0,0.0,0.0,0.0,0.0,1.0,0.0,0.49,0.0,0.0,
3.7,89.07624491809507,90.76001432950437,-3.18,-1.05,0.18,0.0,0.0,0.0,0.0,0.0,1.0,0.0,0.49,0.0,0.0,
3.725,89.1786244918095,90.74200143295043,-2.77,-1.29,-0.37,0.0,0.0,0.0,0.0,0.0,1.0,0.0,0.49,0.0,0.0,
3.748,89.17086244918094,90.75820014329506,-2.95,-1.02,-0.27,0.0,0.0,0.0,0.0,0.0,1.0,0.0,0.49,0.0,0.0,
3.773,89.09808624491811,90.7688200143295,-3.18,-0.66,-0.06,0.0,0.0,0.0,0.0,0.0,1.0,0.0,0.59,0.0,0.0,
3.796,89.1538086244918,90.78788200143296,-3.3,-1.21,-0.02,0.0,0.0,0.0,0.0,0.0,0.0,0.0,0.59,0.0,0.0,
3.821,89.24938086244919,90.77178820014329,-3.25,-1.08,-0.37,0.0,0.0,0.0,0.0,0.0,1.0,0.0,0.49,0.0,0.0,
3.845,89.22293808624492,90.81517882001432,-3.31,-1.38,0.26,0.0,0.0,0.0,0.0,0.0,1.0,0.0,0.59,0.0,0.0,
3.868,89.26529380862449,90.87351788200144,-2.96,-1.34,-0.21,0.0,0.0,0.0,0.0,0.0,1.0,0.0,0.59,0.0,0.0,
3.893,89.24252938086245,90.87035178820014,-3.21,-1.13,-0.31,0.0,0.0,0.0,0.0,0.0,1.0,0.0,0.59,0.0,0.0,
3.916,89.23125293808624,90.77103517882003,-2.98,-1.47,-0.42,0.0,0.0,0.0,0.0,0.0,1.0,0.0,0.49,0.0,0.0,
3.941,89.25712529380863,90.734103517882,-2.69,-1.33,-0.32,0.0,0.0,0.0,0.0,0.0,1.0,0.0,0.59,0.0,0.0,
3.964,89.27771252938086,90.7394103517882,-2.88,-1.16,0.11,0.0,0.0,0.0,0.0,0.0,1.0,0.0,0.49,0.0,0.0,
3.988,89.29777125293809,90.71294103517882,-3.22,-1.53,-0.17,0.0,0.0,0.0,0.0,0.0,0.0,0.0,0.59,0.0,0.0,
4.013,89.28177712529381,90.70129410351788,-3.15,-2.24,-0.5,0.0,0.0,0.0,0.0,0.0,0.0,0.0,0.49,0.0,0.0,
4.036,89.21717771252938,90.73612941035178,-3.41,-1.48,0.4,0.0,0.0,0.0,0.0,0.0,0.0,0.0,0.59,0.0,0.0,
4.06,89.15671777125294,90.73961294103518,-2.93,-1.36,-0.44,0.0,0.0,0.0,0.0,0.0,1.0,0.0,0.59,0.0,0.0,
4.084,89.1146717771253,90.73096129410352,-3.07,-1.66,-0.3,0.0,0.0,0.0,0.0,0.0,1.0,0.0,0.59,0.0,0.0,
4.108,89.10146717771252,90.75709612941036,-2.96,-1.8,0.02,0.0,0.0,0.0,0.0,0.0,1.0,0.0,0.59,0.0,0.0,
4.132,89.06414671777127,90.71470961294102,-2.66,-2.29,-0.53,0.0,0.0,0.0,0.0,0.0,1.0,0.0,0.59,0.0,0.0,
4.156,89.02441467177712,90.7374709612941,-3.07,-1.53,-0.11,0.0,0.0,0.0,0.0,0.0,1.0,0.0,0.69,0.0,0.0,
4.179,89.03844146717772,90.77574709612941,-2.82,-1.75,-0.41,0.0,0.0,0.0,0.0,0.0,1.0,0.0,0.59,0.0,0.0,
4.204,89.09384414671777,90.74357470961294,-2.57,-1.66,-0.73,0.0,0.0,0.0,0.0,0.0,1.0,0.0,0.49,0.0,0.0,
4.228,89.06338441467179,90.79435747096129,-3.01,-1.41,-0.57,0.0,0.0,0.0,0.0,0.0,1.0,0.0,0.69,0.0,0.0,
4.252,88.99733844146718,90.80843574709613,-3.44,-0.64,-0.31,0.0,0.0,0.0,0.0,0.0,1.0,0.0,0.69,0.0,0.0,
4.276,89.0177338441467,90.77384357470962,-3.21,-0.83,-0.6,0.0,0.0,0.0,0.0,0.0,1.0,0.0,0.69,0.0,0.0,
4.299,89.00177338441468,90.76138435747097,-2.85,-0.44,-0.88,0.0,0.0,0.0,0.0,0.0,1.0,0.0,0.69,0.0,0.0,
4.324,89.00917733844148,90.78713843574711,-3.31,-0.4,-0.28,0.0,0.0,0.0,0.0,0.0,1.0,0.0,0.69,0.0,0.0,
4.347,89.04591773384414,90.76271384357472,-3.45,-0.55,-0.56,0.0,0.0,0.0,0.0,0.0,1.0,0.0,0.69,0.0,0.0,
4.372,89.10359177338441,90.76927138435747,-2.97,-1.31,-0.69,0.0,0.0,0.0,0.0,0.0,1.0,0.0,0.69,0.0,0.0,
4.396,89.06435917733845,90.78792713843576,-3.11,-1.24,-0.31,0.0,0.0,0.0,0.0,0.0,1.0,0.0,0.78,0.0,0.0,
4.42,89.09643591773384,90.77179271384357,-3.18,-1.14,0.03,0.0,0.0,0.0,0.0,0.0,1.0,0.0,0.78,0.0,0.0,
4.444,89.08164359177337,90.73417927138436,-3.15,-1.2,-1.31,0.0,0.0,0.0,0.0,0.0,1.0,0.0,0.78,0.0,0.0,
4.467,89.10716435917733,90.73041792713845,-3.34,-1.23,-0.97,0.0,0.0,0.0,0.0,0.0,1.0,0.0,0.78,0.0,0.0,
4.492,89.09171643591775,90.74804179271383,-2.91,-0.89,-0.69,0.0,0.0,0.0,0.0,0.0,1.0,0.0,0.88,0.0,0.0,
4.515,89.08117164359177,90.77680417927138,-2.86,-1.02,-0.23,0.0,0.0,0.0,0.0,0.0,1.0,0.0,0.78,0.0,0.0,
4.54,89.14311716435918,90.82468041792714,-2.84,-1.24,-0.08,0.0,0.0,0.0,0.0,0.0,1.0,0.0,0.78,0.0,0.0,
4.563,89.16731171643592,90.81146804179271,-2.83,-1.44,-0.24,0.0,0.0,0.0,0.0,0.0,1.0,0.0,0.88,0.0,0.0,
4.587,89.20573117164359,90.78314680417927,-3.08,-1.24,0.17,0.0,0.0,0.0,0.0,0.0,1.0,0.0,0.88,0.0,0.0,
4.612,89.21857311716435,90.74431468041792,-3.18,-0.98,0.01,0.0,0.0,0.0,0.0,0.0,1.0,0.0,0.88,0.0,0.0,
4.635,89.21085731171644,90.76743146804179,-3.15,-1.02,-0.08,0.0,0.0,0.0,1.0,0.0,1.0,0.0,0.78,0.0,0.0,
4.659,89.23708573117165,90.80574314680418,-3.15,-1.03,-0.02,0.0,0.0,0.0,1.0,0.0,1.0,0.0,0.78,0.0,0.0,
4.683,89.23070857311717,90.83657431468042,-3.08,-1.31,-0.1,0.0,0.0,0.0,1.0,0.0,1.0,0.0,0.78,0.0,0.0,
4.707,89.17607085731171,90.84865743146804,-2.85,-1.53,-0.33,0.0,0.0,0.0,1.0,0.0,1.0,0.0,0.88,0.0,0.0,
4.731,89.16160708573116,90.8228657431468,-2.95,-1.15,0.21,0.0,0.0,0.0,1.0,0.0,1.0,0.0,0.78,0.0,0.0,
4.755,89.11516070857311,90.79328657431469,-3.1,-0.95,0.05,0.0,0.0,0.0,1.0,0.0,1.0,0.0,0.69,0.0,0.0,
4.779,89.0745160708573,90.75432865743147,-3.05,-0.86,0.26,0.0,0.0,0.0,1.0,0.0,1.0,0.0,0.69,0.0,0.0,
4.803,89.05245160708573,90.71443286574313,-3.16,-0.77,0.15,0.0,0.0,0.0,1.0,0.0,1.0,0.0,0.69,0.0,0.0,
4.827,89.14024516070859,90.7374432865743,-2.82,-0.83,-0.28,0.0,0.0,0.0,1.0,0.0,1.0,0.0,0.78,0.0,0.0,
4.85,89.13102451607085,90.74874432865742,-3.03,-1.19,-0.28,0.0,0.0,0.0,1.0,0.0,1.0,0.0,0.78,0.0,0.0,
4.875,89.11210245160709,90.74087443286574,-3.1,-1.82,-0.61,0.0,0.0,0.0,1.0,0.0,1.0,0.0,0.78,0.0,0.0,
4.898,89.1102102451607,90.75808744328658,-3.25,-1.69,-0.21,0.0,0.0,0.0,1.0,0.0,1.0,0.0,0.78,0.0,0.0,
4.923,89.15502102451606,90.75980874432867,-3.15,-1.64,-0.11,0.0,0.0,0.0,1.0,0.0,1.0,0.0,0.88,0.0,0.0,
4.946,89.11450210245161,90.72398087443287,-2.98,-1.22,-0.02,0.0,0.0,0.0,1.0,0.0,1.0,0.0,0.78,0.0,0.0,
4.971,89.14645021024518,90.7833980874433,-3.0,-1.44,-0.16,0.0,0.0,0.0,1.0,0.0,1.0,0.0,0.88,0.0,0.0,
4.995,89.13164502102451,90.81633980874433,-3.21,-0.83,0.39,0.0,0.0,0.0,1.0,0.0,1.0,0.0,0.88,0.0,0.0,
5.018,89.19316450210245,90.82863398087443,-3.05,-1.43,0.59,0.0,0.0,0.0,1.0,0.0,1.0,0.0,0.78,0.0,0.0,
5.043,89.23531645021025,90.85686339808744,-3.31,-0.98,0.24,0.0,0.0,0.0,1.0,0.0,1.0,0.0,0.78,0.0,0.0,
5.066,89.22153164502103,90.85068633980875,-3.33,-1.08,0.25,0.0,0.0,0.0,1.0,0.0,1.0,0.0,0.88,0.0,0.0,
5.09,89.22915316450211,90.81406863398087,-3.19,-1.12,0.17,0.0,0.0,0.0,1.0,0.0,1.0,0.0,0.78,0.0,0.0,
5.114,89.2929153164502,90.87340686339809,-3.1,-1.04,-0.2,0.0,0.0,0.0,1.0,0.0,1.0,0.0,0.88,0.0,0.0,
5.138,89.25429153164502,90.8883406863398,-3.17,-1.17,-0.19,0.0,0.0,0.0,1.0,0.0,1.0,0.0,0.88,0.0,0.0,
5.161,89.2684291531645,90.84483406863399,-2.95,-0.86,-0.49,0.0,0.0,0.0,1.0,0.0,1.0,0.0,0.88,0.0,0.0,
5.186,89.17084291531646,90.9034834068634,-2.84,-0.42,-0.05,0.0,0.0,0.0,1.0,0.0,1.0,0.0,0.88,0.0,0.0,
5.21,89.13408429153165,90.92734834068634,-3.3,-0.71,-0.15,0.0,0.0,0.0,1.0,0.0,1.0,0.0,0.88,0.0,0.0,
5.234,89.15740842915316,90.92073483406864,-2.53,-0.48,-0.41,0.0,0.0,0.0,1.0,0.0,1.0,0.0,0.88,0.0,0.0,
5.258,89.15974084291531,90.94707348340687,-2.92,-0.92,-0.45,0.0,0.0,0.0,1.0,0.0,1.0,0.0,0.88,0.0,0.0,
5.281,89.25897408429154,90.9317073483407,-3.33,-1.59,-0.76,0.0,0.0,0.0,1.0,0.0,1.0,0.0,0.98,0.0,0.0,
5.306,89.21489740842915,90.95717073483405,-3.23,-1.63,-0.49,0.0,0.0,0.0,1.0,0.0,1.0,0.0,0.88,0.0,0.0,
5.329,89.19248974084292,90.95971707348339,-3.07,-1.29,-0.55,0.0,0.0,0.0,1.0,0.0,1.0,0.0,0.88,0.0,0.0,
5.354,89.13624897408428,90.97797170734835,-3.06,-1.12,-0.34,0.0,0.0,0.0,1.0,0.0,1.0,0.0,0.88,0.0,0.0,
5.378,89.13062489740842,90.97079717073484,-3.27,-1.15,-0.34,0.0,0.0,0.0,1.0,0.0,1.0,0.0,0.88,0.0,0.0,
5.401,89.13906248974084,90.94307971707349,-2.84,-0.87,-0.47,0.0,0.0,1.0,1.0,0.0,1.0,0.0,0.98,0.0,0.0,
5.426,89.13990624897409,90.97630797170736,-2.87,-0.78,-0.86,0.0,0.0,1.0,1.0,0.0,1.0,0.0,0.98,0.0,0.0,
5.449,89.13099062489741,91.00663079717074,-3.07,-0.52,-0.47,0.0,0.0,1.0,1.0,0.0,1.0,0.0,0.88,0.0,0.0,
5.474,89.13909906248973,90.99166307971706,-2.96,-0.75,-0.34,0.0,0.0,1.0,1.0,0.0,1.0,0.0,0.98,0.0,0.0,
5.497,89.18490990624898,91.0351663079717,-3.37,-0.63,-0.35,0.0,0.0,1.0,1.0,0.0,1.0,0.0,0.88,0.0,0.0,
5.522,89.12649099062492,91.03051663079718,-3.1,-0.6,-0.2,0.0,0.0,1.0,1.0,0.0,1.0,0.0,0.98,0.0,0.0,
5.545,89.19264909906249,90.9670516630797,-3.05,-1.03,-0.38,0.0,0.0,1.0,1.0,0.0,1.0,0.0,0.98,0.0,0.0,
5.569,89.33426490990624,90.96970516630797,-3.23,-1.17,0.06,0.0,0.0,1.0,1.0,0.0,1.0,0.0,0.98,0.0,0.0,
5.594,89.30342649099063,90.9789705166308,-3.21,-0.83,0.06,0.0,0.0,1.0,1.0,0.0,1.0,0.0,0.98,0.0,0.0,
5.617,89.30934264909907,90.97989705166309,-3.21,-1.34,-0.58,0.0,0.0,1.0,1.0,0.0,1.0,0.0,0.98,0.0,0.0,
5.641,89.36393426490991,91.00698970516632,-3.34,-1.4,-0.31,0.0,0.0,1.0,1.0,0.0,1.0,0.0,0.98,0.0,0.0,
5.665,89.360393426491,90.99169897051662,-3.45,-1.39,-0.05,0.0,0.0,1.0,1.0,0.0,1.0,0.0,0.98,0.0,0.0,
5.689,89.37803934264909,90.99916989705167,-2.85,-1.5,-0.66,0.0,0.0,1.0,1.0,0.0,1.0,0.0,0.98,0.0,0.0,
5.713,89.34380393426491,90.98191698970517,-3.13,-1.16,-0.62,0.0,0.0,1.0,1.0,0.0,1.0,0.0,0.98,0.0,0.0,
5.737,89.3313803934265,90.95319169897051,-3.35,-1.15,-0.21,0.0,0.0,1.0,1.0,0.0,1.0,0.0,0.98,0.0,0.0,
5.762,89.31213803934266,91.00431916989706,-3.25,-0.25,0.49,0.0,0.0,1.0,1.0,0.0,1.0,0.0,0.98,0.0,0.0,
5.785,89.29221380393426,90.98243191698971,-3.1,-0.15,0.33,0.0,0.0,1.0,1.0,0.0,1.0,0.0,0.98,0.0,0.0,
5.809,89.29022138039343,90.97124319169897,-3.06,-0.63,0.12,0.0,0.0,1.0,1.0,0.0,1.0,0.0,0.98,0.0,0.0,
5.832,89.33502213803935,90.9431243191699,-2.89,-1.06,-0.24,0.0,0.0,1.0,1.0,0.0,1.0,0.0,0.98,0.0,0.0,
5.857,89.39350221380394,90.92231243191699,-2.95,-1.47,-0.41,0.0,0.0,1.0,1.0,0.0,1.0,0.0,0.98,0.0,0.0,
5.88,89.4173502213804,90.8752312431917,-3.14,-2.21,-0.74,0.0,0.0,1.0,1.0,0.0,1.0,0.0,0.98,0.0,0.0,
5.905,89.41073502213803,90.91552312431918,-3.4,-1.92,-0.39,0.0,0.0,1.0,1.0,0.0,1.0,0.0,0.98,0.0,0.0,
5.928,89.3650735022138,90.87455231243192,-3.08,-1.92,-0.95,0.0,0.0,1.0,1.0,0.0,1.0,0.0,0.98,0.0,0.0,
5.953,89.29750735022138,90.84345523124318,-3.21,-1.83,-0.45,0.0,0.0,1.0,1.0,0.0,1.0,0.0,0.98,0.0,0.0,
5.977,89.27275073502214,90.91234552312432,-3.04,-1.22,-0.15,0.0,0.0,1.0,1.0,0.0,1.0,0.0,0.88,0.0,0.0,
6.0,89.25227507350222,90.91023455231243,-3.24,-0.58,0.02,0.0,0.0,1.0,1.0,0.0,1.0,0.0,0.88,0.0,0.0,
6.025,89.28622750735022,90.90102345523124,-3.11,-0.62,0.53,0.0,0.0,1.0,1.0,0.0,1.0,0.0,0.98,0.0,0.0,
6.048,89.28962275073502,90.90010234552312,-2.85,-0.77,0.04,0.0,0.0,1.0,1.0,0.0,1.0,0.0,0.88,0.0,0.0,
6.072,89.32596227507351,90.93601023455231,-2.93,-0.98,0.0,0.0,0.0,1.0,1.0,0.0,1.0,0.0,0.98,0.0,0.0,
6.096,89.35659622750735,90.87660102345524,-3.21,-1.21,-0.37,0.0,0.0,1.0,1.0,0.0,1.0,0.0,0.98,0.0,0.0,
6.12,89.34165962275074,90.85266010234552,-3.15,-0.81,-0.01,0.0,0.0,1.0,1.0,0.0,1.0,0.0,0.98,0.0,0.0,
6.145,89.34016596227508,90.89526601023455,-3.22,-0.98,-0.07,0.0,0.0,1.0,1.0,0.0,1.0,0.0,0.98,0.0,0.0,
6.168,89.35801659622751,90.87252660102345,-3.21,-1.33,-0.31,0.0,0.0,1.0,1.0,0.0,1.0,0.0,0.88,0.0,0.0,
6.192,89.26080165962276,90.93325266010234,-5.16,-0.53,-0.07,0.0,0.0,1.0,0.0,0.0,1.0,0.0,0.98,0.0,0.0,
6.216,89.22408016596228,90.86732526601023,-4.57,1.13,1.71,0.0,0.0,1.0,0.0,0.0,1.0,0.0,0.88,0.0,0.0,
6.24,89.30140801659623,90.67173252660103,-0.62,1.37,1.54,0.0,0.0,1.0,0.0,0.0,1.0,0.0,0.78,0.0,0.0,
6.263,89.37214080165961,90.7151732526601,0.05,2.53,0.21,0.0,0.0,1.0,0.0,0.0,0.0,0.0,0.78,0.0,0.0,
6.287,89.38821408016597,90.74651732526601,-0.41,2.17,-1.08,0.0,0.0,0.0,0.0,0.0,0.0,0.0,0.78,0.0,0.0,
6.311,89.3628214080166,90.68665173252661,-0.59,3.17,-1.47,0.0,0.0,0.0,0.0,0.0,0.0,0.0,0.78,0.0,0.0,
6.335,89.52228214080168,90.68966517325265,-0.29,3.7,-0.63,0.0,0.0,0.0,0.0,0.0,0.0,0.0,0.78,0.0,0.0,
6.359,89.83522821408017,90.70796651732526,0.75,1.85,-2.67,0.0,0.0,0.0,0.0,0.0,0.0,0.0,0.78,0.0,0.0,
6.383,90.11852282140802,90.76379665173252,-0.18,-0.01,-1.75,0.0,0.0,0.0,0.0,0.0,0.0,0.0,0.78,0.0,0.0,
6.407,90.20985228214082,90.90437966517325,-2.61,-0.2,-1.79,0.0,0.0,0.0,0.0,0.0,0.0,0.0,0.69,0.0,0.0,
6.43,90.1919852282141,91.05343796651732,-3.61,-0.57,-1.07,0.0,0.0,0.0,0.0,0.0,0.0,0.0,0.69,0.0,-2627.61,
6.455,90.37919852282143,91.34734379665173,-2.7,-5.42,-3.87,0.0,0.0,0.0,0.0,0.0,0.0,0.0,0.78,0.0,0.0,
6.479,90.33491985228214,91.13373437966517,-4.0,-4.32,-1.18,0.0,0.0,0.0,0.0,0.0,0.0,0.0,0.78,0.0,0.0,
6.503,90.20449198522822,91.05837343796651,-2.56,-5.7,-4.08,0.0,0.0,0.0,0.0,0.0,0.0,0.0,0.88,0.0,0.0,
6.526,90.13744919852283,91.13183734379665,-1.69,-5.39,-5.02,0.0,0.0,0.0,0.0,0.0,0.0,0.0,0.98,0.0,0.0,
6.551,89.97774491985228,91.17518373437967,-2.24,-3.34,-4.31,0.0,0.0,0.0,0.0,0.0,0.0,0.0,1.08,0.0,0.0,
6.575,89.63777449198523,91.08951837343795,0.48,-2.02,-1.31,0.0,0.0,0.0,1.0,0.0,0.0,0.0,1.18,0.0,0.0,
6.598,89.85577744919851,91.6839518373438,3.76,-3.34,3.15,0.0,0.0,0.0,1.0,0.0,0.0,0.0,1.18,0.0,0.0,
6.623,89.67057774491985,91.76139518373438,8.4,-2.69,10.64,0.0,0.0,0.0,0.0,0.0,0.0,0.0,0.88,0.0,0.0,
6.646,89.08505777449199,92.11113951837343,15.56,-6.98,-2.56,0.0,0.0,0.0,0.0,0.0,1.0,0.0,0.49,0.0,0.0,
6.67,89.3955057774492,92.91111395183734,1.85,3.28,15.13,0.0,0.0,0.0,0.0,0.0,1.0,0.0,0.0,0.0,0.0,
6.693,90.30855057774491,93.47711139518374,-8.58,0.43,7.84,0.0,0.0,0.0,0.0,0.0,1.0,0.0,0.0,0.0,0.0,
6.717,90.9398550577745,93.53371113951837,-15.92,-5.11,9.7,0.0,0.0,0.0,0.0,0.0,1.0,0.0,0.0,0.0,0.0,
6.742,91.00298550577745,93.38637111395184,-11.4,-21.44,2.1,0.0,0.0,0.0,0.0,0.0,0.0,0.0,0.0,0.0,0.0,
6.765,90.51429855057775,92.48063711139518,-11.42,-21.51,1.01,0.0,0.0,0.0,0.0,0.0,1.0,0.0,0.0,0.0,0.0,
6.789,89.75442985505778,91.9670637111395,-9.27,-17.73,0.56,0.0,0.0,0.0,0.0,0.0,1.0,0.0,0.0,0.0,0.0,
6.813,89.29144298550578,91.55570637111396,-9.78,-21.78,-1.11,0.0,0.0,0.0,0.0,0.0,0.0,0.0,0.0,0.0,0.0,
6.837,88.84014429855057,91.6945706371114,-12.79,-18.04,-0.7,0.0,0.0,0.0,0.0,0.0,0.0,0.0,0.0,0.2,0.0,
6.86,88.38101442985506,92.78845706371114,-18.06,-20.89,8.89,0.0,0.0,0.0,0.0,0.0,0.0,0.0,0.0,0.39,0.0,
6.885,88.24510144298551,92.84384570637111,-25.56,-24.04,11.32,0.0,0.0,0.0,0.0,0.0,0.0,0.0,0.0,0.88,0.0,
6.909,87.68251014429856,92.4353845706371,-28.73,-26.08,8.48,0.0,0.0,0.0,1.0,0.0,0.0,0.0,0.2,1.67,0.0,
6.933,87.08625101442985,90.85553845706372,-20.33,-28.95,6.27,0.0,0.0,0.0,2.0,0.0,0.0,0.0,0.59,2.55,0.0,
6.957,86.47762510144298,89.83355384570638,-14.24,-34.5,-2.26,0.0,0.0,0.0,2.0,0.0,0.0,0.0,0.78,3.63,0.0,
6.981,85.94876251014429,89.47935538457062,-13.91,-39.33,-6.98,0.0,0.0,0.0,2.0,0.0,0.0,0.0,0.98,3.83,0.0,
7.006,85.01387625101442,88.91293553845706,-12.74,-39.39,-7.86,0.0,0.0,0.0,3.0,0.0,0.0,0.0,1.08,4.22,0.0,
7.029,84.35338762510145,88.35229355384571,-9.72,-33.18,-10.83,0.0,0.0,0.0,3.0,0.0,0.0,0.0,1.18,4.81,0.0,
7.054,84.54833876251014,89.26822935538458,-8.82,-39.72,-17.4,0.0,0.0,0.0,4.0,0.0,0.0,0.0,1.28,5.0,0.0,
7.077,83.20883387625102,90.84482293553845,-20.98,-30.3,-8.77,0.0,0.0,0.0,5.0,0.0,0.0,0.0,1.28,5.1,0.0,
7.102,82.5348833876251,90.17448229355385,-18.65,-35.43,-12.09,0.0,0.0,1.0,6.0,0.0,1.0,0.0,1.47,6.08,0.0,
7.126,81.38748833876251,89.73844822935538,-11.31,-34.74,-10.07,0.0,0.0,1.0,7.0,0.0,1.0,0.0,1.28,7.95,0.0,
7.15,79.99474883387626,89.28984482293554,-12.63,-29.84,-9.35,0.0,0.0,1.0,8.0,0.0,2.0,0.0,1.28,9.22,0.0,
7.175,79.23447488338763,88.87598448229355,-9.89,-25.04,-10.14,0.0,0.0,1.0,9.0,0.0,2.0,0.0,1.28,10.79,0.0,
7.199,78.30344748833878,88.70859844822935,-7.83,-20.9,-7.85,0.0,0.0,2.0,10.0,0.0,2.0,0.0,1.86,12.46,0.0,
7.223,77.37334474883387,88.00785984482295,-5.37,-19.65,-4.81,0.0,0.0,2.0,11.0,0.0,3.0,0.0,3.04,13.83,0.0,
7.247,76.42533447488339,87.4337859844823,-2.91,-15.95,-3.78,0.0,0.0,3.0,12.0,0.0,3.0,0.0,3.83,15.5,0.0,
7.272,75.93453344748833,87.05237859844824,-5.25,-10.98,-6.29,0.0,0.0,3.0,1.0,1.0,3.0,0.0,4.81,17.27,0.0,
7.297,75.63345334474883,86.98723785984484,-11.98,-2.68,-7.02,0.0,0.0,5.0,3.0,1.0,3.0,0.0,5.79,20.21,0.0,
7.321,75.54034533447489,86.6567237859845,-16.44,-2.68,1.78,0.0,0.0,6.0,4.0,1.0,4.0,1.0,6.97,21.97,0.0,
7.345,75.2160345334475,85.58867237859845,-20.69,-1.35,7.19,0.0,0.0,7.0,5.0,2.0,4.0,1.0,8.24,23.15,0.0,
7.369,75.14760345334476,84.41086723785985,-7.08,3.17,9.01,0.0,0.0,7.0,5.0,2.0,4.0,1.0,9.52,23.35,0.0,
7.394,75.27576034533449,84.32908672378598,0.11,-0.61,9.53,0.0,0.0,7.0,4.0,2.0,4.0,1.0,9.42,22.86,0.0,
7.417,75.19857603453346,84.2399086723786,2.07,2.03,11.11,0.0,0.0,6.0,2.0,2.0,4.0,1.0,9.32,21.78,0.0,
7.442,75.03785760345335,84.46499086723786,-0.63,5.73,12.49,0.0,0.0,6.0,12.0,2.0,4.0,1.0,8.83,19.42,0.0,
7.467,74.83278576034535,84.87449908672379,-8.68,14.29,16.4,0.0,0.0,5.0,11.0,2.0,3.0,1.0,8.14,16.68,0.0,
7.49,74.97427857603454,84.63644990867238,-10.44,19.99,16.31,0.0,0.0,6.0,11.0,2.0,3.0,1.0,7.55,15.01,0.0,
7.515,75.30342785760347,84.30664499086724,-6.5,24.43,14.79,0.0,0.0,6.0,10.0,2.0,3.0,1.0,7.36,14.22,0.0,
7.539,75.58834278576035,84.56166449908672,-2.41,27.12,13.25,0.0,0.0,6.0,9.0,2.0,3.0,2.0,7.65,13.34,0.0,
7.563,76.30083427857603,84.77616644990866,1.12,30.08,5.82,0.0,0.0,6.0,7.0,2.0,3.0,1.0,7.36,12.07,0.0,
7.587,76.88508342785761,84.90561664499086,5.82,34.15,1.79,0.0,0.0,5.0,6.0,1.0,2.0,1.0,6.77,10.2,0.0,
7.611,77.81650834278577,84.50456166449908,17.34,15.63,-4.65,0.0,0.0,2.0,4.0,0.0,1.0,0.0,5.69,8.24,0.0,
7.635,78.98065083427858,84.70745616644992,10.14,5.53,5.42,0.0,0.0,0.0,2.0,0.0,1.0,0.0,3.63,5.59,0.0,
7.659,80.51906508342785,83.782745616645,-20.08,-3.8,26.63,0.0,0.0,0.0,0.0,0.0,1.0,0.0,1.57,2.94,0.0,
7.683,83.30090650834278,81.4852745616645,-44.05,6.16,42.45,0.0,0.0,0.0,0.0,0.0,1.0,0.0,0.29,1.37,0.0,
7.707,84.02009065083428,82.06552745616645,-44.18,32.26,15.33,0.0,0.0,1.0,0.0,0.0,2.0,0.0,0.0,1.67,0.0,
7.731,82.57100906508342,86.59655274561665,-6.04,30.22,25.98,0.0,0.0,2.0,1.0,0.0,2.0,0.0,0.0,2.26,0.0,
7.755,80.68010090650834,87.67965527456165,4.24,21.33,50.47,0.0,0.0,1.0,2.0,0.0,2.0,0.0,0.0,2.94,0.0,
7.779,80.14901009065083,85.77196552745617,8.6,18.18,17.03,0.0,0.0,0.0,1.0,0.0,1.0,0.0,0.0,3.24,0.0,
7.802,80.07790100906509,82.97119655274562,-0.91,9.78,2.99,0.0,0.0,0.0,1.0,0.0,1.0,0.0,0.0,3.24,0.0,
7.826,79.2337901009065,86.86711965527455,6.97,3.6,-25.33,0.0,0.0,0.0,2.0,0.0,2.0,0.0,0.0,2.94,0.0,
7.851,79.31137901009063,90.51471196552745,0.47,-4.24,26.95,0.0,0.0,2.0,4.0,0.0,3.0,1.0,0.0,3.43,0.0,
7.874,79.77813790100906,90.18647119655274,31.27,17.63,-9.89,0.0,0.0,3.0,7.0,0.0,4.0,2.0,0.0,5.59,0.0,
7.899,80.00481379010091,90.54064711965528,13.42,24.26,20.6,0.0,0.0,4.0,8.0,0.0,4.0,2.0,0.0,8.14,0.0,
7.922,80.3514813790101,90.49506471196553,1.53,22.5,9.24,0.0,0.0,5.0,8.0,1.0,4.0,2.0,0.0,9.52,0.0,
7.947,80.953148137901,90.45450647119655,-4.63,22.77,3.9,0.0,0.0,5.0,8.0,1.0,4.0,3.0,0.49,9.91,0.0,
7.97,82.1743148137901,90.15345064711966,-6.34,15.61,1.1,0.0,0.0,5.0,8.0,1.0,4.0,3.0,1.37,10.59,0.0,
7.995,83.17843148137902,89.52034506471198,-6.47,14.34,1.47,0.0,0.0,6.0,9.0,1.0,4.0,3.0,1.77,11.38,0.0,
8.018,83.7558431481379,88.9080345064712,-3.82,8.99,1.29,0.0,0.0,6.0,9.0,1.0,5.0,3.0,1.67,12.07,0.0,
8.043,84.29058431481378,88.35180345064713,-0.76,5.21,-1.43,0.0,0.0,6.0,10.0,2.0,5.0,4.0,1.57,13.15,0.0,
8.067,84.38005843148139,88.18818034506472,-0.56,5.44,4.15,0.0,0.0,7.0,11.0,2.0,5.0,3.0,1.18,14.72,0.0,
8.091,84.52400584314815,87.89281803450646,-1.34,4.05,4.95,0.0,0.0,6.0,11.0,2.0,5.0,3.0,1.18,15.89,0.0,
8.115,84.61940058431482,87.77328180345066,-3.98,3.73,0.0,0.0,0.0,7.0,11.0,2.0,5.0,3.0,1.37,16.97,0.0,
8.139,85.15994005843149,87.66232818034507,-5.05,4.38,3.85,0.0,0.0,7.0,12.0,2.0,5.0,3.0,1.67,18.25,0.0,
8.163,85.48399400584316,87.50723281803451,-5.79,1.95,-0.91,0.0,0.0,7.0,12.0,2.0,5.0,4.0,1.86,19.33,0.0,
8.187,85.76839940058431,87.41972328180344,-5.58,-1.0,-3.39,0.0,0.0,7.0,0.0,3.0,5.0,4.0,1.86,20.5,0.0,
8.211,85.91383994005844,87.40197232818035,-6.05,-1.82,-5.38,0.0,0.0,7.0,1.0,3.0,6.0,4.0,1.57,21.09,0.0,
8.236,85.85638399400584,87.28319723281803,-6.39,-2.55,-6.61,0.0,0.0,7.0,2.0,3.0,6.0,5.0,1.18,21.78,0.0,
8.259,85.84163839940058,87.2623197232818,-5.93,-0.91,-4.99,0.0,0.0,8.0,3.0,3.0,6.0,5.0,0.78,22.17,0.0,
8.284,85.91216383994006,87.03523197232819,-4.92,-0.02,-2.62,0.0,0.0,8.0,3.0,3.0,6.0,5.0,0.59,22.66,0.0,
8.308,86.12621638399402,87.03952319723282,-5.91,-0.7,-2.44,0.0,0.0,8.0,4.0,3.0,6.0,5.0,0.49,22.96,0.0,
8.332,86.2826216383994,86.87795231972329,-5.02,-2.18,-3.5,0.0,0.0,8.0,4.0,3.0,7.0,6.0,0.39,23.15,0.0,
8.356,86.33426216383994,86.76279523197233,-5.15,-2.48,-3.98,0.0,0.0,9.0,4.0,3.0,7.0,6.0,0.29,22.76,0.0,
8.38,86.321426216384,86.69727952319724,-3.19,-2.02,-4.24,0.0,0.0,9.0,4.0,3.0,7.0,6.0,0.0,22.17,0.0,
8.404,86.2481426216384,86.49272795231973,-4.83,-3.47,-4.9,0.0,0.0,9.0,5.0,4.0,7.0,6.0,0.0,21.48,0.0,
8.429,86.16881426216383,86.31927279523197,-3.85,-2.79,-6.0,0.0,0.0,9.0,5.0,4.0,7.0,6.0,0.0,21.19,0.0,
8.453,86.18788142621638,86.2209272795232,-3.71,-3.37,-6.12,0.0,0.0,9.0,5.0,4.0,7.0,6.0,0.0,20.8,0.0,
8.477,86.22578814262164,86.12109272795232,-1.53,-4.96,-7.8,0.0,0.0,9.0,5.0,4.0,7.0,6.0,0.0,20.31,0.0,
8.501,86.09457881426215,86.16510927279523,-1.46,-2.27,-1.61,0.0,0.0,9.0,6.0,3.0,7.0,6.0,0.0,19.42,0.0,
8.525,86.01845788142622,86.25951092727952,-1.33,-1.37,-0.12,0.0,0.0,9.0,6.0,3.0,7.0,6.0,0.0,18.84,0.0,
8.549,85.97484578814263,86.34995109272795,-1.47,-0.31,0.28,0.0,0.0,9.0,6.0,3.0,7.0,5.0,0.0,18.34,0.0,
8.573,86.01548457881425,86.4039951092728,-2.08,0.06,-0.05,0.0,0.0,9.0,6.0,3.0,7.0,5.0,0.0,17.85,0.0,
8.597,86.09154845788142,86.47239951092729,-1.67,0.17,0.47,0.0,0.0,9.0,6.0,3.0,7.0,5.0,0.0,17.56,0.0,
8.622,86.15315484578814,86.52423995109274,-1.27,0.02,-0.57,0.0,0.0,8.0,6.0,3.0,7.0,4.0,0.0,17.07,0.0,
8.645,86.24931548457882,86.52042399510927,-1.28,-0.16,-1.26,0.0,0.0,8.0,5.0,3.0,7.0,4.0,0.0,16.68,0.0,
8.67,86.22293154845788,86.49304239951093,-0.66,0.24,-1.34,0.0,0.0,8.0,5.0,3.0,7.0,4.0,0.0,16.09,0.0,
8.693,86.14829315484579,86.51730423995109,-0.63,-0.27,0.89,0.0,0.0,8.0,5.0,3.0,7.0,3.0,0.0,15.5,0.0,
8.718,86.11382931548457,86.60973042399512,0.53,0.37,1.73,0.0,0.0,8.0,4.0,2.0,6.0,3.0,0.0,15.01,0.0,
8.741,86.20938293154845,86.6909730423995,0.95,0.55,3.73,0.0,0.0,7.0,3.0,2.0,6.0,3.0,0.0,15.01,0.0,
8.766,86.28193829315484,86.78909730423996,0.64,-0.2,2.99,0.0,0.0,7.0,1.0,2.0,6.0,2.0,0.0,14.91,0.0,
8.79,86.31619382931548,86.888909730424,0.26,-1.53,2.45,0.0,0.0,7.0,1.0,2.0,6.0,2.0,0.2,14.62,0.0,
8.813,86.32861938293155,87.02489097304242,-0.18,-2.08,0.75,0.0,0.0,7.0,0.0,2.0,5.0,2.0,0.49,14.13,0.0,
8.838,86.32086193829315,87.17348909730424,-1.58,-2.05,-0.63,0.0,0.0,7.0,12.0,2.0,5.0,2.0,0.69,13.73,0.0,
8.862,86.27508619382931,87.18834890973042,-2.02,-1.43,-0.72,0.0,0.0,6.0,12.0,2.0,5.0,2.0,0.88,13.54,0.0,
8.886,86.29750861938294,87.18083489097305,-1.66,-0.65,-0.5,0.0,0.0,6.0,12.0,2.0,5.0,1.0,1.18,13.44,0.0,
8.91,86.29975086193829,87.21608348909731,-2.18,-0.8,0.27,0.0,0.0,6.0,12.0,2.0,5.0,1.0,1.57,13.24,0.0,
8.935,86.38997508619383,87.18360834890973,-2.08,-0.6,0.85,0.0,0.0,6.0,11.0,2.0,5.0,1.0,1.86,12.95,0.0,
8.958,86.41699750861939,87.20736083489096,-2.65,-0.57,-0.38,0.0,0.0,6.0,11.0,2.0,5.0,1.0,2.26,12.75,0.0,
8.983,86.47369975086194,87.2277360834891,-3.12,-1.19,0.0,0.0,0.0,6.0,11.0,2.0,4.0,1.0,2.55,12.65,0.0,
9.007,86.4793699750862,87.2657736083489,-3.15,-1.21,-0.7,0.0,0.0,6.0,11.0,2.0,4.0,1.0,2.55,12.36,0.0,
9.031,86.47993699750863,87.3325773608349,-3.78,-1.55,-0.71,0.0,0.0,6.0,11.0,2.0,4.0,1.0,2.65,12.16,0.0,
9.056,86.48899369975085,87.3932577360835,-4.06,-1.83,-0.27,0.0,0.0,6.0,11.0,2.0,5.0,1.0,2.75,12.16,0.0,
9.079,86.47189936997509,87.35432577360834,-4.43,-3.09,-2.27,0.0,0.0,6.0,12.0,2.0,5.0,2.0,2.65,12.07,0.0,
9.104,86.47918993699751,87.34143257736085,-4.09,-2.53,-1.76,0.0,0.0,6.0,12.0,2.0,5.0,2.0,2.55,12.07,0.0,
9.128,86.45291899369975,87.32214325773607,-5.02,-2.47,-1.35,0.0,0.0,6.0,12.0,2.0,5.0,2.0,2.45,11.97,0.0,
9.152,86.23429189936998,87.37421432577361,-4.14,-4.66,-3.29,0.0,0.0,6.0,12.0,2.0,5.0,2.0,2.35,11.97,0.0,
9.177,86.212429189937,87.46042143257736,-5.04,-2.31,-1.69,0.0,0.0,6.0,0.0,2.0,5.0,2.0,2.35,12.07,0.0,
9.201,86.2012429189937,87.46904214325774,-4.57,-1.46,-1.89,0.0,0.0,6.0,0.0,2.0,5.0,2.0,2.16,12.36,0.0,
9.225,86.19112429189937,87.36190421432576,-4.34,-0.86,-0.9,0.0,0.0,6.0,1.0,2.0,5.0,2.0,1.96,12.56,0.0,
9.249,86.17211242918994,87.36919042143259,-4.3,-0.77,-1.0,0.0,0.0,6.0,1.0,2.0,5.0,2.0,1.96,13.05,0.0,
9.273,86.197211242919,87.36991904214327,-4.2,-1.05,-1.56,0.0,0.0,7.0,2.0,2.0,5.0,2.0,2.06,13.34,0.0,
9.297,86.1997211242919,87.35199190421432,-4.53,-0.94,-1.08,0.0,0.0,7.0,2.0,2.0,5.0,3.0,2.06,13.64,0.0,
9.322,86.2089721124292,87.31419919042143,-4.21,-0.47,-0.37,0.0,0.0,7.0,2.0,2.0,5.0,3.0,2.06,14.03,0.0,
9.346,86.21889721124292,87.31041991904215,-3.86,-0.47,-0.5,0.0,0.0,7.0,2.0,2.0,5.0,3.0,1.86,14.22,0.0,
9.37,86.19288972112429,87.31904199190421,-3.67,-0.63,0.25,0.0,0.0,7.0,2.0,2.0,6.0,3.0,1.86,14.52,0.0,
9.394,86.18128897211244,87.30190419919042,-3.21,-0.09,0.86,0.0,0.0,7.0,2.0,2.0,5.0,3.0,1.86,14.81,0.0,
9.418,86.21612889721123,87.25519041991905,-3.14,-0.31,1.21,0.0,0.0,7.0,2.0,2.0,5.0,3.0,2.06,14.81,0.0,
9.442,86.21061288972112,87.25951904199191,-3.1,-0.53,0.97,0.0,0.0,7.0,2.0,3.0,5.0,3.0,2.26,14.91,0.0,
9.466,86.18306128897213,87.2059519041992,-3.21,-0.73,0.62,0.0,0.0,7.0,2.0,3.0,5.0,3.0,2.35,14.91,0.0,
9.49,86.16230612889721,87.12859519041992,-2.89,-0.6,0.78,0.0,0.0,7.0,2.0,3.0,5.0,2.0,2.26,15.01,0.0,
9.515,86.23223061288972,87.12085951904199,-2.91,-0.75,0.92,0.0,0.0,7.0,3.0,3.0,5.0,2.0,2.35,14.91,0.0,
9.538,86.27522306128897,87.1290859519042,-2.78,-1.27,0.51,0.0,0.0,7.0,2.0,3.0,5.0,2.0,2.45,14.81,0.0,
9.563,86.3155223061289,87.13890859519041,-2.69,-1.27,0.24,0.0,0.0,7.0,2.0,2.0,5.0,2.0,2.55,14.72,0.0,
9.586,86.28355223061288,87.13989085951904,-2.73,-1.29,0.18,0.0,0.0,7.0,2.0,2.0,5.0,2.0,2.55,14.62,0.0,
9.611,86.3073552230613,87.13998908595191,-2.61,-1.63,-0.08,0.0,0.0,7.0,2.0,2.0,5.0,2.0,2.65,14.52,0.0,
9.634,86.35473552230613,87.09499890859519,-2.56,-1.45,0.04,0.0,0.0,7.0,2.0,2.0,5.0,2.0,2.84,14.42,0.0,
9.659,86.30547355223061,87.06349989085952,-2.72,-1.4,-0.15,0.0,0.0,7.0,2.0,2.0,5.0,2.0,2.84,14.32,0.0,
9.683,86.34554735522306,87.06934998908595,-2.84,-1.68,-0.08,0.0,0.0,7.0,1.0,2.0,5.0,2.0,2.94,14.22,0.0,
9.707,86.3135547355223,87.03393499890859,-2.75,-1.66,-0.12,0.0,0.0,6.0,1.0,2.0,5.0,2.0,2.94,14.13,0.0,
9.732,86.31935547355224,87.01239349989086,-2.89,-1.43,0.24,0.0,0.0,6.0,1.0,2.0,5.0,2.0,3.04,13.83,0.0,
9.755,86.32893554735523,87.05523934998908,-2.85,-1.11,0.72,0.0,0.0,6.0,1.0,2.0,5.0,2.0,3.14,13.64,0.0,
9.78,86.32089355473552,87.05952393499891,-2.97,-1.03,0.71,0.0,0.0,6.0,0.0,2.0,5.0,2.0,3.34,13.44,0.0,
9.803,86.28408935547355,87.06895239349988,-2.83,-1.42,0.5,0.0,0.0,6.0,12.0,2.0,5.0,2.0,3.53,13.24,0.0,
9.828,86.31640893554736,87.11489523934999,-2.9,-1.64,0.59,0.0,0.0,6.0,12.0,2.0,5.0,2.0,3.92,13.05,0.0,
9.851,86.27464089355473,87.119489523935,-2.9,-1.68,0.35,0.0,0.0,6.0,12.0,2.0,5.0,2.0,4.32,12.85,0.0,
9.876,86.24346408935547,87.1109489523935,-3.05,-1.89,-0.39,0.0,0.0,6.0,11.0,2.0,5.0,2.0,4.22,12.65,0.0,
9.901,86.23134640893555,87.07409489523934,-3.22,-1.89,0.13,0.0,0.0,6.0,11.0,2.0,5.0,2.0,4.22,12.36,0.0,
9.924,86.22113464089355,87.09740948952393,-2.74,-1.11,1.14,0.0,0.0,6.0,11.0,2.0,5.0,1.0,4.22,12.26,0.0,
9.949,86.16611346408935,87.13574094895239,-2.85,-1.35,1.27,0.0,0.0,6.0,11.0,2.0,5.0,1.0,4.22,11.97,0.0,
9.972,86.23261134640893,87.21157409489524,-2.98,-1.69,0.63,0.0,0.0,6.0,11.0,2.0,5.0,1.0,4.22,11.87,0.0,
9.997,86.23926113464088,87.19215740948952,-3.15,-1.73,-0.02,0.0,0.0,6.0,11.0,2.0,5.0,1.0,4.22,11.77,0.0,
10.021,86.18592611346409,87.21721574094896,-3.37,-2.02,-0.08,0.0,0.0,6.0,11.0,2.0,5.0,1.0,4.12,11.67,0.0,
10.045,86.15359261134643,87.1477215740949,-3.04,-1.13,0.05,0.0,0.0,6.0,11.0,2.0,5.0,1.0,4.02,11.48,0.0,
10.07,86.18635926113464,87.18577215740949,-3.1,-0.92,-0.02,0.0,0.0,6.0,11.0,2.0,5.0,1.0,4.02,11.28,0.0,
10.094,86.18063592611347,87.23457721574094,-2.98,-0.87,-0.21,0.0,0.0,6.0,11.0,2.0,5.0,1.0,4.12,11.18,0.0,
10.119,86.17106359261135,87.2034577215741,-3.01,-0.36,0.41,0.0,0.0,6.0,11.0,2.0,5.0,1.0,4.12,11.09,0.0,
10.142,86.17910635926114,87.26334577215741,-2.9,-0.17,0.85,0.0,0.0,6.0,11.0,2.0,4.0,1.0,4.12,11.09,0.0,
10.167,86.17991063592612,87.24233457721573,-2.95,-0.12,1.12,0.0,0.0,6.0,11.0,2.0,4.0,1.0,4.22,11.18,0.0,
10.191,86.16199106359261,87.24923345772157,-2.77,-0.15,0.88,0.0,0.0,6.0,11.0,2.0,4.0,1.0,4.32,11.09,0.0,
10.215,86.24119910635926,87.20492334577216,-2.76,-0.31,0.42,0.0,0.0,6.0,11.0,2.0,4.0,1.0,4.41,11.18,0.0,
10.24,86.28511991063593,87.2094923345772,-2.8,-0.06,0.52,0.0,0.0,6.0,11.0,2.0,4.0,1.0,4.51,11.18,0.0,
10.264,86.31651199106359,87.2099492334577,-2.82,-0.05,0.14,0.0,0.0,6.0,11.0,2.0,4.0,1.0,4.61,11.28,0.0,
10.288,86.33765119910636,87.25499492334578,-2.94,-0.25,-0.11,0.0,0.0,6.0,11.0,2.0,4.0,1.0,4.61,11.38,0.0,
10.312,86.35776511991064,87.30449949233459,-2.57,-0.15,0.13,0.0,0.0,6.0,11.0,2.0,4.0,1.0,4.61,11.58,0.0,
10.337,86.37777651199107,87.30944994923347,-2.53,-0.53,0.05,0.0,0.0,6.0,11.0,2.0,4.0,1.0,4.71,11.58,0.0,
10.36,86.3797776511991,87.33694499492336,-2.34,-0.24,0.27,0.0,0.0,6.0,11.0,2.0,4.0,1.0,4.71,11.58,0.0,
10.385,86.37097776511992,87.35769449949233,-2.35,0.28,1.02,0.0,0.0,6.0,11.0,2.0,4.0,1.0,4.71,11.67,0.0,
10.409,86.406097776512,87.44976944994923,-2.66,0.41,1.11,0.0,0.0,6.0,11.0,2.0,4.0,1.0,4.71,11.67,0.0,
10.433,86.4186097776512,87.49497694499492,-2.76,-0.06,0.82,0.0,0.0,5.0,10.0,2.0,4.0,1.0,4.81,11.97,0.0,
10.458,86.45586097776511,87.4634976944995,-2.57,-0.08,1.03,0.0,0.0,5.0,10.0,2.0,4.0,1.0,4.91,12.16,0.0,
10.482,86.50458609777652,87.45134976944995,-2.67,-0.19,0.97,0.0,0.0,5.0,10.0,2.0,4.0,1.0,5.0,12.07,0.0,
10.506,86.50045860977767,87.378134976945,-2.53,-0.37,0.34,0.0,0.0,5.0,10.0,2.0,4.0,1.0,5.0,12.16,0.0,
10.53,86.51804586097776,87.42481349769452,-2.37,-0.39,0.42,0.0,0.0,5.0,10.0,2.0,4.0,1.0,5.1,12.16,0.0,
10.555,86.55580458609779,87.50148134976945,-2.63,-0.5,0.26,0.0,0.0,5.0,10.0,2.0,4.0,1.0,5.2,12.16,0.0,
10.578,86.61358045860979,87.51814813497694,-2.75,-1.02,0.05,0.0,0.0,5.0,10.0,2.0,4.0,1.0,5.3,12.07,0.0,
10.603,86.68235804586098,87.54681481349769,-2.95,-1.1,-0.44,0.0,0.0,5.0,10.0,2.0,4.0,1.0,5.3,11.87,0.0,
10.628,86.71623580458609,87.56768148134977,-3.3,-1.02,-0.02,0.0,0.0,5.0,10.0,2.0,4.0,1.0,5.3,11.77,0.0,
10.652,86.72862358045862,87.56976814813498,-3.06,-1.14,-0.39,0.0,0.0,5.0,10.0,2.0,4.0,1.0,5.3,11.67,0.0,
10.676,86.72086235804586,87.4799768148135,-2.89,-1.58,-0.47,0.0,0.0,5.0,11.0,2.0,4.0,1.0,5.2,11.67,0.0,
10.7,86.67508623580459,87.45299768148135,-2.02,-1.84,-0.28,0.0,0.0,5.0,11.0,2.0,4.0,1.0,5.2,11.77,0.0,
10.725,86.67050862358046,87.45929976814813,-2.57,-1.21,0.65,0.0,0.0,5.0,11.0,2.0,4.0,1.0,5.2,12.07,0.0,
10.748,86.74205086235804,87.54092997681481,-2.91,-2.25,0.06,0.0,0.0,5.0,11.0,2.0,4.0,1.0,5.4,12.56,0.0,
10.773,86.7582050862358,87.56709299768148,-3.65,-1.77,0.01,0.0,0.0,5.0,11.0,2.0,4.0,1.0,5.4,12.95,0.0,
10.798,86.78682050862358,87.53370929976815,-3.6,-2.03,-0.38,0.0,0.0,5.0,11.0,2.0,4.0,1.0,5.49,13.15,0.0,
10.822,86.70868205086236,87.48537092997681,-3.35,-2.3,-0.04,0.0,0.0,5.0,11.0,2.0,4.0,1.0,5.3,13.15,0.0,
10.846,86.69186820508624,87.48953709299768,-3.02,-2.31,-0.16,0.0,0.0,5.0,11.0,2.0,4.0,1.0,5.3,12.95,0.0,
10.87,86.63618682050863,87.47195370929977,-3.67,-2.21,0.39,0.0,0.0,5.0,11.0,2.0,4.0,1.0,5.3,12.85,0.0,
10.895,86.63961868205087,87.48819537092997,-3.92,-1.72,0.65,0.0,0.0,5.0,11.0,2.0,4.0,1.0,5.3,12.85,0.0,
10.918,86.61296186820508,87.40881953709301,-3.71,-1.02,0.5,0.0,0.0,5.0,11.0,2.0,4.0,1.0,5.4,12.85,0.0,
10.943,86.56529618682052,87.3828819537093,-3.13,-1.22,0.05,0.0,0.0,5.0,11.0,2.0,4.0,1.0,5.2,12.85,0.0,
10.968,86.56952961868205,87.39828819537094,-2.96,-1.97,-0.6,0.0,0.0,5.0,11.0,2.0,4.0,1.0,5.2,12.85,0.0,
10.992,86.5969529618682,87.4898288195371,-3.44,-2.08,-0.94,0.0,0.0,5.0,11.0,2.0,4.0,1.0,5.3,12.95,0.0,
11.016,86.56369529618684,87.54398288195371,-3.52,-3.28,-1.21,0.0,0.0,5.0,11.0,2.0,4.0,1.0,5.2,13.15,0.0,
11.04,86.49736952961868,87.54039828819538,-3.59,-2.89,0.02,0.0,0.0,5.0,11.0,2.0,4.0,1.0,5.2,13.34,0.0,
11.065,86.45473695296187,87.48603982881954,-3.66,-2.11,0.4,0.0,0.0,6.0,11.0,2.0,4.0,1.0,5.0,13.24,0.0,
11.088,86.4324736952962,87.40860398288197,-3.38,-1.59,0.94,0.0,0.0,6.0,11.0,2.0,4.0,2.0,4.91,12.95,0.0,
11.113,86.41224736952962,87.38286039828819,-3.63,-1.49,1.6,0.0,0.0,6.0,11.0,2.0,4.0,2.0,5.1,12.65,0.0,
11.138,86.41922473695297,87.34428603982883,-3.53,-1.89,1.08,0.0,0.0,6.0,10.0,2.0,4.0,2.0,5.1,12.65,0.0,
11.161,86.4559224736953,87.34042860398289,-3.73,-2.38,1.17,0.0,0.0,6.0,10.0,2.0,4.0,1.0,5.2,12.95,0.0,
11.186,86.49559224736953,87.32204286039828,-3.66,-2.39,1.2,0.0,0.0,6.0,10.0,2.0,4.0,1.0,5.2,12.65,0.0,
11.21,86.45455922473695,87.32920428603983,-3.54,-2.69,0.96,0.0,0.0,5.0,10.0,2.0,4.0,1.0,5.3,12.46,0.0,
11.234,86.40545592247369,87.39292042860399,-3.61,-2.67,1.15,0.0,0.0,5.0,10.0,2.0,4.0,1.0,5.3,11.97,0.0,
11.258,86.34654559224737,87.37229204286041,-3.61,-3.11,0.5,0.0,0.0,5.0,10.0,2.0,4.0,1.0,5.3,11.38,0.0,
11.283,86.31365455922474,87.34322920428605,-3.28,-2.59,0.73,0.0,0.0,5.0,10.0,2.0,4.0,1.0,5.4,10.79,0.0,
11.308,86.28336545592248,87.36732292042862,-3.28,-2.62,0.81,0.0,0.0,5.0,10.0,2.0,4.0,1.0,5.3,10.2,0.0,
11.331,86.26233654559225,87.39673229204287,-3.15,-3.0,0.44,0.0,0.0,5.0,10.0,2.0,4.0,1.0,5.4,10.1,0.0,
11.356,86.22423365455923,87.33667322920428,-3.43,-2.89,-0.1,0.0,0.0,5.0,10.0,2.0,4.0,1.0,5.4,9.91,0.0,
11.38,86.12142336545591,87.28566732292043,-3.68,-2.47,0.21,0.0,0.0,5.0,10.0,2.0,4.0,1.0,5.2,9.71,0.0,
11.404,86.05714233654558,87.28056673229204,-3.73,-2.87,-1.17,0.0,0.0,5.0,10.0,2.0,4.0,1.0,5.1,9.61,0.0,
11.428,86.06871423365455,87.23505667322921,-3.27,-2.05,-0.53,0.0,0.0,5.0,10.0,2.0,4.0,1.0,5.1,9.71,0.0,
11.452,86.00687142336545,87.16750566732293,-3.15,-1.47,0.21,0.0,0.0,5.0,10.0,2.0,4.0,1.0,5.1,9.81,0.0,
11.476,85.93768714233654,87.21475056673229,-2.92,-1.53,0.5,0.0,0.0,5.0,10.0,2.0,4.0,1.0,5.1,10.01,0.0,
11.501,85.88576871423365,87.21047505667322,-2.78,-2.17,-0.79,0.0,0.0,5.0,10.0,2.0,4.0,1.0,5.0,10.2,0.0,
11.526,85.88957687142337,87.2640475056673,-3.73,-2.89,-0.69,0.0,0.0,5.0,10.0,2.0,4.0,1.0,5.1,10.5,0.0,
11.549,85.89895768714234,87.26940475056672,-4.24,-1.93,0.58,0.0,0.0,6.0,10.0,2.0,4.0,2.0,5.1,10.79,0.0,
11.574,85.87289576871423,87.29694047505666,-3.74,-2.2,0.32,0.0,0.0,6.0,10.0,2.0,4.0,2.0,4.91,10.99,0.0,
11.598,85.90628957687143,87.27269404750565,-3.27,-2.05,-0.2,0.0,0.0,6.0,10.0,2.0,5.0,2.0,4.81,10.79,0.0,
11.622,85.81962895768714,87.24326940475055,-3.54,-1.76,0.37,0.0,0.0,6.0,10.0,2.0,5.0,2.0,4.81,10.59,0.0,
11.646,85.78396289576871,87.25832694047506,-3.44,-1.6,0.41,0.0,0.0,6.0,10.0,2.0,5.0,2.0,4.81,10.4,0.0,
11.671,85.79839628957687,87.2958326940475,-3.23,-1.63,0.71,0.0,0.0,6.0,10.0,2.0,5.0,2.0,4.81,10.3,0.0,
11.695,85.7638396289577,87.27258326940475,-3.34,-1.48,1.2,0.0,0.0,6.0,10.0,2.0,5.0,2.0,4.91,10.3,0.0,
11.719,85.73338396289577,87.29725832694047,-3.46,-1.38,0.95,0.0,0.0,6.0,10.0,2.0,5.0,2.0,4.91,10.01,0.0,
11.744,85.72133839628957,87.29972583269404,-3.21,-1.68,0.62,0.0,0.0,6.0,10.0,2.0,4.0,2.0,4.91,9.91,0.0,
11.767,85.72013383962896,87.2549725832694,-3.63,-1.13,1.4,0.0,0.0,6.0,10.0,2.0,4.0,2.0,4.91,9.71,0.0,
11.792,85.7110133839629,87.21449725832693,-3.55,-1.27,1.11,0.0,0.0,6.0,10.0,2.0,4.0,2.0,5.0,9.71,0.0,
11.815,85.69210133839628,87.21044972583269,-3.37,-1.19,1.1,0.0,0.0,6.0,10.0,2.0,4.0,2.0,5.1,9.71,0.0,
11.84,85.61821013383964,87.16504497258327,-3.34,-1.11,1.06,0.0,0.0,6.0,10.0,2.0,4.0,2.0,5.0,9.81,0.0,
11.865,85.56582101338397,87.15150449725833,-2.46,-0.1,1.24,0.0,0.0,6.0,10.0,2.0,4.0,2.0,5.0,9.81,0.0,
11.888,85.40758210133839,86.99715044972584,-0.4,0.58,1.54,0.0,0.0,6.0,10.0,2.0,4.0,2.0,5.1,10.4,0.0,
11.913,85.31075821013383,87.00871504497259,1.68,0.53,1.85,0.0,0.0,5.0,10.0,2.0,4.0,1.0,5.3,11.97,0.0,
11.936,85.37307582101337,87.14487150449726,0.74,1.45,2.44,0.0,0.0,5.0,10.0,2.0,4.0,1.0,5.79,14.32,0.0,
11.961,85.48730758210134,87.22148715044973,-0.28,1.0,3.43,0.0,0.0,5.0,10.0,2.0,4.0,1.0,6.28,16.87,0.0,
11.984,85.58873075821012,87.41814871504496,-2.45,0.92,6.85,0.0,0.0,5.0,10.0,3.0,4.0,1.0,6.67,18.93,0.0,
12.009,85.78787307582101,87.6358148715045,-4.24,-0.27,6.06,0.0,0.0,5.0,10.0,3.0,3.0,1.0,7.26,20.6,0.0,
12.034,85.95178730758211,87.76558148715046,-6.88,-1.34,6.64,0.0,0.0,5.0,9.0,3.0,3.0,1.0,7.65,22.46,0.0,
12.057,86.0581787307582,87.86855814871504,-9.53,-3.94,6.29,0.0,0.0,5.0,9.0,3.0,3.0,1.0,8.04,24.62,0.0,
12.082,86.09581787307582,88.0138558148715,-12.18,-9.18,2.37,0.0,0.0,5.0,10.0,4.0,3.0,1.0,8.24,26.68,0.0,
12.106,86.07258178730757,88.03738558148716,-17.03,-15.68,-2.37,0.0,0.0,5.0,9.0,4.0,3.0,1.0,9.03,28.94,0.0,
12.13,85.82725817873076,88.28273855814871,-26.18,-26.53,-9.41,0.0,0.0,5.0,8.0,5.0,3.0,2.0,10.01,29.72,0.0,
12.154,85.41572581787308,88.93727385581488,-37.1,-33.98,-16.08,0.0,0.0,6.0,6.0,5.0,4.0,2.0,11.18,29.23,0.0,
12.179,84.85257258178731,88.31872738558148,-70.36,-11.97,4.73,0.0,0.0,5.0,3.0,4.0,4.0,2.0,10.99,24.33,0.0,
12.204,85.44425725817874,89.30087273855814,-88.85,-18.72,5.31,0.0,0.0,5.0,1.0,2.0,3.0,2.0,9.52,16.48,0.0,
12.228,87.52842572581788,89.5790872738558,-109.28,-23.69,12.78,0.0,0.0,3.0,0.0,1.0,3.0,2.0,7.46,6.47,0.0,
12.253,90.64384257258178,87.43790872738558,-72.2,-22.67,0.81,0.0,0.0,0.0,0.0,0.0,1.0,0.0,4.81,0.39,0.0,
12.276,91.35138425725819,89.30279087273857,-19.73,-42.09,20.88,0.0,0.0,0.0,0.0,0.0,0.0,0.0,2.45,0.0,0.0,
12.3,90.06313842572581,94.60127908727387,32.5,-22.98,45.34,0.0,0.0,0.0,0.0,0.0,0.0,0.0,0.78,0.0,0.0,
12.324,87.10831384257258,100.0631279087274,49.05,0.22,37.45,0.0,0.0,0.0,0.0,0.0,0.0,0.0,0.29,0.29,0.0,
12.348,83.87883138425725,103.91231279087275,72.74,13.06,13.98,0.0,0.0,0.0,0.0,0.0,0.0,0.0,0.2,0.39,0.0,
12.372,81.41388313842572,106.73623127908726,87.93,20.45,-5.11,0.0,0.0,0.0,0.0,0.0,0.0,0.0,0.1,0.39,0.0,
12.396,80.00638831384256,108.13462312790874,89.99,25.27,-12.93,0.0,0.0,0.0,0.0,0.0,0.0,0.0,0.0,0.29,0.0,
12.42,79.17263883138425,108.35546231279088,80.66,26.78,-14.02,0.0,0.0,0.0,0.0,0.0,0.0,0.0,0.0,0.49,0.0,
12.443,78.70226388313843,107.68454623127909,64.48,26.92,-9.69,0.0,0.0,0.0,0.0,0.0,0.0,0.0,0.0,0.39,0.0,
12.468,78.43022638831384,106.87945462312791,49.12,21.23,-2.9,0.0,0.0,0.0,0.0,0.0,0.0,0.0,0.0,0.2,0.0,
12.491,78.41202263883139,105.88994546231278,29.8,21.93,11.18,0.0,0.0,0.0,0.0,0.0,0.0,0.0,0.2,0.0,0.0,
12.515,79.14820226388314,103.07299454623129,30.73,32.25,27.37,0.0,0.0,0.0,0.0,0.0,0.0,0.0,0.1,0.0,0.0,
12.538,80.08582022638832,99.72229945462311,41.82,38.24,16.7,0.0,0.0,0.0,0.0,0.0,0.0,0.0,0.0,0.0,0.0,
12.562,81.43058202263883,96.87622994546231,64.18,32.75,13.82,0.0,0.0,0.0,0.0,0.0,0.0,0.0,0.0,0.0,0.0,
12.585,82.21305820226388,93.34262299454623,67.74,34.24,8.44,0.0,0.0,0.0,0.0,0.0,1.0,0.0,0.0,0.0,0.0,
12.609,82.2463058202264,89.87526229945462,64.64,32.56,2.08,0.0,0.0,0.0,0.0,0.0,0.0,0.0,0.0,0.0,0.0,
12.634,82.51063058202264,86.13552622994546,54.11,27.5,2.15,0.0,0.0,0.0,0.0,0.0,0.0,0.0,0.0,0.0,0.0,
12.657,84.53506305820227,82.25155262299454,40.66,19.92,16.31,0.0,0.0,0.0,0.0,0.0,0.0,0.0,0.0,0.0,0.0,
12.681,86.59150630582022,78.94715526229945,29.67,-2.85,34.68,0.0,0.0,0.0,0.0,0.0,0.0,0.0,0.0,0.0,0.0,
12.704,89.46115063058203,80.17371552622996,1.22,-17.6,20.65,0.0,0.0,0.0,0.0,0.0,0.0,0.0,0.0,0.0,0.0,
12.728,87.22811506305821,79.18937155262299,-52.58,-52.19,-3.76,0.0,0.0,0.0,0.0,0.0,0.0,0.0,0.0,0.0,0.0,
12.751,87.14881150630582,83.3479371552623,-47.89,-34.79,7.06,0.0,0.0,0.0,0.0,0.0,0.0,0.0,0.0,0.49,0.0,
12.775,86.19588115063058,85.81579371552624,-27.64,-54.39,-5.9,0.0,0.0,0.0,0.0,0.0,0.0,0.0,0.0,0.39,0.0,
12.8,83.74258811506306,86.92657937155262,-72.05,-45.72,-32.06,0.0,0.0,0.0,0.0,0.0,0.0,0.0,0.0,0.69,0.0,
12.823,83.09225881150631,87.02865793715527,-115.51,12.81,-15.05,0.0,0.0,0.0,0.0,0.0,0.0,0.0,0.0,2.35,0.0,
12.847,86.46522588115063,83.88886579371554,-36.49,48.05,-1.98,0.0,0.0,0.0,0.0,0.0,1.0,0.0,0.0,2.26,0.0,
12.871,85.44352258811506,84.63688657937156,-16.41,16.08,-7.15,0.0,0.0,0.0,0.0,0.0,0.0,0.0,0.0,2.55,0.0,
12.895,85.40435225881151,84.82868865793715,-10.94,31.31,-12.24,0.0,0.0,0.0,0.0,0.0,0.0,0.0,0.49,4.71,0.0,
12.919,86.94843522588116,85.69386886579373,-8.85,9.95,-8.41,0.0,0.0,0.0,0.0,0.0,0.0,0.0,1.47,6.28,0.0,
12.943,88.07484352258813,86.31138688657937,-7.48,7.06,-3.9,0.0,0.0,0.0,0.0,0.0,0.0,0.0,1.96,8.24,0.0,
12.966,88.73648435225881,86.67013868865794,-10.88,3.37,-8.18,0.0,0.0,0.0,1.0,0.0,0.0,0.0,2.75,10.99,0.0,
12.991,89.18964843522588,87.5160138688658,-9.29,5.43,-7.97,0.0,0.0,0.0,2.0,0.0,0.0,0.0,3.43,14.42,0.0,
13.015,89.21696484352259,88.55460138688657,-11.28,4.32,-4.68,0.0,0.0,0.0,3.0,1.0,0.0,0.0,4.51,17.56,0.0,
13.039,89.25569648435226,89.09946013868866,-10.73,3.82,1.66,0.0,0.0,0.0,3.0,2.0,0.0,0.0,5.69,21.29,0.0,
13.063,90.00656964843523,89.54994601386886,-13.94,1.17,3.5,0.0,0.0,0.0,3.0,3.0,0.0,0.0,6.77,25.31,0.0,
13.087,90.80165696484352,89.8379946013869,-18.33,-2.92,-1.74,0.0,0.0,1.0,3.0,3.0,0.0,0.0,7.85,29.33,0.0,
13.111,90.86316569648434,89.84879946013868,-11.3,-1.98,-2.83,0.0,0.0,2.0,3.0,4.0,0.0,0.0,9.42,33.84,-2627.61,
13.136,90.50931656964843,89.97587994601386,-7.8,0.3,-0.65,0.0,0.0,2.0,4.0,5.0,1.0,0.0,10.3,37.47,0.0,
13.16,90.48293165696484,89.89858799460139,-6.86,3.45,3.03,0.0,0.0,2.0,3.0,5.0,1.0,0.0,11.18,39.83,0.0,
13.185,90.79529316569648,89.95385879946014,-4.4,1.11,1.24,0.0,0.0,2.0,3.0,5.0,1.0,0.0,12.16,41.79,0.0,
13.208,90.96152931656965,90.00438587994601,-7.67,-0.03,1.33,0.0,0.0,2.0,3.0,5.0,1.0,0.0,12.46,43.07,0.0,
13.233,90.84315293165696,89.95543858799459,-11.44,0.84,3.06,0.0,0.0,2.0,4.0,5.0,1.0,0.0,13.15,45.03,0.0,
13.257,90.95731529316569,89.95054385879945,-13.49,1.6,-0.95,0.0,0.0,3.0,4.0,4.0,1.0,1.0,14.32,48.36,0.0,
13.282,91.24773152931657,89.76105438587993,-15.24,-1.37,-0.56,0.0,0.0,4.0,4.0,5.0,1.0,1.0,15.4,55.13,0.0,
13.306,91.52877315293166,89.76910543858799,-12.27,-4.65,-2.11,0.0,0.0,5.0,5.0,5.0,1.0,2.0,16.48,59.64,0.0,
13.33,91.26887731529317,89.7879105438588,-10.38,-2.14,-0.15,0.0,0.0,6.0,5.0,6.0,1.0,2.0,17.17,63.67,0.0,
13.355,90.99988773152933,89.49279105438588,-11.53,-3.92,1.43,0.0,0.0,6.0,6.0,6.0,1.0,2.0,17.46,67.89,0.0,
13.379,91.03598877315294,89.15727910543859,-10.96,-3.2,4.73,0.0,0.0,7.0,6.0,6.0,1.0,2.0,18.64,71.51,0.0,
13.404,91.2915988773153,89.01572791054386,-11.26,-1.73,4.5,0.0,0.0,7.0,6.0,6.0,2.0,2.0,19.33,73.48,0.0,
13.428,91.34415988773154,88.8395727910544,-13.47,-6.57,0.31,0.0,0.0,7.0,7.0,6.0,2.0,3.0,19.91,75.34,0.0,
13.452,91.28641598877316,88.12895727910544,-9.38,-6.15,0.27,0.0,0.0,8.0,7.0,6.0,2.0,3.0,20.8,78.48,0.0,
13.476,91.01064159887731,88.11189572791055,-12.95,-8.05,-2.28,0.0,0.0,9.0,7.0,8.0,2.0,4.0,21.09,82.11,0.0,
13.501,90.87506415988773,87.90318957279105,-12.07,-5.91,0.67,0.0,0.0,10.0,7.0,9.0,3.0,5.0,22.07,85.35,0.0,
13.526,90.98750641598878,87.9723189572791,-12.04,-8.56,-0.03,0.0,0.0,10.0,8.0,9.0,3.0,5.0,22.76,88.19,0.0,
13.55,91.06175064159888,87.5922318957279,-8.37,-11.62,-1.95,0.0,0.0,11.0,8.0,9.0,3.0,5.0,23.35,89.76,0.0,
13.575,90.89817506415989,87.5452231895728,-5.61,-14.85,-1.66,0.0,0.0,11.0,8.0,9.0,3.0,5.0,23.54,90.35,0.0,
13.598,90.43181750641598,87.65752231895729,-7.19,-13.82,-1.34,0.0,0.0,10.0,9.0,9.0,3.0,5.0,23.35,89.76,0.0,
13.623,89.96218175064159,87.56975223189573,-9.6,-11.14,0.8,0.0,0.0,10.0,10.0,9.0,3.0,4.0,22.86,88.78,0.0,
13.647,89.74421817506416,87.41697522318958,-11.77,-10.61,1.3,0.0,0.0,10.0,10.0,9.0,3.0,5.0,22.66,88.78,0.0,
13.672,89.47942181750642,87.04169752231896,-13.39,-10.82,2.5,0.0,0.0,10.0,10.0,9.0,3.0,5.0,23.15,89.07,0.0,
13.697,89.51594218175063,86.51816975223188,-10.32,-13.82,-0.5,0.0,0.0,10.0,11.0,9.0,3.0,5.0,23.64,89.17,0.0,
13.722,89.26759421817506,86.43881697522319,-11.47,-12.06,3.26,0.0,0.0,10.0,12.0,9.0,3.0,5.0,24.03,88.98,0.0,
13.747,88.7027594218175,86.53888169752231,-15.34,-13.61,2.33,0.0,0.0,10.0,1.0,9.0,4.0,6.0,24.43,89.57,0.0,
13.771,88.34927594218175,86.52188816975223,-19.33,-12.99,3.34,0.0,0.0,11.0,2.0,9.0,4.0,7.0,25.31,91.33,0.0,
13.795,88.24192759421818,86.57418881697522,-25.11,-17.24,1.24,0.0,0.0,12.0,4.0,10.0,5.0,9.0,27.47,92.51,0.0,
13.819,88.08719275942181,86.47141888169752,-33.4,-27.5,-4.31,0.0,0.0,2.0,4.0,9.0,6.0,10.0,29.43,92.61,0.0,
13.844,87.28871927594219,86.38914188816976,-45.28,-31.22,-7.03,0.0,0.0,5.0,3.0,0.0,8.0,12.0,30.9,90.55,0.0,
13.87,85.87687192759421,86.42591418881698,-60.15,-30.18,-17.47,0.0,0.0,8.0,11.0,0.0,9.0,1.0,31.39,86.72,0.0,
13.894,85.16868719275942,86.06059141888169,-69.52,-24.88,-20.7,0.0,0.0,10.0,8.0,2.0,10.0,3.0,31.98,79.17,0.0,
13.919,84.07186871927595,85.76305914188818,-87.4,-10.49,-0.09,0.0,0.0,11.0,4.0,2.0,10.0,2.0,32.08,65.43,0.0,
13.943,84.2771868719276,84.88730591418883,-106.16,-10.38,-2.15,0.0,0.0,11.0,0.0,0.0,11.0,3.0,31.69,46.7,0.0,
13.968,84.45071868719276,83.53973059141889,-121.52,-9.9,1.84,0.0,0.0,10.0,0.0,11.0,11.0,2.0,30.51,31.1,0.0,
13.992,83.81107186871927,81.6409730591419,-139.53,13.0,-19.05,0.0,0.0,10.0,0.0,11.0,10.0,0.0,26.78,11.67,0.0,
14.017,84.13410718687193,78.76909730591419,-138.15,28.37,-18.82,0.0,0.0,5.0,0.0,10.0,10.0,10.0,20.4,4.32,0.0,
14.042,86.2184107186872,77.05090973059143,-121.85,-11.15,-53.59,0.0,0.0,11.0,0.0,7.0,8.0,6.0,16.58,1.67,0.0,
14.066,88.20884107186872,76.85209097305915,-108.82,-11.03,-39.19,0.0,0.0,7.0,0.0,0.0,3.0,2.0,11.09,0.1,0.0,
14.091,89.32588410718688,76.57120909730592,-56.64,-25.44,-9.95,0.0,0.0,4.0,0.0,0.0,1.0,2.0,4.71,0.69,0.0,
14.114,90.36458841071868,78.32512090973059,20.73,-48.53,-2.53,0.0,0.0,4.0,0.0,1.0,1.0,2.0,1.47,1.67,0.0,
14.139,89.75745884107187,82.25351209097306,32.51,-49.37,36.82,0.0,0.0,3.0,0.0,0.0,1.0,2.0,0.49,1.37,0.0,
14.162,88.84174588410718,84.55435120909732,34.02,-46.85,48.18,0.0,0.0,2.0,0.0,0.0,1.0,2.0,0.59,1.28,0.0,
14.187,87.29217458841072,85.54043512090973,38.8,-39.15,43.09,0.0,0.0,2.0,0.0,0.0,1.0,2.0,0.49,1.37,0.0,
14.211,84.37421745884106,85.31504351209098,38.16,-11.11,24.09,0.0,0.0,1.0,0.0,0.0,1.0,2.0,0.29,1.18,0.0,
14.234,81.64342174588411,82.4395043512091,67.7,9.95,-12.92,0.0,0.0,1.0,0.0,0.0,1.0,2.0,0.2,13.93,0.0,
14.259,79.82234217458841,80.07295043512092,123.69,5.61,-53.21,0.0,0.0,0.0,0.0,0.0,1.0,2.0,0.0,87.9,0.0,
14.282,79.77523421745883,79.35929504351209,131.71,0.72,-94.95,0.0,0.0,0.0,0.0,0.0,1.0,2.0,0.0,1.96,0.0,
14.307,82.18252342174588,79.26092950435121,92.85,11.18,-80.42,0.0,0.0,0.0,0.0,0.0,1.0,2.0,0.0,1.47,0.0,
14.33,86.35625234217457,78.48609295043512,47.21,20.96,-16.34,0.0,0.0,0.0,0.0,0.0,1.0,2.0,0.1,1.77,0.0,
14.354,92.38062523421746,76.36560929504351,2.79,12.63,68.31,0.0,0.0,0.0,0.0,0.0,0.0,2.0,0.29,1.86,0.0,
14.377,74.75806252342174,58.70256092950435,-15.24,25.32,87.59,0.0,0.0,0.0,0.0,0.0,0.0,2.0,0.69,1.86,0.0,
14.401,56.89480625234217,41.01525609295043,20.41,22.66,54.39,0.0,0.0,0.0,0.0,0.0,0.0,2.0,1.08,47.77,0.0,
14.425,42.67048062523422,26.160525609295043,61.99,19.35,18.04,0.0,0.0,0.0,0.0,0.0,0.0,2.0,1.18,101.04,0.0,
14.449,32.824048062523424,17.655052560929505,98.46,2.03,-22.78,0.0,0.0,0.0,0.0,0.0,0.0,2.0,1.37,88.09,0.0,
14.473,29.45440480625234,18.235505256092953,92.7,-16.39,-41.84,0.0,0.0,0.0,0.0,0.0,0.0,2.0,1.28,88.88,0.0,
14.496,32.78044048062523,23.630550525609298,62.71,-19.58,-74.67,0.0,0.0,0.0,0.0,0.0,0.0,2.0,1.08,80.25,0.0,
14.521,40.07904404806253,29.31805505256093,19.23,-25.49,-78.49,0.0,0.0,0.0,0.0,0.0,0.0,2.0,1.08,80.05,0.0,
14.544,47.495904404806254,35.15180550525609,14.82,-8.7,-30.51,0.0,0.0,0.0,0.0,0.0,0.0,0.0,0.98,82.99,0.0,
14.569,54.76259044048062,39.53318055052561,56.93,5.79,4.11,0.0,0.0,0.0,0.0,0.0,1.0,0.0,0.39,11.77,0.0,
14.593,60.94325904404807,44.01231805505256,59.02,-11.31,34.56,0.0,0.0,0.0,0.0,0.0,1.0,0.0,0.0,0.69,0.0,
14.616,65.25132590440481,48.303231805505256,32.16,-15.84,52.15,0.0,0.0,0.0,0.0,0.0,1.0,0.0,0.0,0.69,0.0,
14.641,68.85913259044048,52.22432318055052,25.24,-15.82,43.18,0.0,0.0,0.0,0.0,0.0,1.0,0.0,0.0,0.69,0.0,
14.664,73.29691325904405,59.34843231805505,32.21,9.79,-38.86,0.0,0.0,0.0,0.0,0.0,0.0,0.0,0.0,0.88,0.0,
14.688,73.1736913259044,61.5998432318055,15.08,61.88,-4.93,0.0,0.0,0.0,0.0,0.0,0.0,0.0,0.0,1.67,0.0,
14.711,74.34036913259044,70.76198432318056,55.79,-9.5,-18.86,0.0,0.0,0.0,1.0,0.0,0.0,0.0,0.49,20.99,0.0,
14.736,74.71803691325906,72.98319843231806,-38.21,37.15,13.08,0.0,0.0,0.0,2.0,0.0,0.0,0.0,1.08,4.51,0.0,
14.759,77.0958036913259,73.23231984323182,-23.18,40.62,4.31,0.0,0.0,0.0,2.0,0.0,1.0,0.0,1.47,8.24,0.0,
14.783,78.8185803691326,74.13923198432319,-7.6,16.74,-0.26,0.0,0.0,0.0,3.0,0.0,1.0,0.0,2.35,24.52,0.0,
14.808,81.02485803691326,76.73192319843231,12.08,5.47,-2.36,0.0,0.0,0.0,4.0,0.0,1.0,0.0,3.43,4.91,0.0,
14.831,81.93848580369134,78.26919231984323,3.71,6.05,-2.18,0.0,0.0,1.0,5.0,1.0,2.0,0.0,4.41,5.89,-2180.37,
14.856,82.47084858036914,80.41191923198433,5.17,17.11,-7.49,0.0,0.0,2.0,6.0,1.0,2.0,0.0,4.81,7.16,0.0,
14.88,82.69508485803692,82.03019192319842,-3.47,5.51,-5.6,0.0,0.0,3.0,6.0,1.0,2.0,0.0,5.1,8.93,0.0,
14.904,83.6625084858037,83.11901919231984,-6.05,6.55,-6.25,0.0,0.0,3.0,7.0,1.0,2.0,0.0,5.3,10.5,0.0,
14.928,84.39825084858037,83.938901919232,-7.57,4.98,-6.66,0.0,0.0,3.0,7.0,2.0,2.0,1.0,5.79,11.28,0.0,
14.953,84.94882508485804,84.58789019192321,-6.53,1.52,-5.77,0.0,0.0,4.0,7.0,2.0,2.0,1.0,6.18,12.65,0.0,
14.977,85.27388250848581,85.01278901919233,-5.56,1.6,-2.16,0.0,0.0,4.0,8.0,2.0,3.0,1.0,6.28,13.64,0.0,
15.001,85.40538825084857,85.40627890191924,-4.98,-0.78,-1.94,0.0,0.0,4.0,8.0,2.0,3.0,1.0,6.28,14.62,0.0,
15.025,85.44553882508485,85.78762789019193,-5.24,1.44,-2.31,0.0,0.0,4.0,9.0,2.0,3.0,1.0,6.28,14.91,0.0,
15.049,85.61155388250847,86.12276278901919,-5.27,1.11,-2.05,0.0,0.0,4.0,9.0,2.0,3.0,1.0,6.18,15.3,0.0,
15.074,85.76315538825085,86.46227627890192,-5.11,-1.07,-2.87,0.0,0.0,4.0,9.0,2.0,3.0,1.0,6.08,15.79,0.0,
15.097,85.96731553882508,86.68522762789019,-5.75,-1.68,-3.15,0.0,0.0,4.0,9.0,2.0,3.0,1.0,6.08,16.09,0.0,
15.122,86.0597315538825,86.914522762789,-6.01,-3.13,-2.17,0.0,0.0,4.0,10.0,2.0,3.0,1.0,5.89,16.19,0.0,
15.147,86.23997315538824,87.00945227627889,-7.36,-4.62,-1.07,0.0,0.0,4.0,10.0,2.0,3.0,1.0,5.69,15.99,0.0,
15.17,86.24899731553882,87.00094522762788,-6.78,-4.28,-1.76,0.0,0.0,5.0,10.0,2.0,3.0,1.0,5.49,15.99,0.0,
15.195,86.30389973155388,87.08109452276278,-5.55,-4.24,-1.42,0.0,0.0,5.0,10.0,2.0,3.0,1.0,5.2,15.6,0.0,
15.219,86.31838997315539,87.06210945227627,-5.76,-4.24,-1.91,0.0,0.0,5.0,10.0,2.0,3.0,1.0,5.1,15.3,0.0,
15.244,86.27483899731554,87.10521094522763,-4.58,-4.82,-2.32,0.0,0.0,5.0,10.0,2.0,4.0,1.0,5.0,14.72,0.0,
15.267,86.18048389973156,87.10952109452276,-4.07,-5.22,-2.74,0.0,0.0,5.0,11.0,2.0,4.0,1.0,4.91,13.93,0.0,
15.292,86.16204838997315,87.18195210945228,-3.63,-7.4,-3.45,0.0,0.0,5.0,11.0,2.0,4.0,1.0,4.91,13.24,0.0,
15.316,86.09720483899733,87.22519521094523,-4.4,-3.69,1.29,0.0,0.0,5.0,11.0,2.0,4.0,1.0,4.71,12.36,0.0,
15.341,86.18072048389973,87.42751952109452,-3.97,-3.61,3.15,0.0,0.0,5.0,11.0,2.0,4.0,1.0,4.61,11.77,0.0,
15.365,86.11707204838997,87.43875195210944,-3.34,-3.67,1.84,0.0,0.0,5.0,10.0,2.0,4.0,1.0,4.61,11.38,0.0,
15.389,85.97570720483898,87.34087519521094,-3.38,-2.91,1.39,0.0,0.0,5.0,10.0,2.0,4.0,1.0,4.51,10.89,0.0,
15.414,85.8985707204839,87.3130875195211,-3.0,-3.17,0.28,0.0,0.0,5.0,10.0,2.0,4.0,1.0,4.32,10.59,0.0,
15.437,85.78285707204839,87.40030875195211,-2.72,-4.37,-1.12,0.0,0.0,4.0,10.0,2.0,4.0,1.0,4.41,10.59,0.0,
15.462,85.76228570720485,87.40903087519521,-2.65,-3.92,-0.79,0.0,0.0,4.0,10.0,2.0,4.0,1.0,4.32,10.1,0.0,
15.486,85.7332285707205,87.40990308751952,-2.79,-1.08,1.6,0.0,0.0,4.0,10.0,2.0,3.0,1.0,4.22,9.42,0.0,
15.51,85.67632285707205,87.48199030875195,-3.02,-1.63,1.69,0.0,0.0,4.0,9.0,2.0,3.0,1.0,4.22,9.03,0.0,
15.535,85.6346322857072,87.4891990308752,-3.22,-1.84,1.19,0.0,0.0,4.0,9.0,2.0,3.0,1.0,4.22,8.83,0.0,
15.558,85.5764632285707,87.50791990308753,-2.6,-1.89,0.89,0.0,0.0,4.0,9.0,2.0,3.0,1.0,4.22,8.63,0.0,
15.583,85.55264632285707,87.56379199030876,-3.18,-0.92,0.73,0.0,0.0,4.0,9.0,2.0,3.0,1.0,4.22,8.34,0.0,
15.606,85.5592646322857,87.60537919903088,-3.03,-0.57,0.74,0.0,0.0,4.0,9.0,2.0,3.0,1.0,4.12,8.34,0.0,
15.631,85.49692646322858,87.65453791990309,-2.92,-0.79,1.01,0.0,0.0,4.0,9.0,2.0,3.0,1.0,4.22,8.34,0.0,
15.654,85.49969264632286,87.63245379199032,-3.18,-1.26,0.45,0.0,0.0,4.0,9.0,2.0,3.0,1.0,4.22,8.34,0.0,
15.679,85.48196926463228,87.59424537919904,-2.63,-2.15,-0.57,0.0,0.0,4.0,9.0,2.0,3.0,1.0,4.32,8.53,0.0,
15.703,85.42619692646323,87.5454245379199,-2.88,-0.92,1.28,0.0,0.0,4.0,9.0,2.0,3.0,1.0,4.41,8.63,0.0,
15.727,85.43861969264633,87.54054245379199,-2.79,-0.6,1.04,0.0,0.0,4.0,9.0,2.0,3.0,1.0,4.32,8.63,0.0,
15.752,85.47586196926463,87.5130542453792,-3.18,-0.89,-0.05,0.0,0.0,4.0,9.0,2.0,3.0,1.0,4.32,8.83,0.0,
15.775,85.52458619692646,87.54630542453792,-3.14,-0.79,-0.27,0.0,0.0,4.0,9.0,2.0,3.0,1.0,4.41,8.83,0.0,
15.8,85.49345861969265,87.5226305424538,-2.93,-1.0,-0.26,0.0,0.0,4.0,9.0,2.0,3.0,1.0,4.61,8.93,0.0,
15.823,85.52634586196926,87.51126305424538,-3.05,-0.52,-0.52,0.0,0.0,4.0,9.0,2.0,3.0,1.0,4.61,8.93,0.0,
15.848,85.52063458619693,87.55512630542454,-3.31,-0.69,-0.55,0.0,0.0,4.0,9.0,2.0,3.0,1.0,4.61,8.93,0.0,
15.872,85.4930634586197,87.50551263054246,-3.18,-0.44,-0.11,0.0,0.0,4.0,9.0,2.0,3.0,1.0,4.61,9.03,0.0,
15.896,85.55330634586197,87.50955126305425,-3.36,0.4,0.49,0.0,0.0,4.0,9.0,2.0,3.0,1.0,4.61,9.12,0.0,
15.92,85.56833063458619,87.51895512630543,-3.37,0.25,0.59,0.0,0.0,4.0,9.0,2.0,3.0,1.0,4.61,9.12,0.0,
15.944,85.5698330634586,87.52889551263054,-3.75,-0.22,0.18,0.0,0.0,4.0,9.0,2.0,3.0,1.0,4.61,9.22,0.0,
15.968,85.62398330634585,87.49388955126305,-3.75,-0.23,-0.4,0.0,0.0,4.0,9.0,2.0,3.0,1.0,4.71,9.22,0.0,
15.992,85.65639833063457,87.4543889551263,-3.43,0.04,-0.07,0.0,0.0,4.0,10.0,2.0,3.0,1.0,4.81,9.32,0.0,
16.017,85.66863983306347,87.41443889551263,-3.24,-0.6,-0.27,0.0,0.0,4.0,10.0,2.0,3.0,1.0,4.81,9.42,0.0,
16.04,85.73286398330634,87.41044388955126,-3.5,-0.7,-0.21,0.0,0.0,4.0,10.0,2.0,3.0,1.0,4.81,9.42,0.0,
16.065,85.71228639833063,87.39204438895513,-3.31,-0.3,-0.21,0.0,0.0,4.0,10.0,2.0,3.0,1.0,4.71,9.61,0.0,
16.09,85.71922863983306,87.39920443889552,-3.65,-0.58,-0.52,0.0,0.0,4.0,10.0,2.0,3.0,1.0,4.71,9.71,0.0,
16.113,85.7649228639833,87.43592044388954,-3.6,-0.57,-0.79,0.0,0.0,4.0,10.0,2.0,3.0,1.0,4.81,9.81,0.0,
16.138,85.78749228639835,87.39459204438894,-3.38,-0.68,-0.51,0.0,0.0,4.0,10.0,2.0,3.0,1.0,4.81,10.1,0.0,
16.162,85.78974922863985,87.41745920443888,-3.18,-0.27,-0.22,0.0,0.0,4.0,10.0,2.0,3.0,1.0,4.81,10.2,0.0,
16.186,85.81697492286398,87.4287459204439,-3.46,-0.23,-0.54,0.0,0.0,4.0,10.0,2.0,3.0,1.0,4.71,10.5,0.0,
16.21,85.8286974922864,87.46587459204439,-3.47,-0.28,-0.36,0.0,0.0,4.0,10.0,2.0,3.0,1.0,4.81,10.5,0.0,
16.235,85.85686974922864,87.47858745920443,-4.05,-0.45,-0.27,0.0,0.0,4.0,10.0,2.0,3.0,1.0,4.81,10.59,0.0,
16.26,85.91368697492287,87.45285874592044,-3.78,-0.56,0.06,0.0,0.0,4.0,10.0,2.0,3.0,1.0,4.81,10.69,0.0,
16.283,85.91036869749229,87.38728587459204,-3.69,-1.14,-0.32,0.0,0.0,4.0,10.0,2.0,3.0,1.0,4.71,10.89,0.0,
16.308,85.91003686974923,87.3357285874592,-3.73,-0.27,-0.02,0.0,0.0,4.0,10.0,2.0,3.0,1.0,4.61,10.99,0.0,
16.332,85.99100368697492,87.30357285874591,-2.98,0.32,-0.02,0.0,0.0,4.0,10.0,2.0,3.0,1.0,4.61,10.99,0.0,
16.357,86.08910036869749,87.3093572858746,-3.05,-0.15,-0.06,0.0,0.0,4.0,10.0,2.0,3.0,1.0,4.81,11.18,0.0,
16.38,86.09891003686974,87.25593572858746,-2.93,-0.91,-0.07,0.0,0.0,4.0,10.0,2.0,3.0,1.0,4.91,11.28,0.0,
16.405,86.11789100368698,87.25059357285875,-3.28,-0.85,0.17,0.0,0.0,4.0,10.0,2.0,3.0,1.0,4.91,11.38,0.0,
16.43,86.1557891003687,87.25905935728588,-2.94,-1.15,0.21,0.0,0.0,4.0,10.0,2.0,3.0,1.0,4.91,11.38,0.0,
16.453,86.12357891003688,87.2329059357286,-2.84,-1.23,0.18,0.0,0.0,4.0,10.0,2.0,3.0,1.0,4.81,11.38,0.0,
16.478,86.11135789100368,87.25729059357286,-2.76,-0.79,0.02,0.0,0.0,4.0,10.0,2.0,3.0,1.0,4.81,11.38,0.0,
16.502,86.13713578910037,87.2327290593573,-2.94,-1.06,-0.07,0.0,0.0,4.0,10.0,2.0,3.0,1.0,4.81,11.38,0.0,
16.527,86.10371357891003,87.36527290593573,-3.08,-1.83,-0.27,0.0,0.0,4.0,10.0,2.0,3.0,1.0,4.81,11.28,0.0,
16.55,86.136371357891,87.37852729059357,-2.96,-1.22,-0.13,0.0,0.0,4.0,10.0,2.0,3.0,1.0,4.81,11.28,0.0,
16.575,86.1486371357891,87.37085272905937,-2.99,-0.86,0.1,0.0,0.0,4.0,10.0,2.0,3.0,1.0,4.81,11.28,0.0,
16.6,86.17686371357892,87.40608527290593,-3.03,-0.69,-0.05,0.0,0.0,4.0,10.0,2.0,3.0,1.0,4.81,11.18,0.0,
16.623,86.21568637135789,87.48160852729059,-2.9,-0.95,0.12,0.0,0.0,4.0,10.0,2.0,3.0,1.0,4.91,10.99,0.0,
16.648,86.20156863713578,87.47116085272906,-2.78,-1.17,-0.01,0.0,0.0,4.0,10.0,2.0,3.0,1.0,4.91,11.18,0.0,
16.672,86.18215686371359,87.3621160852729,-2.69,-0.09,0.54,0.0,0.0,4.0,10.0,2.0,3.0,1.0,4.91,11.09,0.0,
16.697,86.26121568637136,87.32421160852728,-2.31,-0.27,0.5,0.0,0.0,4.0,10.0,2.0,3.0,1.0,4.91,10.99,0.0,
16.72,86.33212156863713,87.38342116085272,-2.65,-0.54,0.12,0.0,0.0,4.0,10.0,2.0,3.0,1.0,4.91,10.99,0.0,
16.745,86.36621215686371,87.40734211608526,-2.77,-1.25,-0.6,0.0,0.0,4.0,10.0,2.0,3.0,1.0,4.81,10.89,0.0,
16.77,86.37862121568638,87.40973421160852,-3.1,-1.63,-0.96,0.0,0.0,4.0,10.0,2.0,3.0,1.0,4.81,10.89,0.0,
16.793,86.38886212156864,87.45497342116084,-3.13,-1.38,-0.55,0.0,0.0,4.0,10.0,2.0,3.0,1.0,4.81,10.79,0.0,
16.818,86.38988621215687,87.45949734211608,-3.09,-0.66,-0.13,0.0,0.0,4.0,10.0,2.0,3.0,1.0,4.81,10.89,0.0,
16.842,86.3989886212157,87.4419497342116,-2.82,-1.85,-0.74,0.0,0.0,4.0,10.0,2.0,3.0,1.0,4.81,10.99,0.0,
16.867,86.32789886212157,87.38619497342115,-2.91,-1.27,-0.95,0.0,0.0,4.0,10.0,2.0,3.0,1.0,4.61,10.89,0.0,
16.89,86.33878988621215,87.33561949734211,-2.76,-1.55,-0.4,0.0,0.0,4.0,10.0,2.0,3.0,1.0,4.71,10.89,0.0,
16.915,86.36687898862122,87.3845619497342,-2.91,-0.94,-0.5,0.0,0.0,4.0,10.0,2.0,3.0,1.0,4.71,10.99,0.0,
16.94,86.36068789886212,87.39845619497343,-3.24,-0.72,-0.7,0.0,0.0,5.0,10.0,2.0,3.0,1.0,4.71,11.09,0.0,
16.964,86.34206878988621,87.41784561949734,-3.18,-1.04,-0.97,0.0,0.0,5.0,10.0,2.0,3.0,1.0,4.71,11.28,0.0,
16.988,86.33120687898862,87.41078456194973,-3.27,-1.24,-1.19,0.0,0.0,5.0,10.0,2.0,3.0,1.0,4.71,11.48,0.0,
17.012,86.32112068789887,87.43707845619497,-3.32,-1.0,-0.85,0.0,0.0,5.0,10.0,2.0,3.0,2.0,4.71,11.67,0.0,
17.037,86.24811206878988,87.5117078456195,-3.15,-0.63,-0.15,0.0,0.0,5.0,10.0,2.0,3.0,2.0,4.71,11.77,0.0,
17.061,86.29481120687899,87.54617078456195,-3.8,-0.21,0.05,0.0,0.0,5.0,10.0,2.0,3.0,2.0,4.81,11.67,0.0,
17.085,86.2274811206879,87.49561707845619,-3.27,-0.79,-1.07,0.0,0.0,5.0,10.0,2.0,3.0,2.0,4.71,11.77,0.0,
17.11,86.21174811206879,87.50856170784562,-3.23,-1.39,-1.12,0.0,0.0,5.0,10.0,2.0,3.0,2.0,4.71,11.87,0.0,
17.134,86.26417481120689,87.50985617078456,-3.38,-1.28,-0.54,0.0,0.0,5.0,10.0,2.0,3.0,2.0,4.71,11.77,0.0,
17.159,86.28741748112068,87.55498561707846,-3.25,-1.53,-0.79,0.0,0.0,5.0,10.0,2.0,3.0,2.0,4.81,11.87,0.0,
17.182,86.27174174811206,87.52349856170784,-3.09,-1.28,-0.85,0.0,0.0,5.0,10.0,2.0,3.0,2.0,4.81,11.58,0.0,
17.207,86.2611741748112,87.4393498561708,-3.08,-1.1,-0.21,0.0,0.0,5.0,10.0,2.0,3.0,2.0,4.81,11.38,0.0,
17.231,86.26011741748113,87.47593498561707,-2.56,-0.56,0.11,0.0,0.0,5.0,10.0,2.0,3.0,2.0,4.81,11.28,0.0,
17.256,86.27801174174812,87.47959349856171,-2.5,-0.57,0.3,0.0,0.0,5.0,10.0,2.0,3.0,1.0,4.81,11.28,0.0,
17.28,86.30680117417481,87.49795934985617,-2.75,-0.66,0.49,0.0,0.0,5.0,10.0,2.0,3.0,1.0,4.81,11.28,0.0,
17.304,86.25568011741748,87.51779593498561,-2.92,-0.24,0.46,0.0,0.0,4.0,10.0,2.0,3.0,1.0,5.1,11.28,0.0,
17.329,86.29556801174175,87.52877959349856,-2.66,-0.27,0.56,0.0,0.0,4.0,10.0,2.0,3.0,1.0,5.1,11.28,0.0,
17.352,86.34455680117418,87.52987795934986,-2.78,-0.19,0.82,0.0,0.0,4.0,10.0,2.0,3.0,1.0,5.2,11.28,0.0,
17.377,86.36745568011742,87.50298779593498,-2.36,-0.4,1.24,0.0,0.0,4.0,10.0,2.0,3.0,1.0,5.3,11.18,-2627.61,
17.401,86.36074556801174,87.48229877959349,-2.1,-0.34,1.48,0.0,0.0,4.0,9.0,2.0,3.0,1.0,5.49,11.09,0.0,
17.426,86.33307455680118,87.52522987795935,-2.37,0.02,1.78,0.0,0.0,4.0,9.0,2.0,3.0,1.0,5.59,10.89,0.0,
17.449,86.36630745568011,87.57452298779593,-2.16,0.34,2.34,0.0,0.0,4.0,9.0,2.0,3.0,1.0,5.59,10.79,0.0,
17.474,86.34263074556802,87.5974522987796,-1.95,0.63,2.47,0.0,0.0,4.0,9.0,2.0,3.0,1.0,5.69,10.59,0.0,
17.498,86.3492630745568,87.62674522987797,-1.86,0.03,2.21,0.0,0.0,4.0,9.0,2.0,2.0,1.0,5.69,10.3,0.0,
17.522,86.32292630745567,87.6746745229878,-1.8,0.76,2.39,0.0,0.0,3.0,9.0,2.0,2.0,1.0,5.69,10.1,0.0,
17.546,86.34729263074557,87.68846745229878,-1.19,1.11,2.62,0.0,0.0,3.0,8.0,2.0,2.0,1.0,5.69,9.91,0.0,
17.569,86.41272926307457,87.75284674522989,-1.42,0.82,2.66,0.0,0.0,3.0,8.0,2.0,2.0,1.0,5.69,9.61,0.0,
17.594,86.44627292630746,87.831284674523,-2.24,1.26,1.08,0.0,0.0,3.0,8.0,2.0,2.0,1.0,5.59,9.42,0.0,
17.617,86.53062729263075,87.8301284674523,-2.67,1.05,0.46,0.0,0.0,3.0,8.0,2.0,2.0,1.0,5.79,9.22,0.0,
17.642,86.62906272926307,87.85701284674522,-2.66,1.01,0.27,0.0,0.0,3.0,8.0,2.0,2.0,1.0,5.98,9.42,0.0,
17.666,86.6659062729263,87.79670128467453,-2.86,0.05,-0.03,0.0,0.0,3.0,8.0,2.0,2.0,1.0,5.98,9.52,0.0,
17.69,86.73259062729264,87.80867012846747,-3.47,0.72,-0.79,0.0,0.0,3.0,8.0,2.0,2.0,1.0,6.08,9.42,0.0,
17.714,86.77525906272926,87.76486701284675,-3.51,0.46,-1.34,0.0,0.0,3.0,8.0,2.0,2.0,1.0,5.98,9.61,0.0,
17.738,86.84252590627291,87.77848670128468,-3.63,0.87,-1.24,0.0,0.0,3.0,8.0,2.0,2.0,1.0,5.98,9.61,0.0,
17.762,86.8312525906273,87.79784867012846,-3.39,0.31,-1.22,0.0,0.0,3.0,8.0,2.0,2.0,1.0,6.08,9.81,0.0,
17.786,86.87512525906273,87.77278486701285,-3.52,-0.59,-1.44,0.0,0.0,3.0,8.0,2.0,2.0,1.0,6.08,9.81,0.0,
17.81,86.87051252590628,87.79727848670127,-3.29,-0.36,-0.74,0.0,0.0,3.0,8.0,2.0,2.0,1.0,6.08,9.81,0.0,
17.835,86.89705125259063,87.84472784867012,-3.25,-0.4,-0.63,0.0,0.0,3.0,8.0,2.0,2.0,1.0,6.08,9.81,0.0,
17.859,86.98070512525906,87.903472784867,-3.66,-0.35,-0.86,0.0,0.0,3.0,8.0,2.0,2.0,1.0,6.18,9.91,0.0,
17.883,87.0610705125259,87.93634727848669,-3.25,-0.56,-0.97,0.0,0.0,3.0,8.0,2.0,2.0,1.0,6.18,10.1,0.0,
17.907,87.11410705125259,87.88563472784867,-3.36,-0.47,-0.73,0.0,0.0,3.0,8.0,2.0,2.0,1.0,6.28,10.2,0.0,
17.931,87.15541070512526,87.93456347278487,-3.66,-0.8,-0.44,0.0,0.0,3.0,8.0,2.0,2.0,1.0,6.08,10.2,0.0,
17.955,87.24054107051253,87.93945634727848,-3.97,-0.98,-0.64,0.0,0.0,3.0,8.0,2.0,2.0,1.0,6.18,10.2,0.0,
17.98,87.24905410705125,87.94894563472785,-3.82,-1.37,-0.85,0.0,0.0,3.0,8.0,2.0,2.0,1.0,6.18,10.3,0.0,
18.004,87.21390541070511,87.89589456347278,-3.47,-1.15,-0.41,0.0,0.0,3.0,9.0,2.0,2.0,1.0,6.08,10.3,0.0,
18.028,87.2103905410705,87.87258945634728,-2.97,-1.49,-0.42,0.0,0.0,3.0,9.0,2.0,2.0,1.0,6.08,10.4,0.0,
18.053,87.13803905410705,87.87925894563473,-3.01,-1.08,-0.32,0.0,0.0,3.0,9.0,2.0,2.0,1.0,6.28,10.4,0.0,
18.077,87.1488039054107,87.82592589456347,-3.21,-1.18,-0.58,0.0,0.0,3.0,9.0,2.0,2.0,1.0,6.28,10.4,0.0,
18.101,87.12288039054107,87.80259258945634,-3.66,-0.62,-0.66,0.0,0.0,3.0,9.0,2.0,2.0,1.0,6.38,10.4,0.0,
18.125,87.0752880390541,87.72825925894564,-2.93,-2.31,-0.46,0.0,0.0,3.0,9.0,2.0,2.0,1.0,6.38,10.4,0.0,
18.15,87.1245288039054,87.74782592589457,-2.77,-1.56,-0.35,0.0,0.0,3.0,9.0,2.0,2.0,1.0,6.18,10.4,0.0,
18.173,87.16545288039055,87.71378259258945,-2.98,-1.15,-0.17,0.0,0.0,3.0,9.0,2.0,2.0,1.0,6.28,10.5,0.0,
18.198,87.19654528803906,87.71037825925893,-3.11,-0.99,-0.14,0.0,0.0,3.0,9.0,2.0,2.0,1.0,6.38,10.59,0.0,
18.223,87.3076545288039,87.6830378259259,-3.24,-0.28,-0.15,0.0,0.0,3.0,9.0,2.0,2.0,1.0,6.38,10.59,0.0,
18.246,87.3367654528804,87.69830378259259,-3.29,-1.55,-0.37,0.0,0.0,3.0,9.0,2.0,2.0,1.0,6.38,10.59,0.0,
18.271,87.33967654528804,87.72683037825927,-3.34,-1.18,-0.54,0.0,0.0,3.0,9.0,2.0,2.0,1.0,6.38,10.5,0.0,
18.295,87.2949676545288,87.72068303782594,-3.4,-0.28,0.11,0.0,0.0,3.0,9.0,2.0,2.0,1.0,6.28,10.4,0.0,
18.319,87.28149676545289,87.73806830378258,-3.73,-1.13,-0.34,0.0,0.0,3.0,9.0,2.0,2.0,1.0,6.28,10.3,0.0,
18.343,87.29814967654528,87.73980683037826,-3.7,-0.87,-0.31,0.0,0.0,3.0,9.0,2.0,2.0,1.0,6.28,10.3,0.0,
18.368,87.29981496765453,87.69498068303783,-3.23,-1.64,-1.31,0.0,0.0,3.0,9.0,2.0,2.0,1.0,6.38,10.4,0.0,
18.392,87.25498149676545,87.69949806830378,-2.96,-1.86,-1.24,0.0,0.0,4.0,9.0,2.0,2.0,1.0,6.28,10.4,0.0,
18.416,87.30449814967655,87.72694980683039,-3.22,-1.31,-0.59,0.0,0.0,4.0,9.0,2.0,2.0,1.0,6.28,10.3,0.0,
18.441,87.29144981496766,87.73869498068304,-3.5,-1.19,-0.6,0.0,0.0,4.0,9.0,2.0,2.0,1.0,6.28,10.4,0.0,
18.464,87.28114498149677,87.7398694980683,-3.32,-0.98,-0.44,0.0,0.0,4.0,9.0,2.0,2.0,1.0,6.28,10.5,0.0,
18.489,87.28911449814969,87.70398694980683,-3.27,-0.08,0.37,0.0,0.0,4.0,9.0,2.0,2.0,1.0,6.28,10.4,0.0,
18.513,87.30791144981498,87.63739869498069,-3.79,-0.31,0.67,0.0,0.0,4.0,9.0,2.0,2.0,1.0,6.47,10.5,0.0,
18.537,87.35479114498149,87.59473986949807,-3.34,-0.98,0.15,0.0,0.0,4.0,9.0,2.0,2.0,1.0,6.38,10.59,0.0,
18.562,87.35947911449814,87.5814739869498,-3.45,-0.8,0.14,0.0,0.0,4.0,9.0,2.0,2.0,1.0,6.47,10.69,0.0,
18.585,87.35094791144981,87.58914739869498,-3.18,-0.81,0.1,0.0,0.0,4.0,9.0,2.0,2.0,1.0,6.47,10.79,0.0,
18.61,87.32309479114497,87.6259147398695,-3.49,-0.79,0.0,0.0,0.0,4.0,9.0,2.0,2.0,1.0,6.38,10.69,0.0,
18.634,87.32030947911448,87.62059147398695,-3.72,-1.01,-0.36,0.0,0.0,4.0,9.0,2.0,2.0,1.0,6.38,10.79,0.0,
18.658,87.32903094791143,87.63805914739869,-3.49,-0.92,-0.17,0.0,0.0,4.0,9.0,2.0,2.0,1.0,6.38,10.99,0.0,
18.682,87.33890309479115,87.63080591473987,-3.44,-0.6,-0.16,0.0,0.0,4.0,9.0,2.0,2.0,1.0,6.38,11.09,0.0,
18.707,87.42089030947912,87.54908059147398,-3.16,-0.34,0.04,0.0,0.0,4.0,9.0,2.0,2.0,1.0,6.38,11.18,0.0,
18.731,87.4380890309479,87.5499080591474,-3.52,-0.33,-0.04,0.0,0.0,4.0,9.0,2.0,2.0,1.0,6.38,11.28,0.0,
18.755,87.4308089030948,87.57699080591475,-3.4,-0.64,-0.15,0.0,0.0,4.0,9.0,2.0,2.0,1.0,6.57,11.38,0.0,
18.78,87.48408089030949,87.59769908059148,-3.27,-1.11,-0.34,0.0,0.0,4.0,9.0,2.0,2.0,1.0,6.38,11.48,0.0,
18.803,87.54340808903095,87.63576990805915,-3.07,-0.73,-0.12,0.0,0.0,4.0,9.0,2.0,2.0,1.0,6.47,11.67,0.0,
18.828,87.5313408089031,87.63057699080592,-3.23,-0.9,-0.16,0.0,0.0,4.0,10.0,2.0,2.0,1.0,6.38,11.67,0.0,
18.852,87.5301340808903,87.6120576990806,-3.15,-1.16,0.0,0.0,0.0,4.0,10.0,2.0,2.0,1.0,6.38,11.67,0.0,
18.876,87.53001340808903,87.61020576990806,-3.39,-0.93,-0.05,0.0,0.0,4.0,10.0,2.0,2.0,1.0,6.47,11.67,0.0,
18.9,87.55700134080891,87.6190205769908,-3.4,-0.65,-0.1,0.0,0.0,4.0,9.0,2.0,2.0,1.0,6.47,11.67,0.0,
18.925,87.5687001340809,87.61990205769908,-3.15,-1.09,0.08,0.0,0.0,4.0,10.0,2.0,2.0,1.0,6.57,11.67,0.0,
18.949,87.5968700134081,87.62899020576991,-3.17,-1.11,-0.35,0.0,0.0,4.0,10.0,2.0,2.0,1.0,6.57,11.67,0.0,
18.973,87.56368700134081,87.638899020577,-3.33,-0.82,-0.1,0.0,0.0,4.0,10.0,2.0,2.0,1.0,6.67,11.77,0.0,
18.998,87.61436870013408,87.6218899020577,-3.33,-0.49,-0.38,0.0,0.0,4.0,10.0,2.0,2.0,1.0,6.77,11.77,0.0,
19.022,87.60143687001342,87.59318899020577,-3.39,-1.08,-0.31,0.0,0.0,4.0,10.0,2.0,2.0,1.0,6.87,11.87,0.0,
19.046,87.60014368700135,87.52731889902057,-2.99,-1.32,-0.12,0.0,0.0,4.0,10.0,2.0,2.0,1.0,6.77,11.97,0.0,
19.07,87.57301436870014,87.52073188990205,-3.21,-1.05,0.21,0.0,0.0,4.0,10.0,2.0,2.0,1.0,6.77,11.97,0.0,
19.095,87.57930143687001,87.52907318899021,-3.31,-1.5,0.01,0.0,0.0,4.0,10.0,2.0,2.0,1.0,6.77,11.97,0.0,
19.12,87.61593014368701,87.52990731889902,-3.19,-1.47,-0.29,0.0,0.0,4.0,10.0,2.0,2.0,1.0,6.77,11.87,0.0,
19.143,87.5475930143687,87.5749907318899,-3.18,-1.73,-0.06,0.0,0.0,4.0,10.0,2.0,2.0,1.0,6.87,11.97,0.0,
19.168,87.52275930143686,87.561499073189,-3.27,-1.15,-0.06,0.0,0.0,4.0,10.0,2.0,2.0,1.0,6.87,11.97,0.0,
19.192,87.51127593014368,87.5871499073189,-3.18,-0.95,0.07,0.0,0.0,4.0,10.0,2.0,2.0,1.0,6.77,12.07,0.0,
19.216,87.51912759301436,87.58971499073189,-3.29,-1.6,-0.34,0.0,0.0,4.0,10.0,2.0,2.0,1.0,6.87,11.87,0.0,
19.24,87.47491275930143,87.58997149907319,-3.11,-0.91,-0.01,0.0,0.0,4.0,10.0,2.0,2.0,1.0,6.87,11.97,0.0,
19.265,87.46149127593014,87.58099714990732,-3.14,-1.63,0.16,0.0,0.0,4.0,10.0,2.0,2.0,1.0,6.87,11.87,0.0,
19.29,87.46014912759301,87.59809971499074,-3.21,-1.13,0.26,0.0,0.0,4.0,10.0,2.0,2.0,1.0,6.87,11.77,0.0,
19.313,87.46901491275929,87.56380997149907,-3.48,-1.11,0.52,0.0,0.0,4.0,10.0,2.0,2.0,1.0,6.77,11.77,0.0,
19.338,87.37090149127593,87.5063809971499,-3.41,-0.84,-0.01,0.0,0.0,4.0,10.0,2.0,2.0,1.0,6.77,11.67,0.0,
19.362,87.33409014912759,87.50963809971499,-3.27,-0.96,-0.05,0.0,0.0,4.0,10.0,2.0,2.0,1.0,6.77,11.77,0.0,
19.387,87.33940901491276,87.5009638099715,-3.4,-1.18,-0.28,0.0,0.0,4.0,10.0,2.0,2.0,1.0,6.87,11.87,0.0,
19.41,87.36694090149129,87.50009638099715,-3.21,-1.05,-0.27,0.0,0.0,4.0,10.0,2.0,2.0,1.0,6.77,11.97,0.0,
19.435,87.37869409014912,87.50000963809971,-3.02,-1.44,-0.18,0.0,0.0,4.0,10.0,2.0,2.0,1.0,6.77,12.07,0.0,
19.46,87.4158694090149,87.52700096380997,-3.0,-1.63,-0.23,0.0,0.0,4.0,10.0,2.0,2.0,1.0,6.77,12.07,0.0,
19.484,87.46458694090148,87.52070009638099,-3.27,-1.53,-0.07,0.0,0.0,4.0,10.0,2.0,2.0,1.0,6.77,12.16,0.0,
19.508,87.42445869409015,87.5110700096381,-3.35,-1.37,-0.21,0.0,0.0,4.0,10.0,2.0,2.0,1.0,6.87,12.07,0.0,
19.532,87.45644586940901,87.49210700096381,-3.27,-1.04,0.17,0.0,0.0,4.0,10.0,2.0,2.0,1.0,6.77,12.07,0.0,
19.557,87.4506445869409,87.46321070009638,-3.31,-0.66,0.17,0.0,0.0,4.0,10.0,2.0,2.0,1.0,6.87,11.97,0.0,
19.58,87.54906445869409,87.48732107000964,-3.25,-1.36,-0.14,0.0,0.0,4.0,10.0,2.0,2.0,1.0,6.97,12.07,0.0,
19.605,87.52290644586941,87.45373210700096,-3.15,-1.4,0.27,0.0,0.0,4.0,10.0,2.0,2.0,1.0,6.97,12.16,0.0,
19.63,87.48429064458693,87.4953732107001,-3.37,-0.84,0.5,0.0,0.0,4.0,10.0,2.0,2.0,1.0,6.97,12.07,0.0,
19.654,87.51642906445869,87.46353732107,-3.37,-1.05,0.21,0.0,0.0,4.0,10.0,2.0,2.0,1.0,7.06,12.07,0.0,
19.678,87.50164290644587,87.487353732107,-3.31,-1.05,0.05,0.0,0.0,4.0,10.0,2.0,2.0,1.0,7.06,11.97,0.0,
19.702,87.46416429064459,87.45373537321069,-3.35,-1.76,0.02,0.0,0.0,4.0,10.0,2.0,2.0,1.0,7.16,11.87,0.0,
19.727,87.51441642906445,87.45937353732107,-3.28,-1.53,-0.16,0.0,0.0,4.0,10.0,2.0,2.0,1.0,7.06,11.97,0.0,
19.75,87.49244164290644,87.40593735373211,-3.29,-1.73,0.2,0.0,0.0,4.0,10.0,2.0,2.0,1.0,6.97,11.77,0.0,
19.775,87.47224416429064,87.40059373537322,-3.15,-1.73,0.02,0.0,0.0,4.0,10.0,2.0,2.0,1.0,7.06,11.67,0.0,
19.8,87.47922441642906,87.40905937353732,-3.32,-1.6,0.15,0.0,0.0,4.0,10.0,2.0,2.0,1.0,7.06,11.67,0.0,
19.823,87.4529224416429,87.37390593735374,-3.08,-1.6,0.21,0.0,0.0,4.0,10.0,2.0,2.0,1.0,7.06,11.67,0.0,
19.848,87.46829224416429,87.35239059373536,-3.29,-1.66,0.12,0.0,0.0,4.0,10.0,2.0,2.0,1.0,7.06,11.48,0.0,
19.872,87.49682922441643,87.38623905937354,-3.25,-1.61,0.33,0.0,0.0,4.0,10.0,2.0,2.0,1.0,7.06,11.48,0.0,
19.896,87.48168292244164,87.37162390593735,-3.33,-1.91,0.15,0.0,0.0,4.0,10.0,2.0,2.0,1.0,7.16,11.28,0.0,
19.92,87.46216829224416,87.37916239059373,-3.07,-2.05,-0.66,0.0,0.0,4.0,10.0,2.0,2.0,1.0,7.16,11.18,0.0,
19.945,87.3882168292244,87.33491623905937,-2.9,-0.8,-0.14,0.0,0.0,4.0,10.0,2.0,2.0,1.0,7.06,10.99,0.0,
19.97,87.31782168292244,87.34849162390593,-2.96,-1.19,-0.12,0.0,0.0,4.0,10.0,2.0,2.0,1.0,7.16,10.89,0.0,
19.993,87.29278216829225,87.35884916239058,-3.01,-1.47,-0.01,0.0,0.0,4.0,10.0,2.0,2.0,1.0,7.16,10.79,0.0,
20.018,87.30827821682924,87.40488491623906,-3.31,-1.34,0.36,0.0,0.0,4.0,10.0,2.0,2.0,1.0,7.06,10.69,0.0,
20.042,87.28282782168293,87.3914884916239,-3.35,-1.56,-0.05,0.0,0.0,4.0,10.0,2.0,2.0,1.0,7.06,10.59,0.0,
20.067,87.3072827821683,87.43514884916239,-3.11,-1.69,0.05,0.0,0.0,4.0,10.0,2.0,2.0,1.0,7.16,10.5,0.0,
20.09,87.24672827821682,87.49351488491624,-3.11,-1.43,0.18,0.0,0.0,4.0,10.0,2.0,2.0,1.0,7.16,10.4,0.0,
20.115,87.25867282782168,87.50835148849163,-3.34,-1.44,0.12,0.0,0.0,4.0,10.0,2.0,2.0,1.0,7.26,10.3,0.0,
20.14,87.27786728278217,87.47383514884916,-3.49,-1.76,-0.05,0.0,0.0,4.0,10.0,2.0,2.0,1.0,7.26,10.2,0.0,
20.163,87.26178672827822,87.43438351488493,-3.31,-1.46,0.07,0.0,0.0,4.0,10.0,2.0,2.0,1.0,7.26,10.2,0.0,
20.188,87.30517867282782,87.42143835148849,-3.32,-2.01,0.01,0.0,0.0,4.0,10.0,2.0,2.0,1.0,7.16,10.1,0.0,
20.212,87.24651786728278,87.42014383514885,-3.66,-1.44,0.29,0.0,0.0,4.0,10.0,2.0,2.0,1.0,7.06,10.1,0.0,
20.236,87.24065178672826,87.4290143835149,-3.76,-0.94,0.17,0.0,0.0,4.0,10.0,2.0,2.0,1.0,7.26,10.01,0.0,
20.26,87.25806517867284,87.42090143835148,-3.63,-1.05,0.21,0.0,0.0,4.0,10.0,2.0,2.0,1.0,7.26,10.1,0.0,
20.285,87.24180651786727,87.42009014383514,-3.6,-1.15,-0.07,0.0,0.0,4.0,10.0,2.0,2.0,1.0,7.26,10.2,0.0,
20.308,87.21318065178671,87.42900901438352,-3.32,-1.44,-0.08,0.0,0.0,4.0,10.0,2.0,2.0,1.0,7.26,10.01,0.0,
20.333,87.14731806517867,87.45690090143835,-3.66,-1.02,-0.17,0.0,0.0,4.0,10.0,2.0,2.0,1.0,7.36,10.01,0.0,
20.358,87.14073180651786,87.42369009014384,-3.47,-1.34,-0.37,0.0,0.0,4.0,10.0,2.0,2.0,1.0,7.36,9.91,0.0,
20.382,87.13107318065178,87.43836900901438,-3.37,-1.17,-0.02,0.0,0.0,4.0,10.0,2.0,2.0,1.0,7.46,10.01,0.0,
20.406,87.14810731806517,87.45783690090144,-3.66,-1.21,-0.05,0.0,0.0,4.0,10.0,2.0,2.0,1.0,7.36,9.91,0.0,
20.43,87.17681073180651,87.45078369009013,-3.34,-1.15,-0.2,0.0,0.0,4.0,10.0,2.0,2.0,1.0,7.36,9.91,0.0,
20.455,87.20668107318065,87.40507836900902,-3.21,-1.33,-0.33,0.0,0.0,4.0,10.0,2.0,2.0,1.0,7.36,10.1,0.0,
20.478,87.23666810731805,87.4095078369009,-3.34,-1.14,-0.27,0.0,0.0,4.0,10.0,2.0,2.0,1.0,7.26,10.2,0.0,
20.503,87.2486668107318,87.38295078369009,-3.28,-0.68,-0.37,0.0,0.0,4.0,10.0,2.0,2.0,1.0,7.26,10.3,0.0,
20.528,87.22286668107319,87.362295078369,-3.22,-0.53,-0.05,0.0,0.0,4.0,10.0,2.0,2.0,1.0,7.36,10.4,0.0,
20.552,87.19328666810732,87.3422295078369,-3.48,-0.83,-0.05,0.0,0.0,4.0,10.0,2.0,2.0,1.0,7.36,10.5,0.0,
20.577,87.15432866681073,87.32222295078368,-3.24,-0.67,-0.27,0.0,0.0,4.0,10.0,2.0,2.0,1.0,7.36,10.69,0.0,
20.6,87.15943286668107,87.33822229507838,-3.08,-0.8,-0.3,0.0,0.0,4.0,10.0,2.0,2.0,1.0,7.36,10.69,0.0,
20.625,87.19594328666811,87.34882222950783,-3.08,-0.98,-0.05,0.0,0.0,4.0,10.0,2.0,2.0,1.0,7.36,10.79,0.0,
20.649,87.2085943286668,87.3408822229508,-3.17,-0.76,-0.33,0.0,0.0,4.0,10.0,2.0,2.0,1.0,7.36,10.89,0.0,
20.674,87.26385943286667,87.27708822229508,-3.27,-0.66,-0.03,0.0,0.0,4.0,10.0,2.0,2.0,1.0,7.26,10.89,0.0,
20.698,87.29638594328665,87.25270882222951,-3.15,-0.67,-0.12,0.0,0.0,4.0,10.0,2.0,2.0,1.0,7.26,10.99,0.0,
20.722,87.29963859432866,87.24127088222293,-3.27,-0.89,-0.15,0.0,0.0,4.0,10.0,2.0,2.0,1.0,7.36,11.09,0.0,
20.747,87.35396385943287,87.2041270882223,-3.17,-1.09,-0.47,0.0,0.0,4.0,10.0,2.0,2.0,1.0,7.36,11.18,0.0,
20.771,87.37739638594329,87.19141270882223,-3.08,-1.37,-0.31,0.0,0.0,4.0,10.0,2.0,2.0,1.0,7.46,11.28,0.0,
20.795,87.33473963859433,87.20814127088221,-3.06,-0.83,-0.21,0.0,0.0,4.0,10.0,2.0,2.0,1.0,7.26,11.38,0.0,
20.819,87.29447396385945,87.20981412708821,-3.11,-1.16,-0.02,0.0,0.0,4.0,10.0,2.0,2.0,1.0,7.36,11.48,0.0,
20.844,87.29944739638594,87.23698141270881,-3.07,-1.1,-0.17,0.0,0.0,4.0,10.0,2.0,2.0,1.0,7.36,11.48,0.0,
20.869,87.3089447396386,87.24869814127089,-2.94,-0.74,-0.18,0.0,0.0,4.0,10.0,2.0,2.0,1.0,7.36,11.48,0.0,
20.892,87.34589447396385,87.26786981412708,-3.24,-0.54,-0.02,0.0,0.0,4.0,10.0,2.0,2.0,1.0,7.46,11.58,0.0,
20.917,87.35858944739638,87.2517869814127,-2.92,-0.89,-0.04,0.0,0.0,4.0,10.0,2.0,2.0,1.0,7.46,11.67,0.0,
20.941,87.39585894473964,87.25017869814127,-3.03,-0.66,-0.06,0.0,0.0,4.0,10.0,2.0,2.0,1.0,7.26,11.67,0.0,
20.966,87.42658589447397,87.24101786981412,-3.04,-0.67,0.19,0.0,0.0,4.0,10.0,2.0,2.0,1.0,7.46,11.87,0.0,
20.989,87.4836585894474,87.2671017869814,-3.17,-0.63,-0.07,0.0,0.0,4.0,10.0,2.0,2.0,1.0,7.36,11.97,0.0,
21.014,87.54336585894474,87.28771017869815,-3.09,-0.63,-0.08,0.0,0.0,4.0,10.0,2.0,2.0,1.0,7.36,12.07,0.0,
21.039,87.54033658589448,87.33477101786983,-2.94,-0.86,0.07,0.0,0.0,4.0,10.0,2.0,2.0,1.0,7.36,12.16,0.0,
21.062,87.49503365858945,87.34847710178698,-2.89,-1.32,-0.17,0.0,0.0,4.0,10.0,2.0,2.0,1.0,7.46,12.36,0.0,
21.087,87.52650336585894,87.3498477101787,-3.04,-1.06,-0.11,0.0,0.0,4.0,11.0,2.0,2.0,1.0,7.55,12.36,0.0,
21.111,87.57465033658589,87.40398477101786,-3.17,-1.21,-0.15,0.0,0.0,4.0,10.0,2.0,2.0,1.0,7.46,12.46,0.0,
21.136,87.54346503365859,87.38239847710179,-2.93,-1.21,-0.14,0.0,0.0,4.0,10.0,2.0,2.0,1.0,7.46,12.46,0.0,
21.16,87.51334650336585,87.41623984771017,-2.92,-1.28,-0.23,0.0,0.0,4.0,11.0,2.0,2.0,1.0,7.46,12.36,0.0,
21.184,87.47433465033659,87.45562398477101,-2.96,-1.33,-0.23,0.0,0.0,4.0,10.0,2.0,2.0,1.0,7.55,12.26,0.0,
21.209,87.52443346503365,87.4685623984771,-3.11,-1.56,-0.32,0.0,0.0,4.0,10.0,2.0,2.0,1.0,7.55,12.26,0.0,
21.233,87.51144334650337,87.43385623984773,-3.33,-1.32,-0.24,0.0,0.0,4.0,10.0,2.0,2.0,1.0,7.46,12.16,0.0,
21.258,87.52814433465034,87.43938562398478,-3.26,-1.54,-0.33,0.0,0.0,4.0,10.0,2.0,2.0,1.0,7.46,12.07,0.0,
21.281,87.52981443346503,87.42193856239848,-3.15,-1.59,-0.25,0.0,0.0,4.0,10.0,2.0,2.0,1.0,7.36,11.87,0.0,
21.306,87.5569814433465,87.44719385623985,-3.4,-2.08,-0.28,0.0,0.0,4.0,10.0,2.0,2.0,1.0,7.46,11.67,0.0,
21.33,87.52369814433465,87.41371938562398,-3.15,-1.95,-0.39,0.0,0.0,4.0,10.0,2.0,2.0,1.0,7.46,11.58,0.0,
21.355,87.47536981443346,87.39237193856239,-3.27,-1.83,-0.41,0.0,0.0,4.0,10.0,2.0,2.0,1.0,7.46,11.38,0.0,
21.379,87.47053698144335,87.43523719385624,-3.26,-1.81,-0.27,0.0,0.0,4.0,10.0,2.0,2.0,1.0,7.46,11.28,0.0,
21.403,87.44305369814433,87.43952371938562,-3.21,-2.08,-0.29,0.0,0.0,4.0,10.0,2.0,2.0,1.0,7.36,11.09,0.0,
21.428,87.48530536981443,87.40395237193857,-3.3,-1.73,0.14,0.0,0.0,4.0,10.0,2.0,2.0,1.0,7.36,10.99,0.0,
21.452,87.43553053698145,87.42739523719386,-3.17,-2.0,-0.02,0.0,0.0,4.0,10.0,2.0,2.0,1.0,7.36,10.79,0.0,
21.476,87.48455305369814,87.43873952371938,-3.08,-1.81,-0.29,0.0,0.0,4.0,10.0,2.0,2.0,1.0,7.36,10.79,0.0,
21.5,87.50745530536982,87.41287395237194,-3.43,-1.37,0.27,0.0,0.0,4.0,10.0,2.0,2.0,1.0,7.36,10.69,0.0,
21.525,87.50974553053697,87.4012873952372,-3.26,-1.87,-0.21,0.0,0.0,4.0,10.0,2.0,2.0,1.0,7.26,10.59,0.0,
21.549,87.4829745530537,87.38212873952372,-3.4,-1.41,-0.06,0.0,0.0,4.0,10.0,2.0,2.0,1.0,7.36,10.5,0.0,
21.573,87.42629745530536,87.35321287395237,-3.26,-1.6,-0.12,0.0,0.0,4.0,10.0,2.0,2.0,1.0,7.36,10.4,0.0,
21.598,87.44762974553053,87.33232128739523,-3.17,-2.07,-0.4,0.0,0.0,4.0,10.0,2.0,2.0,1.0,7.26,10.3,0.0,
21.622,87.44976297455305,87.33023212873951,-3.34,-1.6,-0.21,0.0,0.0,4.0,10.0,2.0,2.0,1.0,7.36,10.1,0.0,
21.646,87.45897629745531,87.31202321287395,-3.34,-1.52,-0.08,0.0,0.0,4.0,10.0,2.0,2.0,1.0,7.26,10.1,0.0,
21.67,87.40589762974554,87.27420232128739,-3.23,-1.59,0.19,0.0,0.0,4.0,10.0,2.0,2.0,1.0,7.26,10.01,0.0,
21.695,87.34658976297456,87.24342023212873,-3.44,-0.83,0.33,0.0,0.0,4.0,10.0,2.0,2.0,1.0,7.36,10.01,0.0,
21.72,87.34965897629745,87.26734202321286,-3.27,-1.52,-0.05,0.0,0.0,4.0,10.0,2.0,2.0,1.0,7.36,10.01,0.0,
21.743,87.40396589762975,87.30573420232129,-3.32,-1.6,-0.27,0.0,0.0,4.0,10.0,2.0,2.0,1.0,7.26,10.1,0.0,
21.768,87.39139658976296,87.31857342023213,-3.11,-1.49,0.04,0.0,0.0,4.0,10.0,2.0,2.0,1.0,7.36,10.01,0.0,
21.792,87.3901396589763,87.3018573420232,-3.41,-1.37,-0.05,0.0,0.0,4.0,10.0,2.0,2.0,1.0,7.26,9.91,0.0,
21.817,87.33601396589762,87.30918573420233,-3.4,-1.33,-0.37,0.0,0.0,4.0,10.0,2.0,2.0,1.0,7.26,9.91,0.0,
21.84,87.28560139658977,87.28291857342023,-3.34,-1.34,-0.21,0.0,0.0,4.0,10.0,2.0,2.0,1.0,7.26,10.01,0.0,
21.865,87.23556013965899,87.28029185734204,-3.33,-1.41,-0.27,0.0,0.0,4.0,10.0,2.0,2.0,1.0,7.26,10.01,0.0,
21.89,87.2845560139659,87.2620291857342,-3.46,-1.12,0.2,0.0,0.0,4.0,10.0,2.0,2.0,1.0,7.36,9.81,0.0,
21.913,87.31645560139658,87.24220291857341,-3.34,-0.69,0.07,0.0,0.0,4.0,10.0,2.0,2.0,1.0,7.26,9.91,0.0,
21.938,87.29264556013966,87.25822029185734,-3.48,-1.05,-0.24,0.0,0.0,4.0,11.0,2.0,2.0,1.0,7.26,10.01,0.0,
21.962,87.27226455601395,87.21482202918573,-3.34,-0.91,-0.14,0.0,0.0,4.0,11.0,2.0,2.0,1.0,7.16,10.2,0.0,
21.986,87.3062264556014,87.21948220291857,-3.24,-0.91,-0.46,0.0,0.0,4.0,11.0,2.0,2.0,1.0,7.26,10.2,0.0,
22.01,87.28262264556014,87.21094822029184,-3.4,-0.93,-0.21,0.0,0.0,4.0,11.0,2.0,2.0,1.0,7.16,10.3,0.0,
22.035,87.25326226455601,87.19209482202919,-3.25,-1.11,-0.07,0.0,0.0,4.0,11.0,2.0,2.0,1.0,7.26,10.3,0.0,
22.06,87.22332622645561,87.14520948220292,-3.54,-0.71,-0.19,0.0,0.0,4.0,11.0,2.0,2.0,1.0,7.26,10.3,0.0,
22.083,87.25633262264557,87.1675209482203,-3.33,-0.73,-0.15,0.0,0.0,4.0,11.0,2.0,2.0,1.0,7.16,10.3,0.0,
22.108,87.22363326226456,87.18775209482203,-3.34,-0.85,-0.1,0.0,0.0,4.0,11.0,2.0,2.0,1.0,7.26,10.4,0.0,
22.132,87.22036332622646,87.1537752094822,-3.33,-0.59,-0.08,0.0,0.0,4.0,11.0,2.0,2.0,1.0,7.36,10.5,0.0,
22.157,87.22003633262266,87.15937752094823,-3.26,-0.64,-0.2,0.0,0.0,4.0,11.0,2.0,2.0,1.0,7.26,10.59,0.0,
22.18,87.24700363326227,87.15093775209482,-3.17,-0.46,0.01,0.0,0.0,4.0,11.0,2.0,2.0,1.0,7.26,10.59,0.0,
22.205,87.27670036332623,87.15009377520948,-3.21,-0.51,-0.37,0.0,0.0,4.0,11.0,2.0,2.0,1.0,7.36,10.79,0.0,
22.23,87.35167003633262,87.14100937752094,-3.21,-0.54,-0.16,0.0,0.0,4.0,11.0,2.0,2.0,1.0,7.36,10.89,0.0,
22.254,87.35016700363326,87.1311009377521,-3.44,-0.61,-0.61,0.0,0.0,4.0,11.0,2.0,2.0,1.0,7.36,11.09,0.0,
22.278,87.37701670036333,87.10311009377521,-3.23,-1.08,-0.33,0.0,0.0,4.0,11.0,2.0,2.0,1.0,7.36,11.18,0.0,
22.302,87.32570167003632,87.12731100937752,-3.26,-0.64,-0.37,0.0,0.0,4.0,11.0,2.0,2.0,1.0,7.26,11.18,0.0,
22.327,87.31157016700364,87.14773110093775,-3.36,-0.43,-0.19,0.0,0.0,4.0,11.0,2.0,2.0,1.0,7.26,11.28,0.0,
22.351,87.31915701670036,87.14977311009378,-3.34,-0.42,-0.44,0.0,0.0,4.0,11.0,2.0,2.0,1.0,7.26,11.38,0.0,
22.375,87.32891570167003,87.14997731100938,-3.26,0.0,-0.31,0.0,0.0,4.0,11.0,2.0,2.0,1.0,7.26,11.48,0.0,
22.4,87.33889157016701,87.18599773110094,-3.06,-0.74,-0.27,0.0,0.0,4.0,11.0,2.0,2.0,1.0,7.26,11.67,0.0,
22.424,87.36688915701671,87.21659977311009,-3.22,-0.54,-0.3,0.0,0.0,4.0,11.0,2.0,2.0,1.0,7.26,11.87,0.0,
22.449,87.38768891570166,87.28265997731101,-3.26,-0.4,-0.39,0.0,0.0,4.0,11.0,2.0,2.0,1.0,7.16,11.97,0.0,
22.472,87.42576889157017,87.24426599773109,-3.09,-0.76,-0.32,0.0,0.0,4.0,11.0,2.0,2.0,1.0,7.36,12.07,0.0,
22.497,87.41157688915702,87.23142659977312,-3.24,-0.64,0.15,0.0,0.0,4.0,11.0,2.0,2.0,1.0,7.26,12.07,0.0,
22.521,87.40115768891572,87.2121426599773,-3.16,-0.72,0.01,0.0,0.0,4.0,11.0,2.0,2.0,1.0,7.26,12.16,0.0,
22.546,87.41811576889157,87.17421426599773,-3.35,-0.21,-0.18,0.0,0.0,4.0,11.0,2.0,2.0,1.0,7.26,12.26,0.0,
22.569,87.46481157688916,87.22442142659978,-3.15,-0.69,0.06,0.0,0.0,4.0,11.0,2.0,2.0,1.0,7.36,12.36,0.0,
22.594,87.47848115768892,87.23844214265996,-2.92,-0.48,0.11,0.0,0.0,4.0,11.0,2.0,2.0,1.0,7.26,12.36,0.0,
22.619,87.48884811576889,87.248844214266,-3.23,-0.24,0.05,0.0,0.0,4.0,11.0,2.0,2.0,1.0,7.26,12.36,0.0,
22.642,87.50788481157689,87.2858844214266,-3.29,-0.77,-0.46,0.0,0.0,4.0,11.0,2.0,2.0,1.0,7.26,12.26,0.0,
22.667,87.51878848115769,87.28958844214267,-3.31,-0.5,-0.07,0.0,0.0,4.0,11.0,2.0,2.0,1.0,7.36,12.46,0.0,
22.691,87.57387884811577,87.24495884421425,-3.27,-0.34,-0.21,0.0,0.0,4.0,11.0,2.0,2.0,1.0,7.16,12.36,0.0,
22.716,87.59738788481158,87.24949588442144,-3.06,-0.58,-0.3,0.0,0.0,4.0,11.0,2.0,2.0,1.0,7.26,12.56,0.0,
22.739,87.60873878848116,87.24994958844215,-2.85,-1.13,-0.27,0.0,0.0,4.0,11.0,2.0,2.0,1.0,7.26,12.56,0.0,
22.764,87.64587387884812,87.30399495884421,-3.21,-0.77,-0.37,0.0,0.0,4.0,11.0,2.0,2.0,1.0,7.36,12.65,0.0,
22.789,87.69458738788482,87.28239949588442,-3.13,-0.92,-0.26,0.0,0.0,4.0,11.0,2.0,2.0,1.0,7.26,12.65,0.0,
