time,pitch,roll,gyrx,gyry,gyrz,f1,f2,f3,f4,f5,f6,f7,g1,g2,g3
0.433,80.37,103.62,-3.23,-3.28,3.05,0.0,0.0,0.0,1.0,0.0,0.0,0.0,0.0,0.0,0.2,
0.456,85.644,111.80099999999999,-4.2,-0.56,2.5,0.0,0.0,0.0,1.0,0.0,0.0,0.0,0.0,0.0,0.29,
0.48,91.08539999999999,119.6841,-6.22,0.74,-0.62,0.0,0.0,0.0,1.0,0.0,0.0,0.0,0.0,0.0,0.39,
0.503,96.85854,126.57441,-6.65,-4.04,-1.74,0.0,0.0,0.0,1.0,0.0,0.0,0.0,0.0,0.0,0.49,
0.527,102.55685399999999,132.627441,-5.89,-5.14,0.87,0.0,0.0,0.0,1.0,0.0,0.0,0.0,0.0,0.0,0.59,
0.551,106.02468540000001,137.5707441,-4.63,0.0,-0.03,0.0,0.0,0.0,0.0,0.0,0.0,0.0,0.0,0.0,0.59,
0.575,109.22446854,141.77307441000002,-4.23,2.84,-0.78,0.0,0.0,0.0,1.0,0.0,0.0,0.0,0.0,0.0,0.49,
0.599,112.487446854,145.34330744100004,-4.05,-1.6,1.97,0.0,0.0,0.0,0.0,0.0,0.0,0.0,0.0,0.0,0.49,
0.622,114.98274468540001,148.5533307441,-2.53,-4.99,4.7,0.0,0.0,0.0,1.0,0.0,0.0,0.0,0.0,0.0,0.49,
0.646,116.58227446854,151.17833307441,-1.89,-2.03,1.18,0.0,0.0,0.0,1.0,0.0,0.0,0.0,0.0,0.0,0.49,
0.669,118.605227446854,153.42983330744102,-2.32,0.51,-2.22,0.0,0.0,0.0,1.0,0.0,0.0,0.0,0.0,0.0,0.49,
0.694,120.1575227446854,155.2299833307441,-2.23,-3.4,1.57,0.0,0.0,0.0,1.0,0.0,0.0,0.0,0.0,0.0,0.59,
0.717,120.90675227446853,156.70599833307443,-2.38,-0.55,1.72,0.0,0.0,0.0,1.0,0.0,0.0,0.0,0.0,0.0,0.39,
0.741,122.10667522744684,158.04159983330746,-2.85,1.91,-0.79,0.0,0.0,0.0,1.0,0.0,0.0,0.0,0.0,0.0,0.49,
0.764,123.90066752274468,159.32715998333074,-3.85,-2.38,-0.79,0.0,0.0,0.0,1.0,0.0,0.0,0.0,0.0,0.0,0.59,
0.788,124.63806675227447,160.29271599833308,-4.39,-4.64,0.91,0.0,0.0,0.0,1.0,0.0,0.0,0.0,0.0,0.0,0.49,
0.812,124.64880667522745,160.97427159983332,-4.67,-1.55,1.05,0.0,0.0,0.0,1.0,0.0,0.0,0.0,0.0,0.0,0.59,
0.836,124.82088066752274,161.43842715998335,-6.03,3.05,-1.31,0.0,0.0,0.0,1.0,0.0,0.0,0.0,0.0,0.0,0.49,
0.86,125.62108806675226,162.0878427159983,-7.21,-1.79,-0.56,0.0,0.0,0.0,1.0,0.0,0.0,0.0,0.0,0.0,0.59,
0.883,125.41310880667523,162.53978427159984,-5.33,-0.19,-1.86,0.0,0.0,0.0,1.0,0.0,0.0,0.0,0.0,0.0,0.59,
0.907,126.48131088066752,163.13397842715997,-2.8,-1.66,-1.72,0.0,0.0,0.0,1.0,0.0,0.0,0.0,0.0,0.0,0.69,
0.931,126.89413108806674,163.499397842716,-2.22,-3.58,1.6,0.0,0.0,0.0,1.0,0.0,0.0,0.0,0.0,0.0,0.59,
0.955,126.70141310880669,163.73393978427157,-2.48,-1.53,3.12,0.0,0.0,0.0,1.0,0.0,0.0,0.0,0.0,0.0,0.69,
0.978,126.18714131088066,163.94639397842715,-3.47,1.94,0.09,0.0,0.0,0.0,1.0,0.0,0.0,0.0,0.0,0.0,0.59,
1.002,126.26171413108807,164.18363939784274,-4.05,2.17,-3.08,0.0,0.0,0.0,1.0,0.0,0.0,0.0,0.0,0.0,0.69,
1.026,126.86317141310882,164.38736393978428,-4.67,-4.99,-1.25,0.0,0.0,0.0,1.0,0.0,0.0,0.0,0.0,0.0,0.78,
1.049,126.42831714131088,164.38073639397842,-4.93,-4.93,0.42,0.0,0.0,0.0,1.0,0.0,0.0,0.0,0.0,0.0,0.78,
1.074,126.15983171413109,164.4700736393978,-5.73,-0.23,-1.41,0.0,0.0,0.0,1.0,0.0,0.0,0.0,0.0,0.0,0.78,
1.097,126.37598317141311,164.66800736393978,-4.62,2.6,-2.66,0.0,0.0,0.0,1.0,0.0,0.0,0.0,0.0,0.0,0.78,
1.121,126.76659831714132,164.81380073639397,-2.19,0.34,-1.07,0.0,0.0,0.0,1.0,0.0,0.0,0.0,0.0,0.0,0.88,
1.144,127.40865983171413,164.9813800736394,-0.8,-4.74,2.23,0.0,0.0,0.0,1.0,0.0,0.0,0.0,0.0,0.0,0.78,
1.168,127.35586598317141,165.02513800736395,-2.05,-1.85,1.59,0.0,0.0,0.0,1.0,0.0,0.0,0.0,0.0,0.0,0.78,
1.192,126.60358659831714,165.0295138007364,-3.23,1.43,-0.46,0.0,0.0,0.0,1.0,0.0,0.0,0.0,0.0,0.0,0.78,
1.216,126.92435865983171,165.21895138007363,-1.11,1.6,-1.85,0.0,0.0,0.0,1.0,0.0,0.0,0.0,0.0,0.0,0.69,
1.24,127.10943586598317,165.29189513800736,-0.47,-3.02,0.82,0.0,0.0,0.0,1.0,0.0,0.0,0.0,0.0,0.0,0.69,
1.263,127.24494358659832,165.42518951380075,-0.7,-2.82,1.82,0.0,0.0,0.0,1.0,0.0,0.0,0.0,0.0,0.0,0.78,
1.287,127.15949435865983,165.55551895138007,0.52,-1.13,0.86,0.0,0.0,0.0,1.0,0.0,0.0,0.0,0.0,0.0,0.78,
1.31,127.15094943586598,165.54155189513799,-0.12,2.31,-1.66,0.0,0.0,0.0,1.0,0.0,0.0,0.0,0.0,0.0,0.78,
1.334,127.30309494358659,165.5131551895138,-2.15,0.62,-1.37,0.0,0.0,0.0,1.0,0.0,0.0,0.0,0.0,0.0,0.98,
1.358,127.37230949435865,165.45631551895139,-4.47,-2.35,-1.66,0.0,0.0,0.0,1.0,0.0,0.0,0.0,0.0,0.0,0.88,
1.382,128.18023094943587,165.56763155189515,-4.16,-2.12,-1.62,0.0,0.0,0.0,1.0,0.0,0.0,0.0,0.0,0.1,0.78,
1.405,128.36002309494359,165.52476315518953,-3.02,-2.02,1.79,0.0,0.0,0.0,1.0,0.0,0.0,0.0,0.0,0.0,0.88,
1.429,127.64900230949436,165.34947631551898,-2.22,1.2,3.16,0.0,0.0,0.0,1.0,0.0,0.0,0.0,0.0,0.1,0.88,
1.453,127.78490023094943,165.34994763155188,-3.26,-0.24,3.21,0.0,0.0,0.0,1.0,0.0,0.0,0.0,0.0,0.0,0.78,
1.477,127.94249002309495,165.4489947631552,-4.56,-0.24,0.27,0.0,0.0,0.0,1.0,0.0,0.0,0.0,0.0,0.0,0.88,
1.501,128.1202490023095,165.53989947631553,-4.88,-1.57,-0.59,0.0,0.0,0.0,1.0,0.0,0.0,0.0,0.0,0.0,0.88,
1.524,127.82302490023096,165.44098994763155,-4.54,-1.57,-0.2,0.0,0.0,0.0,1.0,0.0,0.0,0.0,0.0,0.0,0.98,
1.548,127.8473024900231,165.37709899476314,-5.31,-1.53,-0.43,0.0,0.0,0.0,1.0,0.0,0.0,0.0,0.0,0.0,0.88,
1.571,128.0657302490023,165.45170989947633,-6.13,-2.38,-0.16,0.0,0.0,0.0,1.0,0.0,0.0,0.0,0.0,0.0,0.78,
1.596,127.78157302490024,165.54017098994763,-4.79,-0.25,0.15,0.0,0.0,0.0,1.0,0.0,0.0,0.0,0.0,0.0,0.88,
1.619,127.69015730249002,165.52201709899478,-3.31,1.4,0.04,0.0,0.0,0.0,1.0,0.0,0.0,0.0,0.0,0.0,0.78,
1.643,127.600015730249,165.37620170989948,-3.95,-0.56,0.98,0.0,0.0,0.0,1.0,0.0,0.0,0.0,0.0,0.0,0.88,
1.667,127.5370015730249,165.32562017098996,-4.77,-2.02,1.11,0.0,0.0,0.0,1.0,0.0,0.0,0.0,0.0,0.0,0.88,
1.69,127.34170015730248,165.239562017099,-4.62,-1.63,1.31,0.0,0.0,0.0,1.0,0.0,0.0,0.0,0.0,0.0,0.88,
1.714,126.64717001573024,165.1499562017099,-4.47,3.16,-0.58,0.0,0.0,0.0,1.0,0.0,0.0,0.0,0.0,0.0,0.98,
1.738,127.07271700157303,165.140995620171,-4.67,0.31,-1.56,0.0,0.0,0.0,1.0,0.0,0.0,0.0,0.0,0.0,0.88,
1.762,127.0252717001573,164.9870995620171,-6.86,-4.79,0.72,0.0,0.0,0.0,1.0,0.0,0.0,0.0,0.0,0.0,0.88,
1.785,126.79552717001573,164.8007099562017,-8.72,-2.65,0.73,0.0,0.0,0.0,1.0,0.0,0.0,0.0,0.0,0.0,0.78,
1.809,126.48455271700158,164.5210709956202,-9.85,-1.55,1.25,0.0,0.0,0.0,1.0,0.0,0.0,0.0,0.0,0.0,0.88,
1.832,125.83245527170017,164.16010709956203,-11.4,1.49,-1.01,0.0,0.0,0.0,0.0,0.0,0.0,0.0,0.0,0.0,0.98,
1.857,125.99224552717001,164.0610107099562,-13.27,2.02,-0.51,0.0,0.0,0.0,0.0,0.0,0.0,0.0,0.0,0.0,1.08,
1.881,126.062224552717,163.86210107099564,-14.76,2.74,0.39,0.0,0.0,0.0,0.0,0.0,0.0,0.0,0.0,0.0,0.98,
1.904,126.3302224552717,163.51821010709958,-15.74,-0.36,4.28,0.0,0.0,0.0,0.0,0.0,0.0,0.0,0.0,0.0,1.08,
1.928,125.88902224552717,163.07882101070996,-17.85,2.41,5.24,0.0,0.0,0.0,0.0,0.0,0.0,0.0,0.0,0.0,1.08,
1.951,125.34990222455272,162.89088210107099,-20.47,5.53,3.92,0.0,0.0,0.0,0.0,0.0,0.0,0.0,0.0,0.0,0.88,
1.976,125.01699022245526,162.5480882101071,-22.43,7.43,0.73,0.0,0.0,0.0,0.0,0.0,0.0,0.0,0.0,0.0,0.78,
1.999,125.65869902224553,162.6128088210107,-21.66,0.9,0.71,0.0,0.0,0.0,0.0,0.0,0.0,0.0,0.0,0.0,0.88,
2.023,125.11986990222455,162.34028088210107,-22.38,1.58,1.28,0.0,0.0,0.0,0.0,0.0,0.0,0.0,0.0,0.0,0.88,
2.046,125.02098699022245,162.30402808821012,-23.49,-3.45,0.73,0.0,0.0,0.0,0.0,0.0,0.0,0.0,0.0,0.0,0.98,
2.07,124.57009869902224,161.940402808821,-25.59,3.83,-2.25,0.0,0.0,0.0,0.0,0.0,0.0,0.0,0.0,0.0,0.98,
2.094,122.71600986990222,160.9770402808821,-26.12,5.76,-4.75,0.0,0.0,0.0,0.0,0.0,0.0,0.0,0.0,0.0,1.18,
2.118,121.78360098699024,160.19670402808822,-27.15,1.61,-0.18,0.0,0.0,0.0,0.0,0.0,0.0,0.0,0.0,0.0,0.69,
2.142,125.36236009869903,160.96467040280885,-29.56,26.56,-8.65,0.0,0.0,0.0,0.0,0.0,0.0,0.0,0.0,0.0,0.39,
2.165,129.5272360098699,161.92346704028088,-35.73,17.31,-8.75,0.0,0.0,0.0,0.0,0.0,0.0,0.0,0.0,0.0,0.29,
2.19,127.32472360098699,160.8673467040281,-42.27,27.05,-15.82,0.0,0.0,0.0,0.0,0.0,0.0,0.0,0.0,0.0,0.59,
2.213,124.8004723600987,159.59173467040281,-41.3,30.52,-17.07,0.0,0.0,0.0,0.0,0.0,0.0,0.0,0.0,0.0,0.49,
2.237,123.61204723600987,158.9331734670403,-38.14,24.95,-17.61,0.0,0.0,0.0,0.0,0.0,0.0,0.0,0.0,0.0,0.59,
2.262,123.916204723601,158.81331734670405,-33.7,11.56,-9.57,0.0,0.0,0.0,0.0,0.0,0.0,0.0,0.0,0.0,0.59,
2.285,126.16062047236011,159.41333173467038,-24.31,-7.06,15.66,0.0,0.0,0.0,0.0,0.0,0.0,0.0,0.0,0.0,0.59,
2.309,126.72706204723602,159.35633317346702,-19.24,13.76,-4.13,0.0,0.0,0.0,0.0,0.0,0.0,0.0,0.0,0.0,0.29,
2.333,125.4967062047236,157.8746333173467,-18.89,3.89,12.58,0.0,0.0,0.0,0.0,0.0,0.0,0.0,0.0,0.0,0.59,
2.357,124.10467062047236,156.56546333173466,-21.3,-9.43,18.91,0.0,0.0,0.0,0.0,0.0,0.0,0.0,0.0,0.0,0.98,
2.38,122.27346706204723,156.02954633317344,-21.24,-7.32,16.51,0.0,0.0,0.0,0.0,0.0,0.0,0.0,0.0,0.0,0.39,
2.405,122.36934670620471,156.07495463331736,-15.46,-15.53,14.34,0.0,0.0,0.0,0.0,0.0,0.0,0.0,0.0,0.0,0.59,
2.428,120.99293467062047,155.06249546333171,-16.15,-10.98,9.43,0.0,0.0,0.0,0.0,0.0,0.0,0.0,0.0,0.0,0.59,
2.452,120.30629346706205,154.1512495463332,-18.33,-5.45,5.1,0.0,0.0,0.0,0.0,0.0,0.0,0.0,0.0,0.0,0.69,
2.477,119.75162934670621,153.3131249546333,-23.87,3.53,5.82,0.0,0.0,0.0,0.0,0.0,0.0,0.0,0.0,0.0,0.69,
2.5,118.58916293467061,152.60831249546334,-24.76,10.76,4.23,0.0,0.0,0.0,0.0,0.0,0.0,0.0,0.0,0.0,0.78,
2.524,119.63391629346707,152.60083124954633,-18.78,-2.24,12.12,0.0,0.0,0.0,0.0,0.0,0.0,0.0,0.0,0.0,0.78,
2.547,120.3683916293467,152.80708312495466,-14.4,-16.75,20.66,0.0,0.0,0.0,0.0,0.0,0.0,0.0,0.0,0.0,0.78,
2.572,119.27183916293468,152.36870831249547,-17.82,-25.55,17.66,0.0,0.0,0.0,0.0,0.0,0.0,0.0,0.0,0.0,0.49,
2.595,116.82218391629345,151.26287083124953,-20.54,-22.0,11.61,0.0,0.0,0.0,0.0,0.0,0.0,0.0,0.0,0.0,0.78,
2.62,114.35421839162935,150.11728708312495,-23.83,-12.12,6.27,0.0,0.0,0.0,0.0,0.0,0.0,0.0,0.0,0.0,0.88,
2.643,113.39642183916294,149.14772870831248,-23.07,4.22,0.95,0.0,0.0,0.0,0.0,0.0,0.0,0.0,0.0,0.0,1.08,
2.667,114.30864218391629,148.36677287083126,-26.45,7.44,0.45,0.0,0.0,0.0,0.0,0.0,0.0,0.0,0.0,0.0,1.28,
2.691,115.33586421839163,147.66767728708314,-29.84,3.4,1.21,0.0,0.0,0.0,0.0,0.0,0.0,0.0,0.0,0.0,0.98,
2.714,115.43858642183916,146.88676772870832,-31.18,-1.44,4.79,0.0,0.0,0.0,0.0,0.0,0.0,0.0,0.0,0.0,0.29,
2.739,114.62085864218392,146.0616767728708,-32.15,-8.18,11.54,0.0,0.0,0.0,0.0,0.0,0.0,0.0,0.0,0.0,0.69,
2.762,114.5840858642184,145.6101676772871,-30.89,-3.96,10.67,0.0,0.0,0.0,0.0,0.0,0.0,0.0,0.0,0.0,0.78,
2.786,114.73340858642185,145.19601676772874,-27.18,0.48,7.23,0.0,0.0,0.0,0.0,0.0,0.0,0.0,0.0,0.0,1.08,
2.809,114.82934085864218,144.91160167677288,-27.93,-2.69,6.7,0.0,0.0,0.0,0.0,0.0,0.0,0.0,0.0,0.0,0.88,
2.834,114.80293408586421,144.2801601676773,-23.22,2.14,5.62,0.0,0.0,0.0,0.0,0.0,0.0,0.0,0.0,0.0,0.98,
2.857,115.33129340858642,143.76701601676774,-22.08,-6.77,10.69,0.0,0.0,0.0,0.0,0.0,0.0,0.0,0.0,0.0,0.78,
2.881,114.94312934085865,142.91470160167677,-24.57,-4.24,13.48,0.0,0.0,0.0,0.0,0.0,0.0,0.0,0.0,0.0,0.69,
2.905,114.50831293408586,142.33447016016768,-30.65,3.76,11.31,0.0,0.0,0.0,0.0,0.0,0.0,0.0,0.0,0.0,0.78,
2.929,115.2298312934086,141.95244701601675,-32.59,6.95,13.33,0.0,0.0,0.0,0.0,0.0,0.0,0.0,0.0,0.0,0.88,
2.953,115.83298312934086,141.41024470160167,-33.47,1.29,15.91,0.0,0.0,0.0,0.0,0.0,0.0,0.0,0.0,0.0,1.18,
2.976,115.53329831293408,140.25802447016017,-35.0,1.74,15.29,0.0,0.0,0.0,0.0,0.0,0.0,0.0,0.0,0.0,0.98,
3.0,115.74632983129341,139.69280244701602,-37.49,-5.24,19.38,0.0,0.0,0.0,0.0,0.0,0.0,0.0,0.0,0.0,1.08,
3.024,114.21963298312933,138.9702802447016,-42.18,-6.97,18.39,0.0,0.0,0.0,0.0,0.0,0.0,0.0,0.0,0.0,0.78,
3.048,112.37496329831293,138.20502802447015,-41.58,7.72,6.17,0.0,0.0,0.0,0.0,0.0,0.0,0.0,0.0,0.0,0.59,
3.072,112.35249632983128,137.95750280244704,-35.37,11.44,-6.07,0.0,0.0,0.0,0.0,0.0,0.0,0.0,0.0,0.0,1.08,
3.095,112.73724963298314,137.77975028024468,-29.81,7.2,-8.11,0.0,0.0,0.0,0.0,0.0,0.0,0.0,0.0,0.0,1.37,
3.12,113.6037249632983,137.64497502802448,-26.69,-3.03,-1.02,0.0,0.0,0.0,0.0,0.0,0.0,0.0,0.0,0.0,0.78,
3.143,114.52737249632983,137.06449750280245,-25.15,15.82,1.63,0.0,0.0,0.0,0.0,0.0,0.0,0.0,0.0,0.0,0.29,
3.167,115.71773724963298,136.70044975028026,-24.73,6.21,8.32,0.0,0.0,0.0,0.0,0.0,0.0,0.0,0.0,0.0,0.2,
3.19,115.1797737249633,135.02604497502804,-24.86,1.85,15.77,0.0,0.0,0.0,0.0,0.0,0.0,0.0,0.0,0.0,0.29,
3.215,115.10797737249634,133.9586044975028,-27.4,-0.42,20.56,0.0,0.0,0.0,0.0,0.0,0.0,0.0,0.0,0.0,0.29,
3.238,114.65079773724963,133.3658604497503,-30.39,10.31,12.82,0.0,0.0,0.0,0.0,0.0,0.0,0.0,0.0,0.0,0.49,
3.262,114.20007977372498,132.78458604497504,-29.73,19.01,5.95,0.0,0.0,0.0,0.0,0.0,0.0,0.0,0.0,0.0,0.49,
3.286,115.3790079773725,131.8444586044975,-21.96,25.02,-9.37,0.0,0.0,0.0,0.0,0.0,0.0,0.0,0.0,0.0,0.59,
3.31,115.91090079773726,131.02144586044975,-17.69,-5.37,8.13,0.0,0.0,0.0,0.0,0.0,0.0,0.0,0.0,0.0,0.78,
3.334,115.90109007977372,130.73214458604497,-22.06,-5.15,15.41,0.0,0.0,0.0,0.0,0.0,0.0,0.0,0.0,0.0,0.49,
3.357,115.45010900797739,130.2442144586045,-28.65,-3.11,13.48,0.0,0.0,0.0,0.0,0.0,0.0,0.0,0.0,0.0,0.39,
3.382,114.64901090079773,129.40342144586046,-24.48,6.5,4.86,0.0,0.0,0.0,0.0,0.0,0.0,0.0,0.0,0.0,0.29,
3.405,115.15390109007976,129.20234214458605,-25.07,4.56,7.03,0.0,0.0,0.0,0.0,0.0,0.0,0.0,0.0,0.0,0.59,
3.429,115.21339010900797,128.3362342144586,-26.18,16.89,2.85,0.0,0.0,0.0,0.0,0.0,0.0,0.0,0.0,0.0,0.88,
3.452,114.8773390109008,127.43062342144586,-29.69,28.94,-4.92,0.0,0.0,0.0,0.0,0.0,0.0,0.0,0.0,0.0,0.49,
3.477,116.58973390109009,128.5910623421446,-31.89,22.22,-17.4,0.0,0.0,0.0,0.0,0.0,0.0,0.0,0.0,0.0,0.59,
3.501,117.39097339010901,129.08510623421444,-21.73,11.85,-1.1,0.0,0.0,0.0,0.0,0.0,0.0,0.0,0.0,0.0,0.78,
3.524,116.7420973390109,127.83851062342144,-18.19,4.21,-2.45,0.0,0.0,0.0,0.0,0.0,0.0,0.0,0.0,0.0,0.78,
3.548,116.7852097339011,127.60585106234214,-22.21,1.27,2.95,0.0,0.0,0.0,0.0,0.0,0.0,0.0,0.1,0.0,0.59,
3.572,114.2965209733901,124.15358510623422,-29.95,-10.61,-4.24,0.0,0.0,0.0,0.0,0.0,0.0,0.0,0.1,0.0,0.88,
3.596,113.471652097339,122.16135851062342,-40.75,-6.22,-16.47,0.0,0.0,0.0,0.0,0.0,0.0,0.0,0.2,0.0,0.78,
3.619,114.67616520973391,122.94313585106234,-34.4,2.01,0.88,0.0,0.0,0.0,0.0,0.0,0.0,0.0,0.29,0.0,0.98,
3.644,115.4176165209734,123.51631358510622,-19.29,-1.19,11.33,0.0,0.0,0.0,0.0,0.0,0.0,0.0,0.2,0.0,1.47,
3.667,115.95976165209733,122.49363135851061,-23.51,-30.98,22.74,0.0,0.0,0.0,0.0,0.0,0.0,0.0,0.29,0.49,1.08,
3.691,115.79797616520973,118.67436313585105,-27.04,-15.92,14.02,0.0,0.0,0.0,0.0,0.0,0.0,0.0,0.29,0.39,0.78,
3.716,117.00579761652097,116.8614363135851,-38.99,7.48,6.3,0.0,0.0,0.0,0.0,0.0,0.0,0.0,0.2,0.0,0.88,
3.739,116.2625797616521,115.57314363135852,-47.35,24.05,3.85,0.0,0.0,0.0,0.0,0.0,0.0,0.0,0.29,0.0,0.88,
3.763,116.83625797616521,115.79531436313584,-48.34,19.71,2.45,0.0,0.0,0.0,0.0,0.0,0.0,0.0,0.2,0.0,1.08,
3.786,117.06462579761651,117.5005314363136,-32.6,8.6,-1.73,0.0,0.0,0.0,0.0,0.0,0.0,0.0,0.29,0.0,1.57,
3.811,117.46546257976165,120.26305314363135,-16.36,0.98,0.23,0.0,0.0,0.0,0.0,0.0,0.0,0.0,0.29,0.0,1.37,
3.834,117.12754625797616,122.83430531436314,-6.6,-6.7,3.0,0.0,0.0,0.0,0.0,0.0,0.0,0.0,0.29,0.0,1.08,
3.858,114.93375462579762,123.4244305314363,-4.56,-12.27,6.73,0.0,0.0,0.0,0.0,0.0,0.0,0.0,0.39,0.0,0.69,
3.881,114.18337546257976,121.12544305314363,-5.53,5.89,-3.27,0.0,0.0,0.0,0.0,0.0,0.0,0.0,0.39,0.0,0.69,
3.905,114.46833754625797,116.98954430531437,-17.07,-2.92,2.98,0.0,0.0,0.0,0.0,0.0,0.0,0.0,0.39,0.0,0.78,
3.93,114.7848337546258,111.45495443053143,-31.02,-16.95,9.56,0.0,0.0,0.0,0.0,0.0,0.0,0.0,0.39,0.0,0.59,
3.953,115.42848337546258,106.86049544305314,-46.15,-9.41,10.6,0.0,0.0,0.0,0.0,0.0,0.0,0.0,0.49,0.0,0.49,
3.977,115.72684833754627,103.6740495443053,-64.02,-9.97,25.17,0.0,0.0,0.0,0.0,0.0,0.0,0.0,0.39,0.0,0.78,
4.001,115.33368483375463,101.32140495443053,-72.11,0.17,33.53,0.0,0.0,0.0,0.0,0.0,0.0,0.0,0.49,0.0,0.59,
4.025,115.68136848337545,99.40314049544305,-73.03,-6.49,31.54,0.0,0.0,0.0,0.0,0.0,0.0,0.0,0.39,0.0,0.88,
4.048,115.14013684833755,98.60831404954429,-71.68,2.51,26.95,0.0,0.0,0.0,0.0,0.0,0.0,0.0,0.39,0.0,0.98,
4.072,115.15801368483376,98.78083140495443,-73.03,-3.58,28.69,0.0,0.0,0.0,0.0,0.0,0.0,0.0,0.39,0.0,1.18,
4.096,114.43080136848337,98.62708314049544,-74.41,-0.98,33.47,0.0,0.0,0.0,0.0,0.0,0.0,0.0,0.39,0.0,1.18,
4.12,114.16008013684834,98.70170831404954,-70.86,-9.43,27.73,0.0,0.0,0.0,0.0,0.0,0.0,0.0,0.2,0.0,1.77,
4.144,114.03400801368483,98.88017083140495,-60.71,-12.87,28.44,0.0,0.0,0.0,0.0,0.0,0.0,0.0,0.2,0.0,1.37,
4.167,113.48140080136848,99.40201708314049,-57.98,-4.5,27.82,0.0,0.0,0.0,0.0,0.0,0.0,0.0,0.2,0.0,1.28,
4.191,112.39114008013684,101.57820170831404,-16.85,-38.94,4.82,0.0,0.0,0.0,0.0,0.0,0.0,0.0,0.2,0.0,0.98,
4.215,112.06611400801368,102.20082017083139,-14.9,-13.48,26.18,0.0,0.0,0.0,0.0,0.0,0.0,0.0,0.78,0.0,0.0,
4.239,111.73661140080137,101.36308201708314,-32.46,-22.68,24.32,0.0,0.0,0.0,0.0,0.0,0.0,0.0,0.88,0.0,0.0,
4.263,110.85766114008014,99.62330820170833,-34.28,-8.89,7.34,0.0,0.0,0.0,0.0,0.0,0.0,0.0,0.78,0.0,0.29,
4.287,110.53576611400801,99.13433082017083,-25.59,-18.87,-10.11,0.0,0.0,0.0,0.0,0.0,0.0,0.0,0.78,0.0,0.2,
4.311,110.6475766114008,99.70643308201707,-14.76,-12.26,-15.12,0.0,0.0,0.0,0.0,0.0,0.0,0.0,1.08,0.0,0.2,
4.335,110.97375766114008,100.6996433082017,-6.85,-7.73,-12.1,0.0,0.0,0.0,0.0,0.0,0.0,0.0,1.28,0.0,0.1,
4.359,111.19537576611401,101.41096433082016,-8.08,-9.1,4.8,0.0,0.0,0.0,0.0,0.0,0.0,0.0,1.37,0.0,0.0,
4.382,110.84853757661139,101.26609643308201,-5.72,-11.69,11.7,0.0,0.0,0.0,1.0,0.0,0.0,0.0,1.47,0.0,0.0,
4.406,110.21085375766114,100.4776096433082,-5.25,-3.24,15.08,0.0,0.0,0.0,1.0,0.0,0.0,0.0,1.47,0.0,0.0,
4.43,109.5710853757661,99.03076096433082,-5.98,-5.64,8.95,0.0,0.0,0.0,1.0,0.0,0.0,0.0,1.47,0.0,0.0,
4.454,109.16510853757661,97.2390760964331,-9.6,-3.89,2.83,0.0,0.0,0.0,1.0,0.0,0.0,0.0,1.37,0.0,0.2,
4.477,108.86351085375766,95.5479076096433,-12.17,-0.4,-6.37,0.0,0.0,0.0,1.0,0.0,0.0,0.0,1.28,0.0,0.39,
4.501,108.87835108537577,94.87479076096432,-12.61,-3.91,-6.84,0.0,0.0,0.0,1.0,0.0,0.0,0.0,1.28,0.0,0.1,
4.525,109.38383510853757,94.88847907609643,-8.76,-8.18,2.95,0.0,0.0,0.0,1.0,0.0,0.0,0.0,1.47,0.0,0.0,
4.548,109.51538351085375,94.81784790760965,-7.38,-7.23,4.46,0.0,0.0,0.0,1.0,0.0,0.0,0.0,1.57,0.0,0.39,
4.573,109.29453835108538,94.76578479076096,-9.42,-10.53,5.81,0.0,0.0,0.0,1.0,0.0,0.0,0.0,1.57,0.0,0.49,
4.596,108.98445383510854,95.36357847907611,-9.46,-7.12,0.53,0.0,0.0,0.0,1.0,0.0,0.0,0.0,1.57,0.0,0.59,
4.62,108.70144538351084,96.04435784790762,-4.53,-6.48,-5.53,0.0,0.0,0.0,1.0,0.0,0.0,0.0,1.67,0.0,0.69,
4.643,108.81714453835109,96.70643578479076,-2.1,-3.26,-6.03,0.0,0.0,0.0,1.0,0.0,0.0,0.0,1.57,0.0,0.69,
4.667,108.4237144538351,97.39364357847907,8.08,5.22,-7.89,0.0,0.0,0.0,1.0,0.0,0.0,0.0,1.47,0.0,0.78,
4.69,108.5373714453835,96.50836435784791,-2.49,-5.35,3.32,0.0,0.0,0.0,1.0,0.0,0.0,0.0,1.37,0.0,0.69,
4.714,108.42273714453835,95.42983643578481,-6.58,-6.37,0.56,0.0,0.0,0.0,1.0,0.0,0.0,0.0,1.18,0.0,0.69,
4.738,108.30327371445384,94.34098364357848,-5.08,-3.49,3.21,0.0,0.0,0.0,1.0,0.0,0.0,0.0,1.08,0.0,0.49,
4.761,108.59732737144537,93.62009836435786,0.05,2.26,-4.26,0.0,0.0,0.0,1.0,0.0,0.0,0.0,1.08,0.0,0.88,
4.785,108.76173273714454,92.57600983643579,-2.65,2.57,-3.98,0.0,0.0,0.0,1.0,0.0,0.0,0.0,1.08,0.0,0.88,
4.808,108.97617327371447,92.35460098364356,-2.11,1.75,-5.01,0.0,0.0,0.0,1.0,0.0,0.0,0.0,1.08,0.0,0.39,
4.833,109.29461732737145,93.17846009836435,1.2,-4.88,-1.17,0.0,0.0,0.0,1.0,0.0,0.0,0.0,1.18,0.0,0.1,
4.856,109.32646173273714,93.00884600983643,-5.82,-6.11,1.23,0.0,0.0,0.0,1.0,0.0,0.0,0.0,1.28,0.0,0.39,
4.88,109.3746461732737,91.91188460098364,-1.79,2.62,-6.98,0.0,0.0,0.0,1.0,0.0,0.0,0.0,1.28,0.0,0.49,
4.903,109.56846461732736,91.73018846009836,-1.98,-4.08,-1.56,0.0,0.0,0.0,1.0,0.0,0.0,0.0,1.28,0.0,0.59,
4.927,109.69584646173273,90.98301884600984,-11.11,0.91,-5.11,0.0,0.0,0.0,1.0,0.0,0.0,0.0,1.28,0.0,1.18,
4.951,109.69958464617328,91.04330188460098,-2.95,-0.08,-6.77,0.0,0.0,0.0,1.0,0.0,0.0,0.0,1.28,0.0,0.59,
4.974,109.45695846461733,91.6613301884601,3.09,2.15,6.63,0.0,0.0,0.0,2.0,0.0,0.0,0.0,1.37,0.0,0.29,
4.998,109.80169584646174,91.65113301884602,-0.24,0.48,-1.08,0.0,0.0,0.0,2.0,0.0,0.0,0.0,1.47,0.0,0.59,
5.021,109.62016958464618,91.5781133018846,-3.56,-5.33,1.87,0.0,0.0,0.0,2.0,0.0,0.0,0.0,1.47,0.0,0.78,
5.045,109.36801695846462,91.44481133018846,-5.98,-2.16,2.73,0.0,0.0,0.0,2.0,0.0,0.0,0.0,1.57,0.0,0.69,
5.068,109.30680169584646,91.38648113301885,-7.65,-1.92,0.27,0.0,0.0,0.0,2.0,0.0,0.0,0.0,1.67,0.0,0.59,
5.093,109.29168016958465,91.09264811330189,-3.61,-2.16,0.4,0.0,0.0,0.0,2.0,0.0,0.0,0.0,1.57,0.0,0.78,
5.116,109.39816801695845,90.9462648113302,-3.11,-2.9,-1.16,0.0,0.0,0.0,2.0,0.0,0.0,0.0,1.57,0.2,0.59,
5.14,109.30981680169585,90.78762648113302,-3.11,-4.42,-1.74,0.0,0.0,0.0,2.0,0.0,0.0,0.0,1.57,0.29,0.69,
5.164,109.15698168016958,90.7537626481133,-3.6,-3.06,-0.81,0.0,0.0,0.0,2.0,0.0,0.0,0.0,1.57,0.49,0.78,
5.187,109.09669816801697,90.77737626481132,-2.98,-2.4,-0.58,0.0,0.0,0.0,3.0,0.0,0.0,0.0,1.67,0.59,0.69,
5.211,109.00066981680169,90.77973762648114,-2.92,-2.69,-0.76,0.0,0.0,0.0,3.0,0.0,0.0,0.0,1.57,0.69,0.78,
5.235,109.00006698168018,90.74397376264811,-2.21,-1.7,-1.96,0.0,0.0,0.0,3.0,0.0,0.0,0.0,1.67,0.78,0.69,
5.259,108.82900669816802,90.62339737626482,-2.58,-2.25,-0.76,0.0,0.0,0.0,3.0,0.0,0.0,0.0,1.67,0.88,0.69,
5.282,108.87490066981681,90.5843397376265,-3.34,-1.63,-0.37,0.0,0.0,0.0,3.0,0.0,0.0,0.0,1.77,0.98,0.49,
5.306,108.88849006698169,90.85943397376265,-3.05,-3.97,1.0,0.0,0.0,0.0,3.0,0.0,0.0,0.0,1.77,1.08,0.69,
5.329,108.71884900669816,90.75194339737627,-3.1,-1.85,-0.64,0.0,0.0,0.0,3.0,0.0,0.0,0.0,1.77,1.18,0.69,
5.353,108.70188490066981,90.76819433973762,-2.57,-4.76,1.33,0.0,0.0,0.0,3.0,0.0,0.0,0.0,1.86,1.28,0.69,
5.377,108.66418849006698,90.68881943397378,-3.02,-4.31,1.4,0.0,0.0,0.0,3.0,0.0,0.0,0.0,1.96,1.37,0.78,
5.4,108.60641884900669,90.70788194339737,-2.53,-3.53,-0.18,0.0,0.0,0.0,3.0,0.0,0.0,0.0,1.96,1.47,0.78,
5.425,108.52864188490065,90.71878819433974,-2.37,-1.97,0.59,0.0,0.0,0.0,3.0,0.0,0.0,0.0,1.96,1.57,0.69,
5.448,108.44886418849006,90.71987881943397,-2.59,-1.61,-1.07,0.0,0.0,0.0,3.0,0.0,0.0,0.0,2.16,1.47,0.78,
5.472,108.404886418849,90.61198788194339,-2.54,-1.55,0.6,0.0,0.0,0.0,3.0,0.0,0.0,0.0,1.96,1.57,0.88,
5.495,108.2564886418849,90.48419878819433,-2.19,-0.62,-0.54,0.0,0.0,0.0,3.0,0.0,0.0,0.0,2.06,1.57,0.88,
5.519,108.3046488641885,90.66941987881943,-2.53,-0.13,1.06,0.0,0.0,0.0,3.0,0.0,0.0,0.0,2.06,1.67,0.88,
5.542,108.37246488641885,90.69694198788196,-1.79,-1.34,0.83,0.0,0.0,0.0,3.0,0.0,0.0,0.0,2.06,1.67,1.08,
5.566,108.37924648864188,90.69969419878821,-1.18,1.53,-1.37,0.0,0.0,0.0,3.0,0.0,0.0,0.0,2.06,1.67,0.88,
5.59,108.5239246488642,90.73596941987881,-3.58,-1.01,0.56,0.0,0.0,0.0,3.0,0.0,0.0,0.0,2.06,1.67,0.88,
5.614,108.53839246488643,90.69459694198787,-2.39,-0.79,0.28,0.0,0.0,0.0,3.0,0.0,0.0,0.0,2.06,1.77,0.98,
5.638,108.54883924648863,90.67245969419879,-3.08,-0.03,0.3,0.0,0.0,0.0,3.0,0.0,0.0,0.0,2.16,1.77,0.88,
5.661,108.54988392464885,90.66124596941987,-2.1,-0.39,-0.24,0.0,0.0,0.0,3.0,0.0,0.0,0.0,2.16,1.77,0.98,
5.685,108.51398839246488,90.750124596942,-2.86,-0.45,0.44,0.0,0.0,0.0,3.0,0.0,0.0,0.0,1.96,1.77,0.88,
5.708,108.64539883924648,90.66901245969419,-2.81,-1.66,0.74,0.0,0.0,0.0,3.0,0.0,0.0,0.0,2.06,1.67,0.88,
5.732,108.76653988392465,90.69690124596943,-2.19,-1.46,0.25,0.0,0.0,0.0,3.0,0.0,0.0,0.0,2.06,1.67,0.98,
5.755,108.74265398839246,90.78969012459694,-1.85,-1.43,0.04,0.0,0.0,0.0,3.0,0.0,0.0,0.0,1.96,1.77,0.98,
5.78,108.57826539883925,90.6819690124597,-1.69,-1.79,0.04,0.0,0.0,0.0,3.0,0.0,0.0,0.0,2.06,1.77,0.88,
5.804,108.54382653988392,90.61719690124598,-1.78,-0.18,-0.66,0.0,0.0,0.0,3.0,0.0,0.0,0.0,2.06,1.67,0.88,
5.827,108.4773826539884,90.5027196901246,-1.9,-0.7,0.73,0.0,0.0,0.0,4.0,0.0,0.0,0.0,2.06,1.67,0.98,
5.851,108.56073826539883,90.39227196901246,-0.44,0.87,-1.53,0.0,0.0,0.0,3.0,0.0,0.0,0.0,2.16,1.67,0.88,
5.874,108.50607382653989,90.45322719690125,-0.85,-0.67,-0.01,0.0,0.0,0.0,3.0,0.0,0.0,0.0,2.16,1.57,0.98,
5.898,108.77960738265399,90.61232271969011,-0.46,0.29,-0.06,0.0,0.0,0.0,3.0,0.0,0.0,0.0,2.16,1.28,1.08,
5.921,108.98696073826541,90.952232271969,1.04,-7.24,5.14,0.0,0.0,0.0,3.0,0.0,0.0,0.0,2.16,1.28,1.08,
5.945,109.29569607382655,91.5712232271969,-0.42,-9.11,15.66,0.0,0.0,0.0,3.0,0.0,0.0,0.0,2.26,1.08,0.88,
5.968,109.05656960738266,91.40812232271969,-1.29,-5.77,8.5,0.0,0.0,0.0,3.0,0.0,0.0,0.0,2.65,1.08,0.69,
5.992,108.44765696073827,91.19381223227197,-1.17,-3.18,3.26,0.0,0.0,0.0,3.0,0.0,0.0,0.0,2.75,1.08,0.88,
6.017,108.47676569607383,91.1003812232272,-0.82,2.82,-3.4,0.0,0.0,0.0,3.0,0.0,0.0,0.0,2.84,1.18,0.69,
6.04,108.50667656960738,91.12703812232272,-1.37,0.25,0.79,0.0,0.0,0.0,2.0,0.0,0.0,0.0,2.84,0.98,0.88,
6.064,108.36566765696074,91.05770381223226,-0.98,2.34,1.88,0.0,0.0,0.0,2.0,0.0,0.0,0.0,2.65,0.78,0.78,
6.087,108.43256676569608,91.11377038122323,-2.05,7.05,2.31,0.0,0.0,0.0,2.0,0.0,0.0,0.0,2.45,0.49,0.78,
6.111,108.89825667656962,90.87637703812231,-5.23,5.77,5.36,0.0,0.0,0.0,2.0,0.0,0.0,0.0,2.26,0.2,1.08,
6.134,109.47582566765698,90.07863770381223,-8.63,11.17,7.32,0.0,0.0,0.0,2.0,0.0,0.0,0.0,1.96,0.0,1.08,
6.158,109.60558256676569,88.55886377038122,-8.6,5.47,5.04,0.0,0.0,0.0,2.0,0.0,0.0,0.0,1.77,0.0,0.88,
6.181,109.87955825667656,87.72288637703812,-9.6,3.63,0.93,0.0,0.0,0.0,2.0,0.0,0.0,0.0,1.67,0.0,0.69,
6.205,109.62795582566766,87.59428863770381,-7.12,0.21,-0.97,0.0,0.0,0.0,2.0,0.0,0.0,0.0,1.77,0.0,0.49,
6.228,109.18879558256677,88.84142886377039,-6.31,0.46,-2.44,0.0,0.0,0.0,2.0,0.0,0.0,0.0,1.67,0.0,0.59,
6.252,108.63187955825667,90.90114288637703,-0.44,3.18,-6.27,0.0,0.0,0.0,2.0,0.0,0.0,0.0,1.67,0.0,0.59,
6.276,108.32418795582568,92.4481142886377,-8.96,-2.76,10.72,0.0,0.0,0.0,2.0,0.0,0.0,0.0,1.77,0.0,0.69,
6.299,107.99641879558257,91.87381142886377,-7.0,4.77,-1.96,0.0,0.0,0.0,2.0,0.0,0.0,0.0,1.57,0.0,0.88,
6.323,108.37764187955825,91.84338114288639,-6.11,2.83,1.92,0.0,0.0,0.0,2.0,0.0,0.0,0.0,1.57,0.0,0.98,
6.346,108.96476418795584,91.59733811428863,-4.34,2.04,0.15,0.0,0.0,0.0,2.0,0.0,0.0,0.0,1.57,0.0,1.08,
6.37,109.09547641879558,91.44673381142887,-0.59,-2.08,-1.5,0.0,0.0,0.0,2.0,0.0,0.0,0.0,1.47,0.0,0.98,
6.394,108.92854764187956,91.13467338114287,-2.01,1.95,1.44,0.0,0.0,0.0,2.0,0.0,0.0,0.0,1.37,0.0,0.78,
6.418,108.62385476418797,90.2034673381143,-0.29,3.23,-8.02,0.0,0.0,0.0,2.0,0.0,0.0,0.0,1.47,0.0,0.78,
6.441,109.1783854764188,89.48934673381142,-9.38,1.15,-1.18,0.0,0.0,0.0,2.0,0.0,0.0,0.0,1.47,0.0,0.98,
6.465,109.24283854764188,88.56293467338114,-12.33,-2.19,-6.92,0.0,0.0,0.0,2.0,0.0,0.0,0.0,1.37,0.0,0.88,
6.489,109.19528385476418,88.22729346733811,-8.04,-0.11,-10.42,0.0,0.0,0.0,2.0,0.0,0.0,0.0,1.37,0.0,0.78,
6.512,109.37052838547642,88.85072934673381,0.66,7.82,-10.06,0.0,0.0,0.0,2.0,0.0,0.0,0.0,1.47,0.0,0.59,
6.536,109.37905283854764,90.75807293467338,1.56,6.89,-3.78,0.0,0.0,0.0,2.0,0.0,0.0,0.0,1.77,0.1,0.39,
6.559,109.17290528385477,90.59780729346734,-5.54,-7.77,20.34,0.0,0.0,0.0,2.0,0.0,0.0,0.0,1.96,0.49,0.59,
6.584,108.54029052838548,90.40178072934673,-1.08,1.94,0.28,0.0,0.0,0.0,2.0,0.0,0.0,0.0,1.86,0.49,0.78,
6.607,108.85502905283855,90.27417807293467,-5.58,0.79,-2.39,0.0,0.0,0.0,2.0,0.0,0.0,0.0,1.86,0.1,0.88,
6.631,109.36350290528387,90.05441780729346,0.67,1.24,-2.79,0.0,0.0,0.0,2.0,0.0,0.0,0.0,1.77,0.0,0.88,
6.654,109.33335029052839,90.15844178072935,1.3,4.88,-3.47,0.0,0.0,0.0,2.0,0.0,0.0,0.0,1.77,0.0,0.69,
6.678,109.60933502905284,90.11484417807293,3.55,4.5,-5.5,0.0,0.0,0.0,2.0,0.0,0.0,0.0,1.86,0.1,0.69,
6.702,109.84393350290529,89.8404844178073,-0.12,-0.16,-0.43,0.0,0.0,0.0,2.0,0.0,0.0,0.0,1.86,0.1,0.88,
6.725,110.11039335029054,89.48904844178074,-1.69,-1.84,-0.5,0.0,0.0,0.0,2.0,0.0,0.0,0.0,1.86,0.1,0.78,
6.749,109.89403933502906,89.73290484417808,1.47,-0.92,-3.46,0.0,0.0,0.0,2.0,0.0,0.0,0.0,1.96,0.2,0.69,
6.772,109.8274039335029,90.4142904844178,3.39,-5.47,-1.07,0.0,0.0,0.0,2.0,0.0,0.0,0.0,2.06,0.39,0.59,
6.796,109.88374039335028,90.6984290484418,-1.56,-3.05,1.87,0.0,0.0,0.0,3.0,0.0,0.0,0.0,2.06,0.69,0.69,
6.819,109.88037403933502,90.75384290484419,-6.13,-4.3,5.89,0.0,0.0,0.0,3.0,0.0,0.0,0.0,2.16,0.98,0.2,
6.843,109.9970374039335,90.73238429048443,-3.05,-0.53,0.82,0.0,0.0,0.0,3.0,0.0,0.0,0.0,2.26,1.08,0.1,
6.866,110.06270374039335,90.92823842904845,-3.79,-2.44,2.09,0.0,0.0,0.0,3.0,0.0,0.0,0.0,2.16,1.08,0.1,
6.891,109.99727037403933,91.01982384290486,-5.44,-5.9,5.67,0.0,0.0,0.0,3.0,0.0,0.0,0.0,2.26,1.18,0.2,
6.915,109.89172703740392,91.01998238429047,-6.06,-3.98,4.21,0.0,0.0,0.0,3.0,0.0,0.0,0.0,2.45,1.47,0.2,
6.938,110.0251727037404,91.05599823842905,-5.34,-0.73,-1.12,0.0,0.0,0.0,3.0,0.0,0.0,0.0,2.55,1.67,0.39,
6.962,110.09251727037405,91.00559982384291,-8.44,-1.46,4.18,0.0,0.0,0.0,3.0,0.0,0.0,0.0,2.55,1.77,0.29,
6.985,110.09025172703741,90.5325599823843,-4.92,1.79,-0.02,0.0,0.0,0.0,4.0,0.0,0.0,0.0,2.45,2.06,0.39,
7.009,110.04502517270375,90.52125599823843,-4.03,4.8,-1.44,0.0,0.0,0.0,4.0,0.0,0.0,0.0,2.45,2.16,0.39,
7.032,110.28350251727038,90.46612559982384,-2.82,2.43,-0.63,0.0,0.0,0.0,4.0,0.0,0.0,0.0,2.45,2.35,0.29,
7.056,110.07335025172704,90.30761255998239,-2.34,2.31,-0.95,0.0,0.0,0.0,4.0,0.0,0.0,0.0,2.45,2.55,0.29,
7.079,109.6923350251727,89.84176125599825,-0.46,9.61,-8.84,0.0,0.0,0.0,4.0,0.0,0.0,0.0,2.55,2.55,0.39,
7.103,110.88723350251726,87.44617612559983,-13.99,9.39,5.15,0.0,0.0,0.0,3.0,0.0,0.0,0.0,2.45,2.26,0.59,
7.128,111.67272335025173,83.92161761255998,-26.56,1.6,-27.25,0.0,0.0,0.0,3.0,0.0,0.0,0.0,2.35,1.67,0.49,
7.151,112.50727233502518,82.62416176125599,-30.59,-5.23,-29.74,0.0,0.0,0.0,3.0,0.0,0.0,0.0,2.45,1.77,0.0,
7.175,114.08472723350252,85.35641617612559,-18.41,-14.99,-9.3,0.0,0.0,0.0,4.0,0.0,0.0,0.0,2.94,2.45,0.0,
7.198,114.11647272335026,90.70564161761256,2.15,-5.24,30.13,0.0,0.0,0.0,4.0,0.0,0.0,0.0,3.83,3.53,0.2,
7.223,113.57064727233502,96.73956416176125,5.86,-35.65,43.94,0.0,0.0,0.0,4.0,0.0,0.0,0.0,4.12,4.61,0.39,
7.246,110.73506472723349,95.80395641617613,-21.83,-38.22,67.92,0.0,0.0,0.0,5.0,0.0,0.0,0.0,4.32,5.49,0.78,
7.27,109.10150647272336,94.59439564161761,-10.98,1.48,-13.6,0.0,0.0,0.0,4.0,0.0,0.0,0.0,3.83,6.38,1.18,
7.294,109.82915064727233,93.61843956416176,-8.5,2.01,3.04,0.0,0.0,0.0,4.0,0.0,0.0,0.0,3.53,5.98,1.18,
7.318,110.13591506472724,92.67484395641617,1.03,-6.39,5.14,0.0,0.0,0.0,4.0,0.0,0.0,0.0,3.43,5.4,0.78,
7.342,109.77059150647273,92.07648439564163,1.4,-4.53,-1.41,0.0,0.0,0.0,4.0,0.0,0.0,0.0,3.43,5.59,0.39,
7.365,109.50905915064727,91.70164843956417,-1.77,1.91,-2.28,0.0,0.0,0.0,4.0,0.0,0.0,0.0,3.53,6.38,0.49,
7.389,109.52790591506472,91.29516484395641,-4.94,0.94,-0.99,0.0,0.0,0.0,4.0,0.0,0.0,0.0,3.53,6.97,0.88,
7.412,109.61079059150647,90.79551648439563,-1.92,0.39,1.49,0.0,0.0,0.0,4.0,0.0,0.0,0.0,3.24,7.55,0.88,
7.437,109.67307905915065,90.34955164843956,0.11,0.82,0.56,0.0,0.0,0.0,4.0,0.0,0.0,0.0,3.14,8.93,0.88,
7.46,109.67930790591507,90.12495516484395,-0.35,-1.33,1.75,0.0,0.0,0.0,4.0,0.0,0.0,0.0,3.14,9.52,0.59,
7.484,109.67093079059151,89.91349551648439,-3.44,-2.2,3.65,0.0,0.0,0.0,4.0,0.0,0.0,0.0,3.14,10.5,0.49,
7.507,109.82309307905916,89.91034955164844,-5.21,-1.85,2.76,0.0,0.0,0.0,3.0,0.0,0.0,0.0,3.04,10.79,0.49,
7.532,109.9103093079059,89.65803495516485,-5.85,0.11,3.82,0.0,0.0,0.0,3.0,0.0,0.0,0.0,2.94,10.5,0.69,
7.556,110.02703093079059,89.53380349551648,-6.22,-5.31,4.02,0.0,0.0,0.0,3.0,0.0,0.0,0.0,2.75,10.01,0.59,
7.579,109.94870309307905,89.61138034955165,-4.15,0.34,6.24,0.0,0.0,0.0,3.0,0.0,0.0,0.0,2.55,9.52,0.59,
7.603,110.0038703093079,89.79013803495516,-3.31,2.89,8.86,0.0,0.0,0.0,3.0,0.0,0.0,0.0,2.35,9.22,0.78,
7.626,110.78338703093078,89.77201380349551,1.86,9.2,12.61,0.0,0.0,0.0,3.0,0.0,0.0,0.0,2.26,9.12,0.88,
7.65,111.44633870309308,90.04920138034956,4.93,5.08,21.44,0.0,0.0,0.0,2.0,0.0,0.0,0.0,2.06,8.63,0.88,
7.674,111.69263387030931,89.99592013803496,5.5,-6.31,21.15,0.0,0.0,0.0,2.0,0.0,0.0,0.0,1.86,8.04,0.88,
7.698,112.21226338703092,89.6305920138035,8.61,-13.98,18.89,0.0,0.0,0.0,2.0,0.0,0.0,0.0,1.77,7.26,0.69,
7.721,111.33722633870309,89.47705920138034,9.88,2.19,23.19,0.0,0.0,0.0,2.0,0.0,0.0,0.0,1.67,6.67,0.59,
7.745,110.23272263387031,88.30070592013804,6.7,-6.08,13.61,0.0,0.0,0.0,2.0,0.0,0.0,0.0,1.67,6.38,0.98,
7.769,108.23227226338703,86.9590705920138,-0.48,-11.98,-4.05,0.0,0.0,0.0,2.0,0.0,0.0,0.0,1.67,5.98,0.88,
7.792,108.6262272263387,87.49090705920138,2.72,23.82,-10.59,0.0,0.0,0.0,2.0,0.0,0.0,0.0,1.57,5.98,0.69,
7.816,109.58362272263388,87.84109070592014,-2.22,-1.06,-2.92,0.0,0.0,0.0,2.0,0.0,0.0,0.0,1.67,5.69,0.69,
7.84,109.60736227226339,88.08310907059202,-2.76,-0.34,-0.03,0.0,0.0,0.0,3.0,0.0,0.0,0.0,1.47,5.2,0.69,
7.864,109.72673622722633,88.26931090705921,-2.66,3.16,-5.49,0.0,0.0,0.0,3.0,0.0,0.0,0.0,1.28,4.41,0.69,
7.887,109.80167362272263,88.4949310907059,-3.74,0.56,-4.06,0.0,0.0,0.0,3.0,0.0,0.0,0.0,1.18,3.73,0.69,
7.911,109.83616736227226,88.54449310907059,-4.95,-1.02,-0.76,0.0,0.0,0.0,3.0,0.0,0.0,0.0,1.28,3.14,0.59,
7.936,109.83961673622723,88.63944931090707,-3.85,-0.6,-0.24,0.0,0.0,0.0,3.0,0.0,0.0,0.0,1.28,2.84,0.78,
7.959,109.92096167362273,88.64894493109071,-2.18,-0.35,-0.95,0.0,0.0,0.0,3.0,0.0,0.0,0.0,1.37,2.55,0.69,
7.983,110.03709616736228,88.71289449310908,-1.57,-1.05,-1.12,0.0,0.0,0.0,3.0,0.0,0.0,0.0,1.47,2.45,0.88,
8.006,110.11170961673623,88.91728944931091,-1.39,-0.44,-2.37,0.0,0.0,0.0,3.0,0.0,0.0,0.0,1.57,2.35,0.78,
8.031,110.11917096167363,88.98272894493108,-2.47,-1.63,0.24,0.0,0.0,0.0,3.0,0.0,0.0,0.0,1.57,2.16,0.78,
8.054,110.23691709616737,88.97127289449311,-2.02,-1.56,-1.37,0.0,0.0,0.0,3.0,0.0,0.0,0.0,1.57,1.96,0.88,
8.078,110.30269170961674,89.07812728944933,-1.56,-1.53,-1.14,0.0,0.0,0.0,3.0,0.0,0.0,0.0,1.67,1.86,0.78,
8.102,110.32726917096167,89.15181272894493,-1.7,-2.08,-1.05,0.0,0.0,0.0,3.0,0.0,0.0,0.0,1.67,1.67,0.78,
8.126,110.23072691709618,89.14118127289449,-1.73,-1.38,-1.44,0.0,0.0,0.0,3.0,0.0,0.0,0.0,1.77,1.67,0.88,
8.15,110.28407269170962,89.24811812728944,-1.41,-0.08,-2.22,0.0,0.0,0.0,3.0,0.0,0.0,0.0,1.77,1.57,0.88,
8.173,110.36140726917097,89.28581181272895,-1.11,-0.18,-2.14,0.0,0.0,0.0,3.0,0.0,0.0,0.0,1.77,1.47,0.88,
8.198,110.4681407269171,89.3345811812729,-1.66,-1.36,-2.82,0.0,0.0,0.0,3.0,0.0,0.0,0.0,1.86,1.47,0.78,
8.221,110.4878140726917,89.3124581181273,-1.65,-0.57,-3.6,0.0,0.0,0.0,3.0,0.0,0.0,0.0,1.86,1.57,0.78,
8.245,110.53478140726918,89.36424581181274,-0.38,-1.08,-3.99,0.0,0.0,0.0,3.0,0.0,0.0,0.0,1.86,1.57,0.98,
8.269,110.54847814072691,89.56742458118127,-1.94,-0.38,-0.9,0.0,0.0,0.0,3.0,0.0,0.0,0.0,2.06,1.57,0.88,
8.293,110.51384781407269,89.74974245811812,-1.47,-1.69,0.69,0.0,0.0,0.0,3.0,0.0,0.0,0.0,2.06,1.77,0.78,
8.316,110.59138478140726,89.62397424581181,-0.71,-1.57,-3.61,0.0,0.0,0.0,3.0,0.0,0.0,0.0,2.06,1.86,0.78,
8.34,110.73413847814072,89.76439742458119,-2.46,-4.88,-0.69,0.0,0.0,0.0,4.0,0.0,0.0,0.0,2.16,1.96,0.2,
8.365,110.77541384781406,89.99443974245811,-1.17,-4.05,-2.81,0.0,0.0,0.0,4.0,0.0,0.0,0.0,2.06,2.06,0.2,
8.388,110.5725413847814,90.05344397424581,-1.94,-4.31,1.62,0.0,0.0,0.0,4.0,0.0,0.0,0.0,2.16,2.16,0.29,
8.412,110.57025413847813,90.01434439742458,-2.4,-4.94,-2.99,0.0,0.0,0.0,4.0,0.0,0.0,0.0,2.16,2.26,0.29,
8.436,110.3000254138478,90.09143443974246,-3.21,-3.48,-0.01,0.0,0.0,0.0,4.0,0.0,0.0,0.0,2.26,2.35,0.0,
8.46,110.21900254138477,90.13514344397424,-1.76,-2.01,-3.21,0.0,0.0,0.0,4.0,0.0,0.0,0.0,2.26,2.45,0.0,
8.484,110.13890025413848,89.99551434439742,-0.94,-2.65,0.3,0.0,0.0,0.0,4.0,0.0,0.0,0.0,2.26,2.55,0.0,
8.508,110.22089002541385,89.98155143443974,-0.5,-1.46,-1.85,0.0,0.0,0.0,4.0,0.0,0.0,0.0,2.26,2.55,0.1,
8.531,110.21108900254137,89.79115514344396,1.28,-1.25,-5.34,0.0,0.0,0.0,4.0,0.0,0.0,0.0,2.26,2.45,0.29,
8.556,110.14710890025414,89.7811155143444,0.68,-0.85,-2.65,0.0,0.0,0.0,4.0,0.0,0.0,0.0,2.16,2.45,0.1,
8.58,110.11371089002542,89.90611155143444,1.34,0.33,-6.32,0.0,0.0,0.0,4.0,0.0,0.0,0.0,2.26,2.26,0.2,
8.603,110.06537108900254,90.10761115514345,-0.24,2.23,-2.1,0.0,0.0,0.0,4.0,0.0,0.0,0.0,2.16,2.35,0.29,
8.627,110.18653710890025,90.04676111551434,0.27,2.53,-5.18,0.0,0.0,0.0,4.0,0.0,0.0,0.0,2.26,2.35,0.59,
8.651,110.01865371089002,89.82467611155143,-0.93,4.41,-11.33,0.0,0.0,0.0,4.0,0.0,0.0,0.0,2.16,2.35,0.1,
8.675,109.91186537108901,90.09046761115515,-0.25,-1.37,-2.92,0.0,0.0,0.0,4.0,0.0,0.0,0.0,2.16,2.55,0.0,
8.698,109.8291865371089,90.13504676111552,-1.08,-2.07,-2.22,0.0,0.0,0.0,4.0,0.0,0.0,0.0,2.06,2.65,0.0,
8.723,109.98291865371088,90.72450467611156,-2.34,-6.1,1.76,1.0,0.0,0.0,4.0,0.0,0.0,0.0,2.16,2.75,0.0,
8.747,109.8812918653711,90.88245046761116,-0.9,-3.87,-1.97,1.0,0.0,0.0,4.0,0.0,0.0,0.0,2.06,2.75,0.0,
8.771,109.5561291865371,90.81724504676112,-0.24,-0.63,-5.3,1.0,0.0,0.0,4.0,0.0,0.0,0.0,2.06,2.75,0.0,
8.795,109.7486129186537,91.0537245046761,-0.28,-2.7,-3.12,1.0,0.0,0.0,4.0,0.0,0.0,0.0,1.96,2.94,0.0,
8.819,109.75886129186537,91.0233724504676,0.37,0.02,-3.72,1.0,0.0,0.0,4.0,0.0,0.0,0.0,1.96,2.94,0.0,
8.843,109.76888612918653,91.20933724504675,0.67,2.31,-1.86,1.0,0.0,0.0,4.0,0.0,0.0,0.0,1.96,3.04,0.0,
8.866,110.01288861291866,91.25493372450467,1.96,2.08,-4.11,1.0,0.0,0.0,4.0,0.0,0.0,0.0,1.86,3.14,0.0,
8.891,110.15428886129187,91.14249337245046,4.22,4.41,-3.8,1.0,0.0,0.0,4.0,0.0,0.0,0.0,1.96,3.24,0.39,
8.914,110.18642888612919,91.64424933724504,2.19,3.6,-2.41,1.0,0.0,0.0,4.0,0.0,0.0,0.0,1.96,3.24,0.49,
8.938,110.31564288861291,91.78442493372451,0.18,3.86,-0.54,1.0,0.0,0.0,4.0,0.0,0.0,0.0,1.96,3.24,0.59,
8.963,110.46356428886129,91.77144249337245,-1.18,3.11,-1.01,1.0,0.0,0.0,4.0,0.0,0.0,0.0,1.96,3.53,0.0,
8.986,110.43335642888614,91.80614424933725,-0.11,4.33,0.03,1.0,0.0,0.0,5.0,0.0,0.0,0.0,2.06,3.92,0.0,
9.01,110.7363356428886,92.02561442493372,0.64,4.02,-1.24,1.0,0.0,0.0,4.0,0.0,0.0,0.0,2.16,4.51,0.0,
9.034,110.71263356428885,92.04756144249336,-1.24,3.01,0.79,1.0,0.0,0.0,5.0,0.0,0.0,0.0,2.26,4.81,0.2,
9.058,110.84526335642889,92.22075614424932,-2.39,1.73,-0.1,1.0,0.0,0.0,5.0,0.0,0.0,0.0,2.35,5.1,0.1,
9.081,110.9845263356429,92.39107561442492,-4.54,-0.85,1.43,1.0,0.0,0.0,5.0,0.0,0.0,0.0,2.45,5.4,0.0,
9.106,110.9804526335643,92.39010756144249,-7.53,-2.04,3.36,1.0,0.0,0.0,5.0,0.0,0.0,0.0,2.45,5.79,0.0,
9.129,111.17804526335642,92.36301075614423,-9.23,-1.27,2.0,2.0,0.0,0.0,5.0,0.0,0.0,0.0,2.65,6.57,0.0,
9.154,111.12580452633566,92.42330107561443,-10.6,-3.73,3.47,2.0,0.0,0.0,6.0,0.0,0.0,0.0,2.75,7.55,0.0,
9.178,111.12958045263356,92.23133010756143,-10.02,-2.8,3.58,2.0,0.0,0.0,6.0,0.0,0.0,0.0,2.84,8.63,0.0,
9.202,111.24695804526336,92.39213301075614,-10.4,1.36,-3.32,2.0,0.0,0.0,7.0,0.0,0.0,0.0,2.84,10.1,0.0,
9.226,111.19569580452634,92.26421330107561,-9.79,-7.85,3.5,3.0,0.0,0.0,7.0,0.0,0.0,0.0,2.75,12.36,0.0,
9.25,111.12756958045264,92.17042133010756,-9.26,-4.18,-0.72,3.0,0.0,0.0,7.0,0.0,0.0,0.0,2.65,13.83,0.0,
9.274,111.12975695804526,92.00804213301075,-8.55,-9.34,6.6,3.0,0.0,0.0,8.0,0.0,1.0,0.0,2.35,14.81,0.0,
9.298,111.01297569580453,91.83880421330106,-8.18,-11.21,7.31,3.0,0.0,0.0,8.0,0.0,1.0,0.0,1.96,15.11,0.0,
9.323,110.94729756958046,91.7948804213301,-6.28,-9.76,2.2,3.0,0.0,0.0,8.0,0.0,1.0,0.0,1.67,15.3,0.0,
9.347,110.72472975695806,91.55648804213303,-4.62,-5.49,2.41,3.0,1.0,0.0,8.0,0.0,1.0,0.0,1.67,15.5,0.0,
9.371,110.4864729756958,91.5776488042133,-3.18,-3.96,-0.93,3.0,1.0,0.0,8.0,0.0,1.0,0.0,1.77,15.6,0.0,
9.395,110.36364729756957,91.43576488042133,-2.2,-1.69,0.27,3.0,0.0,0.0,8.0,0.0,1.0,0.0,1.77,15.4,0.0,
9.419,110.45036472975696,91.19657648804213,-1.29,-7.5,3.08,3.0,0.0,0.0,7.0,0.0,1.0,0.0,2.06,15.3,0.0,
9.443,110.3870364729757,91.01965764880421,1.51,-3.5,-1.76,3.0,0.0,0.0,7.0,0.0,1.0,0.0,2.26,14.62,0.49,
9.467,110.52470364729757,91.04696576488041,0.17,-2.83,-1.92,3.0,0.0,0.0,6.0,0.0,1.0,0.0,2.55,13.44,1.08,
9.491,109.99847036472976,91.00469657648804,-0.64,-4.83,2.78,3.0,0.0,0.0,6.0,0.0,1.0,0.0,2.75,12.16,0.98,
9.516,109.76584703647296,91.00946965764881,-0.83,-3.13,-0.56,3.0,0.0,0.0,6.0,0.0,0.0,0.0,2.75,11.28,0.59,
9.54,109.8325847036473,91.10894696576489,-2.33,-6.43,1.66,3.0,0.0,0.0,6.0,0.0,0.0,0.0,2.75,10.59,0.39,
9.564,109.84825847036473,91.25389469657648,-4.75,-5.68,1.43,3.0,0.0,0.0,6.0,0.0,0.0,0.0,2.75,9.91,0.59,
9.587,109.25582584703648,91.09738946965764,-4.63,-4.09,-0.73,3.0,0.0,0.0,6.0,0.0,0.0,0.0,2.65,9.42,0.39,
9.612,109.16958258470365,90.94673894696577,-5.3,-1.79,-1.61,4.0,0.0,0.0,7.0,0.0,1.0,0.0,2.55,9.22,0.2,
9.635,109.19695825847036,90.85067389469657,-3.68,-2.41,-0.03,4.0,0.0,0.0,7.0,0.0,1.0,0.0,2.45,9.22,0.2,
9.66,109.32569582584703,91.02106738946966,-2.93,-2.65,-0.6,4.0,0.0,0.0,7.0,0.0,1.0,0.0,2.45,9.12,0.29,
9.684,109.2125695825847,91.01110673894698,-2.89,0.76,-2.42,4.0,0.0,0.0,7.0,0.0,0.0,0.0,2.55,8.93,0.0,
9.708,109.23725695825847,91.0011106738947,-2.53,-0.93,-1.2,4.0,0.0,0.0,7.0,0.0,0.0,0.0,2.55,9.03,0.0,
9.732,109.30272569582584,91.00011106738947,-3.04,-0.16,-1.66,4.0,0.0,0.0,7.0,0.0,0.0,0.0,2.55,8.83,0.1,
9.756,109.35427256958259,90.98201110673895,-2.67,-2.47,0.76,4.0,0.0,0.0,7.0,0.0,0.0,0.0,2.65,8.83,0.2,
9.78,109.33242725695825,90.9802011106739,-1.91,-0.36,-1.83,4.0,0.0,0.0,7.0,0.0,0.0,0.0,2.75,8.83,0.1,
9.804,109.26724272569582,90.98002011106739,-2.55,0.08,-1.31,4.0,0.0,0.0,7.0,0.0,0.0,0.0,2.94,8.93,0.29,
9.828,109.27872427256958,91.03400201110674,-3.65,0.11,-0.9,3.0,0.0,0.0,7.0,0.0,0.0,0.0,2.84,8.83,0.69,
9.852,109.24387242725696,90.91340020111068,-4.66,-1.5,0.82,4.0,0.0,0.0,7.0,0.0,0.0,0.0,2.84,8.63,0.49,
9.876,109.1953872427257,91.01834002011107,-5.37,-0.28,-0.24,4.0,0.0,0.0,7.0,0.0,1.0,0.0,2.84,9.03,0.0,
9.901,109.25353872427257,91.0468340020111,-5.87,0.3,-0.71,4.0,0.0,0.0,7.0,0.0,1.0,0.0,2.84,9.42,0.0,
9.924,109.43035387242726,90.93268340020111,-4.45,-1.21,-0.18,4.0,0.0,0.0,7.0,0.0,1.0,0.0,2.65,10.01,0.0,
9.949,109.41203538724272,90.96626834002012,-4.4,-2.58,0.92,4.0,0.0,0.0,8.0,0.0,1.0,0.0,2.45,10.5,0.29,
9.972,109.38320353872426,90.89762683400201,-5.23,-2.7,1.47,4.0,0.0,0.0,8.0,0.0,1.0,0.0,2.35,10.79,0.59,
9.997,109.30832035387243,90.8367626834002,-4.95,-2.48,1.71,4.0,0.0,0.0,8.0,0.0,1.0,0.0,2.26,11.28,0.39,
10.02,109.14783203538724,90.69567626834002,-4.99,-2.42,1.07,4.0,0.0,0.0,8.0,0.0,1.0,0.0,2.26,11.48,0.29,
10.045,109.19478320353872,90.67256762683401,-4.67,-2.8,0.41,4.0,0.0,0.0,8.0,0.0,1.0,0.0,2.26,11.87,0.1,
10.07,109.19047832035388,90.6162567626834,-4.53,-3.9,1.05,4.0,0.0,0.0,8.0,0.0,1.0,0.0,2.35,11.77,0.2,
10.093,109.25304783203539,90.82662567626834,-4.24,0.62,0.02,4.0,0.0,0.0,8.0,0.0,1.0,0.0,2.45,11.77,0.29,
10.118,109.40330478320354,90.94666256762682,-3.11,-2.63,-0.27,4.0,0.0,0.0,8.0,0.0,1.0,0.0,2.45,11.58,0.39,
10.141,109.32833047832034,90.86866625676268,-3.59,-1.15,-1.02,4.0,0.0,0.0,8.0,0.0,1.0,0.0,2.45,11.18,0.78,
10.166,109.28483304783204,90.76186662567626,-5.48,-5.04,3.34,4.0,0.0,0.0,8.0,0.0,1.0,0.0,2.35,10.99,0.69,
10.19,109.19048330478321,90.68818666256763,-4.75,-2.44,0.98,4.0,0.0,0.0,8.0,0.0,1.0,0.0,2.45,10.99,0.49,
10.214,109.09104833047832,90.69881866625677,-5.56,-3.16,2.24,4.0,0.0,0.0,8.0,0.0,1.0,0.0,2.45,10.99,0.2,
10.238,108.94610483304784,90.65488186662569,-6.91,-1.31,0.39,4.0,0.0,0.0,8.0,0.0,1.0,0.0,2.45,11.18,0.0,
10.263,108.87761048330478,90.41648818666256,-5.3,1.09,1.6,4.0,0.0,0.0,8.0,0.0,1.0,0.0,2.26,11.58,0.0,
10.287,108.92476104833048,90.28464881866626,-3.86,1.48,-0.18,4.0,0.0,0.0,8.0,0.0,1.0,0.0,2.06,11.97,0.0,
10.311,108.95647610483304,90.28946488186664,-3.03,1.53,-0.65,4.0,0.0,0.0,9.0,0.0,1.0,0.0,2.06,12.26,0.0,
10.335,109.1126476104833,90.40694648818666,-3.22,0.44,-0.11,4.0,0.0,0.0,9.0,0.0,1.0,0.0,2.06,12.56,0.0,
10.359,109.16426476104833,90.40969464881866,-4.18,0.06,0.96,4.0,0.0,0.0,9.0,0.0,1.0,0.0,2.06,12.75,0.29,
10.383,109.22342647610483,90.28396946488186,-4.98,0.53,0.98,4.0,0.0,0.0,9.0,0.0,1.0,0.0,2.26,13.15,0.2,
10.407,109.25634264761048,90.19039694648819,-5.95,0.65,1.24,4.0,0.0,0.0,9.0,0.0,1.0,0.0,2.16,13.73,0.2,
10.431,109.28663426476105,90.22603969464882,-6.33,1.46,1.85,4.0,0.0,0.0,9.0,0.0,1.0,0.0,2.26,14.22,0.2,
10.456,109.41566342647612,90.10360396946488,-4.82,0.5,-0.45,4.0,0.0,0.0,9.0,0.0,1.0,0.0,2.06,14.62,0.39,
10.479,109.37456634264761,89.96536039694648,-5.79,-1.72,0.98,4.0,1.0,0.0,9.0,0.0,1.0,0.0,2.06,15.01,0.49,
10.504,109.34345663426477,89.79853603969465,-6.11,-0.72,1.41,4.0,1.0,0.0,9.0,0.0,2.0,0.0,1.96,15.3,0.59,
10.528,109.63734566342647,89.88085360396946,-4.7,-0.1,-0.3,4.0,1.0,0.0,9.0,0.0,2.0,0.0,1.96,15.6,0.88,
10.553,109.61273456634265,89.76308536039696,-5.59,0.8,2.33,4.0,1.0,0.0,10.0,0.0,2.0,0.0,1.77,16.09,0.39,
10.576,109.55627345663426,89.6613085360397,-4.79,1.85,0.43,4.0,1.0,0.0,10.0,0.0,2.0,0.0,1.57,16.68,0.49,
10.601,109.6946273456634,89.67813085360397,-5.23,0.95,0.59,4.0,1.0,0.0,10.0,0.0,2.0,0.0,1.47,17.46,0.69,
10.626,109.65446273456634,89.46381308536039,-3.62,0.95,1.18,4.0,1.0,0.0,10.0,0.0,2.0,0.0,1.18,17.95,0.78,
10.65,109.69544627345664,89.47838130853604,-3.73,1.31,1.37,4.0,1.0,0.0,10.0,0.0,2.0,0.0,1.18,18.25,0.78,
10.674,109.73554462734565,89.4258381308536,-3.95,1.05,0.11,4.0,1.0,0.0,10.0,0.0,2.0,0.0,1.28,18.54,0.29,
10.698,109.80255446273458,89.35758381308536,-3.21,1.34,-0.13,4.0,1.0,0.0,10.0,0.0,2.0,0.0,1.28,19.03,0.2,
10.723,109.87225544627346,89.31475838130854,-3.02,1.39,2.99,4.0,1.0,0.0,10.0,0.0,2.0,0.0,1.28,19.52,0.1,
10.747,110.00522554462734,89.40947583813086,-3.01,0.47,0.92,4.0,1.0,0.0,10.0,0.0,2.0,0.0,1.28,19.91,0.0,
10.771,110.09052255446274,89.46394758381308,-3.74,0.59,-0.49,4.0,1.0,0.0,10.0,0.0,2.0,0.0,1.47,20.21,0.49,
10.796,109.99105225544628,89.4873947583813,-3.04,1.79,-0.92,4.0,1.0,0.0,10.0,0.0,2.0,0.0,1.37,20.5,0.69,
10.82,110.03510522554463,89.44473947583812,-3.53,0.65,1.98,4.0,1.0,0.0,10.0,0.0,2.0,0.0,1.37,20.8,0.2,
10.845,110.03051052255447,89.29647394758382,-2.69,0.5,2.12,4.0,1.0,0.0,10.0,0.0,2.0,0.0,1.37,20.9,0.2,
10.869,110.17405105225545,89.28164739475838,-2.98,0.42,0.05,3.0,0.0,0.0,10.0,0.0,2.0,0.0,1.37,20.9,0.49,
10.894,110.15240510522554,89.23516473947583,-2.39,0.29,-0.53,3.0,0.0,0.0,10.0,0.0,2.0,0.0,1.47,20.8,0.59,
10.917,110.19524051052255,89.16751647394759,-1.59,1.3,-1.4,3.0,0.0,0.0,10.0,0.0,2.0,0.0,1.47,20.6,0.39,
10.942,110.20852405105225,89.19675164739476,-1.52,0.2,-0.96,3.0,0.0,0.0,10.0,0.0,2.0,0.0,1.57,20.31,1.18,
10.967,110.21885240510522,89.18167516473949,-1.35,0.69,-1.31,3.0,0.0,0.0,10.0,0.0,2.0,0.0,1.67,19.91,1.28,
10.991,110.32788524051053,89.23416751647395,-0.71,3.39,-2.04,3.0,0.0,0.0,10.0,0.0,2.0,0.0,1.67,19.72,1.28,
11.015,110.47378852405106,89.4824167516474,0.16,2.47,-2.77,3.0,0.0,0.0,10.0,0.0,2.0,0.0,1.77,19.33,2.16,
11.039,110.5243788524051,89.66024167516474,-0.79,2.17,-2.15,3.0,0.0,0.0,10.0,0.0,2.0,0.0,1.96,19.03,0.0,
11.064,110.57443788524051,89.67802416751647,-1.21,3.21,-3.34,3.0,0.0,0.0,10.0,0.0,2.0,0.0,2.16,18.74,0.0,
11.087,110.57044378852405,89.57180241675164,-1.54,3.27,-1.6,3.0,0.0,0.0,10.0,0.0,2.0,0.0,2.16,18.74,0.0,
11.112,110.70504437885239,89.52518024167516,-2.02,5.2,-1.18,3.0,0.0,0.0,10.0,0.0,1.0,0.0,2.16,18.93,0.0,
11.137,110.93450443788522,89.52951802416752,-0.17,6.11,-4.65,3.0,0.0,0.0,10.0,0.0,1.0,0.0,2.16,19.13,0.0,
11.16,111.02045044378852,89.69195180241674,0.49,5.73,-4.42,3.0,0.0,0.0,10.0,0.0,1.0,0.0,2.26,19.23,0.1,
11.185,111.07404504437885,89.63619518024167,1.69,5.31,-5.3,3.0,0.0,0.0,9.0,0.0,1.0,0.0,2.35,19.13,0.49,
11.208,111.48440450443789,89.91861951802416,1.71,4.74,-5.92,3.0,0.0,0.0,9.0,0.0,1.0,0.0,2.65,18.84,0.98,
11.233,111.79544045044379,90.19886195180243,0.82,2.6,-3.14,2.0,0.0,0.0,9.0,0.0,1.0,0.0,2.84,18.25,1.28,
11.256,111.97054404504438,90.31688619518025,1.1,2.23,-4.07,2.0,0.0,0.0,8.0,0.0,1.0,0.0,3.14,17.46,1.28,
11.281,112.03305440450444,90.32868861951802,0.63,1.85,-5.4,2.0,0.0,0.0,8.0,0.0,1.0,0.0,3.24,16.68,1.47,
11.304,112.06630544045044,90.4018688619518,0.54,-0.65,-3.5,2.0,0.0,0.0,8.0,0.0,0.0,0.0,3.43,15.6,1.08,
11.329,112.12363054404504,90.58918688619518,-0.74,0.73,-3.98,2.0,0.0,0.0,8.0,0.0,0.0,0.0,3.43,14.81,0.59,
11.354,112.15636305440451,90.77891868861951,-2.15,1.19,-1.79,2.0,0.0,0.0,8.0,0.0,1.0,0.0,3.24,14.13,0.39,
11.377,112.09663630544046,90.86989186886196,-3.51,0.6,0.39,2.0,0.0,0.0,8.0,0.0,1.0,0.0,2.94,13.93,0.0,
11.402,112.14466363054404,90.86998918688619,-3.47,1.06,1.43,3.0,0.0,0.0,9.0,0.0,1.0,0.0,2.75,14.13,0.0,
11.425,112.2664663630544,90.92399891868862,-3.24,2.21,1.01,3.0,0.0,0.0,9.0,0.0,1.0,0.0,2.45,14.52,0.0,
11.45,112.27864663630544,90.79439989186886,-1.56,3.27,0.19,3.0,0.0,0.0,9.0,0.0,1.0,0.0,2.26,15.3,0.0,
11.473,112.56786466363054,90.70943998918689,-2.88,2.53,1.72,3.0,0.0,0.0,9.0,0.0,1.0,0.0,2.16,15.99,0.0,
11.498,112.71378646636306,90.61094399891869,-1.96,6.23,-1.22,3.0,0.0,0.0,9.0,0.0,1.0,0.0,2.16,16.48,0.0,
11.522,112.80037864663632,90.80809439989187,-1.69,4.95,-1.17,3.0,0.0,0.0,9.0,0.0,1.0,0.0,2.16,16.87,0.39,
11.546,112.18803786466363,90.27880943998919,-3.19,-6.69,11.93,3.0,0.0,0.0,9.0,0.0,1.0,0.0,2.16,17.36,0.1,
11.571,112.53180378646636,90.7208809439989,-3.25,1.31,7.72,3.0,0.0,0.0,9.0,0.0,1.0,0.0,2.16,17.95,0.0,
11.594,112.73718037864664,90.69308809439988,-4.61,0.99,5.85,2.0,0.0,0.0,9.0,0.0,1.0,0.0,2.16,18.34,0.0,
11.619,112.81171803786467,90.77130880943999,-2.15,1.29,6.26,2.0,0.0,0.0,9.0,0.0,1.0,0.0,2.26,18.64,1.37,
11.642,112.96317180378647,90.689130880944,-1.6,2.84,1.11,2.0,0.0,0.0,9.0,0.0,1.0,0.0,2.26,18.74,1.18,
11.667,113.30231718037865,91.3289130880944,-3.03,-1.98,3.94,2.0,0.0,0.0,9.0,0.0,1.0,0.0,2.26,18.64,0.39,
11.691,113.40823171803787,91.50089130880943,-2.05,-0.06,1.39,2.0,0.0,0.0,9.0,0.0,1.0,0.0,2.35,18.34,0.1,
11.715,113.41882317180378,91.32008913088094,-5.04,-0.01,3.4,2.0,0.0,0.0,9.0,0.0,1.0,0.0,2.35,18.25,0.0,
11.739,113.59988231718039,91.33800891308809,-1.98,-0.09,-0.31,2.0,0.0,0.0,9.0,0.0,1.0,0.0,2.26,18.34,0.0,
11.763,113.71698823171803,91.33980089130881,-2.97,-0.07,-1.24,2.0,0.0,0.0,9.0,0.0,1.0,0.0,2.16,18.25,0.0,
11.788,113.8726988231718,91.38498008913089,-2.47,-1.02,0.05,2.0,0.0,0.0,9.0,0.0,1.0,0.0,2.16,18.25,0.0,
11.811,113.90626988231719,91.3984980089131,-2.31,-0.59,-0.47,3.0,0.0,0.0,9.0,0.0,0.0,0.0,2.06,18.15,0.0,
11.836,114.03562698823171,91.53484980089131,-3.54,-0.6,-0.27,3.0,0.0,0.0,9.0,0.0,0.0,0.0,2.06,18.05,0.0,
11.86,114.11156269882318,91.78248498008914,-1.32,-1.95,-1.48,3.0,0.0,0.0,9.0,0.0,0.0,0.0,1.96,17.85,0.0,
11.884,113.79515626988231,91.94224849800891,-4.42,-9.92,9.89,3.0,0.0,0.0,9.0,0.0,0.0,0.0,1.96,17.27,0.49,
11.909,114.21351562698823,92.23722484980088,-0.56,-4.82,8.18,3.0,0.0,0.0,9.0,0.0,0.0,0.0,1.96,16.97,0.98,
11.933,114.48035156269883,92.3027224849801,-2.42,1.34,1.79,2.0,0.0,0.0,9.0,0.0,0.0,0.0,1.96,16.68,1.18,
11.957,114.36303515626987,92.12927224849801,-2.64,-1.96,2.88,2.0,0.0,0.0,9.0,0.0,0.0,0.0,2.06,16.78,1.47,
11.981,114.387303515627,92.03092722484979,-2.34,0.34,1.24,2.0,0.0,0.0,9.0,0.0,0.0,0.0,2.16,17.07,1.08,
12.005,114.38073035156269,91.95809272248499,-2.12,-2.25,0.51,2.0,0.0,0.0,9.0,0.0,0.0,0.0,2.16,17.17,0.88,
12.029,114.31707303515627,91.9058092722485,-2.6,-2.02,0.79,2.0,0.0,0.0,9.0,0.0,0.0,0.0,2.35,17.17,0.29,
12.053,114.25670730351563,91.81958092722485,-2.69,-1.17,0.44,2.0,0.0,0.0,9.0,0.0,0.0,0.0,2.45,17.17,0.0,
12.078,114.13367073035157,91.72995809272248,-2.8,-1.26,1.47,2.0,0.0,0.0,9.0,0.0,0.0,0.0,2.55,17.07,0.0,
12.102,114.15736707303515,91.74799580927225,-3.3,1.31,0.66,2.0,0.0,0.0,9.0,0.0,0.0,0.0,2.55,17.27,0.0,
12.126,114.27673670730351,91.74979958092723,-2.89,2.05,-0.7,2.0,0.0,0.0,9.0,0.0,0.0,0.0,2.75,17.85,0.0,
12.15,114.34267367073033,91.63297995809273,-2.31,1.6,0.08,3.0,0.0,0.0,9.0,0.0,0.0,0.0,2.75,18.34,0.0,
12.174,114.74526736707304,91.58529799580927,-3.45,2.81,-0.88,3.0,0.0,0.0,9.0,0.0,0.0,0.0,2.84,18.64,0.0,
12.198,114.73152673670731,91.63452979958092,-4.73,-2.08,0.69,3.0,0.0,0.0,9.0,0.0,0.0,0.0,2.84,19.03,0.0,
12.222,114.67615267367073,91.5224529799581,-5.21,-1.6,0.95,3.0,0.0,0.0,10.0,0.0,1.0,0.0,2.84,19.13,0.0,
12.247,114.50861526736706,91.58324529799582,-5.96,-1.66,1.4,3.0,0.0,0.0,10.0,0.0,1.0,0.0,2.84,19.23,0.0,
12.271,114.45586152673671,91.36432452979957,-6.47,-0.29,1.81,3.0,0.0,0.0,10.0,0.0,1.0,0.0,2.65,19.42,0.0,
12.295,114.40558615267368,91.00943245297996,-2.33,0.6,0.29,3.0,0.0,0.0,10.0,0.0,1.0,0.0,2.55,19.72,0.0,
12.319,114.33755861526737,91.04594324529799,-4.39,-0.24,0.76,3.0,0.0,0.0,10.0,0.0,1.0,0.0,2.35,20.01,0.1,
12.344,114.29475586152674,90.8965943245298,-2.63,-0.24,-0.15,3.0,0.0,0.0,10.0,0.0,1.0,0.0,2.16,20.4,0.2,
12.367,114.26347558615268,90.89065943245298,-3.17,-2.18,-0.08,3.0,0.0,0.0,10.0,0.0,1.0,0.0,2.16,20.5,0.39,
12.392,114.25134755861527,90.8720659432453,-2.61,-3.29,0.57,3.0,0.0,0.0,10.0,0.0,1.0,0.0,2.06,20.21,0.78,
12.417,114.22313475586152,90.87920659432453,-2.82,-2.5,-0.15,3.0,0.0,0.0,10.0,0.0,1.0,0.0,2.06,19.82,0.69,
12.441,114.21131347558615,90.88892065943246,-2.24,-1.51,-0.47,3.0,0.0,0.0,10.0,0.0,1.0,0.0,2.26,19.42,0.59,
12.465,114.19213134755861,90.87189206594324,-2.41,-1.92,0.19,3.0,0.0,0.0,10.0,0.0,1.0,0.0,2.45,19.23,0.69,
12.489,114.19021313475587,90.94218920659432,-2.7,-0.63,0.33,3.0,0.0,0.0,10.0,0.0,1.0,0.0,2.65,19.13,0.29,
12.514,114.28002131347559,90.92221892065943,-2.63,-0.93,0.0,3.0,0.0,0.0,10.0,0.0,1.0,0.0,2.65,19.03,0.0,
12.537,114.30700213134756,91.00122189206594,-3.05,-0.96,-0.09,3.0,0.0,0.0,10.0,0.0,1.0,0.0,2.75,19.13,0.0,
12.562,114.34570021313475,90.98212218920659,-2.83,-0.73,-0.92,3.0,0.0,0.0,10.0,0.0,1.0,0.0,2.65,19.13,0.0,
12.587,114.37657002131347,90.96221221892066,-3.14,-0.3,0.22,3.0,0.0,0.0,10.0,0.0,1.0,0.0,2.65,19.23,0.0,
12.611,114.46065700213134,91.06822122189206,-3.03,-1.1,-0.21,3.0,0.0,0.0,10.0,0.0,1.0,0.0,2.75,19.23,0.0,
12.635,114.52306570021312,91.11482212218921,-2.88,-1.3,-0.9,3.0,0.0,0.0,10.0,0.0,1.0,0.0,2.75,19.23,0.1,
12.659,114.4483065700213,91.11048221221891,-2.32,-1.76,-0.63,3.0,0.0,0.0,10.0,0.0,1.0,0.0,2.84,19.13,0.1,
12.684,114.44983065700214,91.12804822122189,-2.69,-2.11,-0.7,3.0,0.0,0.0,10.0,0.0,0.0,0.0,3.04,18.93,0.29,
12.708,114.43198306570022,91.1478048221222,-2.01,-1.73,-0.96,3.0,0.0,0.0,10.0,0.0,0.0,0.0,3.24,18.64,0.29,
12.732,114.38519830657002,91.22178048221221,-3.18,-3.09,2.03,3.0,0.0,0.0,10.0,0.0,0.0,0.0,3.34,18.25,0.69,
12.756,114.38951983065701,91.25617804822122,-2.95,-1.03,0.31,3.0,0.0,0.0,10.0,0.0,0.0,0.0,3.43,18.05,0.59,
12.781,114.4169519830657,91.22361780482211,-3.15,-1.36,0.57,3.0,0.0,0.0,10.0,0.0,0.0,0.0,3.53,17.85,0.39,
12.805,114.40169519830657,91.1393617804822,-3.34,-1.09,0.53,3.0,0.0,0.0,10.0,0.0,0.0,0.0,3.53,17.95,0.49,
12.829,114.38216951983065,91.18493617804822,-3.76,-0.4,0.58,3.0,0.0,0.0,10.0,0.0,0.0,0.0,3.43,18.25,0.39,
12.854,114.43421695198306,91.19849361780481,-3.59,-0.98,1.39,3.0,0.0,0.0,10.0,0.0,0.0,0.0,3.43,18.54,0.39,
12.877,114.48442169519831,91.19084936178048,-3.46,-1.03,0.44,3.0,0.0,0.0,10.0,0.0,0.0,0.0,3.43,18.74,0.0,
12.902,114.37244216951983,91.21708493617804,-3.4,-1.44,0.42,3.0,0.0,0.0,10.0,0.0,0.0,0.0,3.34,19.03,0.0,
12.926,114.40624421695198,91.1657084936178,-3.05,-1.17,0.08,3.0,0.0,0.0,10.0,0.0,0.0,0.0,3.43,19.03,0.0,
12.95,114.3466244216952,91.17857084936179,-3.15,-1.53,0.45,3.0,0.0,0.0,10.0,0.0,0.0,0.0,3.43,19.03,0.0,
12.975,114.33166244216952,91.18885708493617,-3.34,-1.1,0.13,3.0,0.0,0.0,10.0,0.0,0.0,0.0,3.34,19.13,0.1,
12.999,114.28516624421695,91.18988570849362,-3.53,-1.27,-0.08,3.0,0.0,0.0,10.0,0.0,0.0,0.0,3.43,19.13,0.1,
13.024,114.2805166244217,91.18098857084937,-3.6,-1.32,0.82,3.0,1.0,0.0,10.0,0.0,1.0,0.0,3.34,19.13,0.1,
13.047,114.27105166244218,91.15309885708494,-3.65,-0.67,0.42,3.0,1.0,0.0,10.0,0.0,1.0,0.0,3.34,19.42,0.2,
13.072,114.31510516624421,91.16830988570848,-3.69,-0.24,0.69,3.0,1.0,0.0,10.0,0.0,1.0,0.0,3.34,19.62,0.1,
13.096,114.3735105166244,91.15183098857085,-3.66,-0.46,0.77,3.0,1.0,0.0,10.0,0.0,1.0,0.0,3.34,19.91,0.2,
13.12,114.38835105166244,91.11418309885708,-3.78,-0.6,0.88,3.0,1.0,0.0,10.0,0.0,1.0,0.0,3.34,20.11,0.2,
13.145,114.41683510516626,91.04741830988571,-4.2,-0.17,2.01,3.0,1.0,0.0,10.0,0.0,1.0,0.0,3.34,20.4,0.29,
13.169,114.44668351051664,91.02274183098856,-3.85,-0.28,1.01,3.0,1.0,0.0,10.0,0.0,1.0,0.0,3.34,20.7,0.29,
13.193,114.46766835105166,91.04727418309885,-3.29,-0.59,0.24,3.0,1.0,0.0,10.0,0.0,1.0,0.0,3.34,20.99,0.29,
13.217,114.45176683510518,91.01372741830988,-3.92,0.18,0.2,3.0,1.0,0.0,10.0,0.0,1.0,0.0,3.34,21.19,0.29,
13.242,114.42317668351052,91.03737274183099,-4.15,0.49,0.42,3.0,1.0,0.0,11.0,0.0,1.0,0.0,3.24,21.68,0.29,
13.265,114.46531766835105,91.0037372741831,-3.46,0.32,0.07,3.0,1.0,0.0,11.0,0.0,1.0,0.0,3.14,22.07,0.29,
13.29,114.53253176683512,91.0183737274183,-3.5,-0.21,0.39,3.0,1.0,0.0,11.0,0.0,1.0,0.0,3.24,22.27,0.0,
13.315,114.9262531766835,91.09183737274182,-4.67,2.95,-1.69,3.0,1.0,0.0,11.0,0.0,1.0,0.0,3.14,22.66,0.0,
13.338,114.94762531766834,91.03618373727419,-3.98,-0.38,0.31,3.0,1.0,0.0,11.0,0.0,1.0,0.0,3.04,23.05,0.0,
13.363,114.87776253176685,90.91361837372742,-2.5,1.14,-0.54,3.0,1.0,0.0,11.0,0.0,1.0,0.0,3.04,23.45,0.0,
13.387,114.86177625317667,90.89236183737275,-3.81,-0.02,0.31,3.0,1.0,0.0,11.0,0.0,1.0,0.0,2.94,23.64,2.65,
13.412,114.97717762531767,90.93523618373727,-3.63,-0.01,-0.4,3.0,1.0,0.0,11.0,0.0,1.0,0.0,2.94,23.94,0.0,
13.436,115.06971776253177,90.86752361837372,-3.52,0.96,0.2,3.0,1.0,0.0,11.0,0.0,1.0,0.0,2.94,24.33,0.29,
13.461,114.96197177625316,90.74375236183738,-3.6,0.68,1.5,4.0,1.0,0.0,11.0,0.0,1.0,0.0,2.84,24.62,0.29,
13.485,114.98719717762532,90.73137523618375,-3.51,-0.42,0.98,3.0,1.0,0.0,11.0,0.0,1.0,0.0,2.75,24.82,0.2,
13.509,115.00771971776253,90.72113752361837,-3.31,-0.9,-0.03,3.0,1.0,0.0,11.0,0.0,1.0,0.0,2.75,25.02,0.69,
13.534,115.00077197177625,90.75611375236184,-3.47,-1.0,0.05,4.0,1.0,0.0,11.0,0.0,1.0,0.0,2.84,25.11,0.0,
13.558,115.05407719717762,90.76861137523618,-3.21,-0.63,-0.2,4.0,1.0,0.0,11.0,0.0,1.0,0.0,2.94,25.11,0.2,
13.583,115.02340771971777,90.7518611375236,-3.29,-0.14,0.02,4.0,1.0,0.0,11.0,0.0,1.0,0.0,3.04,25.41,0.39,
13.607,114.93934077197179,90.69618611375236,-3.2,3.1,-0.44,4.0,1.0,0.0,11.0,0.0,1.0,0.0,2.75,25.8,0.59,
13.632,115.10193407719719,90.64561861137524,-6.5,0.88,0.53,3.0,1.0,0.0,11.0,0.0,1.0,0.0,2.75,26.88,0.49,
13.657,115.27119340771972,90.57756186113751,-3.15,2.63,-0.68,3.0,1.0,0.0,11.0,0.0,1.0,0.0,2.75,27.96,0.49,
13.681,115.28811934077198,90.68775618611376,-3.34,0.23,0.89,3.0,1.0,0.0,11.0,0.0,1.0,0.0,2.35,28.74,0.29,
13.706,115.30781193407721,90.75277561861138,-2.67,0.98,-0.37,3.0,1.0,0.0,11.0,0.0,1.0,0.0,2.26,29.43,0.0,
13.73,115.29178119340773,90.71427756186114,-2.56,1.4,0.18,3.0,1.0,0.0,11.0,0.0,1.0,0.0,2.16,30.31,0.1,
13.754,115.42517811934077,90.84542775618611,-2.97,2.68,-0.66,3.0,1.0,0.0,11.0,0.0,1.0,0.0,2.16,31.1,0.1,
13.778,115.56451781193408,90.98454277561862,-2.77,1.53,-0.82,3.0,0.0,0.0,11.0,0.0,1.0,0.0,2.06,31.88,0.49,
13.803,115.74045178119341,90.97145427756186,-2.15,1.22,-2.48,3.0,0.0,0.0,11.0,0.0,1.0,0.0,2.06,32.37,0.98,
13.828,115.80304517811933,90.7541454277562,-2.8,2.45,-0.69,3.0,0.0,0.0,11.0,0.0,1.0,0.0,1.96,33.06,0.69,
13.852,115.71930451781192,90.65141454277563,-2.88,-0.79,-1.18,3.0,1.0,0.0,11.0,0.0,1.0,0.0,2.06,33.65,0.88,
13.877,115.90893045178119,90.58714145427757,-2.96,1.25,-4.6,3.0,1.0,0.0,11.0,0.0,1.0,0.0,1.96,34.14,0.2,
13.901,115.97289304517813,90.66171414542777,-3.71,-0.25,-1.53,3.0,1.0,0.0,11.0,0.0,1.0,0.0,1.96,34.73,0.0,
13.926,116.01528930451781,90.75917141454278,-3.44,-1.07,-0.66,3.0,1.0,0.0,11.0,0.0,1.0,0.0,1.96,35.12,0.0,
13.95,115.99252893045177,90.80491714145427,-3.24,-1.62,-0.11,3.0,1.0,0.0,11.0,0.0,1.0,0.0,2.06,35.41,0.0,
13.975,115.91825289304518,90.76449171414544,-3.27,-1.67,0.11,3.0,1.0,0.0,11.0,0.0,1.0,0.0,2.06,35.71,0.0,
14.0,115.94682528930451,90.74244917141453,-3.62,-2.21,0.42,3.0,1.0,0.0,11.0,0.0,1.0,0.0,1.96,35.51,0.0,
14.024,115.90468252893045,90.78524491714147,-3.56,-2.28,0.18,3.0,1.0,0.0,11.0,0.0,1.0,0.0,1.86,35.32,0.0,
14.049,115.89146825289305,90.80752449171415,-3.5,-2.92,0.1,3.0,1.0,0.0,11.0,0.0,1.0,0.0,1.86,34.92,0.0,
14.073,115.8541468252893,90.81875244917141,-4.18,-3.5,-0.11,3.0,1.0,0.0,11.0,0.0,1.0,0.0,1.86,34.43,0.0,
14.098,115.85041468252894,90.82887524491714,-4.47,-5.04,0.71,3.0,1.0,0.0,11.0,0.0,1.0,0.0,1.86,32.86,0.59,
14.121,115.8590414682529,90.82988752449171,-4.63,-6.61,0.74,3.0,0.0,0.0,11.0,0.0,1.0,0.0,1.86,31.29,1.37,
14.146,115.76090414682528,90.83898875244917,-4.08,-6.47,-0.07,3.0,0.0,0.0,10.0,0.0,1.0,0.0,1.77,29.33,1.86,
14.171,115.63409041468253,90.83089887524491,-3.88,-6.08,-1.27,3.0,0.0,0.0,10.0,0.0,1.0,0.0,1.67,27.17,2.55,
14.195,115.61240904146825,90.8210898875245,-6.44,-5.53,2.8,2.0,0.0,0.0,9.0,0.0,1.0,0.0,1.67,25.02,2.94,
14.22,115.55624090414683,90.82910898875245,-7.6,-3.92,5.21,2.0,0.0,0.0,9.0,0.0,1.0,0.0,1.57,23.35,3.24,
14.244,115.49662409041468,90.70391089887524,-8.52,-6.66,2.84,2.0,0.0,0.0,9.0,0.0,1.0,0.0,1.47,21.97,0.0,
14.269,115.45466240904146,90.55639108988753,-7.4,-7.94,2.59,2.0,0.0,0.0,8.0,0.0,1.0,0.0,1.37,20.4,3.53,
14.292,115.33346624090414,90.51463910898875,-6.96,-8.91,0.73,1.0,0.0,0.0,8.0,0.0,1.0,0.0,1.47,18.74,3.92,
14.317,115.10534662409042,90.40246391089887,-6.04,-8.28,-0.5,0.0,0.0,0.0,6.0,0.0,0.0,0.0,1.67,16.97,2.55,
14.341,115.08253466240905,90.49924639108988,-5.27,-9.41,-2.42,0.0,0.0,0.0,5.0,0.0,0.0,0.0,1.86,14.81,3.14,
14.365,115.0172534662409,90.481924639109,-5.99,-11.13,-13.14,0.0,0.0,0.0,4.0,0.0,0.0,0.0,2.06,12.65,4.51,
14.389,114.5337253466241,90.2011924639109,-14.61,-19.84,7.31,0.0,0.0,0.0,3.0,0.0,0.0,0.0,2.26,10.5,3.83,
14.413,114.1793725346624,89.96611924639109,-22.7,-27.64,15.76,0.0,0.0,0.0,2.0,0.0,0.0,0.0,2.26,8.24,2.45,
14.438,114.81893725346623,89.8616119246391,-24.15,-18.88,-6.07,0.0,0.0,0.0,1.0,0.0,0.0,0.0,1.96,6.08,1.08,
14.461,114.28889372534663,89.17616119246391,-25.88,-8.67,13.09,0.0,0.0,0.0,0.0,0.0,0.0,0.0,1.47,3.73,3.92,
14.485,113.45288937253466,88.18061611924638,-25.37,7.75,18.6,0.0,0.0,0.0,0.0,0.0,0.0,0.0,0.88,1.08,5.98,
14.51,112.89228893725345,87.87406161192465,-21.9,30.98,7.02,0.0,0.0,0.0,0.0,0.0,0.0,0.0,0.2,0.2,3.14,
14.533,112.10722889372533,86.80840616119247,-23.61,25.47,7.71,0.0,0.0,0.0,0.0,0.0,0.0,0.0,0.0,0.0,1.37,
14.557,111.06572288937254,85.75684061611925,-28.21,4.68,-0.08,0.0,0.0,0.0,0.0,0.0,0.0,0.0,0.0,0.0,1.67,
14.58,110.77257228893725,85.12068406161193,-31.11,0.5,-7.47,0.0,0.0,0.0,0.0,0.0,0.0,0.0,0.0,0.0,1.18,
14.604,111.59825722889373,84.8410684061612,-25.49,1.47,-15.76,0.0,0.0,0.0,0.0,0.0,0.0,0.0,0.0,0.0,0.78,
14.628,112.55382572288937,85.24510684061613,-11.5,-2.8,-5.18,0.0,0.0,0.0,0.0,0.0,0.0,0.0,0.0,0.0,0.49,
14.652,113.75638257228894,85.89751068406161,-6.71,-7.69,17.01,0.0,0.0,0.0,0.0,0.0,0.0,0.0,0.0,0.0,0.39,
14.675,114.69563825722888,86.49375106840617,-6.05,-9.62,40.95,0.0,0.0,0.0,0.0,0.0,0.0,0.0,0.0,0.0,0.49,
14.699,115.31156382572289,86.72437510684063,-7.4,-21.21,62.98,0.0,0.0,0.0,0.0,0.0,0.0,0.0,0.0,0.0,0.49,
14.723,114.3291563825723,85.85643751068407,-8.15,-23.01,59.21,0.0,0.0,0.0,0.0,0.0,0.0,0.0,0.0,0.0,0.59,
14.746,113.60991563825723,84.51864375106841,-7.28,0.1,50.19,0.0,0.0,0.0,0.0,0.0,0.0,0.0,0.0,0.0,0.78,
14.77,112.83599156382573,84.69986437510684,-5.76,9.46,55.4,0.0,0.0,0.0,0.0,0.0,0.0,0.0,0.0,0.0,0.88,
14.793,112.67759915638257,84.9069864375107,-15.61,-23.8,32.56,0.0,0.0,0.0,0.0,0.0,0.0,0.0,0.0,0.0,0.98,
14.818,112.18475991563825,84.83769864375107,-20.04,-19.52,11.89,0.0,0.0,0.0,0.0,0.0,0.0,0.0,0.0,0.0,0.98,
14.841,111.91047599156381,84.86676986437512,-21.03,-6.82,8.49,0.0,0.0,0.0,0.0,0.0,0.0,0.0,0.0,0.0,0.88,
14.865,111.89204759915638,85.19367698643752,-21.76,-2.3,8.9,0.0,0.0,0.0,0.0,0.0,0.0,0.0,0.0,0.0,0.98,
14.888,111.95320475991564,85.56836769864375,-21.47,2.46,6.98,0.0,0.0,0.0,0.0,0.0,0.0,0.0,0.0,0.0,0.88,
14.912,111.63532047599156,85.47083676986438,-17.7,4.2,2.12,0.0,0.0,0.0,0.0,0.0,0.0,0.0,0.0,0.0,0.88,
14.936,111.09053204759915,85.18208367698644,-11.02,7.76,-4.76,0.0,0.0,0.0,0.0,0.0,0.0,0.0,0.0,0.0,0.98,
14.959,110.25305320475992,85.17120836769865,-4.51,2.79,-8.18,0.0,0.0,0.0,0.0,0.0,0.0,0.0,0.0,0.0,0.88,
14.983,109.332305320476,85.51212083676987,-1.18,1.76,-9.54,0.0,0.0,0.0,0.0,0.0,0.0,0.0,0.0,0.0,0.98,
15.006,108.6012305320476,86.07721208367698,4.92,-2.69,-10.67,0.0,0.0,0.0,0.0,0.0,0.0,0.0,0.0,0.0,0.88,
15.031,107.70912305320476,86.1427212083677,11.63,-8.34,-12.76,0.0,0.0,0.0,0.0,0.0,0.0,0.0,0.0,0.0,0.88,
15.054,107.02591230532049,86.32927212083678,18.18,-14.34,-19.02,0.0,0.0,0.0,0.0,0.0,0.0,0.0,0.0,0.0,0.98,
15.078,106.65159123053205,87.22092721208367,22.51,-17.94,-20.5,0.0,0.0,0.0,0.0,0.0,0.0,0.0,0.0,0.0,0.98,
15.101,106.59615912305321,88.09309272120836,29.49,-15.47,-22.73,0.0,0.0,0.0,0.0,0.0,0.0,0.0,0.0,0.0,0.98,
15.126,106.84261591230532,88.79230927212083,37.36,-14.03,-21.95,0.0,0.0,0.0,0.0,0.0,0.0,0.0,0.0,0.0,0.88,
15.15,107.24526159123053,88.99723092721207,44.53,-16.4,-26.54,0.0,0.0,0.0,0.0,0.0,0.0,0.0,0.0,0.0,0.88,
15.173,107.47452615912304,89.0717230927212,48.44,-15.33,-30.27,0.0,0.0,0.0,0.0,0.0,0.0,0.0,0.0,0.0,0.98,
15.197,107.66845261591232,89.2951723092721,46.83,-7.56,-32.82,0.0,0.0,0.0,0.0,0.0,0.0,0.0,0.0,0.0,1.08,
15.221,107.98484526159123,89.9655172309272,46.85,-4.53,-32.61,0.0,0.0,0.0,0.0,0.0,0.0,0.0,0.0,0.0,1.08,
15.245,108.34948452615912,90.54555172309273,51.56,-2.93,-26.35,0.0,0.0,0.0,0.0,0.0,0.0,0.0,0.0,0.0,0.98,
15.268,108.6559484526159,91.12555517230928,56.04,-6.11,-19.79,0.0,0.0,0.0,0.0,0.0,0.0,0.0,0.0,0.0,0.98,
15.292,108.65959484526158,91.68755551723093,59.69,-8.02,-14.38,0.0,0.0,0.0,0.0,0.0,0.0,0.0,0.0,0.0,0.98,
15.316,108.59695948452617,92.3287555517231,60.92,-9.5,-10.74,0.0,0.0,0.0,0.0,0.0,0.0,0.0,0.0,0.0,1.08,
15.34,108.4736959484526,93.11287555517232,59.79,-10.76,-8.29,0.0,0.0,0.0,0.0,0.0,0.0,0.0,0.0,0.0,1.08,
15.364,108.33536959484526,93.83928755551723,59.27,-9.27,-9.37,0.0,0.0,0.0,0.0,0.0,0.0,0.0,0.0,0.0,0.88,
15.387,108.20453695948451,94.76692875555173,57.09,-8.37,-13.4,0.0,0.0,0.0,0.0,0.0,0.0,0.0,0.0,0.0,1.08,
15.411,108.04745369594845,95.78669287555518,55.31,-5.18,-16.52,0.0,0.0,0.0,0.0,0.0,0.0,0.0,0.0,0.0,0.59,
15.434,108.02274536959484,96.97766928755551,54.15,-1.18,-19.34,0.0,0.0,0.0,0.0,0.0,0.0,0.0,0.0,0.0,0.39,
15.459,108.02927453695949,98.07776692875555,52.01,2.21,-23.53,0.0,0.0,0.0,0.0,0.0,0.0,0.0,0.0,0.0,0.59,
15.482,108.01192745369595,99.07877669287555,47.92,4.26,-25.21,0.0,0.0,0.0,0.0,0.0,0.0,0.0,0.0,0.0,0.49,
15.506,107.94719274536959,99.79987766928755,44.27,4.44,-27.78,0.0,0.0,0.0,0.0,0.0,0.0,0.0,0.0,0.0,0.39,
15.529,108.00371927453696,100.49298776692875,40.77,1.63,-28.45,0.0,0.0,0.0,0.0,0.0,0.0,0.0,0.0,0.0,0.0,
15.554,108.2883719274537,101.40829877669287,40.07,-1.02,-29.19,0.0,0.0,0.0,0.0,0.0,0.0,0.0,0.0,0.0,0.29,
15.578,108.45183719274537,102.35482987766929,39.32,-1.73,-26.66,0.0,0.0,0.0,0.0,0.0,0.0,0.0,0.0,0.0,1.18,
15.601,108.52218371927454,103.08848298776694,34.43,2.0,-26.31,0.0,0.0,0.0,0.0,0.0,0.0,0.0,0.0,0.0,0.59,
15.626,108.79921837192745,103.9448482987767,22.11,3.04,-19.01,0.0,0.0,0.0,0.0,0.0,0.0,0.0,0.0,0.0,0.78,
15.649,108.86292183719274,104.26448482987767,16.0,7.25,-16.47,0.0,0.0,0.0,0.0,0.0,0.0,0.0,0.0,0.0,0.69,
15.673,108.77029218371928,104.25144848298777,19.66,15.24,-16.19,0.0,0.0,0.0,0.0,0.0,0.0,0.0,0.0,0.0,0.59,
15.697,108.80602921837193,104.46614484829877,22.66,8.69,-23.08,0.0,0.0,0.0,0.0,0.0,0.0,0.0,0.0,0.0,0.78,
15.721,108.9806029218372,105.08161448482988,13.99,-2.05,-18.04,0.0,0.0,0.0,0.0,0.0,0.0,0.0,0.0,0.0,0.39,
15.745,108.96206029218371,105.90816144848299,3.98,0.48,-12.4,0.0,0.0,0.0,0.0,0.0,0.0,0.0,0.0,0.0,0.49,
15.769,108.88820602921837,106.63881614484829,-4.53,4.86,-6.34,0.0,0.0,0.0,0.0,0.0,0.0,0.0,0.0,0.0,0.69,
15.793,108.70082060292185,107.32388161448483,-10.11,4.88,-3.32,0.0,0.0,0.0,0.0,0.0,0.0,0.0,0.0,0.0,0.39,
15.816,108.51108206029217,108.00438816144849,-1.66,4.18,-10.92,0.0,0.0,0.0,0.0,0.0,0.0,0.0,0.0,0.0,1.08,
15.84,108.32110820602921,108.87343881614485,6.53,-3.42,-16.51,0.0,0.0,0.0,0.0,0.0,0.0,0.0,0.0,0.0,0.78,
15.864,108.14911082060291,109.85134388161448,6.5,-7.85,-12.33,0.0,0.0,0.0,0.0,0.0,0.0,0.0,0.0,0.0,0.59,
15.888,107.9249110820603,110.72313438816144,2.71,1.67,-10.84,0.0,0.0,0.0,0.0,0.0,0.0,0.0,0.0,0.0,0.49,
15.911,108.08249110820601,111.49431343881614,-0.05,5.53,-7.24,0.0,0.0,0.0,0.0,0.0,0.0,0.0,0.0,0.0,0.69,
15.936,107.8822491108206,111.91343134388161,1.24,-0.48,-3.17,0.0,0.0,0.0,0.0,0.0,0.0,0.0,0.0,0.0,0.78,
15.96,107.79922491108206,112.48634313438816,0.27,-0.35,-4.73,0.0,0.0,0.0,0.0,0.0,0.0,0.0,0.0,0.0,0.59,
15.983,107.7999224911082,112.89463431343881,-1.79,0.15,3.82,0.0,0.0,0.0,0.0,0.0,0.0,0.0,0.0,0.0,0.59,
16.007,107.71899224911081,113.03446343134388,-3.81,2.04,10.51,0.0,0.0,0.0,0.0,0.0,0.0,0.0,0.0,0.0,0.59,
16.03,107.49489922491108,113.03044634313439,-7.1,-1.34,12.79,0.0,0.0,0.0,0.0,0.0,0.0,0.0,0.0,0.0,0.98,
16.055,107.3194899224911,113.12904463431344,-12.23,-5.0,13.19,0.0,0.0,0.0,0.0,0.0,0.0,0.0,0.0,0.0,0.78,
16.078,107.2299489922491,113.22890446343133,-14.43,-2.41,2.83,0.0,0.0,0.0,0.0,0.0,0.0,0.0,0.0,0.0,0.88,
16.102,107.13999489922492,113.15789044634315,-15.86,0.43,3.43,0.0,0.0,0.0,0.0,0.0,0.0,0.0,0.0,0.0,0.98,
16.126,107.25699948992248,113.06978904463432,-17.45,3.88,2.08,0.0,0.0,0.0,0.0,0.0,0.0,0.0,0.0,0.0,0.88,
16.15,107.20569994899225,112.89897890446343,-20.05,4.79,0.9,0.0,0.0,0.0,0.0,0.0,0.0,0.0,0.0,0.0,0.88,
16.174,107.27256999489923,112.79189789044635,-24.98,-1.9,4.74,0.0,0.0,0.0,0.0,0.0,0.0,0.0,0.0,0.0,0.78,
16.197,107.30625699948993,112.45718978904463,-30.63,-4.67,12.03,0.0,0.0,0.0,0.0,0.0,0.0,0.0,0.0,0.0,0.88,
16.222,107.93962569994899,112.20771897890447,-36.82,1.02,16.63,0.0,0.0,0.0,0.0,0.0,0.0,0.0,0.0,0.0,0.98,
16.245,108.67796256999489,111.74177189789044,-37.34,8.18,16.35,0.0,0.0,0.0,0.0,0.0,0.0,0.0,0.0,0.0,0.98,
16.269,109.35479625699949,110.80417718978904,-32.77,10.22,15.36,0.0,0.0,0.0,0.0,0.0,0.0,0.0,0.0,0.0,0.88,
16.293,109.72847962569993,109.6844177189789,-32.5,5.79,16.61,0.0,0.0,0.0,0.0,0.0,0.0,0.0,0.0,0.0,0.98,
16.317,109.92784796256998,109.1224417718979,-32.81,-2.62,15.5,0.0,0.0,0.0,0.0,0.0,0.0,0.0,0.0,0.0,1.08,
16.342,110.046784796257,108.8952441771898,-40.94,-1.18,14.23,0.0,0.0,0.0,0.0,0.0,0.0,0.0,0.0,0.0,1.18,
16.365,110.1576784796257,108.31452441771897,-40.58,3.56,12.99,0.0,0.0,0.0,0.0,0.0,0.0,0.0,0.0,0.0,1.18,
16.389,110.28576784796256,108.2024524417719,-3.72,20.99,-35.22,0.0,0.0,0.0,0.0,0.0,0.0,0.0,0.0,0.0,1.37,
16.413,110.28057678479627,112.08824524417719,-13.22,20.86,16.11,0.0,0.0,0.0,0.0,0.0,0.0,0.0,0.1,0.0,2.35,
16.437,108.48005767847962,109.11082452441772,-45.34,-5.56,46.93,0.0,0.0,0.0,0.0,0.0,0.0,0.0,0.0,0.0,2.26,
16.46,108.50700576784797,107.94908245244177,-45.57,30.92,7.71,0.0,0.0,0.0,0.0,0.0,0.0,0.0,0.0,0.0,0.98,
16.484,108.57270057678478,106.43790824524417,-51.69,25.5,43.59,0.0,0.0,0.0,0.0,0.0,0.0,0.0,0.0,0.0,0.98,
16.508,109.21827005767848,105.12579082452442,-77.64,47.12,74.61,0.0,0.0,0.0,0.0,0.0,0.0,0.0,0.0,0.0,0.98,
16.532,110.36282700576785,103.01457908245244,-78.37,63.87,50.58,0.0,0.0,0.0,0.0,0.0,0.0,0.0,0.0,0.0,1.96,
16.557,113.03328270057678,100.01345790824524,-56.34,53.9,52.23,0.0,0.0,0.0,0.0,0.0,0.0,0.0,0.0,0.0,2.94,
16.58,114.00232827005767,96.23034579082452,-17.53,25.37,-57.09,0.0,0.0,0.0,1.0,0.0,0.0,0.0,0.49,4.32,0.0,
16.605,115.01723282700577,94.78103457908244,-8.95,22.73,-1.74,0.0,0.0,0.0,2.0,0.0,0.0,0.0,2.84,9.22,0.0,
16.628,115.37072328270057,94.22210345790825,-4.04,15.57,-7.02,0.0,0.0,0.0,2.0,0.0,0.0,0.0,4.41,13.83,0.0,
16.653,115.19007232827006,94.03121034579084,-0.06,22.08,-7.07,0.0,0.0,0.0,2.0,0.0,0.0,0.0,5.3,16.48,0.0,
16.676,115.78400723282701,94.39912103457908,2.02,33.03,-14.44,0.0,0.0,0.0,2.0,0.0,0.0,0.0,5.79,20.21,0.0,
16.7,116.6354007232827,94.3549121034579,4.82,34.6,-10.98,0.0,0.0,0.0,2.0,0.0,0.0,0.0,6.28,22.96,0.2,
16.724,118.01654007232827,95.1154912103458,0.42,16.63,-1.96,0.0,0.0,0.0,2.0,0.0,0.0,0.0,6.57,25.6,0.69,
16.748,119.00065400723282,96.02854912103457,-8.72,-0.35,3.2,0.0,0.0,0.0,2.0,0.0,0.0,0.0,6.97,27.76,0.2,
16.773,119.98106540072328,96.63285491210345,-27.0,-16.49,8.42,0.0,0.0,0.0,4.0,0.0,0.0,0.0,7.36,30.41,0.0,
16.796,119.47610654007234,96.29728549121035,-27.43,-23.02,13.63,0.0,0.0,0.0,6.0,0.0,0.0,0.0,7.65,31.49,0.0,
16.821,119.49761065400723,96.92972854912102,-26.74,-23.47,19.59,0.0,0.0,0.0,7.0,0.0,1.0,0.0,7.36,33.45,0.0,
16.844,118.98676106540073,96.08397285491209,-21.85,-23.92,18.05,0.0,0.0,0.0,8.0,0.0,2.0,0.0,5.69,31.98,0.39,
16.869,118.07167610654007,94.64039728549122,-19.63,-11.42,10.56,1.0,0.0,0.0,9.0,0.0,2.0,0.0,2.55,29.63,1.28,
16.893,117.548167610654,94.15403972854912,-9.42,4.82,2.73,2.0,0.0,0.0,10.0,0.0,3.0,0.0,0.0,28.35,0.0,
16.918,117.4688167610654,93.3134039728549,-5.98,12.78,1.98,2.0,0.0,0.0,11.0,0.0,3.0,0.0,0.0,29.43,0.0,
16.943,117.83888167610654,92.98634039728549,-4.03,7.71,4.28,2.0,0.0,0.0,11.0,0.0,4.0,0.0,0.0,34.04,0.0,
16.966,118.37988816761066,93.09763403972855,-2.92,-2.82,1.66,2.0,0.0,0.0,11.0,0.0,4.0,0.0,0.0,37.47,0.0,
16.991,118.60498881676106,93.15376340397285,-6.71,-2.18,3.92,2.0,1.0,0.0,12.0,0.0,4.0,0.0,0.0,38.95,0.0,
17.015,118.42949888167611,93.03337634039728,-6.75,-4.47,3.09,3.0,1.0,0.0,12.0,0.0,5.0,0.0,0.0,38.85,0.0,
17.04,118.12394988816762,93.01233763403972,-9.41,-11.11,8.08,3.0,1.0,0.0,1.0,0.0,6.0,0.0,0.0,37.77,0.0,
17.063,117.83239498881676,92.71323376340398,-7.98,-3.75,4.07,4.0,1.0,0.0,2.0,0.0,6.0,0.0,0.0,36.3,0.0,
17.088,117.74923949888166,92.36832337634038,-7.82,-2.42,1.44,4.0,2.0,0.0,3.0,0.0,7.0,0.0,0.0,35.32,0.0,
17.113,117.89392394988816,91.73983233763404,-10.63,-10.89,2.16,4.0,2.0,0.0,4.0,0.0,7.0,0.0,0.0,34.63,0.0,
17.137,117.0533923949888,91.05598323376341,-5.64,-4.37,-8.38,5.0,2.0,0.0,5.0,0.0,7.0,0.0,0.0,33.65,0.0,
17.161,116.55533923949889,91.69859832337634,-7.97,6.85,-7.44,5.0,2.0,0.0,6.0,0.0,7.0,0.0,2.35,32.86,0.0,
17.185,116.2175339239499,92.20385983233764,-5.66,7.27,1.29,5.0,2.0,0.0,7.0,0.0,7.0,1.0,5.1,33.45,0.0,
17.21,116.57075339239499,92.02938598323377,-6.29,1.5,-1.76,6.0,2.0,0.0,8.0,0.0,7.0,1.0,6.28,35.12,0.0,
17.234,117.24507533923949,91.48093859832338,-12.96,-13.97,5.47,6.0,3.0,0.0,9.0,0.0,7.0,1.0,8.04,36.89,0.0,
17.259,117.31250753392393,91.21009385983234,-9.05,-20.18,-0.85,6.0,3.0,0.0,10.0,0.0,8.0,1.0,10.59,36.89,0.0,
17.284,116.7432507533924,91.22800938598323,-12.44,-15.52,9.17,7.0,3.0,0.0,11.0,0.0,8.0,1.0,13.44,34.92,0.0,
17.308,116.56032507533925,90.78880093859831,-7.53,-9.84,-1.72,7.0,3.0,0.0,11.0,0.0,8.0,1.0,16.19,32.57,0.1,
17.333,116.22703250753392,90.56488009385984,-8.33,-7.44,-1.89,7.0,3.0,0.0,12.0,0.0,8.0,1.0,19.91,30.21,1.08,
17.357,116.14870325075339,90.08348800938599,-8.01,-5.27,-3.07,7.0,3.0,0.0,12.0,0.0,8.0,1.0,21.97,27.96,1.47,
17.382,116.16787032507533,89.9453488009386,-6.07,-11.89,3.48,7.0,4.0,0.0,12.0,0.0,9.0,1.0,23.94,26.98,0.78,
17.406,116.01678703250754,90.02153488009387,-3.57,-10.21,-1.29,7.0,4.0,0.0,13.0,0.0,9.0,0.0,25.7,26.09,0.59,
17.431,115.78567870325077,90.35315348800938,-4.03,-5.6,-3.85,8.0,4.0,0.0,13.0,0.0,9.0,0.0,27.47,25.41,0.2,
17.456,115.61856787032507,90.16131534880094,-5.34,-2.44,-1.53,8.0,4.0,0.0,14.0,0.0,9.0,0.0,30.02,25.02,0.2,
17.48,115.40385678703251,90.04313153488009,-5.67,-0.41,0.89,8.0,4.0,0.0,14.0,0.0,9.0,0.0,31.69,24.72,0.39,
17.504,115.49038567870325,90.409313153488,-8.55,3.33,0.37,8.0,4.0,0.0,14.0,0.0,9.0,1.0,33.06,24.92,0.2,
17.528,115.70603856787034,90.42793131534881,-8.59,1.76,3.82,8.0,4.0,0.0,14.0,0.0,9.0,1.0,34.14,25.21,0.29,
17.553,115.60160385678704,90.37579313153489,-10.59,2.4,4.73,7.0,4.0,0.0,14.0,0.0,10.0,1.0,36.3,25.6,0.78,
17.577,115.5011603856787,90.2895793131535,-11.55,1.73,6.61,7.0,4.0,0.0,14.0,0.0,10.0,2.0,38.55,26.39,1.08,
17.602,115.63511603856787,90.46095793131535,-13.79,-6.68,8.66,7.0,3.0,0.0,14.0,0.0,11.0,2.0,40.12,27.76,1.67,
17.627,115.90951160385679,90.12709579313153,-12.83,-1.59,8.72,6.0,3.0,0.0,14.0,0.0,11.0,3.0,40.42,29.04,2.16,
17.651,116.16195116038567,89.59870957931317,-12.91,-4.41,1.84,6.0,2.0,0.0,12.0,0.0,12.0,4.0,39.83,29.92,1.86,
17.676,115.36819511603858,89.14987095793131,-12.56,-3.29,5.41,5.0,2.0,0.0,12.0,0.0,0.0,4.0,38.36,30.9,2.45,
17.7,115.40581951160385,88.84398709579312,-11.51,-3.6,7.14,5.0,2.0,0.0,11.0,0.0,1.0,4.0,37.67,32.37,2.75,
17.725,115.67958195116037,88.74139870957931,-9.66,-9.37,9.83,4.0,2.0,0.0,11.0,0.0,1.0,5.0,36.2,34.14,4.02,
17.75,115.48195819511604,88.60513987095794,-8.26,-6.53,8.56,4.0,2.0,0.0,10.0,0.0,2.0,5.0,35.12,35.61,4.51,
17.774,115.6961958195116,88.3485139870958,-5.84,-9.84,13.95,3.0,1.0,0.0,8.0,0.0,2.0,5.0,34.14,36.98,2.94,
17.799,115.77161958195116,88.25085139870957,-4.92,-8.28,7.79,3.0,1.0,0.0,8.0,0.0,2.0,5.0,33.55,37.67,1.96,
17.823,115.63516195819511,87.31408513987094,-4.65,-5.23,0.94,3.0,2.0,0.0,10.0,0.0,2.0,5.0,33.26,37.67,0.98,
17.848,114.1815161958195,86.8784085139871,-7.81,0.91,30.82,4.0,2.0,0.0,10.0,0.0,2.0,5.0,33.26,36.98,0.0,
17.872,113.82915161958195,86.9068408513987,0.96,20.27,-2.87,4.0,2.0,0.0,11.0,0.0,2.0,5.0,32.57,35.61,0.0,
17.897,115.5849151619582,85.83868408513986,2.85,-2.91,-16.34,5.0,2.0,0.0,11.0,0.0,3.0,5.0,32.57,34.63,0.0,
17.922,115.27449151619581,84.56186840851399,3.01,2.79,-7.54,5.0,3.0,0.0,12.0,0.0,3.0,5.0,31.98,33.94,0.0,
17.946,115.49544915161958,84.9651868408514,-0.89,2.87,-4.47,6.0,3.0,0.0,14.0,0.0,2.0,5.0,31.98,33.65,0.0,
17.971,115.67954491516197,85.19451868408515,-1.47,-0.48,-5.93,6.0,3.0,0.0,14.0,0.0,2.0,4.0,32.86,33.16,0.0,
17.995,115.47295449151619,85.44245186840851,-1.55,0.33,-0.08,6.0,3.0,0.0,14.0,0.0,2.0,4.0,33.94,32.37,0.0,
18.019,115.73129544915163,85.62924518684086,0.27,-1.03,-10.59,6.0,3.0,0.0,14.0,0.0,2.0,3.0,34.34,31.49,0.0,
18.043,115.48712954491516,85.35992451868408,-0.85,-3.71,2.53,7.0,4.0,0.0,15.0,0.0,2.0,3.0,34.34,30.61,0.0,
18.068,115.85871295449152,86.14299245186841,-3.47,1.68,-5.92,7.0,4.0,0.0,16.0,0.0,2.0,3.0,34.73,29.82,0.0,
18.093,115.71587129544916,86.73429924518685,0.17,4.88,-4.77,7.0,4.0,0.0,16.0,0.0,2.0,3.0,34.73,29.72,0.0,
18.117,115.80058712954491,86.99142992451868,-1.61,0.88,-0.27,7.0,4.0,0.0,16.0,0.0,2.0,3.0,34.83,30.21,0.0,
18.142,115.77305871295448,87.21514299245186,-5.34,1.13,1.76,7.0,4.0,0.0,17.0,0.0,1.0,3.0,35.71,30.71,0.0,
18.166,115.59030587129544,87.25551429924519,-6.21,-1.8,1.61,7.0,4.0,0.0,17.0,0.0,2.0,3.0,36.3,31.0,0.2,
18.19,115.17603058712955,87.14255142992452,-6.33,0.11,4.13,7.0,4.0,0.0,17.0,0.0,2.0,3.0,36.59,31.39,0.59,
18.214,115.12560305871295,87.00525514299245,-8.05,0.25,-0.06,6.0,4.0,0.0,17.0,0.0,2.0,3.0,36.49,32.18,0.78,
18.239,114.94056030587129,86.50552551429925,-7.83,-0.88,2.2,6.0,3.0,0.0,16.0,0.0,2.0,3.0,36.59,32.86,1.18,
18.264,115.10205603058714,86.38355255142993,-8.73,-5.88,5.73,5.0,3.0,0.0,16.0,0.0,2.0,3.0,36.49,33.16,2.16,
18.288,115.02820560305871,86.146355255143,-7.74,-3.82,5.24,5.0,3.0,0.0,17.0,0.0,2.0,3.0,36.79,33.16,1.28,
18.313,115.00282056030586,86.3656355255143,-8.18,-4.7,6.44,5.0,3.0,0.0,16.0,0.0,2.0,3.0,36.89,33.16,1.77,
18.337,114.8832820560306,86.46856355255144,-7.83,-2.91,3.6,5.0,3.0,0.0,16.0,0.0,2.0,3.0,37.08,33.26,1.96,
18.362,114.86232820560305,86.47885635525515,-8.39,-5.16,3.96,5.0,3.0,0.0,16.0,0.0,2.0,3.0,37.47,33.55,1.67,
18.386,114.7792328205603,86.69588563552551,-9.15,-5.56,3.13,5.0,2.0,0.0,16.0,0.0,2.0,4.0,37.87,34.04,1.47,
18.411,114.14092328205602,86.54658856355256,-10.0,-0.23,3.89,4.0,2.0,0.0,15.0,0.0,2.0,4.0,37.57,36.69,1.86,
18.436,113.7530923282056,86.72965885635526,-16.28,-0.41,8.05,2.0,1.0,0.0,14.0,0.0,2.0,4.0,35.81,39.44,2.16,
18.46,114.37130923282055,86.63996588563552,-21.21,-5.08,1.05,0.0,0.0,0.0,10.0,0.0,2.0,4.0,33.75,41.79,3.92,
18.485,114.56813092328206,86.17199658856356,-27.43,-13.54,5.76,0.0,0.0,0.0,6.0,0.0,2.0,4.0,32.77,42.77,7.55,
18.509,114.4798130923282,85.99019965885635,-27.62,-20.55,7.26,0.0,0.0,0.0,3.0,0.0,2.0,4.0,33.55,41.01,8.93,
18.534,114.50698130923283,85.72901996588564,-33.82,-19.05,10.34,0.0,0.0,0.0,12.0,0.0,2.0,4.0,35.71,35.32,4.91,
18.56,113.3846981309233,85.73890199658857,-52.94,-14.02,15.0,0.0,0.0,0.0,9.0,0.0,2.0,4.0,37.38,31.88,2.55,
18.583,112.39046981309234,85.54189019965887,-64.08,-0.92,15.75,0.0,0.0,0.0,6.0,0.0,2.0,4.0,38.26,25.8,1.86,
18.608,111.20204698130922,84.60418901996589,-65.82,11.65,22.8,0.0,0.0,0.0,2.0,0.0,2.0,5.0,36.89,15.11,0.0,
18.632,110.89420469813092,83.52041890199659,-75.98,30.4,-8.08,0.0,0.0,0.0,0.0,0.0,3.0,5.0,31.88,10.5,0.0,
18.657,111.2774204698131,82.82704189019967,-74.32,38.08,-2.84,0.0,0.0,0.0,0.0,0.0,4.0,5.0,22.96,6.57,4.71,
18.68,112.2517420469813,81.00270418901997,-67.82,45.31,2.78,0.0,0.0,0.0,0.0,0.0,5.0,5.0,9.12,0.39,2.84,
18.705,113.16817420469812,79.092270418902,-73.76,30.79,3.48,0.0,0.0,0.0,0.0,0.0,7.0,5.0,4.61,0.0,0.59,
18.729,114.7448174204698,77.03822704189021,-66.18,37.98,-2.25,0.0,0.0,0.0,0.0,0.0,9.0,5.0,1.47,0.0,0.0,
18.753,116.18948174204698,76.15782270418903,-65.32,20.4,12.26,0.0,0.0,0.0,0.0,0.0,11.0,5.0,0.0,0.0,0.39,
18.778,117.4949481742047,74.62078227041891,-66.34,9.86,16.11,0.0,0.0,0.0,0.0,0.0,13.0,5.0,0.0,0.0,5.79,
18.801,118.55249481742047,72.9910782270419,-62.05,0.06,26.01,0.0,0.0,0.0,0.0,0.0,14.0,3.0,0.0,0.0,2.65,
18.826,119.54024948174205,71.17210782270419,-60.48,-2.69,31.15,0.0,0.0,0.0,0.0,0.0,14.0,3.0,0.0,0.0,0.0,
18.85,120.1700249481742,70.08121078227042,-58.5,-6.91,38.7,0.0,0.0,0.0,0.0,0.0,15.0,2.0,0.0,0.0,1.86,
18.874,121.37600249481743,68.28012107822704,-52.93,-0.45,42.72,0.0,0.0,0.0,0.0,0.0,16.0,2.0,0.0,0.0,1.57,
18.898,120.99260024948174,66.05701210782271,-51.99,10.91,47.73,0.0,0.0,0.0,0.0,0.0,18.0,0.0,0.0,15.6,2.16,
18.923,119.78426002494817,64.10670121078228,-55.94,5.59,40.98,0.0,0.0,0.0,0.0,0.0,19.0,2.0,0.0,13.05,1.86,
18.947,119.0424260024948,62.00367012107823,-57.83,-1.47,30.14,0.0,0.0,0.0,0.0,0.0,18.0,2.0,0.0,0.0,0.0,
18.971,119.67024260024947,60.18236701210782,-58.17,2.21,36.56,0.0,0.0,0.0,0.0,0.0,17.0,1.0,0.0,0.0,3.14,
18.996,120.62402426002495,58.50623670121078,-60.46,10.32,39.69,0.0,0.0,0.0,0.0,0.0,12.0,1.0,0.0,0.0,3.63,
19.019,121.55640242600249,57.069623670121075,-54.72,7.34,61.56,0.0,0.0,0.0,0.0,0.0,12.0,0.0,0.0,0.0,2.45,
19.044,122.14464024260023,55.93596236701211,-54.33,19.81,51.96,0.0,0.0,0.0,0.0,0.0,8.0,0.0,0.0,0.78,2.06,
19.067,122.77946402426002,55.05759623670121,-51.58,23.27,62.38,0.0,0.0,0.0,0.0,0.0,1.0,0.0,0.0,0.0,2.06,
19.092,122.79794640242599,54.94275962367011,-48.78,34.85,58.4,0.0,0.0,0.0,0.0,0.0,9.0,0.0,0.0,0.0,1.57,
19.116,122.5027946402426,53.68027596236701,-51.6,63.47,57.95,0.0,0.0,0.0,0.0,0.0,6.0,0.0,0.0,0.0,2.45,
19.139,123.70627946402426,51.67302759623671,-50.93,84.56,72.56,0.0,0.0,0.0,0.0,0.0,4.0,0.0,0.0,0.0,2.65,
19.164,122.89962794640243,49.43830275962367,-62.11,64.84,93.69,0.0,0.0,0.0,0.0,0.0,2.0,0.0,0.0,0.0,1.96,
19.187,122.02696279464026,46.86583027596237,-85.31,61.05,44.92,0.0,0.0,0.0,0.0,0.0,0.0,0.0,0.0,0.0,1.86,
19.212,122.90269627946402,43.53958302759624,-80.2,53.11,28.37,0.0,0.0,0.0,0.0,0.0,0.0,0.0,0.0,0.0,1.47,
19.235,124.6822696279464,40.69595830275963,-56.15,29.48,37.73,0.0,0.0,0.0,0.0,0.0,0.0,0.0,0.0,0.0,0.29,
19.259,125.70622696279463,39.26859583027596,-31.6,21.92,41.63,0.0,0.0,0.0,0.0,0.0,0.0,0.0,0.0,0.0,0.88,
19.282,125.26862269627946,38.73885958302759,-14.18,20.76,68.04,0.0,0.0,0.0,0.0,0.0,0.0,0.0,0.0,0.0,0.59,
19.307,125.25186226962795,37.61488595830276,-1.95,15.57,70.85,0.0,0.0,0.0,0.0,0.0,0.0,0.0,0.0,0.0,0.0,
19.331,124.4851862269628,36.098488595830275,5.27,-5.65,56.46,0.0,0.0,0.0,0.0,0.0,0.0,0.0,0.0,0.0,0.69,
19.354,122.18551862269629,35.04684885958303,11.21,-16.0,28.92,0.0,0.0,0.0,0.0,0.0,0.0,0.0,0.0,0.0,0.78,
19.378,120.71355186226963,33.7896848859583,18.27,-8.77,22.15,0.0,0.0,0.0,0.0,0.0,0.0,0.0,0.0,0.0,0.78,
19.402,119.41435518622697,32.61996848859583,27.61,-15.98,7.79,0.0,0.0,0.0,0.0,0.0,0.0,0.0,0.0,0.0,0.59,
19.426,118.9784355186227,31.818996848859584,32.9,-28.14,-1.42,0.0,0.0,0.0,0.0,0.0,0.0,0.0,0.0,0.0,0.69,
19.449,120.28484355186228,31.261899684885957,44.97,-29.57,-14.89,0.0,0.0,0.0,0.0,0.0,0.0,0.0,0.0,0.0,0.59,
19.474,120.35248435518622,31.332189968488596,51.63,-47.82,-28.4,0.0,0.0,0.0,0.0,0.0,0.0,0.0,0.0,0.0,0.59,
19.497,122.07824843551862,30.619218996848858,76.83,-49.87,-38.52,0.0,0.0,0.0,0.0,0.0,0.0,0.0,0.0,0.0,0.2,
19.522,120.97282484355186,31.53792189968489,105.36,-60.02,-35.93,0.0,0.0,0.0,0.0,0.0,0.0,0.0,0.0,0.0,0.59,
19.546,119.6832824843552,33.45679218996849,108.05,-65.88,-51.02,0.0,0.0,0.0,0.0,0.0,0.0,0.0,0.0,0.0,1.18,
19.57,117.65532824843552,36.18667921899685,103.26,-61.15,-57.22,0.0,0.0,0.0,0.0,0.0,0.0,0.0,0.0,0.0,0.98,
19.594,115.55353282484354,39.82566792189969,105.68,-45.76,-52.95,0.0,0.0,0.0,0.0,0.0,0.0,0.0,0.0,0.0,0.29,
19.618,113.66935328248434,42.98856679218998,104.76,-24.92,-55.27,0.0,0.0,0.0,0.0,0.0,0.0,0.0,0.0,0.0,0.29,
19.643,112.84193532824844,45.320856679219,107.4,-16.56,-65.61,0.0,0.0,0.0,0.0,0.0,0.0,0.0,0.0,0.0,0.0,
19.666,112.32719353282484,47.8220856679219,117.42,-23.84,-61.18,0.0,0.0,0.0,0.0,0.0,0.0,0.0,0.0,0.0,0.2,
19.691,111.72671935328248,50.54720856679219,119.75,-20.18,-53.91,0.0,0.0,0.0,0.0,0.0,0.0,0.0,0.0,0.0,0.0,
19.715,111.15367193532825,52.88072085667922,121.18,-7.49,-52.05,0.0,0.0,0.0,0.0,0.0,0.0,0.0,0.0,0.0,0.0,
19.739,110.40336719353282,54.45507208566792,116.97,-9.23,-58.44,0.0,0.0,0.0,0.0,0.0,0.0,0.0,0.0,0.0,0.29,
19.763,109.24833671935329,56.007507208566786,106.02,-13.69,-57.69,0.0,0.0,0.0,0.0,0.0,0.0,0.0,0.0,0.0,0.49,
19.787,108.34983367193533,57.476750720856685,95.05,-10.8,-68.02,0.0,0.0,0.0,0.0,0.0,0.0,0.0,0.0,0.0,0.49,
19.812,107.82798336719353,58.79367507208567,83.59,1.98,-66.5,0.0,0.0,0.0,0.0,0.0,0.0,0.0,0.0,0.0,0.39,
19.835,104.53579833671935,64.11836750720856,-1.43,13.66,-42.81,0.0,0.0,0.0,0.0,0.0,0.0,0.0,0.0,0.0,0.59,
19.859,98.93257983367194,74.69483675072085,73.07,250.14,-150.34,0.0,0.0,0.0,0.0,0.0,0.0,0.0,0.0,0.0,0.59,
19.884,95.58225798336719,81.96248367507208,69.48,-59.75,250.13,0.0,0.0,0.0,0.0,0.0,0.0,0.0,0.0,0.0,0.59,
19.907,99.18022579833672,79.56624836750721,33.86,46.76,-4.98,0.0,0.0,0.0,0.0,0.0,0.0,0.0,0.0,0.0,0.49,
19.932,102.83402257983367,76.59062483675072,40.89,-42.37,59.24,0.0,0.0,0.0,0.0,0.0,0.0,0.0,0.0,0.0,0.78,
19.955,103.64040225798337,79.03806248367508,46.53,0.04,36.5,0.0,0.0,0.0,0.0,0.0,0.0,0.0,0.0,0.0,0.78,
19.979,103.98204022579833,81.0018062483675,46.9,-2.83,-30.28,0.0,0.0,0.0,0.0,0.0,0.0,0.0,0.0,0.0,0.88,
20.003,104.14220402257983,81.92718062483675,48.29,-2.28,-23.98,0.0,0.0,0.0,0.0,0.0,0.0,0.0,0.0,0.0,0.88,
20.027,104.50922040225798,82.90171806248368,47.25,-1.38,-21.32,0.0,0.0,0.0,0.0,0.0,0.0,0.0,0.0,0.0,0.98,
20.051,105.26592204022579,84.26817180624838,41.88,-0.56,-23.82,0.0,0.0,0.0,0.0,0.0,0.0,0.0,0.0,0.0,0.98,
20.075,106.07059220402257,85.21481718062483,34.18,4.09,-21.15,0.0,0.0,0.0,0.0,0.0,0.0,0.0,0.0,0.0,0.88,
20.099,107.27605922040225,85.61548171806248,21.69,10.27,-13.47,0.0,0.0,0.0,0.0,0.0,0.0,0.0,0.0,0.0,0.88,
20.123,108.84560592204022,85.57454817180624,-5.7,19.73,-4.21,0.0,0.0,0.0,0.0,0.0,0.0,0.0,0.0,0.0,0.98,
20.147,110.41556059220403,85.01245481718063,-47.44,38.97,12.01,0.0,0.0,0.0,0.0,0.0,0.0,0.0,0.0,0.0,0.98,
20.171,111.5805560592204,83.70524548171807,-91.36,65.63,26.34,0.0,0.0,0.0,0.0,0.0,0.0,0.0,0.0,0.0,0.98,
20.195,120.85905560592204,72.2705245481718,-63.61,12.2,-90.29,0.0,0.0,0.0,1.0,0.0,0.0,0.0,0.0,0.0,1.77,
20.218,117.9709055605922,67.34705245481717,40.58,76.59,69.92,0.0,0.0,0.0,2.0,0.0,0.0,0.0,0.0,0.0,0.0,
20.243,117.68209055605922,69.07770524548171,19.55,76.6,77.24,0.0,0.0,0.0,3.0,0.0,0.0,0.0,0.78,1.08,0.0,
20.267,116.77120905560592,72.22077052454817,6.12,34.83,4.87,0.0,0.0,0.0,4.0,0.0,0.0,0.0,1.28,2.94,0.29,
20.291,115.77112090556058,75.08207705245484,-0.92,1.45,11.3,0.0,0.0,0.0,5.0,0.0,1.0,0.0,1.08,5.1,0.0,
20.315,115.43711209055607,77.31220770524548,2.15,12.62,-6.99,0.0,0.0,0.0,5.0,0.0,1.0,0.0,0.49,5.89,0.2,
20.338,115.19671120905561,78.98422077052454,3.13,-4.73,-2.27,0.0,0.0,0.0,5.0,0.0,1.0,0.0,0.1,7.36,0.0,
20.363,114.74967112090556,80.60942207705247,5.73,-1.13,-1.9,0.0,0.0,0.0,6.0,0.0,1.0,0.0,0.0,8.83,0.0,
20.386,114.09296711209055,82.19394220770525,6.92,4.17,-1.76,1.0,0.0,0.0,7.0,0.0,2.0,0.0,0.0,9.52,0.0,
20.411,113.98229671120906,83.56739422077052,3.37,5.76,1.41,1.0,0.0,0.0,7.0,0.0,2.0,0.0,0.0,10.4,0.0,
20.434,113.93522967112091,84.59573942207705,0.36,4.98,1.6,1.0,0.0,0.0,8.0,0.0,2.0,0.0,0.0,12.07,0.0,
20.459,114.11952296711209,85.52657394220769,-2.17,2.02,1.51,2.0,0.0,0.0,8.0,0.0,3.0,0.0,0.0,13.05,0.0,
20.483,114.20095229671121,86.29465739422078,-3.39,-4.06,5.63,2.0,0.0,0.0,9.0,0.0,3.0,0.0,0.0,14.03,0.0,
20.507,114.20009522967112,86.96546573942209,-5.95,-4.56,5.77,2.0,0.0,0.0,9.0,0.0,4.0,0.0,0.0,14.72,0.0,
20.532,113.91200952296711,87.2485465739422,-6.33,-2.54,6.17,3.0,0.0,0.0,9.0,0.0,4.0,0.0,0.0,15.89,0.0,
20.556,113.62220095229672,87.40285465739422,-5.64,2.24,2.34,3.0,0.0,0.0,10.0,0.0,5.0,0.0,0.0,16.68,0.0,
20.58,113.67422009522969,87.67028546573943,-5.33,0.8,2.56,3.0,1.0,0.0,10.0,0.0,5.0,0.0,0.0,17.66,0.0,
20.604,113.58042200952296,87.80502854657394,-4.13,1.35,-3.6,3.0,1.0,0.0,10.0,0.0,5.0,0.0,0.0,19.33,0.98,
20.629,113.55304220095229,88.17850285465738,-4.15,-2.46,-0.78,4.0,1.0,0.0,10.0,0.0,5.0,0.0,0.0,19.42,0.1,
20.654,113.72130422009522,88.29685028546574,-4.23,-2.19,-0.27,4.0,1.0,0.0,11.0,0.0,5.0,0.0,0.0,19.42,0.0,
20.678,113.54013042200951,88.62368502854656,-3.07,1.58,-4.73,4.0,1.0,0.0,11.0,0.0,5.0,0.0,0.0,19.03,0.0,
20.702,113.45901304220095,88.76436850285465,-3.51,-0.76,-1.27,4.0,1.0,0.0,11.0,0.0,5.0,0.0,0.0,18.84,0.2,
20.726,113.48690130422008,88.84143685028546,-3.04,-2.43,-0.02,4.0,1.0,0.0,11.0,0.0,5.0,0.0,0.0,18.64,0.0,
20.751,113.435690130422,88.98414368502856,-4.1,-1.88,0.45,4.0,1.0,0.0,11.0,0.0,6.0,0.0,0.0,18.44,0.0,
20.775,113.3765690130422,89.03441436850287,-4.02,-0.92,-1.91,4.0,1.0,0.0,11.0,0.0,6.0,0.0,0.0,18.64,0.0,
20.8,113.42465690130422,89.14744143685029,-2.76,1.47,0.21,4.0,1.0,0.0,11.0,0.0,6.0,0.0,0.0,18.64,0.0,
20.824,113.40246569013043,89.20374414368503,-2.37,1.73,-0.85,4.0,1.0,0.0,11.0,0.0,6.0,0.0,0.0,18.84,0.1,
20.848,113.45424656901304,89.3713744143685,-3.2,1.64,-0.53,4.0,1.0,0.0,12.0,0.0,6.0,0.0,0.0,19.23,0.39,
20.873,113.53142465690131,89.39713744143685,-4.1,1.53,-2.54,5.0,1.0,0.0,12.0,0.0,6.0,0.0,0.0,20.8,0.1,
20.897,113.65614246569012,89.4447137441437,-3.44,-0.84,-1.22,5.0,1.0,0.0,12.0,0.0,6.0,0.0,0.0,21.09,0.1,
20.922,113.65061424656902,89.47647137441437,-3.05,-1.95,-0.59,5.0,1.0,0.0,12.0,0.0,6.0,0.0,0.0,20.9,0.2,
20.946,113.6140614246569,89.48864713744143,-4.05,-1.27,1.82,5.0,1.0,0.0,12.0,0.0,6.0,0.0,0.0,20.9,0.2,
20.97,113.6734061424657,89.45386471374415,-3.68,-2.65,0.9,5.0,1.0,0.0,12.0,0.0,6.0,0.0,0.0,20.7,0.39,
20.995,113.65234061424658,89.5583864713744,-3.28,-3.18,0.65,5.0,2.0,0.0,12.0,0.0,6.0,0.0,0.0,20.11,0.39,
21.019,113.59623406142467,89.61383864713744,-3.28,-2.2,-0.19,5.0,1.0,0.0,12.0,0.0,6.0,0.0,0.0,19.72,0.59,
21.044,113.59962340614246,89.62838386471374,-2.82,-1.65,-1.19,5.0,1.0,0.0,12.0,0.0,6.0,0.0,0.0,19.42,0.59,
21.068,113.55496234061424,89.63883838647138,-2.24,-2.85,-0.79,5.0,1.0,0.0,12.0,0.0,6.0,0.0,0.0,18.64,0.49,
21.092,113.57749623406141,89.72088383864714,-1.85,-2.65,-0.83,5.0,1.0,0.0,12.0,0.0,6.0,0.0,0.0,18.15,0.0,
21.116,113.55274962340613,89.81008838386471,-1.82,-2.73,-0.53,5.0,1.0,0.0,11.0,0.0,5.0,0.0,0.0,17.46,0.0,
21.141,113.55027496234061,89.93600883838647,-2.35,-2.6,-1.05,5.0,1.0,0.0,11.0,0.0,5.0,0.0,0.0,16.78,0.0,
21.166,113.46902749623405,89.94860088383865,-2.26,-2.11,0.1,5.0,1.0,0.0,11.0,0.0,5.0,0.0,0.0,16.28,0.0,
21.19,113.3439027496234,90.02186008838386,-1.64,-2.31,-0.89,5.0,1.0,0.0,11.0,0.0,5.0,0.0,0.0,15.89,0.0,
21.215,113.32239027496233,90.09218600883838,-1.31,-1.34,-1.05,5.0,1.0,0.0,11.0,0.0,5.0,0.0,0.0,15.7,0.0,
21.239,113.38323902749623,90.11721860088385,-1.68,-1.5,-1.34,5.0,1.0,0.0,11.0,0.0,5.0,0.0,0.0,15.4,0.2,
21.264,113.43432390274963,90.11072186008839,-1.48,-0.2,-2.53,5.0,1.0,0.0,11.0,0.0,5.0,0.0,0.0,15.4,0.0,
21.287,113.36743239027496,90.06507218600883,-0.21,-0.66,-1.57,4.0,1.0,0.0,11.0,0.0,4.0,0.0,0.0,15.21,0.39,
21.312,113.3877432390275,90.12350721860088,0.21,-0.39,-3.34,4.0,1.0,0.0,11.0,0.0,4.0,0.0,0.0,15.11,0.59,
21.337,113.39877432390276,90.33635072186009,0.07,0.65,-2.24,4.0,1.0,0.0,10.0,0.0,4.0,0.0,0.0,14.72,0.59,
21.361,113.39087743239027,90.29463507218601,-2.34,0.02,-1.91,4.0,1.0,0.0,10.0,0.0,4.0,0.0,0.0,14.32,0.78,
21.386,113.31808774323902,90.24546350721859,-1.67,0.44,-2.11,4.0,1.0,0.0,10.0,0.0,4.0,0.0,0.0,14.03,0.49,
21.409,113.3738087743239,90.37554635072186,-2.07,-1.18,-1.52,4.0,1.0,0.0,10.0,0.0,4.0,0.0,0.0,13.83,0.29,
21.434,113.40638087743238,90.3705546350722,-1.83,-1.21,-1.5,4.0,1.0,0.0,10.0,0.0,4.0,0.0,0.0,13.73,0.2,
21.458,113.45463808774322,90.41505546350722,-2.07,-1.06,-1.14,4.0,1.0,0.0,10.0,0.0,4.0,0.0,0.0,13.54,0.1,
21.483,113.44146380877433,90.43750554635072,-2.32,-0.66,-0.3,4.0,1.0,0.0,10.0,0.0,5.0,0.0,0.0,13.54,0.39,
21.508,113.41314638087744,90.46675055463507,-3.06,-0.11,-0.85,4.0,1.0,0.0,10.0,0.0,5.0,0.0,0.0,13.24,0.39,
21.532,113.48231463808773,90.52367505546351,-2.63,-0.44,-1.31,4.0,1.0,0.0,10.0,0.0,5.0,0.0,0.0,13.24,0.39,
21.557,113.49823146380878,90.59236750554635,-1.89,-0.94,-1.16,4.0,1.0,0.0,10.0,0.0,5.0,0.0,0.0,13.24,0.29,
21.581,113.46382314638086,90.64423675055464,-2.22,-1.71,-0.18,4.0,1.0,0.0,10.0,0.0,5.0,0.0,0.0,13.24,0.29,
21.605,113.50538231463808,90.64942367505547,-1.97,-0.64,-0.84,4.0,1.0,0.0,10.0,0.0,5.0,0.0,0.0,13.24,0.39,
21.629,113.55453823146381,90.68594236750553,-2.05,-1.23,-0.89,4.0,1.0,0.0,10.0,0.0,5.0,0.0,0.0,13.15,0.59,
21.654,113.56845382314637,90.68959423675055,-1.49,-1.79,-1.25,4.0,1.0,0.0,10.0,0.0,4.0,0.0,0.0,13.05,0.59,
21.679,113.59684538231463,90.76195942367505,-2.02,-1.73,-0.84,4.0,1.0,0.0,10.0,0.0,4.0,0.0,0.0,12.95,0.59,
21.703,113.70768453823146,90.7691959423675,-0.98,-1.82,-1.16,4.0,1.0,0.0,10.0,0.0,3.0,0.0,0.0,12.75,0.49,
21.728,113.70076845382314,90.87791959423674,-1.2,-2.76,-0.94,4.0,1.0,0.0,10.0,0.0,3.0,0.0,0.0,12.46,0.49,
21.752,113.61907684538231,91.04179195942368,-2.56,-3.08,0.97,4.0,1.0,0.0,9.0,0.0,3.0,0.0,0.0,12.07,0.39,
21.776,113.55690768453822,91.14817919594236,-2.18,-2.89,-0.98,4.0,1.0,0.0,9.0,0.0,2.0,0.0,0.0,11.67,0.59,
21.8,113.5236907684538,91.06881791959424,-2.26,-2.32,-0.66,4.0,1.0,0.0,9.0,0.0,2.0,0.0,0.0,11.18,0.98,
21.825,113.47536907684538,91.09688179195942,-1.97,-2.31,-0.86,4.0,1.0,0.0,9.0,0.0,2.0,0.0,0.0,10.69,1.08,
21.849,113.41653690768453,91.16268817919594,-1.9,-1.49,-1.07,4.0,0.0,0.0,9.0,0.0,2.0,0.0,0.0,10.4,2.84,
21.873,113.38365369076845,91.1512688179196,-1.95,-1.63,-0.51,3.0,0.0,0.0,9.0,0.0,2.0,0.0,0.0,10.1,1.08,
21.898,113.29936536907685,91.10512688179196,-2.47,-1.5,0.22,3.0,0.0,0.0,9.0,0.0,2.0,0.0,0.0,9.91,0.0,
21.921,113.27293653690768,91.1635126881792,-2.35,-1.39,-0.52,3.0,0.0,0.0,9.0,0.0,2.0,0.0,0.0,9.81,0.0,
21.946,113.30629365369076,91.20535126881792,-2.3,-1.36,-1.07,3.0,0.0,0.0,9.0,0.0,2.0,0.0,0.0,9.81,0.0,
21.969,113.26462936536909,91.20053512688179,-2.41,-0.87,-0.95,3.0,0.0,0.0,9.0,0.0,2.0,0.0,0.0,9.71,0.2,
21.994,113.2784629365369,91.26305351268817,-2.42,-1.24,-0.43,3.0,0.0,0.0,9.0,0.0,2.0,0.0,0.0,9.71,0.49,
22.019,113.3428462936537,91.27830535126881,-2.62,-1.14,-0.44,3.0,0.0,0.0,9.0,0.0,2.0,0.0,0.0,9.81,0.39,
22.042,113.39428462936537,91.29783053512688,-2.67,-0.92,-0.33,3.0,0.0,0.0,9.0,0.0,2.0,0.0,0.0,9.81,0.39,
22.067,113.43542846293654,91.25478305351268,-2.86,-1.17,-0.39,3.0,0.0,0.0,9.0,0.0,2.0,0.0,0.0,9.81,0.49,
22.09,113.44854284629366,91.26847830535127,-3.21,-0.82,-0.45,3.0,0.0,0.0,9.0,0.0,2.0,0.0,0.0,9.81,0.69,
22.115,113.47685428462937,91.27884783053513,-3.38,-0.83,0.08,3.0,0.0,0.0,9.0,0.0,2.0,0.0,0.0,9.91,0.49,
22.139,113.47968542846294,91.3068847830535,-3.35,-1.11,0.44,3.0,0.0,0.0,9.0,0.0,2.0,0.0,0.0,10.01,0.69,
22.163,113.44396854284629,91.30968847830535,-3.14,-1.02,0.2,3.0,0.0,0.0,9.0,0.0,2.0,0.0,0.0,10.2,0.59,
22.188,113.45839685428462,91.30096884783053,-3.41,-0.91,-0.21,3.0,0.0,0.0,9.0,0.0,2.0,0.0,0.0,10.3,0.98,
22.212,113.45083968542846,91.28209688478304,-3.4,-1.1,0.08,3.0,0.0,0.0,9.0,0.0,2.0,0.0,0.0,10.5,2.65,
22.236,113.50408396854284,91.28920968847831,-3.21,-0.92,-0.02,3.0,0.0,0.0,9.0,0.0,2.0,0.0,0.0,10.59,0.0,
22.26,113.52740839685428,91.35292096884783,-3.27,-0.82,0.03,3.0,0.0,0.0,9.0,0.0,2.0,0.0,0.0,10.69,0.0,
22.285,113.52074083968542,91.42229209688479,-3.33,-0.54,-0.12,3.0,0.0,0.0,9.0,0.0,2.0,0.0,0.0,10.79,0.49,
22.309,113.50207408396855,91.42022920968849,-3.14,-0.95,-0.11,3.0,0.0,0.0,9.0,0.0,2.0,0.0,0.0,10.99,0.0,
22.333,113.49120740839685,91.44702292096885,-3.05,-0.54,-0.02,3.0,0.0,0.0,9.0,0.0,2.0,0.0,0.0,11.18,0.0,
22.358,113.55312074083969,91.44070229209689,-2.95,-0.87,-0.12,3.0,0.0,0.0,9.0,0.0,2.0,0.0,0.0,11.38,0.1,
22.382,113.55931207408398,91.4490702292097,-3.02,-1.24,-0.18,3.0,0.0,0.0,9.0,0.0,2.0,0.0,0.0,11.58,0.1,
22.407,113.5419312074084,91.43190702292097,-2.96,-1.23,-0.16,3.0,0.0,0.0,9.0,0.0,2.0,0.0,0.0,11.58,0.49,
22.43,113.53119312074084,91.42119070229211,-2.82,-1.06,-0.35,3.0,0.0,0.0,9.0,0.0,2.0,0.0,0.0,11.58,0.39,
22.455,113.50311931207409,91.40211907022922,-2.46,-1.05,-0.46,3.0,0.0,0.0,9.0,0.0,2.0,0.0,0.0,11.58,0.49,
22.479,113.5093119312074,91.40921190702292,-2.34,-1.08,-0.37,3.0,0.0,0.0,9.0,0.0,2.0,0.0,0.0,11.58,0.88,
22.504,113.53693119312075,91.40992119070229,-2.47,-1.18,-0.18,3.0,0.0,0.0,9.0,0.0,2.0,0.0,0.0,11.58,0.69,
22.529,113.50369311931208,91.47299211907023,-2.62,-1.18,-0.24,3.0,0.0,0.0,9.0,0.0,2.0,0.0,0.0,11.48,0.69,
22.552,113.50936931193121,91.46129921190702,-2.93,-0.85,-0.1,3.0,0.0,0.0,9.0,0.0,2.0,0.0,0.0,11.18,0.88,
22.577,113.47393693119312,91.44212992119071,-2.85,-0.82,-0.11,3.0,0.0,0.0,9.0,0.0,2.0,0.0,0.0,11.18,0.29,
22.601,113.51539369311931,91.44021299211907,-3.24,-0.86,0.26,3.0,0.0,0.0,9.0,0.0,2.0,0.0,0.0,11.28,0.0,
22.626,113.48353936931193,91.4580212992119,-3.6,-1.23,0.44,3.0,0.0,0.0,9.0,0.0,2.0,0.0,0.0,11.38,0.0,
22.649,113.4713539369312,91.45080212992119,-3.44,-1.27,0.25,4.0,0.0,0.0,9.0,0.0,2.0,0.0,0.0,11.48,0.0,
22.674,113.55113539369313,91.4590802129921,-3.16,-0.95,-0.05,4.0,0.0,0.0,9.0,0.0,2.0,0.0,0.0,11.58,0.0,
22.699,113.5681135393693,91.41490802129921,-3.01,-0.85,0.01,4.0,0.0,0.0,9.0,0.0,2.0,0.0,0.0,11.67,0.1,
22.723,113.51581135393694,91.38349080212993,-3.16,-0.73,0.05,4.0,1.0,0.0,9.0,0.0,2.0,0.0,0.0,11.87,0.2,
22.747,113.5285811353937,91.416349080213,-3.39,-0.92,0.24,4.0,1.0,0.0,9.0,0.0,2.0,0.0,0.0,11.97,0.2,
22.771,113.55685811353938,91.41963490802131,-2.85,-0.91,0.19,4.0,1.0,0.0,9.0,0.0,2.0,0.0,0.0,12.26,0.0,
22.796,113.60468581135393,91.40196349080213,-2.85,-0.56,0.24,4.0,1.0,0.0,10.0,0.0,2.0,0.0,0.0,12.36,0.0,
22.819,113.58246858113539,91.40919634908022,-2.98,-0.79,0.39,4.0,1.0,0.0,9.0,0.0,2.0,0.0,0.0,12.26,0.2,
22.844,113.62524685811353,91.39191963490802,-2.76,-0.6,-0.03,4.0,1.0,0.0,10.0,0.0,2.0,0.0,0.0,12.56,0.2,
22.868,113.66552468581135,91.39919196349081,-2.68,-0.61,0.08,4.0,1.0,0.0,10.0,0.0,2.0,0.0,0.0,12.85,0.29,
22.893,113.68755246858113,91.44491919634909,-3.05,-0.12,-0.03,4.0,1.0,0.0,10.0,0.0,2.0,0.0,0.0,12.95,0.39,
22.918,113.70775524685811,91.4584919196349,-2.93,-0.47,0.23,4.0,1.0,0.0,10.0,0.0,2.0,0.0,0.0,13.15,0.59,
22.941,113.72777552468581,91.4778491919635,-2.69,-0.47,0.03,4.0,1.0,0.0,10.0,0.0,2.0,0.0,0.0,13.34,0.29,
22.966,113.77477755246858,91.54278491919635,-2.88,-0.47,-0.48,4.0,1.0,0.0,10.0,0.0,2.0,0.0,0.0,13.44,0.0,
22.99,113.76147775524686,91.50427849191965,-2.67,-0.95,-0.23,4.0,1.0,0.0,10.0,0.0,2.0,0.0,0.0,13.64,0.0,
23.015,113.73314777552469,91.46442784919196,-3.05,-1.96,1.27,4.0,1.0,0.0,10.0,0.0,2.0,0.0,0.0,13.64,0.0,
23.04,113.74831477755247,91.5144427849192,-3.24,-1.26,1.07,4.0,1.0,0.0,10.0,0.0,2.0,0.0,0.0,13.54,0.1,
23.064,113.78583147775524,91.52844427849193,-3.16,-1.09,0.29,4.0,1.0,0.0,10.0,0.0,2.0,0.0,0.0,13.64,0.0,
23.088,113.79858314777552,91.4758444278492,-3.14,-1.29,-0.12,4.0,1.0,0.0,10.0,0.0,2.0,0.0,0.0,13.83,0.0,
23.112,113.76385831477755,91.50658444278493,-3.26,-1.26,-0.33,4.0,1.0,0.0,10.0,0.0,2.0,0.0,0.0,13.93,0.29,
23.137,113.75138583147775,91.46465844427848,-3.26,-1.05,-0.37,4.0,1.0,0.0,10.0,0.0,2.0,0.0,0.0,13.93,0.29,
23.161,113.77713858314777,91.42446584442786,-3.18,-1.12,0.36,4.0,1.0,0.0,10.0,0.0,2.0,0.0,0.0,14.03,0.29,
23.186,113.79771385831478,91.42044658444279,-3.33,-0.51,0.41,4.0,1.0,0.0,10.0,0.0,2.0,0.0,0.0,14.13,0.29,
23.211,113.79077138583148,91.40204465844428,-3.21,-1.35,0.47,4.0,1.0,0.0,10.0,0.0,2.0,0.0,0.0,14.22,0.39,
23.234,113.86207713858315,91.40020446584444,-3.4,-0.68,0.18,4.0,1.0,0.0,10.0,0.0,2.0,0.0,0.0,14.22,0.2,
23.259,113.93220771385832,91.39102044658445,-3.27,-0.5,0.09,4.0,1.0,0.0,10.0,0.0,2.0,0.0,0.0,14.32,0.2,
23.283,113.92122077138583,91.45310204465844,-3.15,-0.74,0.31,4.0,1.0,0.0,10.0,0.0,2.0,0.0,0.0,14.52,0.29,
23.308,113.92912207713859,91.50431020446585,-3.29,-0.89,-0.09,4.0,1.0,0.0,10.0,0.0,2.0,0.0,0.0,14.62,0.0,
23.332,113.92091220771385,91.45543102044658,-3.2,-0.77,0.11,4.0,1.0,0.0,10.0,0.0,2.0,0.0,0.0,14.72,0.0,
23.356,113.92909122077138,91.42354310204466,-3.05,-0.7,0.11,4.0,1.0,0.0,10.0,0.0,2.0,0.0,0.0,14.72,0.0,
23.38,113.92990912207713,91.41135431020447,-2.76,-0.66,-0.18,4.0,1.0,0.0,10.0,0.0,2.0,0.0,0.0,14.81,0.0,
23.405,113.97499091220772,91.39213543102045,-2.67,-0.44,-0.48,4.0,1.0,0.0,10.0,0.0,2.0,0.0,0.0,14.81,0.1,
23.43,113.96149909122076,91.40821354310205,-2.55,-0.71,-0.31,4.0,1.0,0.0,11.0,0.0,2.0,0.0,0.0,14.91,0.0,
23.454,113.94214990912208,91.43682135431021,-2.34,-0.44,0.1,4.0,1.0,0.0,10.0,0.0,2.0,0.0,0.0,15.01,0.2,
23.479,114.0122149909122,91.52968213543103,-2.43,-0.71,-0.16,4.0,1.0,0.0,11.0,0.0,2.0,0.0,0.0,15.11,0.49,
23.502,114.07322149909122,91.6469682135431,-2.58,1.27,-0.99,4.0,1.0,0.0,10.0,0.0,2.0,0.0,0.0,15.01,0.49,
23.527,114.02532214990912,91.64069682135431,-2.26,-0.53,-1.1,4.0,1.0,0.0,11.0,0.0,2.0,0.0,0.0,15.11,0.39,
23.552,114.08353221499092,91.56806968213544,-2.21,-1.27,-0.2,4.0,1.0,0.0,10.0,0.0,2.0,0.0,0.0,14.91,0.59,
23.576,114.0623532214991,91.65080696821354,-2.65,-0.95,0.77,4.0,1.0,0.0,10.0,0.0,2.0,0.0,0.0,14.91,0.59,
23.601,114.01523532214992,91.70408069682135,-2.31,-1.53,0.59,4.0,1.0,0.0,10.0,0.0,2.0,0.0,0.0,14.91,0.59,
23.624,114.06452353221499,91.73640806968214,-2.11,-1.44,-0.1,4.0,1.0,0.0,10.0,0.0,2.0,0.0,0.0,14.91,0.59,
23.649,114.08745235322151,91.72164080696821,-2.37,-1.01,-0.19,4.0,1.0,0.0,10.0,0.0,2.0,0.0,0.0,14.91,0.2,
23.673,114.10774523532214,91.72016408069682,-2.49,-0.07,-0.31,4.0,1.0,0.0,10.0,0.0,2.0,0.0,0.0,14.91,0.0,
23.698,114.15477452353221,91.70201640806968,-2.79,-0.9,0.01,4.0,1.0,0.0,10.0,0.0,2.0,0.0,0.0,14.91,0.0,
23.723,114.14147745235321,91.73620164080697,-2.63,-0.89,0.02,4.0,1.0,0.0,10.0,0.0,2.0,0.0,0.0,15.01,0.1,
23.747,114.13114774523532,91.6946201640807,-2.47,-0.81,-0.02,4.0,1.0,0.0,10.0,0.0,2.0,0.0,0.0,15.01,0.39,
23.772,114.16611477452354,91.67246201640808,-2.4,-1.21,-0.16,4.0,1.0,0.0,10.0,0.0,2.0,0.0,0.1,15.21,0.39,
23.795,114.15161147745236,91.71524620164081,-2.56,-0.73,-0.11,4.0,1.0,0.0,10.0,0.0,2.0,0.0,0.2,15.3,0.39,
23.82,114.16816114774524,91.75552462016408,-2.58,-0.02,-0.49,4.0,1.0,0.0,10.0,0.0,2.0,0.0,0.2,15.3,0.29,
23.844,114.17881611477453,91.81355246201639,-2.7,0.16,-0.51,4.0,1.0,0.0,10.0,0.0,2.0,0.0,0.29,15.5,0.0,
23.869,114.16188161147745,91.85535524620164,-2.3,1.62,-1.75,4.0,1.0,0.0,10.0,0.0,2.0,0.0,0.39,15.6,0.49,
23.894,114.23218816114775,91.85953552462017,-2.59,0.53,-1.23,4.0,1.0,0.0,11.0,0.0,2.0,0.0,0.49,15.79,0.39,
23.917,114.17621881611477,91.83295355246202,-2.56,0.94,0.0,4.0,1.0,0.0,10.0,0.0,2.0,0.0,0.49,15.99,0.39,
23.942,114.1796218816115,91.83029535524621,-2.46,1.29,-0.5,4.0,1.0,0.0,10.0,0.0,2.0,0.0,0.49,16.09,0.69,
23.966,114.26096218816114,91.87502953552462,-3.02,1.13,-1.29,4.0,1.0,0.0,10.0,0.0,2.0,0.0,0.59,16.09,0.88,
23.991,114.28709621881612,91.84350295355247,-2.56,2.18,-0.37,4.0,1.0,0.0,10.0,0.0,1.0,0.0,0.78,16.09,0.98,
24.014,114.35270962188162,91.95735029535524,-3.56,1.37,-1.27,4.0,1.0,0.0,10.0,0.0,1.0,0.0,0.88,16.19,0.0,
24.039,114.62927096218816,92.11273502953553,-3.14,-0.63,-1.54,4.0,1.0,0.0,10.0,0.0,1.0,0.0,0.88,16.38,0.0,
24.064,114.70192709621881,91.97527350295354,-2.28,0.55,-0.69,4.0,1.0,0.0,10.0,0.0,2.0,0.0,0.88,16.38,2.84,
24.088,114.75419270962189,91.97052735029536,-3.68,0.74,-2.35,4.0,1.0,0.0,10.0,0.0,2.0,0.0,0.88,16.48,1.37,
24.113,114.7324192709622,91.93405273502954,-3.8,0.37,-0.81,4.0,1.0,0.0,10.0,0.0,2.0,0.0,0.88,16.48,0.0,
24.136,114.7932419270962,92.02040527350294,-3.34,-0.56,-0.37,3.0,1.0,0.0,10.0,0.0,2.0,0.0,0.78,16.38,0.29,
24.161,114.80832419270962,92.1280405273503,-4.09,0.17,-0.63,3.0,1.0,0.0,10.0,0.0,2.0,0.0,0.88,16.28,0.49,
24.185,114.79183241927096,92.11180405273502,-3.41,0.37,-0.46,3.0,1.0,0.0,10.0,0.0,2.0,0.0,0.78,16.28,0.59,
24.21,114.79918324192708,92.0651804052735,-3.74,-0.17,-0.02,3.0,1.0,0.0,10.0,0.0,2.0,0.0,0.78,16.28,0.59,
24.235,114.96191832419271,91.90751804052735,-3.05,0.59,-0.74,3.0,1.0,0.0,10.0,0.0,2.0,0.0,0.78,16.19,0.49,
24.258,115.05019183241927,91.84675180405274,-3.51,-0.83,0.02,3.0,1.0,0.0,10.0,0.0,2.0,0.0,0.69,16.19,0.49,
24.283,115.08601918324193,91.83167518040528,-3.37,-1.06,0.24,3.0,1.0,0.0,10.0,0.0,2.0,0.0,0.69,16.09,0.59,
24.307,115.05360191832419,91.85716751804054,-3.31,-1.39,-0.14,3.0,1.0,0.0,10.0,0.0,2.0,0.0,0.69,16.09,0.49,
24.332,115.04136019183241,91.85971675180406,-3.55,-1.09,-0.13,3.0,1.0,0.0,10.0,0.0,2.0,0.0,0.59,15.89,0.49,
24.356,115.00413601918324,91.9229716751804,-3.82,-1.29,0.21,3.0,1.0,0.0,10.0,0.0,2.0,0.0,0.59,15.89,0.2,
24.38,115.00941360191833,91.92029716751804,-3.59,-1.49,0.41,3.0,1.0,0.0,10.0,0.0,2.0,0.0,0.59,15.79,0.0,
24.404,114.98294136019183,91.97402971675182,-3.3,-1.49,0.43,3.0,1.0,0.0,10.0,0.0,2.0,0.0,0.49,15.79,0.0,
24.429,115.00729413601918,91.99740297167517,-3.34,-1.34,0.08,3.0,1.0,0.0,10.0,0.0,2.0,0.0,0.49,15.7,0.0,
24.454,114.95572941360192,91.98174029716753,-3.28,-1.54,0.2,3.0,1.0,0.0,10.0,0.0,2.0,0.0,0.59,15.7,0.1,
24.478,114.94157294136019,91.97117402971675,-3.08,-1.57,-0.22,3.0,1.0,0.0,10.0,0.0,2.0,0.0,0.49,15.6,0.0,
24.503,114.95815729413602,92.03311740297168,-3.23,-1.85,0.1,3.0,1.0,0.0,10.0,0.0,2.0,0.0,0.59,15.6,0.1,
24.526,114.92381572941359,92.05731174029717,-3.4,-2.05,0.14,4.0,1.0,0.0,10.0,0.0,2.0,0.0,0.39,15.5,0.29,
24.551,114.94738157294135,92.06873117402972,-3.3,-1.8,0.11,4.0,1.0,0.0,10.0,0.0,2.0,0.0,0.39,15.3,0.39,
24.576,114.95873815729414,92.03387311740298,-2.88,-1.93,0.26,3.0,1.0,0.0,10.0,0.0,2.0,0.0,0.39,15.3,0.49,
24.6,114.8968738157294,92.0303873117403,-2.93,-1.75,-0.06,3.0,1.0,0.0,10.0,0.0,2.0,0.0,0.49,15.01,0.49,
24.625,114.90868738157293,92.02103873117403,-3.08,-2.22,-0.14,3.0,1.0,0.0,10.0,0.0,2.0,0.0,0.69,14.72,0.88,
24.648,114.86486873815728,91.98410387311742,-3.11,-1.64,0.1,3.0,0.0,0.0,10.0,0.0,1.0,0.0,0.78,14.52,1.37,
24.673,114.88748687381572,91.93541038731175,-3.22,-2.07,-0.2,3.0,0.0,0.0,10.0,0.0,1.0,0.0,0.98,14.32,1.28,
24.697,114.82674868738157,91.93054103873118,-3.18,-2.12,-0.05,3.0,0.0,0.0,10.0,0.0,1.0,0.0,1.08,14.22,1.08,
24.722,114.76667486873816,91.87605410387312,-3.38,-2.09,-0.05,3.0,0.0,0.0,10.0,0.0,1.0,0.0,1.08,13.93,0.49,
24.747,114.76066748687381,91.84360541038731,-3.41,-1.72,-0.05,3.0,0.0,0.0,10.0,0.0,1.0,0.0,1.08,13.83,0.0,
24.771,114.74206674868736,91.84936054103872,-3.41,-1.81,-0.01,3.0,1.0,0.0,10.0,0.0,1.0,0.0,1.08,13.83,0.0,
24.796,114.79420667486873,91.90393605410387,-3.24,-2.24,-0.37,3.0,1.0,0.0,10.0,0.0,1.0,0.0,0.98,13.73,0.0,
24.819,114.77242066748687,91.93639360541039,-3.8,-2.39,0.42,3.0,1.0,0.0,10.0,0.0,1.0,0.0,0.98,13.64,0.2,
24.844,114.7792420667487,91.93063936054105,-3.51,-1.86,0.3,3.0,1.0,0.0,10.0,0.0,1.0,0.0,0.98,13.54,0.2,
24.868,114.77092420667486,91.92106393605411,-3.26,-1.68,-0.02,3.0,1.0,0.0,10.0,0.0,1.0,0.0,0.98,13.34,0.49,
24.893,114.7610924206675,91.93810639360541,-3.4,-1.88,0.32,3.0,1.0,0.0,10.0,0.0,1.0,0.0,0.98,13.34,0.39,
24.918,114.76010924206675,91.91281063936053,-3.09,-1.53,0.21,3.0,1.0,0.0,10.0,0.0,1.0,0.0,0.98,13.15,0.49,
24.941,114.71501092420667,91.88328106393604,-3.0,-1.95,0.08,3.0,1.0,0.0,10.0,0.0,1.0,0.0,0.98,13.05,0.29,
24.966,114.69250109242067,91.85332810639359,-3.11,-1.58,0.26,3.0,1.0,0.0,10.0,0.0,1.0,0.0,1.08,13.05,0.39,
24.99,114.61825010924207,91.79633281063936,-3.47,-1.28,0.44,3.0,1.0,0.0,10.0,0.0,1.0,0.0,1.08,12.95,0.59,
25.015,114.5388250109242,91.77263328106393,-4.17,-2.94,1.18,3.0,1.0,0.0,10.0,0.0,1.0,0.0,0.98,12.95,0.69,
25.039,114.51288250109243,91.7972633281064,-3.85,-2.09,0.36,3.0,1.0,0.0,10.0,0.0,1.0,0.0,0.98,13.24,0.88,
25.063,114.60028825010924,91.75472633281063,-3.24,-2.01,0.89,3.0,1.0,0.0,10.0,0.0,1.0,0.0,0.98,13.24,0.2,
25.088,114.58202882501092,91.75947263328106,-3.95,-3.27,1.13,3.0,1.0,0.0,10.0,0.0,1.0,0.0,0.88,13.24,0.0,
25.112,114.61620288250109,91.8229472633281,-3.89,-2.31,1.7,3.0,1.0,0.0,10.0,0.0,1.0,0.0,0.78,13.15,0.0,
25.137,114.5926202882501,91.73929472633282,-3.63,-1.43,0.84,4.0,1.0,0.0,10.0,0.0,1.0,0.0,0.69,13.24,0.0,
25.161,114.536262028825,91.64092947263327,-3.82,-1.21,0.41,4.0,1.0,0.0,10.0,0.0,1.0,0.0,0.59,12.95,0.0,
25.185,114.43162620288251,91.54109294726334,-3.73,-2.17,-0.56,4.0,1.0,0.0,10.0,0.0,1.0,0.0,0.69,12.85,0.1,
25.209,114.36716262028825,91.61210929472634,-3.92,-2.63,2.38,4.0,1.0,0.0,10.0,0.0,1.0,0.0,0.59,13.05,0.29,
25.234,114.22571626202883,91.64621092947264,-3.87,-3.14,1.47,4.0,1.0,0.0,10.0,0.0,1.0,0.0,0.59,13.44,0.39,
25.259,114.19357162620288,91.63162109294726,-3.63,-1.63,0.69,4.0,1.0,0.0,10.0,0.0,1.0,0.0,0.59,13.93,0.39,
25.283,114.19935716262029,91.61216210929473,-3.82,-1.58,0.29,4.0,1.0,0.0,10.0,0.0,2.0,0.0,0.39,13.73,0.39,
25.307,114.19093571626203,91.53821621092948,-3.15,-1.82,0.5,4.0,1.0,0.0,10.0,0.0,2.0,0.0,0.49,13.73,0.49,
25.331,114.21709357162621,91.53082162109295,-3.49,-1.86,-0.47,4.0,1.0,0.0,10.0,0.0,2.0,0.0,0.49,13.64,0.39,
25.356,114.15670935716263,91.48508216210931,-2.89,-1.98,-1.44,4.0,1.0,0.0,10.0,0.0,2.0,0.0,0.49,13.73,0.49,
25.38,114.23167093571627,91.44450821621093,-3.53,-3.28,0.58,4.0,1.0,0.0,10.0,0.0,2.0,0.0,0.59,13.64,0.49,
25.405,114.32916709357163,91.4764508216211,-3.23,-3.22,0.1,4.0,1.0,0.0,10.0,0.0,2.0,0.0,0.59,13.64,0.29,
25.43,114.33891670935716,91.46164508216211,-3.28,-1.9,0.42,4.0,1.0,0.0,10.0,0.0,2.0,0.0,0.69,14.13,0.2,
25.453,114.29489167093571,91.49616450821622,-3.14,-2.28,-0.35,4.0,1.0,0.0,10.0,0.0,2.0,0.0,0.78,14.22,0.0,
25.478,114.25448916709357,91.50861645082163,-3.65,-2.21,0.33,4.0,1.0,0.0,10.0,0.0,2.0,0.0,0.78,13.93,0.0,
25.502,114.29544891670936,91.46486164508215,-3.33,-1.49,-0.65,4.0,1.0,0.0,10.0,0.0,2.0,0.0,0.78,12.85,0.0,
25.527,114.28154489167093,91.44248616450822,-2.79,-1.73,-0.31,4.0,1.0,0.0,10.0,0.0,2.0,0.0,0.78,13.44,0.29,
25.551,114.23515448916709,91.41324861645083,-2.79,-1.69,-0.36,4.0,1.0,0.0,10.0,0.0,2.0,0.0,0.88,13.93,0.49,
25.576,114.1945154489167,91.4733248616451,-3.11,-1.37,-0.35,4.0,1.0,0.0,10.0,0.0,2.0,0.0,0.78,14.13,0.49,
25.6,114.18145154489169,91.49733248616451,-2.76,-1.42,-0.17,4.0,1.0,0.0,10.0,0.0,2.0,0.0,0.88,13.93,0.39,
25.624,114.14414515448917,91.49073324861644,-2.81,-1.79,0.11,4.0,1.0,0.0,10.0,0.0,2.0,0.0,0.98,13.73,0.59,
25.649,114.14941451544892,91.46307332486164,-2.61,-1.74,0.16,4.0,1.0,0.0,10.0,0.0,2.0,0.0,0.98,13.73,0.49,
25.673,114.15894145154489,91.45130733248617,-2.65,-1.72,0.24,4.0,1.0,0.0,10.0,0.0,2.0,0.0,1.08,13.64,0.69,
25.698,114.14189414515448,91.43213073324861,-2.48,-2.14,0.41,4.0,1.0,0.0,10.0,0.0,2.0,0.0,1.08,13.54,0.78,
25.722,114.09518941451546,91.43921307332486,-2.76,-1.94,0.11,4.0,1.0,0.0,10.0,0.0,1.0,0.0,1.08,13.54,0.78,
25.746,114.09951894145154,91.50292130733249,-2.83,-2.11,0.52,4.0,1.0,0.0,10.0,0.0,1.0,0.0,1.18,13.44,0.59,
25.771,114.06395189414516,91.57229213073325,-2.65,-2.22,0.47,4.0,1.0,0.0,10.0,0.0,1.0,0.0,1.18,13.34,0.39,
25.795,114.03339518941452,91.60622921307332,-2.92,-1.73,0.31,4.0,1.0,0.0,10.0,0.0,1.0,0.0,1.28,13.24,0.2,
25.82,114.03933951894146,91.59162292130733,-2.96,-1.82,0.27,4.0,1.0,0.0,9.0,0.0,1.0,0.0,1.28,13.15,0.29,
25.843,114.00393395189415,91.62616229213073,-3.15,-1.83,0.42,4.0,1.0,0.0,9.0,0.0,1.0,0.0,1.28,13.15,0.29,
25.868,114.0183933951894,91.66561622921307,-3.13,-1.69,0.33,4.0,1.0,0.0,10.0,0.0,1.0,0.0,1.28,13.05,0.49,
25.892,114.01983933951894,91.6335616229213,-2.95,-1.6,0.34,3.0,1.0,0.0,9.0,0.0,1.0,0.0,1.28,13.05,0.39,
25.917,114.04698393395189,91.59435616229214,-3.0,-1.66,0.79,3.0,1.0,0.0,10.0,0.0,1.0,0.0,1.37,13.15,0.39,
25.94,114.04069839339519,91.59043561622923,-2.7,-1.61,0.5,3.0,1.0,0.0,10.0,0.0,1.0,0.0,1.37,13.15,0.78,
25.965,114.05806983933952,91.67104356162294,-2.68,-1.39,0.39,3.0,0.0,0.0,10.0,0.0,1.0,0.0,1.37,13.24,0.78,
25.99,114.05080698393394,91.6971043561623,-2.63,-1.5,0.26,3.0,0.0,0.0,10.0,0.0,1.0,0.0,1.47,13.34,0.69,
26.014,114.0590806983934,91.66371043561622,-2.63,-1.95,0.21,3.0,0.0,0.0,10.0,0.0,1.0,0.0,1.57,13.54,0.49,
26.039,114.03290806983935,91.63337104356162,-2.86,-1.37,0.36,3.0,0.0,0.0,9.0,0.0,1.0,0.0,1.67,13.44,0.39,
26.062,114.01229080698394,91.55833710435616,-2.83,-1.63,0.34,3.0,0.0,0.0,9.0,0.0,1.0,0.0,1.77,13.54,0.59,
26.087,113.9832290806984,91.53283371043563,-2.98,-1.56,0.34,3.0,0.0,0.0,9.0,0.0,1.0,0.0,1.77,13.34,0.59,
26.112,114.02532290806985,91.56628337104355,-2.76,-1.69,-0.05,3.0,0.0,0.0,9.0,0.0,1.0,0.0,1.67,13.34,0.78,
26.135,113.984532290807,91.54262833710436,-2.62,-1.74,-0.21,3.0,0.0,0.0,9.0,0.0,1.0,0.0,1.77,13.15,0.39,
26.16,113.9894532290807,91.52226283371043,-2.48,-1.5,-0.1,3.0,0.0,0.0,9.0,0.0,1.0,0.0,1.86,13.05,0.0,
26.184,113.95394532290807,91.52922628337105,-2.53,-1.34,-0.16,3.0,0.0,0.0,9.0,0.0,1.0,0.0,1.86,12.85,0.0,
26.208,113.93239453229081,91.47592262833712,-2.95,-1.11,-0.25,3.0,0.0,0.0,9.0,0.0,1.0,0.0,2.06,12.75,0.2,
26.232,113.93023945322909,91.5155922628337,-2.92,-1.34,-0.14,3.0,0.0,0.0,9.0,0.0,1.0,0.0,1.96,12.75,0.49,
26.257,113.94802394532292,91.50155922628338,-2.87,-1.75,-0.16,3.0,0.0,0.0,9.0,0.0,1.0,0.0,1.96,12.56,0.39,
26.28,113.9498023945323,91.51815592262832,-2.9,-1.75,-0.15,3.0,0.0,0.0,9.0,0.0,1.0,0.0,2.06,12.26,0.49,
26.305,113.93198023945324,91.53781559226285,-2.76,-1.73,0.0,3.0,0.0,0.0,9.0,0.0,1.0,0.0,2.06,12.16,0.78,
26.33,113.96619802394532,91.53078155922628,-3.05,-1.37,-0.22,3.0,0.0,0.0,9.0,0.0,1.0,0.0,2.06,12.07,0.59,
26.353,114.00561980239453,91.51207815592264,-2.96,-0.92,-0.24,3.0,0.0,0.0,9.0,0.0,1.0,0.0,2.06,11.97,0.59,
26.378,113.95556198023945,91.50120781559227,-3.46,-1.15,-0.05,3.0,0.0,0.0,9.0,0.0,1.0,0.0,2.06,11.87,0.59,
26.402,113.98655619802393,91.50912078155923,-3.52,-1.24,0.21,3.0,0.0,0.0,9.0,0.0,1.0,0.0,1.96,12.07,0.49,
26.426,113.93565561980239,91.50091207815593,-3.55,-1.11,0.31,3.0,0.0,0.0,9.0,0.0,1.0,0.0,1.86,11.97,0.59,
26.45,113.88556556198024,91.5810912078156,-3.54,-1.08,0.0,3.0,0.0,0.0,9.0,0.0,1.0,0.0,1.77,11.97,0.59,
26.474,113.88955655619803,91.57110912078156,-3.21,-1.04,-0.3,3.0,0.0,0.0,9.0,0.0,1.0,0.0,1.77,11.87,0.49,
26.499,113.95295565561979,91.54311091207816,-3.44,-1.05,0.3,3.0,0.0,0.0,9.0,0.0,1.0,0.0,1.77,11.97,0.49,
26.523,113.96829556556199,91.51331109120783,-3.31,-1.24,0.17,3.0,0.0,0.0,9.0,0.0,1.0,0.0,1.67,11.97,0.59,
26.547,113.9698295565562,91.51933110912077,-3.53,-1.11,0.0,3.0,0.0,0.0,9.0,0.0,1.0,0.0,1.77,12.07,0.59,
26.571,114.03298295565563,91.56493311091208,-3.31,-0.98,-0.07,3.0,0.0,0.0,9.0,0.0,1.0,0.0,1.67,12.16,0.2,
26.596,114.04829829556556,91.53349331109122,-3.31,-1.21,0.13,3.0,0.0,0.0,9.0,0.0,1.0,0.0,1.67,12.07,0.0,
26.619,114.08582982955656,91.53034933110914,-3.23,-1.18,0.34,3.0,0.0,0.0,9.0,0.0,1.0,0.0,1.57,12.16,0.0,
26.644,114.07158298295565,91.49403493311091,-3.24,-1.28,-0.01,3.0,0.0,0.0,9.0,0.0,1.0,0.0,1.57,12.26,0.49,
26.669,114.07015829829555,91.49040349331108,-3.24,-1.21,-0.22,3.0,0.0,0.0,9.0,0.0,1.0,0.0,1.47,12.26,0.49,
26.693,114.07901582982954,91.45404034933111,-3.39,-1.42,-0.03,3.0,0.0,0.0,9.0,0.0,1.0,0.0,1.47,12.26,0.69,
26.718,114.04390158298295,91.42340403493311,-3.5,-1.34,0.04,3.0,0.0,0.0,9.0,0.0,1.0,0.0,1.47,12.26,0.1,
26.741,114.0673901582983,91.40234040349331,-3.47,-1.05,0.05,3.0,0.0,0.0,9.0,0.0,1.0,0.0,1.37,12.36,0.39,
26.766,114.06973901582982,91.40023404034933,-3.36,-1.05,-0.11,3.0,0.0,0.0,9.0,0.0,1.0,0.0,1.37,12.46,0.29,
26.79,114.10597390158298,91.39102340403494,-3.34,-1.17,-0.24,3.0,0.0,0.0,9.0,0.0,1.0,0.0,1.37,12.26,0.39,
26.815,114.1275973901583,91.3631023404035,-3.24,-1.02,-0.16,3.0,0.0,0.0,9.0,0.0,1.0,0.0,1.28,12.36,0.49,
26.839,114.10275973901582,91.35131023404035,-3.34,-1.22,-0.04,3.0,0.0,0.0,9.0,0.0,1.0,0.0,1.37,12.26,0.49,
26.863,114.11827597390159,91.42213102340403,-3.2,-1.21,0.27,3.0,0.0,0.0,9.0,0.0,1.0,0.0,1.47,12.16,0.59,
26.888,114.15582759739016,91.4562131023404,-3.2,-1.27,0.13,3.0,0.0,0.0,9.0,0.0,1.0,0.0,1.28,12.36,0.98,
