time,pitch,roll,gyrx,gyry,gyrz,f1,f2,f3,f4,f5,f6,f7,g1,g2,g3
0.379,43.88,46.08,-3.2,-1.6,-0.58,0.0,0.0,0.0,1.0,0.0,0.0,0.0,0.0,0.0,0.88,
0.404,50.333,52.892999999999994,-4.24,-0.14,0.11,0.0,0.0,0.0,1.0,0.0,0.0,0.0,0.1,0.0,0.59,
0.428,56.2883,59.1903,-5.16,0.13,-0.73,0.0,0.0,0.0,1.0,0.0,0.0,0.0,0.1,0.0,0.69,
0.451,61.455830000000006,64.59003,-7.15,-1.08,-2.37,0.0,0.0,0.0,1.0,0.0,0.0,0.0,0.0,0.0,0.78,
0.476,66.040583,69.180003,-8.83,-0.97,-1.05,0.0,0.0,0.0,1.0,0.0,0.0,0.0,0.1,0.0,0.69,
0.499,69.81105830000001,73.2390003,-4.27,-1.39,1.44,0.0,0.0,0.0,1.0,0.0,0.0,0.0,0.0,0.0,1.67,
0.524,72.78910583000001,76.65990003000002,-1.64,-3.05,-0.77,0.0,0.0,0.0,1.0,0.0,0.0,0.0,0.0,0.0,1.18,
0.547,75.615910583,79.79199000300001,-3.29,-3.77,-0.11,0.0,0.0,0.0,1.0,0.0,0.0,0.0,0.0,0.0,0.2,
0.571,78.0945910583,82.3371990003,-4.63,-2.8,2.5,0.0,0.0,0.0,1.0,0.0,0.0,0.0,0.0,0.0,0.88,
0.595,80.12445910583,84.48171990003,-3.82,-1.08,0.81,0.0,0.0,0.0,1.0,0.0,0.0,0.0,0.0,0.0,0.49,
0.619,81.920445910583,86.28017199000301,-4.27,0.42,-1.42,0.0,0.0,0.0,1.0,0.0,0.0,0.0,0.0,0.0,0.29,
0.644,83.4590445910583,87.8010171990003,-3.63,-0.95,-1.37,0.0,0.0,0.0,1.0,0.0,0.0,0.0,0.0,0.0,0.49,
0.667,84.72890445910583,89.01510171990004,-3.88,-1.76,-1.71,0.0,0.0,0.0,1.0,0.0,0.0,0.0,0.0,0.0,1.08,
0.692,85.80089044591058,90.08151017199,-4.91,-0.14,-0.37,0.0,0.0,0.0,1.0,0.0,0.0,0.0,0.0,0.0,0.0,
0.715,86.67308904459107,90.881151017199,-1.93,-3.21,1.19,0.0,0.0,0.0,1.0,0.0,0.0,0.0,0.0,0.0,0.0,
0.739,87.27330890445911,91.58211510171989,0.21,-5.21,-0.79,0.0,0.0,0.0,1.0,0.0,0.0,0.0,0.0,0.0,3.73,
0.763,87.95433089044592,92.453211510172,-3.85,-4.18,-1.48,0.0,0.0,0.0,1.0,0.0,0.0,0.0,0.0,0.0,0.1,
0.787,88.5534330890446,93.0533211510172,-3.74,-2.44,-0.24,0.0,0.0,0.0,1.0,0.0,0.0,0.0,0.1,0.0,0.69,
0.812,88.94634330890446,93.47333211510171,-2.51,-1.57,0.27,0.0,0.0,0.0,1.0,0.0,0.0,0.0,0.0,0.0,1.47,
0.835,89.39063433089044,93.68633321151017,-4.97,-0.29,-0.26,0.0,0.0,0.0,1.0,0.0,0.0,0.0,0.0,0.0,1.08,
0.859,89.71406343308905,93.88763332115101,-4.49,-1.49,1.15,0.0,0.0,0.0,1.0,0.0,0.0,0.0,0.0,0.0,0.69,
0.883,90.0164063433089,94.1417633321151,-1.95,-2.68,1.12,0.0,0.0,0.0,1.0,0.0,0.0,0.0,0.0,0.0,2.45,
0.907,90.44264063433089,94.49117633321151,-4.67,-0.53,0.73,0.0,0.0,0.0,1.0,0.0,0.0,0.0,0.0,0.0,0.0,
0.93,90.71926406343309,94.70611763332116,-5.27,-0.21,1.4,0.0,0.0,0.0,1.0,0.0,0.0,0.0,0.0,0.0,0.0,
0.955,90.79192640634331,94.90761176333213,-4.52,-1.57,0.67,0.0,0.0,0.0,1.0,0.0,0.0,0.0,0.1,0.0,0.78,
0.978,91.04219264063433,95.08076117633321,-5.8,-1.12,0.18,0.0,0.0,0.0,1.0,0.0,0.0,0.0,0.0,0.0,1.86,
1.003,91.13021926406343,95.10707611763333,-5.08,1.61,0.48,0.0,0.0,0.0,1.0,0.0,0.0,0.0,0.0,0.0,0.88,
1.027,91.04002192640635,95.17270761176334,-1.62,-2.08,-1.04,0.0,0.0,0.0,1.0,0.0,0.0,0.0,0.0,0.0,2.26,
1.05,91.13000219264063,95.34127076117633,-1.06,-4.37,-1.85,0.0,0.0,0.0,1.0,0.0,0.0,0.0,0.0,0.0,0.2,
1.075,91.30100021926407,95.65512707611762,-3.29,-1.92,0.11,0.0,0.0,0.0,1.0,0.0,0.0,0.0,0.0,0.0,0.0,
1.098,91.4441000219264,95.87551270761176,-3.71,-0.02,2.0,0.0,0.0,0.0,1.0,0.0,0.0,0.0,0.0,0.0,0.0,
1.122,91.62941000219266,95.90655127076118,-3.31,-0.02,1.79,0.0,0.0,0.0,1.0,0.0,0.0,0.0,0.0,0.0,1.08,
1.146,91.75594100021927,95.95465512707611,-3.26,1.39,0.76,0.0,0.0,0.0,1.0,0.0,0.0,0.0,0.0,0.0,0.69,
1.17,91.74159410002193,95.9594655127076,-1.86,2.24,-0.34,0.0,0.0,0.0,1.0,0.0,0.0,0.0,0.0,0.0,0.0,
1.193,91.7581594100022,95.95094655127076,0.66,-0.31,-1.06,0.0,0.0,0.0,1.0,0.0,0.0,0.0,0.0,0.0,0.2,
1.218,91.71481594100021,96.10309465512708,0.99,-2.08,0.16,0.0,0.0,0.0,1.0,0.0,0.0,0.0,0.1,0.0,0.1,
1.242,91.58448159410001,96.01930946551272,-2.04,-0.51,1.29,0.0,0.0,0.0,1.0,0.0,0.0,0.0,0.1,0.0,0.59,
1.265,91.43644815941,95.85793094655128,-3.07,-1.31,-0.59,0.0,0.0,0.0,1.0,0.0,0.0,0.0,0.0,0.0,1.18,
1.29,91.295644815941,95.80579309465513,-2.96,-1.34,-0.93,0.0,0.0,0.0,1.0,0.0,0.0,0.0,0.1,0.0,0.29,
1.313,91.3805644815941,95.79157930946552,-3.64,-1.75,0.91,0.0,0.0,0.0,1.0,0.0,0.0,0.0,0.1,0.0,0.0,
1.338,91.46105644815941,95.70015793094655,-3.54,-2.57,2.27,0.0,0.0,0.0,1.0,0.0,0.0,0.0,0.0,0.0,0.78,
1.361,91.52310564481596,95.62801579309466,-3.7,-2.4,2.04,0.0,0.0,0.0,1.0,0.0,0.0,0.0,0.0,0.0,0.69,
1.385,91.7273105644816,95.61180157930947,-3.98,-0.72,0.67,0.0,0.0,0.0,1.0,0.0,0.0,0.0,0.0,0.0,1.18,
1.41,91.95473105644817,95.70918015793094,-2.78,-1.97,1.64,0.0,0.0,0.0,1.0,0.0,0.0,0.0,0.0,0.0,1.18,
1.433,92.07647310564482,95.7189180157931,-4.01,-0.68,2.34,0.0,0.0,0.0,1.0,0.0,0.0,0.0,0.1,0.0,0.29,
1.457,92.16064731056449,95.68389180157932,-4.47,0.79,0.51,0.0,0.0,0.0,1.0,0.0,0.0,0.0,0.1,0.0,0.59,
1.48,92.07006473105645,95.78838918015794,-1.57,-1.42,0.93,0.0,0.0,0.0,1.0,0.0,0.0,0.0,0.0,0.0,0.29,
1.505,92.03400647310565,95.99683891801578,-3.05,-0.17,-1.05,0.0,0.0,0.0,1.0,0.0,0.0,0.0,0.0,0.0,0.1,
1.528,91.97640064731056,96.13468389180159,-5.1,-0.44,-1.01,0.0,0.0,0.0,1.0,0.0,0.0,0.0,0.1,0.0,1.08,
1.553,91.96164006473106,96.35546838918016,-4.07,-1.01,-1.56,0.0,0.0,0.0,1.0,0.0,0.0,0.0,0.0,0.0,0.39,
1.576,92.02316400647311,96.56654683891803,-2.71,-0.1,-0.31,0.0,0.0,0.0,1.0,0.0,0.0,0.0,0.0,0.0,0.88,
1.601,91.91231640064731,96.56065468389181,-1.02,0.9,0.85,0.0,0.0,0.0,1.0,0.0,0.0,0.0,0.0,0.0,1.67,
1.625,91.86523164006474,96.56906546838917,-0.28,-1.16,-0.02,0.0,0.0,0.0,1.0,0.0,0.0,0.0,0.0,0.0,1.47,
1.648,91.87852316400647,96.62390654683891,-1.15,-0.77,0.5,0.0,0.0,0.0,1.0,0.0,0.0,0.0,0.1,0.0,0.78,
1.673,91.88885231640066,96.5213906546839,-2.05,-0.34,1.65,0.0,0.0,0.0,1.0,0.0,0.0,0.0,0.0,0.0,0.69,
1.696,91.84488523164006,96.3941390654684,-2.18,0.93,0.54,0.0,0.0,0.0,1.0,0.0,0.0,0.0,0.0,0.0,0.98,
1.72,91.687488523164,96.29141390654684,-0.55,0.28,0.58,0.0,0.0,0.0,1.0,0.0,0.0,0.0,0.0,0.0,1.57,
1.743,91.5637488523164,96.15514139065468,-0.66,-0.91,0.38,0.0,0.0,0.0,1.0,0.0,0.0,0.0,0.0,0.0,0.78,
1.768,91.49737488523164,95.98851413906547,-2.98,-1.82,1.34,0.0,0.0,0.0,1.0,0.0,0.0,0.0,0.1,0.0,0.88,
1.792,91.61673748852316,95.85485141390654,-5.95,-1.4,3.4,0.0,0.0,0.0,1.0,0.0,0.0,0.0,0.0,0.0,0.59,
1.815,91.87167374885232,95.60748514139065,-7.19,0.4,3.37,0.0,0.0,0.0,1.0,0.0,0.0,0.0,0.1,0.0,1.18,
1.84,92.08616737488524,95.44774851413908,-7.38,0.95,1.65,0.0,0.0,0.0,1.0,0.0,0.0,0.0,0.0,0.0,0.78,
1.863,92.28761673748853,95.3957748514139,-8.24,1.1,-0.85,0.0,0.0,0.0,1.0,0.0,0.0,0.0,0.1,0.0,1.57,
1.887,92.48776167374885,95.5165774851414,-6.86,-0.94,-0.18,0.0,0.0,0.0,1.0,0.0,0.0,0.0,0.0,0.0,0.59,
1.911,92.70577616737489,95.80765774851415,-6.0,0.76,1.32,0.0,0.0,0.0,1.0,0.0,0.0,0.0,0.0,0.0,0.29,
1.935,92.75457761673749,95.9447657748514,-7.5,2.05,1.64,0.0,0.0,0.0,1.0,0.0,0.0,0.0,0.1,0.0,0.1,
1.958,92.75045776167376,95.76947657748514,-6.56,0.79,0.54,0.0,0.0,0.0,1.0,0.0,0.0,0.0,0.0,0.0,0.0,
1.983,92.57004577616738,95.50894765774851,-5.11,-0.15,-1.2,0.0,0.0,0.0,1.0,0.0,0.0,0.0,0.0,0.0,0.98,
2.007,92.55200457761674,95.37489476577485,-5.88,0.81,-1.48,0.0,0.0,0.0,1.0,0.0,0.0,0.0,0.0,0.0,0.59,
2.03,92.46920045776167,95.06448947657748,-7.7,1.29,-3.13,0.0,0.0,0.0,1.0,0.0,0.0,0.0,0.0,0.0,0.88,
2.055,92.14592004577617,94.71844894765775,-7.66,0.45,-3.87,0.0,0.0,0.0,1.0,0.0,0.0,0.0,0.0,0.0,0.49,
2.078,91.83459200457762,94.35984489476576,-8.64,-1.54,-2.89,0.0,0.0,0.0,1.0,0.0,0.0,0.0,0.0,0.0,4.02,
2.102,91.59645920045776,93.81998448947658,-10.89,-2.21,-3.41,0.0,0.0,0.0,1.0,0.0,0.0,0.0,0.1,0.0,3.63,
2.126,91.45564592004578,93.32499844894765,-10.92,-5.57,-0.6,0.0,0.0,0.0,1.0,0.0,0.0,0.0,0.1,0.0,2.16,
2.15,91.27956459200458,93.12249984489475,-13.3,-4.43,1.43,0.0,0.0,0.0,1.0,0.0,0.0,0.0,0.0,0.0,0.88,
2.174,91.35195645920047,92.85924998448947,-14.92,-5.21,2.76,0.0,0.0,0.0,1.0,0.0,0.0,0.0,0.1,0.0,1.28,
2.198,91.37719564592005,92.80592499844894,-15.31,-8.12,3.43,0.0,0.0,0.0,1.0,0.0,0.0,0.0,0.1,0.0,1.57,
2.223,91.73971956459201,92.75559249984491,-17.34,-4.13,4.95,0.0,0.0,0.0,1.0,0.0,0.0,0.0,0.0,0.0,0.0,
2.246,92.0819719564592,92.7235592499845,-17.36,1.98,6.93,0.0,0.0,0.0,1.0,0.0,0.0,0.0,0.1,0.0,0.0,
2.27,92.08019719564592,92.63035592499845,-13.3,3.47,3.47,0.0,0.0,0.0,0.0,0.0,0.0,0.0,0.0,0.0,0.78,
2.294,92.02601971956459,92.63903559249985,-10.9,1.95,1.04,0.0,0.0,0.0,0.0,0.0,0.0,0.0,0.0,0.0,5.69,
2.318,92.31760197195645,92.70290355924998,-12.85,0.02,2.82,0.0,0.0,0.0,0.0,0.0,0.0,0.0,0.0,0.0,2.75,
2.341,92.84176019719565,92.628290355925,-14.37,-3.35,4.11,0.0,0.0,0.0,0.0,0.0,0.0,0.0,0.1,0.0,1.37,
2.366,93.04717601971956,92.2518290355925,-14.79,-3.74,5.15,0.0,0.0,0.0,0.0,0.0,0.0,0.0,0.0,0.0,1.57,
2.39,93.03171760197196,91.89918290355925,-17.0,0.44,4.26,0.0,0.0,0.0,0.0,0.0,0.0,0.0,0.0,0.0,3.83,
2.414,93.07517176019721,91.80091829035592,-18.21,2.58,0.72,0.0,0.0,0.0,0.0,0.0,0.0,0.0,0.0,0.0,1.67,
2.438,92.98051717601972,91.52109182903558,-15.02,-0.82,-1.43,0.0,0.0,0.0,0.0,0.0,0.0,0.0,0.0,0.0,1.96,
2.461,92.92605171760196,91.62810918290356,-12.64,-5.15,-1.04,0.0,0.0,0.0,0.0,0.0,0.0,0.0,0.0,0.0,0.29,
2.486,93.17260517176021,91.66581091829036,-11.31,-8.79,-0.64,0.0,0.0,0.0,0.0,0.0,0.0,0.0,0.0,0.0,1.37,
2.509,93.13426051717602,91.90358109182904,-11.42,-11.03,7.29,0.0,0.0,0.0,0.0,0.0,0.0,0.0,0.0,0.0,0.0,
2.533,92.77942605171759,91.7293581091829,-9.79,-2.27,1.21,0.0,0.0,0.0,0.0,0.0,0.0,0.0,0.0,0.0,2.26,
2.557,92.52794260517176,91.4599358109183,-7.98,0.97,-3.79,0.0,0.0,0.0,0.0,0.0,0.0,0.0,0.0,0.0,2.06,
2.581,92.26879426051717,91.23499358109183,-8.35,0.0,-2.29,0.0,0.0,0.0,0.0,0.0,0.0,0.0,0.0,0.0,0.0,
2.605,91.90087942605172,90.7084993581092,-8.36,-3.73,-1.82,0.0,0.0,0.0,0.0,0.0,0.0,0.0,0.0,0.0,0.49,
2.628,91.41408794260518,89.82784993581092,-9.71,-6.27,-2.21,0.0,0.0,0.0,0.0,0.0,0.0,0.0,0.0,0.0,2.45,
2.653,90.87940879426051,89.0017849935811,-12.98,-7.51,-1.87,0.0,0.0,0.0,0.0,0.0,0.0,0.0,0.0,0.0,1.37,
2.676,90.71794087942607,88.17217849935811,-18.07,-11.92,-3.64,0.0,0.0,0.0,0.0,0.0,0.0,0.0,0.0,0.0,0.0,
2.7,90.54879408794261,87.39621784993582,-23.39,-13.15,-0.82,0.0,0.0,0.0,0.0,0.0,0.0,0.0,0.0,0.0,1.77,
2.724,90.42387940879426,86.67062178499359,-25.18,-13.41,0.36,0.0,0.0,0.0,0.0,0.0,0.0,0.0,0.1,0.0,0.0,
2.748,90.60938794087942,86.23806217849935,-25.07,-12.89,-0.28,0.0,0.0,0.0,0.0,0.0,0.0,0.0,0.0,0.0,0.0,
2.772,91.18593879408795,86.14080621784993,-26.19,-8.26,-0.23,0.0,0.0,0.0,0.0,0.0,0.0,0.0,0.0,0.0,0.0,
2.796,91.63959387940879,86.302080621785,-28.15,-2.05,0.24,0.0,0.0,0.0,0.0,0.0,0.0,0.0,0.1,0.0,1.67,
2.82,91.80195938794087,86.53420806217851,-23.02,1.41,0.18,0.0,0.0,0.0,0.0,0.0,0.0,0.0,0.1,0.0,0.49,
2.844,91.85419593879409,86.98042080621785,-15.31,-0.32,1.32,0.0,0.0,0.0,0.0,0.0,0.0,0.0,0.0,0.0,0.0,
2.868,91.6614195938794,87.16004208062179,-11.61,-2.62,-3.02,0.0,0.0,0.0,0.0,0.0,0.0,0.0,0.0,0.0,3.63,
2.891,91.54314195938795,87.34900420806218,-7.97,-4.55,-5.77,0.0,0.0,0.0,0.0,0.0,0.0,0.0,0.0,0.0,0.0,
2.916,94.8523141959388,92.29090042080622,11.79,12.7,-42.99,0.0,0.0,0.0,1.0,0.0,0.0,0.0,0.0,0.0,0.0,
2.939,94.67923141959388,91.05709004208063,-16.76,3.33,44.82,1.0,0.0,0.0,2.0,0.0,0.0,0.0,0.69,0.29,2.35,
2.964,92.32192314195939,89.19670900420806,-17.17,-0.44,-17.05,1.0,0.0,0.0,2.0,0.0,0.0,0.0,1.67,0.39,4.91,
2.988,91.69019231419595,87.5706709004208,-4.55,3.06,-11.18,0.0,0.0,0.0,1.0,0.0,0.0,0.0,1.67,0.0,0.0,
3.012,92.7700192314196,87.84906709004207,-1.66,3.92,-7.85,1.0,0.0,0.0,1.0,0.0,0.0,0.0,0.88,0.0,13.44,
3.036,94.54300192314194,88.01190670900421,-3.04,5.66,-0.37,1.0,0.0,0.0,1.0,0.0,0.0,0.0,0.78,0.0,8.24,
3.06,94.0813001923142,87.49719067090041,-5.39,-2.91,3.13,1.0,0.0,0.0,2.0,0.0,0.0,0.0,0.98,0.0,32.47,
3.084,92.74813001923143,86.74371906709004,-5.95,-2.33,2.15,1.0,0.0,0.0,2.0,0.0,0.0,0.0,1.47,0.0,0.0,
3.107,91.88581300192314,86.245371906709,-7.38,5.87,-2.31,1.0,0.0,0.0,2.0,0.0,0.0,0.0,1.57,0.0,4.51,
3.131,92.2585813001923,86.0335371906709,-8.08,8.56,-3.96,1.0,0.0,0.0,2.0,0.0,0.0,0.0,1.47,0.0,2.75,
3.155,92.87185813001923,85.93135371906709,-9.4,6.07,-4.27,1.0,0.0,0.0,2.0,0.0,0.0,0.0,1.28,0.0,0.0,
3.179,92.78018581300192,85.50713537190671,-5.12,-1.82,1.63,1.0,0.0,0.0,2.0,0.0,0.0,0.0,1.37,0.0,0.0,
3.203,92.22201858130019,85.22171353719068,-4.6,1.69,1.97,1.0,0.0,0.0,3.0,0.0,0.0,0.0,1.57,0.0,0.0,
3.226,92.21120185813001,85.11217135371908,-4.6,4.3,2.13,1.0,0.0,0.0,3.0,0.0,0.0,0.0,1.67,0.0,0.0,
3.251,92.507120185813,84.9572171353719,-4.03,2.96,0.97,1.0,0.0,0.0,3.0,0.0,0.0,0.0,1.57,0.0,3.24,
3.274,92.7347120185813,84.7797217135372,-2.26,1.23,2.76,1.0,0.0,0.0,3.0,0.0,0.0,0.0,1.77,0.0,18.64,
3.298,92.63147120185813,84.72597217135372,-2.19,-0.73,5.34,1.0,0.0,0.0,3.0,0.0,0.0,0.0,1.86,0.0,0.0,
3.321,92.42314712018582,84.55859721713539,-2.94,1.99,0.64,1.0,0.0,0.0,3.0,0.0,0.0,0.0,1.86,0.0,0.0,
3.346,92.4023147120186,84.45185972171353,-3.64,1.34,-0.23,1.0,0.0,0.0,3.0,0.0,0.0,0.0,1.86,0.0,0.0,
3.369,92.47223147120185,84.36018597217134,-3.44,0.86,-0.64,1.0,0.0,0.0,3.0,0.0,0.0,0.0,1.96,0.0,0.0,
3.393,92.54222314712018,84.39601859721714,-2.92,1.45,0.22,1.0,0.0,0.0,3.0,0.0,0.0,0.0,1.86,0.0,0.0,
3.418,92.58522231471201,84.37260185972173,-2.97,1.56,0.43,1.0,0.0,0.0,3.0,0.0,0.0,0.0,1.86,0.0,0.0,
3.441,92.58952223147121,84.38826018597217,-2.59,1.02,1.65,1.0,0.0,0.0,3.0,0.0,0.0,0.0,1.86,0.0,0.0,
3.465,92.61695222314712,84.29082601859722,-3.08,0.95,0.08,1.0,0.0,0.0,3.0,0.0,0.0,0.0,1.77,0.0,0.0,
3.488,92.69169522231472,84.29908260185972,-3.11,-0.85,0.65,1.0,0.0,0.0,3.0,0.0,0.0,0.0,1.86,0.0,0.1,
3.513,92.72616952223147,84.31790826018596,-2.89,-1.37,0.85,1.0,0.0,0.0,3.0,0.0,0.0,0.0,1.86,0.0,2.06,
3.536,92.76561695222314,84.34679082601859,-2.99,-1.38,1.15,1.0,0.0,0.0,3.0,0.0,0.0,0.0,1.86,0.0,0.0,
3.56,92.68856169522232,84.25967908260186,-2.58,-0.13,1.33,1.0,0.0,0.0,3.0,0.0,0.0,0.0,1.86,0.0,0.98,
3.585,92.65385616952224,84.16996790826019,-2.53,-0.21,1.04,1.0,0.0,0.0,3.0,0.0,0.0,0.0,1.86,0.0,0.0,
3.608,92.57838561695223,84.17899679082603,-2.92,0.35,1.01,1.0,0.0,0.0,3.0,0.0,0.0,0.0,1.96,0.0,0.0,
3.632,92.58883856169523,84.2248996790826,-3.43,0.59,0.5,1.0,0.0,0.0,3.0,0.0,0.0,0.0,1.96,0.0,0.78,
3.656,92.66188385616952,84.20248996790826,-2.15,-0.27,0.63,1.0,0.0,0.0,3.0,0.0,0.0,0.0,1.86,0.0,0.0,
3.68,92.59718838561696,84.20924899679082,-2.36,-0.03,0.85,1.0,0.0,0.0,3.0,0.0,0.0,0.0,1.77,0.0,0.0,
3.703,92.6357188385617,84.27292489967908,-3.42,0.16,0.11,1.0,0.0,0.0,3.0,0.0,0.0,0.0,1.67,0.0,0.49,
3.728,92.71157188385618,84.20729248996791,-3.79,-0.26,-0.37,1.0,0.0,0.0,3.0,0.0,0.0,0.0,1.77,0.0,0.49,
3.751,92.77315718838562,84.2007292489968,-2.66,-1.36,0.56,1.0,0.0,0.0,3.0,0.0,0.0,0.0,1.77,0.0,0.0,
3.775,92.77031571883856,84.26307292489969,-3.03,-0.22,0.44,1.0,0.0,0.0,3.0,0.0,0.0,0.0,1.77,0.0,0.2,
3.8,92.81503157188385,84.23330729248997,-2.8,0.34,0.5,1.0,0.0,0.0,3.0,0.0,0.0,0.0,1.67,0.0,0.2,
3.823,92.8375031571884,84.23933072924899,-2.49,0.0,0.85,1.0,0.0,0.0,3.0,0.0,0.0,0.0,1.67,0.0,0.2,
3.847,92.83975031571885,84.2219330729249,-2.89,0.25,0.18,1.0,0.0,0.0,3.0,0.0,0.0,0.0,1.67,0.0,0.78,
3.87,92.96597503157189,84.21119330729249,-2.68,0.09,0.29,1.0,0.0,0.0,3.0,0.0,0.0,0.0,1.67,0.0,0.69,
3.895,93.05959750315718,84.19211933072924,-2.66,-1.09,0.44,1.0,0.0,0.0,3.0,0.0,0.0,0.0,1.67,0.0,0.98,
3.918,93.05095975031571,84.22621193307293,-2.78,-1.16,0.26,1.0,0.0,0.0,3.0,0.0,0.0,0.0,1.67,0.0,0.1,
3.942,93.01409597503158,84.1936211933073,-2.95,-1.44,0.38,1.0,0.0,0.0,3.0,0.0,0.0,0.0,1.77,0.0,0.0,
3.966,93.11840959750315,84.23536211933073,-3.16,-1.28,-0.34,1.0,0.0,0.0,3.0,0.0,0.0,0.0,1.77,0.0,0.2,
3.99,93.09284095975032,84.27553621193307,-2.84,-1.11,-0.15,1.0,0.0,0.0,3.0,0.0,0.0,0.0,1.77,0.0,0.39,
4.014,93.09928409597502,84.24355362119331,-2.95,-1.38,0.33,1.0,0.0,0.0,3.0,0.0,0.0,0.0,1.67,0.0,1.57,
4.038,93.09092840959751,84.25835536211933,-3.18,-1.27,0.34,1.0,0.0,0.0,3.0,0.0,0.0,0.0,1.77,0.0,0.2,
4.062,93.00909284095975,84.25983553621194,-3.21,-1.02,0.31,1.0,0.0,0.0,3.0,0.0,0.0,0.0,1.67,0.0,0.49,
4.086,93.09990928409599,84.2599835536212,-3.24,-1.06,0.11,1.0,0.0,0.0,3.0,0.0,0.0,0.0,1.67,0.0,0.59,
4.11,93.1359909284096,84.25099835536213,-3.46,-1.47,0.02,1.0,0.0,0.0,3.0,0.0,0.0,0.0,1.77,0.0,0.2,
4.133,93.13059909284095,84.20509983553622,-3.11,-1.66,0.42,1.0,0.0,0.0,3.0,0.0,0.0,0.0,1.67,0.0,0.69,
4.158,93.1120599092841,84.21850998355362,-3.23,-1.64,-0.21,1.0,0.0,0.0,3.0,0.0,0.0,0.0,1.67,0.0,0.98,
4.182,93.09220599092842,84.18385099835538,-3.06,-1.33,0.15,1.0,0.0,0.0,3.0,0.0,0.0,0.0,1.57,0.0,0.78,
4.205,93.04522059909284,84.21638509983553,-3.05,-1.46,-0.69,1.0,0.0,0.0,3.0,0.0,0.0,0.0,1.57,0.0,0.39,
4.23,93.09452205990928,84.23763850998355,-3.11,-1.16,0.14,1.0,0.0,0.0,3.0,0.0,0.0,0.0,1.67,0.0,0.39,
4.253,93.18945220599093,84.21276385099836,-3.01,-1.09,-0.32,1.0,0.0,0.0,3.0,0.0,0.0,0.0,1.57,0.0,0.98,
4.277,93.20794522059909,84.20127638509983,-3.08,-0.81,-0.1,1.0,0.0,0.0,3.0,0.0,0.0,0.0,1.57,0.0,0.69,
4.301,93.17379452205992,84.20012763850998,-3.02,-0.82,0.15,1.0,0.0,0.0,3.0,0.0,0.0,0.0,1.57,0.0,0.69,
4.325,93.179379452206,84.19101276385099,-2.89,-0.66,0.63,1.0,0.0,0.0,3.0,0.0,0.0,0.0,1.67,0.0,0.69,
4.349,93.25193794522062,84.19010127638509,-3.05,-0.73,0.35,1.0,0.0,0.0,3.0,0.0,0.0,0.0,1.57,0.0,0.59,
4.373,93.20519379452207,84.17201012763852,-3.03,-0.49,0.18,1.0,0.0,0.0,3.0,0.0,0.0,0.0,1.67,0.0,1.08,
4.397,93.18251937945222,84.19720101276386,-2.83,-0.53,0.34,1.0,0.0,0.0,3.0,0.0,0.0,0.0,1.67,0.0,1.28,
4.421,93.24325193794522,84.20872010127638,-2.92,-0.63,-0.2,1.0,0.0,0.0,3.0,0.0,0.0,0.0,1.77,0.0,0.49,
4.445,93.21332519379452,84.22787201012764,-2.99,-0.45,0.5,1.0,0.0,0.0,3.0,0.0,0.0,0.0,1.67,0.0,0.2,
4.468,93.21033251937945,84.22978720101277,-3.05,-1.1,0.02,1.0,0.0,0.0,3.0,0.0,0.0,0.0,1.67,0.0,0.29,
4.493,93.15603325193796,84.24797872010127,-3.39,-1.55,0.15,1.0,0.0,0.0,3.0,0.0,0.0,0.0,1.67,0.0,0.29,
4.516,93.1686033251938,84.22279787201013,-2.99,-1.41,0.29,1.0,0.0,0.0,3.0,0.0,0.0,0.0,1.67,0.0,0.0,
4.54,93.16986033251939,84.139279787201,-3.18,-1.34,0.13,1.0,0.0,0.0,3.0,0.0,0.0,0.0,1.67,0.0,0.0,
4.564,93.10698603325193,84.14892797872011,-3.26,-1.44,-0.32,1.0,0.0,0.0,3.0,0.0,0.0,0.0,1.57,0.0,0.1,
4.588,93.1636986033252,84.19489279787201,-3.16,-1.08,0.15,1.0,0.0,0.0,3.0,0.0,0.0,0.0,1.67,0.0,0.29,
4.612,93.16936986033252,84.1994892797872,-3.0,-1.05,0.65,1.0,0.0,0.0,3.0,0.0,0.0,0.0,1.57,0.0,0.1,
4.636,93.15193698603326,84.19994892797872,-2.83,-1.05,0.31,1.0,0.0,0.0,3.0,0.0,0.0,0.0,1.67,0.0,0.78,
4.66,93.17719369860333,84.26299489279788,-3.1,-1.02,-0.21,1.0,0.0,0.0,3.0,0.0,0.0,0.0,1.67,0.0,0.98,
4.684,93.21571936986032,84.23329948927979,-3.16,-0.45,-0.03,1.0,0.0,0.0,3.0,0.0,0.0,0.0,1.67,0.0,0.88,
4.708,93.24657193698603,84.23932994892797,-3.28,-1.0,-0.37,1.0,0.0,0.0,3.0,0.0,0.0,0.0,1.77,0.0,1.08,
4.731,93.2676571936986,84.2399329948928,-2.79,-0.62,0.12,1.0,0.0,0.0,3.0,0.0,0.0,0.0,1.67,0.0,1.37,
4.756,93.26976571936986,84.24899329948929,-3.05,-0.79,0.56,1.0,0.0,0.0,3.0,0.0,0.0,0.0,1.77,0.0,0.0,
4.78,93.34197657193698,84.24089932994893,-3.23,-1.03,0.18,1.0,0.0,0.0,3.0,0.0,0.0,0.0,1.67,0.0,0.0,
4.803,93.3221976571937,84.24908993299489,-3.21,-1.06,-0.01,1.0,0.0,0.0,3.0,0.0,0.0,0.0,1.77,0.0,0.49,
4.828,93.31121976571937,84.24990899329948,-3.0,-1.08,0.37,1.0,0.0,0.0,3.0,0.0,0.0,0.0,1.67,0.0,0.1,
4.851,93.30112197657193,84.23199089932994,-3.26,-1.44,0.18,1.0,0.0,0.0,3.0,0.0,0.0,0.0,1.67,0.0,0.39,
4.875,93.34511219765719,84.230199089933,-3.09,-0.98,0.6,1.0,0.0,0.0,3.0,0.0,0.0,0.0,1.77,0.0,0.0,
4.899,93.34951121976572,84.2570199089933,-2.95,-1.08,-0.03,1.0,0.0,0.0,3.0,0.0,0.0,0.0,1.67,0.0,0.29,
4.923,93.28695112197657,84.27770199089933,-3.13,-0.85,0.47,1.0,0.0,0.0,3.0,0.0,0.0,0.0,1.77,0.0,0.49,
4.947,93.27169511219765,84.27977019908994,-3.4,-0.6,0.26,1.0,0.0,0.0,3.0,0.0,0.0,0.0,1.77,0.0,1.57,
4.971,93.33316951121977,84.31597701990898,-3.31,-1.0,0.14,1.0,0.0,0.0,3.0,0.0,0.0,0.0,1.77,0.0,0.88,
4.995,93.36631695112197,84.2745977019909,-3.3,-1.39,-0.11,1.0,0.0,0.0,3.0,0.0,0.0,0.0,1.77,0.0,0.29,
5.019,93.35163169511219,84.2254597701991,-3.13,-1.53,-0.11,1.0,0.0,0.0,3.0,0.0,0.0,0.0,1.67,0.0,0.0,
5.043,93.34116316951122,84.17554597701991,-3.23,-0.88,-0.27,1.0,0.0,0.0,3.0,0.0,0.0,0.0,1.77,0.0,0.0,
5.066,93.37611631695113,84.170554597702,-3.46,-1.17,-0.09,1.0,0.0,0.0,4.0,0.0,0.0,0.0,1.77,0.0,1.77,
5.091,93.32561163169511,84.2150554597702,-3.27,-1.37,0.07,1.0,0.0,0.0,4.0,0.0,0.0,0.0,1.77,0.0,0.49,
5.114,93.35656116316952,84.13850554597701,-3.27,-1.37,-0.27,1.0,0.0,0.0,4.0,0.0,0.0,0.0,1.77,0.0,1.47,
5.139,93.37765611631696,84.1308505545977,-3.15,-1.12,0.37,1.0,0.0,0.0,4.0,0.0,0.0,0.0,1.77,0.0,0.59,
5.163,93.3977656116317,84.13908505545977,-3.34,-1.23,-0.18,1.0,0.0,0.0,4.0,0.0,0.0,0.0,1.77,0.0,2.45,
5.186,93.41777656116317,84.13090850554597,-3.13,-0.63,0.11,1.0,0.0,0.0,4.0,0.0,0.0,0.0,1.86,0.0,0.0,
5.211,93.41077765611632,84.1660908505546,-3.29,-0.44,0.08,1.0,0.0,0.0,4.0,0.0,0.0,0.0,1.77,0.0,0.1,
5.234,93.45507776561162,84.13360908505545,-3.15,-1.49,-0.37,1.0,0.0,0.0,4.0,0.0,0.0,0.0,1.77,0.0,0.39,
5.259,93.48650777656115,84.10336090850554,-2.94,-0.93,0.27,1.0,0.0,0.0,4.0,0.0,0.0,0.0,1.77,0.0,0.0,
5.282,93.45365077765612,84.15433609085055,-2.89,-1.43,-0.25,1.0,0.0,0.0,4.0,0.0,0.0,0.0,1.86,0.0,0.0,
5.306,93.36936507776561,84.12343360908507,-3.11,-1.62,0.27,1.0,0.0,0.0,4.0,0.0,0.0,0.0,1.77,0.0,0.2,
5.33,93.40593650777656,84.14734336090852,-2.98,-1.43,0.13,1.0,0.0,0.0,4.0,0.0,0.0,0.0,1.77,0.0,0.0,
5.354,93.44559365077765,84.15873433609084,-3.13,-1.6,-0.24,1.0,0.0,0.0,4.0,0.0,0.0,0.0,1.77,0.0,0.2,
5.378,93.40455936507777,84.23187343360908,-2.97,-1.06,0.04,1.0,0.0,0.0,4.0,0.0,0.0,0.0,1.77,0.0,0.49,
5.402,93.38245593650778,84.23018734336091,-3.04,-1.07,-0.15,1.0,0.0,0.0,4.0,0.0,0.0,0.0,1.77,0.0,0.59,
5.426,93.40724559365077,84.17601873433608,-2.95,-1.13,0.11,1.0,0.0,0.0,4.0,0.0,0.0,0.0,1.86,0.0,0.49,
5.449,93.38272455936507,84.16160187343361,-2.98,-0.89,0.24,1.0,0.0,0.0,4.0,0.0,0.0,0.0,1.77,0.0,0.49,
5.474,93.3622724559365,84.15116018734338,-3.21,-1.03,0.01,1.0,0.0,0.0,4.0,0.0,0.0,0.0,1.77,0.0,0.59,
5.497,93.36922724559365,84.14111601873434,-3.18,-1.07,0.08,1.0,0.0,0.0,4.0,0.0,0.0,0.0,1.86,0.0,0.49,
5.521,93.38792272455936,84.15811160187343,-2.96,-0.96,0.25,1.0,0.0,0.0,4.0,0.0,0.0,0.0,1.77,0.0,0.49,
5.545,93.36279227245593,84.16881116018735,-3.05,-1.13,0.06,1.0,0.0,0.0,4.0,0.0,0.0,0.0,1.77,0.0,0.0,
5.569,93.36927922724558,84.15188111601874,-2.92,-1.26,0.06,1.0,0.0,0.0,4.0,0.0,0.0,0.0,1.86,0.0,0.0,
5.593,93.45992792272456,84.12318811160189,-3.06,-1.37,0.22,1.0,0.0,0.0,4.0,0.0,0.0,0.0,1.77,0.0,0.0,
5.617,93.45099279227246,84.13831881116019,-3.11,-1.76,-0.05,1.0,0.0,0.0,4.0,0.0,0.0,0.0,1.77,0.0,0.49,
5.641,93.49509927922725,84.13983188111601,-2.8,-1.79,0.3,1.0,0.0,0.0,4.0,0.0,0.0,0.0,1.77,0.0,0.49,
5.665,93.50850992792273,84.1399831881116,-2.89,-1.15,0.46,1.0,0.0,0.0,4.0,0.0,0.0,0.0,1.77,0.0,0.59,
5.689,93.45585099279228,84.12199831881117,-3.11,-0.84,0.31,1.0,0.0,0.0,4.0,0.0,0.0,0.0,1.77,0.0,0.88,
5.712,93.44158509927922,84.13819983188111,-3.22,-0.68,0.11,1.0,0.0,0.0,4.0,0.0,0.0,0.0,1.77,0.0,1.28,
5.737,93.48515850992791,84.1308199831881,-3.09,-0.98,-0.25,1.0,0.0,0.0,4.0,0.0,0.0,0.0,1.67,0.0,1.08,
5.761,93.46251585099279,84.07608199831881,-3.06,-1.27,-0.04,1.0,0.0,0.0,4.0,0.0,0.0,0.0,1.77,0.0,1.47,
5.784,93.48725158509927,84.09760819983188,-2.97,-1.49,0.29,1.0,0.0,0.0,4.0,0.0,0.0,0.0,1.77,0.0,0.78,
5.809,93.43572515850992,84.0907608199832,-3.24,-1.26,0.21,1.0,0.0,0.0,4.0,0.0,0.0,0.0,1.77,0.0,0.49,
5.832,93.394572515851,84.10807608199832,-3.09,-1.33,0.02,1.0,0.0,0.0,4.0,0.0,0.0,0.0,1.77,0.0,0.0,
5.856,93.4264572515851,84.11880760819984,-3.05,-1.1,-0.09,1.0,0.0,0.0,4.0,0.0,0.0,0.0,1.77,0.0,0.69,
5.88,93.4836457251585,84.16488076081998,-2.98,-1.22,0.0,1.0,0.0,0.0,4.0,0.0,0.0,0.0,1.77,0.0,0.59,
5.904,93.44436457251585,84.160488076082,-2.93,-1.22,0.27,1.0,0.0,0.0,4.0,0.0,0.0,0.0,1.77,0.0,0.88,
5.927,93.46743645725158,84.1600488076082,-3.07,-1.24,0.08,1.0,0.0,0.0,4.0,0.0,0.0,0.0,1.77,0.0,0.78,
5.952,93.46074364572515,84.16900488076082,-2.94,-1.3,0.27,1.0,0.0,0.0,4.0,0.0,0.0,0.0,1.77,0.0,0.59,
5.976,93.4600743645725,84.16990048807608,-3.18,-1.6,-0.18,1.0,0.0,0.0,4.0,0.0,0.0,0.0,1.77,0.0,0.69,
6.0,93.47800743645726,84.2149900488076,-3.02,-1.27,0.18,1.0,0.0,0.0,4.0,0.0,0.0,0.0,1.86,0.0,0.59,
6.024,93.52480074364573,84.21049900488076,-3.22,-1.25,0.05,1.0,0.0,0.0,4.0,0.0,0.0,0.0,1.67,0.0,0.2,
6.047,93.59248007436457,84.16504990048807,-3.17,-1.17,0.15,1.0,0.0,0.0,4.0,0.0,0.0,0.0,1.77,0.0,0.2,
6.072,93.59024800743646,84.1605049900488,-2.98,-1.49,-0.02,1.0,0.0,0.0,4.0,0.0,0.0,0.0,1.77,0.0,0.1,
6.095,93.56302480074365,84.19605049900488,-3.0,-1.6,0.05,1.0,0.0,0.0,4.0,0.0,0.0,0.0,1.77,0.0,0.2,
6.119,93.55130248007436,84.19960504990048,-3.21,-1.57,-0.22,1.0,0.0,0.0,4.0,0.0,0.0,0.0,1.67,0.0,0.29,
6.144,93.50513024800745,84.22696050499005,-3.21,-1.37,0.49,1.0,0.0,0.0,4.0,0.0,0.0,0.0,1.67,0.0,0.2,
6.167,93.31151302480076,84.175696050499,-3.7,-1.53,0.73,1.0,0.0,0.0,4.0,0.0,0.0,0.0,1.77,0.0,0.0,
6.191,93.29215130248008,84.2065696050499,-3.53,-1.89,0.4,1.0,0.0,0.0,3.0,0.0,0.0,0.0,1.67,0.0,0.69,
6.215,93.299215130248,84.16465696050498,-3.7,-2.08,0.43,1.0,0.0,0.0,3.0,0.0,0.0,0.0,1.57,0.0,0.0,
6.239,93.3269215130248,84.0704656960505,-4.33,-3.12,-0.63,1.0,0.0,0.0,3.0,0.0,0.0,0.0,1.47,0.0,0.1,
6.262,93.37469215130248,84.00704656960505,-4.22,-2.03,-1.71,1.0,0.0,0.0,3.0,0.0,0.0,0.0,1.37,0.0,0.0,
6.287,93.47846921513023,84.0187046569605,-3.38,-2.0,-0.18,1.0,0.0,0.0,2.0,0.0,0.0,0.0,1.28,0.0,2.16,
6.31,93.53384692151303,84.04687046569605,-2.34,-1.37,-0.52,1.0,0.0,0.0,2.0,0.0,0.0,0.0,1.18,0.0,8.04,
6.335,93.41338469215131,84.0766870465696,-2.38,-0.09,0.44,1.0,0.0,0.0,2.0,0.0,0.0,0.0,1.08,0.0,10.79,
6.359,93.21233846921513,84.06166870465697,-3.5,0.48,0.55,1.0,0.0,0.0,2.0,0.0,0.0,0.0,1.08,0.0,5.4,
6.382,93.39023384692152,84.08716687046571,-3.14,0.56,0.11,1.0,0.0,0.0,2.0,0.0,0.0,0.0,0.98,0.0,4.71,
6.407,93.60602338469215,84.09871668704656,-1.99,-0.43,1.03,1.0,0.0,0.0,2.0,0.0,0.0,0.0,0.98,0.0,2.26,
6.43,93.62760233846922,84.12687166870465,-1.75,-0.81,0.66,1.0,0.0,0.0,2.0,0.0,0.0,0.0,1.08,0.0,2.26,
6.454,93.52176023384692,84.17468716687048,-1.89,-1.62,1.28,1.0,0.0,0.0,2.0,0.0,0.0,0.0,1.08,0.0,0.0,
6.478,93.43017602338469,84.12546871668707,-2.5,-2.05,-0.05,1.0,0.0,0.0,2.0,0.0,0.0,0.0,0.98,0.0,2.26,
6.502,93.44801760233847,84.0845468716687,-1.84,-1.56,-0.11,1.0,0.0,0.0,2.0,0.0,0.0,0.0,1.08,0.0,1.47,
6.526,93.45880176023384,84.15245468716687,-1.21,-1.09,-0.05,1.0,0.0,0.0,3.0,0.0,0.0,0.0,1.08,0.0,0.0,
6.55,93.54088017602338,84.21324546871669,-1.47,-0.91,0.78,1.0,0.0,0.0,3.0,0.0,0.0,0.0,0.98,0.0,3.34,
6.574,93.62108801760233,84.28232454687168,-1.23,-0.82,0.72,1.0,0.0,0.0,3.0,0.0,0.0,0.0,1.08,0.0,3.63,
6.598,93.72810880176023,84.39723245468716,-1.34,0.07,1.09,1.0,0.0,0.0,3.0,0.0,0.0,0.0,1.08,0.0,0.0,
6.622,93.63081088017603,84.52572324546873,-1.43,0.8,2.3,1.0,0.0,0.0,3.0,0.0,0.0,0.0,1.08,0.0,1.18,
6.645,93.6390810880176,84.49357232454688,-2.12,1.9,-0.51,1.0,0.0,0.0,3.0,0.0,0.0,0.0,1.37,0.0,0.0,
6.669,93.73890810880175,84.55335723245469,-1.82,1.13,0.34,1.0,0.0,0.0,4.0,0.0,0.0,0.0,1.47,0.0,0.0,
6.693,93.72189081088017,84.68533572324547,-2.37,-0.19,-0.34,2.0,0.0,0.0,4.0,0.0,0.0,0.0,1.57,0.0,0.0,
6.717,93.69318908108801,84.68953357232455,-1.87,-2.28,-0.87,2.0,0.0,0.0,4.0,0.0,0.0,0.0,1.67,0.0,4.41,
6.742,93.4653189081088,84.62695335723245,-2.79,-2.27,-1.26,2.0,0.0,0.0,4.0,0.0,0.0,0.0,1.86,0.0,0.0,
6.765,93.31653189081088,84.53069533572324,-4.14,-0.7,-1.66,2.0,0.0,0.0,5.0,0.0,0.0,0.0,1.96,0.0,0.0,
6.789,93.37365318908108,84.46706953357231,-3.53,-0.03,-2.6,2.0,0.0,0.0,5.0,0.0,0.0,0.0,2.16,0.0,31.59,
6.813,93.26236531890811,84.38870695335723,-4.29,2.66,-2.59,3.0,0.0,0.0,5.0,0.0,0.0,0.0,2.06,0.0,7.46,
6.837,93.17923653189082,84.46187069533572,-5.53,4.37,-3.21,3.0,0.0,0.0,5.0,0.0,0.0,0.0,1.96,0.0,5.0,
6.861,93.34192365318908,84.39718706953357,-6.5,3.94,-4.44,3.0,0.0,0.0,5.0,0.0,0.0,0.0,1.96,0.0,4.32,
6.885,94.0601923653189,84.42671870695337,-6.02,1.23,-3.45,3.0,0.0,0.0,5.0,0.0,0.0,0.0,1.86,0.0,2.16,
6.909,94.4920192365319,84.54667187069533,-4.8,-2.31,0.25,3.0,0.0,0.0,5.0,0.0,0.0,0.0,1.86,0.0,0.0,
6.933,94.22020192365319,84.49566718706953,-5.17,-3.15,2.85,3.0,0.0,0.0,6.0,0.0,0.0,0.0,2.06,0.0,0.0,
6.958,93.6980201923653,84.40056671870695,-5.56,-2.37,-0.34,3.0,0.0,0.0,6.0,0.0,0.0,0.0,1.96,0.2,0.0,
6.981,93.80780201923653,84.2470566718707,-4.36,-2.36,-2.88,3.0,0.0,0.0,6.0,0.0,0.0,0.0,1.86,0.0,1.77,
7.006,94.07978020192365,84.20470566718707,-4.65,-7.92,-3.84,3.0,0.0,0.0,6.0,0.0,0.0,0.0,1.57,0.1,10.99,
7.03,93.82797802019236,84.1914705667187,-5.82,-10.04,-3.02,4.0,0.0,0.0,6.0,0.0,0.0,0.0,1.37,0.0,5.4,
7.054,93.40679780201924,84.08214705667187,-7.61,-10.66,-4.1,4.0,0.0,0.0,6.0,0.0,0.0,0.0,1.18,0.2,0.0,
7.078,93.45467978020191,83.9002147056672,-6.8,-16.06,-5.83,4.0,0.0,0.0,6.0,0.0,1.0,0.0,1.08,0.49,0.0,
7.103,93.69346797802018,84.02602147056673,-8.08,-11.19,-3.6,4.0,0.0,0.0,6.0,0.0,1.0,0.0,0.88,0.59,0.0,
7.127,93.44734679780203,83.87660214705667,-9.29,-12.63,-4.69,5.0,0.0,0.0,7.0,0.0,1.0,1.0,0.88,0.59,0.0,
7.151,92.9637346797802,83.76266021470566,-7.64,-8.75,-1.08,5.0,0.0,0.0,7.0,0.0,1.0,0.0,0.88,0.98,0.0,
7.175,92.69037346797802,83.73326602147057,-7.6,-6.78,-1.3,5.0,0.0,0.0,7.0,0.0,1.0,1.0,0.98,1.18,0.0,
7.199,92.2220373467978,83.67632660214706,-6.85,-3.33,0.11,5.0,0.0,0.0,8.0,0.0,1.0,1.0,1.18,1.57,5.1,
7.224,92.41820373467978,83.49063266021471,-5.84,-6.82,-1.85,5.0,0.0,0.0,8.0,0.0,1.0,1.0,1.37,1.86,0.98,
7.247,92.14982037346797,83.55306326602148,-7.03,-7.06,-0.06,6.0,0.0,0.0,8.0,0.0,1.0,1.0,1.57,2.45,0.0,
7.272,91.95198203734681,83.19030632660215,-4.82,-6.09,-1.2,6.0,0.0,0.0,9.0,0.0,1.0,1.0,2.06,3.04,26.59,
7.297,91.83319820373467,83.06403063266022,-4.79,-6.31,0.48,7.0,0.0,0.0,10.0,0.0,1.0,1.0,2.45,3.92,0.0,
7.32,91.92031982037348,82.87140306326602,-4.48,-8.49,0.7,7.0,0.0,0.0,11.0,0.0,1.0,2.0,2.65,4.61,0.0,
7.345,91.75803198203735,82.70814030632661,-3.9,-8.37,0.24,7.0,0.0,0.0,11.0,0.0,1.0,2.0,2.84,5.1,0.0,
7.369,91.49880319820375,82.81781403063266,-2.46,-6.85,2.83,7.0,0.0,0.0,11.0,0.0,1.0,2.0,3.04,5.4,0.0,
7.393,91.48188031982038,82.86478140306328,-3.74,-10.37,1.62,8.0,0.0,0.0,11.0,0.0,1.0,2.0,3.04,5.59,1.57,
7.417,91.38118803198203,82.88747814030633,-4.59,-13.85,1.5,8.0,0.0,0.0,12.0,0.0,1.0,2.0,3.04,5.69,0.69,
7.442,91.0471188031982,82.90774781403063,-6.17,-8.72,-0.31,8.0,0.0,0.0,12.0,0.0,1.0,2.0,3.04,5.89,0.0,
7.465,91.04071188031983,82.80177478140307,-6.55,-4.3,-3.18,8.0,0.0,0.0,0.0,0.0,1.0,2.0,3.14,5.89,0.0,
7.49,90.80607118803198,82.70117747814031,-7.01,-2.74,-2.63,8.0,0.0,0.0,1.0,0.0,1.0,2.0,3.24,5.98,0.0,
7.515,90.6746071188032,82.62811774781403,-7.81,1.09,-2.63,8.0,0.0,0.0,1.0,0.0,1.0,2.0,3.34,6.08,0.0,
7.538,90.79646071188031,82.6118117747814,-8.23,4.88,-4.22,7.0,0.0,0.0,2.0,0.0,1.0,2.0,3.63,6.28,0.0,
7.563,90.72764607118802,82.44818117747815,-8.54,9.34,-3.96,7.0,0.0,0.0,4.0,0.0,1.0,2.0,4.32,6.38,0.0,
7.587,90.6217646071188,82.32381811774782,-7.22,12.25,-1.21,7.0,0.0,0.0,4.0,0.0,1.0,2.0,5.2,6.87,0.0,
7.611,90.73717646071188,82.3113818117748,-4.45,10.21,4.07,7.0,0.0,0.0,5.0,0.0,1.0,2.0,6.08,7.46,1.08,
7.635,90.90171764607119,82.32813818117748,-2.15,9.28,6.35,7.0,0.0,0.0,6.0,0.0,1.0,2.0,6.97,7.75,1.47,
7.659,91.10717176460712,82.43781381811775,-3.42,10.66,5.85,7.0,0.0,0.0,6.0,0.0,1.0,2.0,7.75,7.95,1.08,
7.684,91.4517171764607,82.42178138181177,-5.25,9.45,6.57,7.0,0.0,0.0,6.0,0.0,1.0,2.0,8.53,8.44,0.0,
7.707,91.81917171764607,82.33017813818117,-4.18,7.34,5.37,6.0,0.0,0.0,6.0,0.0,1.0,2.0,9.81,9.22,1.67,
7.732,92.21591717176462,82.21301781381811,-4.93,7.04,2.09,7.0,0.0,0.0,5.0,0.0,1.0,2.0,11.38,9.91,0.69,
7.756,92.54359171717647,82.19230178138181,-3.93,2.31,1.97,7.0,0.0,0.0,6.0,0.0,1.0,2.0,12.26,10.3,0.0,
7.78,92.74735917171765,82.05523017813819,-2.71,3.26,1.47,6.0,0.0,0.0,6.0,0.0,1.0,2.0,13.05,10.89,0.0,
7.804,92.83973591717177,82.11352301781382,-1.92,-0.34,2.0,7.0,0.0,0.0,6.0,0.0,1.0,2.0,13.54,10.79,0.0,
7.829,92.97497359171717,82.02935230178137,-1.34,-0.26,0.93,6.0,0.0,0.0,7.0,0.0,1.0,2.0,13.73,10.69,0.0,
7.853,92.91649735917171,82.01193523017815,-2.45,-0.29,-1.58,7.0,0.0,0.0,6.0,0.0,1.0,2.0,13.83,10.2,0.0,
7.877,92.91064973591716,81.8931935230178,-1.63,-3.45,-3.58,7.0,0.0,0.0,7.0,0.0,1.0,2.0,14.22,10.01,1.37,
7.902,92.82006497359173,81.93531935230178,-1.67,-3.12,-2.86,7.0,0.0,0.0,8.0,0.0,1.0,2.0,14.22,9.71,0.0,
7.926,92.80200649735917,81.94853193523019,-2.21,-0.99,-0.77,7.0,0.0,0.0,8.0,0.0,1.0,2.0,14.32,9.52,0.0,
7.951,92.80020064973591,82.03085319352303,-2.14,-0.6,-0.73,7.0,0.0,0.0,8.0,0.0,1.0,2.0,14.62,9.61,0.0,
7.974,92.9170200649736,82.1020853193523,-3.02,-1.97,0.23,7.0,0.0,0.0,9.0,0.0,1.0,2.0,14.91,9.71,0.49,
7.999,92.96470200649736,82.16320853193523,-2.56,-0.85,0.4,7.0,0.0,0.0,10.0,0.0,1.0,2.0,15.5,10.3,0.0,
8.024,93.13147020064974,82.21432085319353,-2.76,-0.52,1.34,7.0,1.0,0.0,10.0,0.0,1.0,2.0,16.28,10.99,0.0,
8.048,93.12114702006498,82.17443208531935,-4.13,-0.11,2.49,7.0,1.0,0.0,11.0,0.0,1.0,2.0,16.87,11.77,0.0,
8.072,93.1201147020065,82.17044320853194,-4.98,-0.76,-0.31,7.0,1.0,0.0,11.0,0.0,1.0,2.0,17.76,12.65,0.0,
8.096,92.87701147020064,82.14304432085319,-4.25,-1.98,-2.17,7.0,1.0,0.0,11.0,0.0,1.0,2.0,18.64,13.24,0.0,
8.121,92.85270114702006,82.08630443208531,-3.42,-2.41,-1.02,7.0,1.0,0.0,11.0,0.0,1.0,2.0,19.03,13.83,0.0,
8.145,92.76027011470201,82.08063044320853,-4.9,0.08,-1.34,7.0,1.0,0.0,13.0,0.0,1.0,2.0,19.52,14.42,0.0,
8.17,92.8590270114702,82.02606304432085,-3.85,-0.15,-1.4,8.0,1.0,0.0,13.0,0.0,1.0,2.0,20.11,15.3,0.0,
8.195,92.99490270114703,82.0386063044321,-4.14,-0.01,-1.2,8.0,1.0,0.0,14.0,1.0,1.0,2.0,20.7,16.19,0.0,
8.219,93.07149027011471,82.0668606304432,-4.02,0.26,-0.66,8.0,1.0,0.0,14.0,1.0,1.0,2.0,21.19,17.27,0.0,
8.244,93.08814902701147,82.04268606304433,-4.84,0.41,1.6,8.0,1.0,0.0,15.0,1.0,1.0,2.0,21.88,18.25,0.0,
8.267,93.14381490270115,82.01326860630445,-4.94,0.79,1.02,8.0,1.0,0.0,16.0,1.0,1.0,2.0,22.86,19.52,0.0,
8.292,93.2123814902701,82.03732686063046,-4.63,0.37,1.82,8.0,1.0,0.0,16.0,1.0,1.0,3.0,23.84,20.8,0.0,
8.316,93.30023814902701,81.99473268606305,-4.65,0.77,2.73,8.0,1.0,0.0,17.0,1.0,1.0,3.0,25.21,21.68,0.0,
8.341,93.3990238149027,81.9904732686063,-3.43,0.44,2.91,8.0,1.0,0.0,17.0,1.0,1.0,3.0,26.0,22.27,0.0,
8.365,93.32790238149028,81.92704732686063,-1.33,0.19,4.31,8.0,1.0,0.0,17.0,1.0,1.0,3.0,26.39,22.56,0.0,
8.389,93.45579023814904,81.91170473268606,-1.15,0.63,4.12,8.0,1.0,0.0,16.0,1.0,1.0,3.0,26.39,22.56,0.0,
8.414,93.45057902381491,82.00017047326861,-2.68,0.44,2.5,8.0,1.0,0.0,16.0,1.0,1.0,3.0,25.9,22.37,0.0,
8.438,93.57605790238149,81.91901704732686,-3.56,-1.7,1.82,8.0,1.0,0.0,15.0,1.0,1.0,3.0,25.51,22.07,0.0,
8.462,93.55260579023815,81.9019017047327,-2.73,-3.14,1.15,8.0,1.0,0.0,15.0,1.0,1.0,3.0,25.51,21.29,0.1,
8.486,93.49626057902381,81.89119017047328,-2.22,-3.63,1.04,8.0,1.0,0.0,15.0,1.0,1.0,3.0,25.11,20.6,0.1,
8.511,93.40062605790239,81.88111901704733,-2.05,-4.22,-0.27,8.0,1.0,0.0,15.0,1.0,1.0,3.0,24.52,19.91,0.0,
8.536,93.26506260579023,81.84411190170474,-2.04,-4.14,-0.6,8.0,1.0,0.0,14.0,0.0,1.0,2.0,23.74,18.93,0.39,
8.56,93.20650626057903,81.84041119017047,-3.69,-3.82,-1.09,8.0,1.0,0.0,14.0,0.0,1.0,2.0,22.76,17.76,2.35,
8.585,93.2096506260579,81.81304111901704,-4.23,-3.94,-1.53,8.0,1.0,0.0,14.0,0.0,1.0,2.0,22.17,17.07,1.67,
8.609,93.29096506260578,81.8103041119017,-4.81,-4.46,-1.67,8.0,1.0,0.0,14.0,0.0,1.0,2.0,21.97,16.58,0.98,
8.634,93.20009650626056,81.87303041119016,-4.73,-4.0,-1.36,8.0,1.0,0.0,14.0,0.0,1.0,2.0,21.97,16.19,0.2,
8.657,93.18200965062607,81.88830304111902,-4.76,-3.08,-1.19,8.0,1.0,0.0,15.0,0.0,1.0,2.0,21.88,15.79,0.29,
8.682,93.1622009650626,81.84483030411191,-3.96,-3.32,-1.38,8.0,1.0,0.0,15.0,0.0,1.0,2.0,21.97,15.5,0.0,
8.707,93.08822009650626,81.84048303041119,-3.32,-2.18,-0.52,8.0,1.0,0.0,15.0,0.0,1.0,2.0,21.78,15.21,0.0,
8.731,93.01782200965063,81.76804830304113,-2.63,-2.0,0.17,8.0,1.0,0.0,15.0,0.0,1.0,2.0,21.58,15.01,0.29,
8.756,92.98378220096507,81.76980483030411,-1.68,-1.48,0.73,8.0,1.0,0.0,15.0,0.0,1.0,2.0,21.39,14.91,0.39,
8.78,92.91737822009651,81.8149804830304,-1.69,-0.19,0.94,8.0,1.0,0.0,15.0,0.0,1.0,2.0,21.09,14.72,0.69,
8.805,92.90173782200966,81.83749804830305,-1.41,-0.92,0.92,8.0,1.0,0.0,14.0,0.0,1.0,2.0,20.9,14.72,2.06,
8.829,92.87317378220098,81.8667498048303,-1.5,-1.18,1.05,8.0,1.0,0.0,14.0,0.0,1.0,2.0,20.7,14.62,1.67,
8.853,92.7443173782201,81.87867498048303,-2.16,-0.84,0.76,8.0,1.0,0.0,14.0,0.0,1.0,2.0,20.4,14.52,1.08,
8.878,92.73143173782202,81.9068674980483,-2.69,-0.91,-0.04,8.0,1.0,0.0,14.0,0.0,1.0,2.0,20.5,14.72,0.2,
8.902,92.77514317378221,81.98168674980482,-2.47,-1.34,0.31,8.0,1.0,0.0,14.0,0.0,1.0,2.0,20.5,14.72,0.1,
8.927,92.75251431737823,82.02516867498048,-2.38,-1.09,0.44,8.0,1.0,0.0,14.0,0.0,1.0,2.0,20.4,14.62,0.29,
8.951,92.73225143173784,82.05651686749805,-2.43,-1.03,-0.31,8.0,1.0,0.0,14.0,0.0,1.0,2.0,20.31,14.62,0.39,
8.976,92.71222514317378,82.0686516867498,-2.77,-0.92,-0.21,8.0,1.0,0.0,14.0,0.0,1.0,2.0,20.21,14.72,0.2,
9.0,92.77322251431738,82.03386516867498,-3.32,-0.37,-0.76,8.0,1.0,0.0,14.0,0.0,1.0,2.0,20.31,14.91,0.29,
9.025,92.80632225143175,81.9943865168675,-3.21,-1.02,-1.2,8.0,1.0,0.0,15.0,0.0,1.0,2.0,20.5,15.01,0.39,
9.049,92.86363222514319,81.98143865168676,-3.23,-1.49,-1.17,8.0,1.0,0.0,14.0,0.0,1.0,2.0,20.7,15.3,0.2,
9.073,92.89636322251434,81.94414386516867,-3.02,-1.33,-0.53,8.0,1.0,0.0,14.0,0.0,1.0,2.0,20.9,15.5,0.0,
9.098,92.85463632225142,81.95841438651686,-2.94,-0.59,-0.39,8.0,1.0,0.0,14.0,0.0,1.0,2.0,20.99,15.6,0.29,
9.122,92.91346363222515,81.96884143865168,-3.24,-0.47,-0.73,8.0,1.0,0.0,14.0,0.0,1.0,2.0,21.09,15.89,0.0,
9.147,92.95534636322252,81.96088414386516,-2.95,-0.72,-0.62,8.0,1.0,0.0,14.0,0.0,1.0,2.0,21.29,16.09,0.0,
9.171,92.94153463632225,81.9600884143865,-3.1,-0.44,-0.31,8.0,1.0,0.0,14.0,0.0,1.0,2.0,21.29,16.19,0.0,
9.196,92.96715346363223,81.99600884143865,-3.47,-0.99,-0.6,8.0,1.0,0.0,15.0,0.0,1.0,2.0,21.39,16.48,0.0,
9.221,92.99671534636323,81.97260088414386,-3.06,-1.31,-0.6,8.0,1.0,0.0,16.0,0.0,1.0,2.0,21.48,16.58,0.0,
9.245,92.99967153463632,81.97926008841439,-2.62,-1.15,-0.13,8.0,1.0,0.0,15.0,0.0,1.0,2.0,21.48,16.58,0.0,
9.27,93.00896715346363,82.00692600884145,-2.56,-1.62,-0.11,8.0,1.0,0.0,15.0,0.0,1.0,2.0,21.48,16.48,0.0,
9.294,92.99189671534637,82.02769260088414,-2.66,-1.72,-0.11,8.0,1.0,0.0,15.0,0.0,1.0,2.0,20.99,16.09,0.2,
9.318,92.94518967153464,82.02076926008841,-2.98,-1.01,0.1,8.0,1.0,0.0,15.0,0.0,1.0,2.0,20.8,15.89,0.2,
9.342,92.97651896715347,82.02007692600884,-3.15,-0.98,-0.45,8.0,1.0,0.0,15.0,0.0,1.0,2.0,20.7,15.89,0.29,
9.367,93.00665189671534,82.07400769260089,-2.91,-1.44,-0.39,8.0,1.0,0.0,15.0,0.0,1.0,2.0,20.7,15.89,0.39,
9.392,93.10866518967154,82.0434007692601,-2.92,-1.56,0.54,8.0,1.0,0.0,14.0,0.0,1.0,2.0,20.6,15.79,0.1,
9.416,93.12786651896715,82.11234007692602,-2.64,-2.05,0.8,8.0,1.0,0.0,14.0,0.0,1.0,2.0,20.4,15.6,0.2,
9.441,93.12078665189672,82.0832340076926,-2.47,-2.11,0.4,8.0,1.0,0.0,14.0,0.0,1.0,2.0,20.01,15.3,347.76,
9.465,93.11107866518968,82.03532340076926,-2.65,-1.56,0.3,8.0,1.0,0.0,14.0,0.0,1.0,2.0,19.82,14.91,0.39,
9.49,93.07410786651896,82.00353234007692,-2.98,-1.68,0.25,8.0,1.0,0.0,14.0,0.0,1.0,2.0,19.62,14.62,0.0,
9.513,93.06141078665189,82.00035323400769,-3.25,-2.11,0.07,8.0,1.0,0.0,14.0,0.0,1.0,2.0,19.42,14.42,0.2,
9.538,92.9881410786652,82.01803532340077,-3.21,-2.44,0.15,8.0,1.0,0.0,14.0,0.0,1.0,2.0,19.23,14.13,0.2,
9.563,92.97181410786652,82.00180353234008,-3.24,-2.02,-0.06,8.0,0.0,0.0,14.0,0.0,1.0,2.0,19.03,13.93,0.29,
9.587,92.97918141078665,82.000180353234,-3.41,-2.16,-0.16,8.0,1.0,0.0,14.0,0.0,1.0,2.0,19.03,13.64,0.0,
9.612,92.92591814107867,82.00901803532341,-3.2,-1.86,-0.04,8.0,1.0,0.0,14.0,0.0,1.0,2.0,19.03,13.44,0.0,
9.636,92.93859181410787,82.00090180353234,-3.15,-2.27,-0.24,8.0,1.0,0.0,13.0,0.0,1.0,2.0,18.84,13.24,0.0,
9.661,92.94885918141078,81.97309018035322,-3.34,-3.13,-0.01,8.0,1.0,0.0,14.0,0.0,1.0,2.0,18.64,13.05,0.49,
9.686,92.91388591814108,81.93430901803534,-3.0,-2.85,0.22,8.0,1.0,0.0,14.0,0.0,1.0,2.0,18.54,12.75,1.47,
9.709,92.88338859181411,81.94843090180355,-2.94,-3.28,0.06,8.0,1.0,0.0,14.0,0.0,1.0,2.0,18.25,12.36,0.88,
9.734,92.8263388591814,81.92284309018036,-2.81,-3.51,0.18,8.0,1.0,0.0,14.0,0.0,1.0,2.0,17.95,11.97,0.1,
9.758,92.71263388591814,81.92028430901804,-2.06,-2.84,0.27,8.0,0.0,0.0,13.0,0.0,1.0,2.0,17.76,11.67,0.0,
9.783,92.66526338859182,81.90202843090181,-1.83,-2.37,0.26,8.0,0.0,0.0,13.0,0.0,1.0,2.0,17.56,11.28,0.78,
9.807,92.66952633885919,81.92720284309019,-1.63,-2.16,0.13,8.0,0.0,0.0,12.0,0.0,1.0,2.0,17.27,11.09,1.18,
9.832,92.66995263388593,81.94772028430903,-2.89,-0.44,-0.06,8.0,0.0,0.0,12.0,0.0,1.0,2.0,16.87,10.89,0.39,
9.857,92.7419952633886,82.03077202843092,-4.08,1.02,-1.04,8.0,0.0,0.0,14.0,0.0,1.0,2.0,16.97,10.99,0.1,
9.88,92.79419952633886,82.05707720284309,-4.44,0.16,-1.01,8.0,1.0,0.0,13.0,0.0,1.0,2.0,17.36,11.58,0.0,
9.905,92.81741995263388,82.08670772028431,-4.49,-0.55,0.34,8.0,1.0,0.0,14.0,0.0,1.0,2.0,17.85,11.97,0.0,
9.929,92.82874199526339,82.03567077202842,-4.15,-1.07,0.66,8.0,1.0,0.0,13.0,0.0,1.0,2.0,18.15,12.16,0.0,
9.954,92.79387419952634,81.96756707720283,-3.6,-1.53,0.76,8.0,1.0,0.0,12.0,0.0,1.0,2.0,18.25,12.07,0.0,
9.978,92.84438741995262,81.95175670772029,-3.45,-1.62,0.34,8.0,1.0,0.0,14.0,0.0,1.0,2.0,18.15,11.97,0.0,
10.002,92.84943874199526,81.96817567077203,-3.08,-1.83,0.0,8.0,0.0,0.0,14.0,0.0,1.0,2.0,18.05,11.87,0.0,
10.027,92.82294387419952,82.00581756707722,-2.44,-1.92,0.14,8.0,0.0,0.0,14.0,0.0,1.0,2.0,17.85,11.58,0.1,
10.051,92.73929438741996,82.05458175670772,-2.6,-1.14,0.15,8.0,0.0,0.0,14.0,0.0,1.0,2.0,17.66,11.48,0.1,
10.076,92.721929438742,82.07745817567077,-2.46,-0.78,-0.06,8.0,0.0,0.0,13.0,0.0,1.0,2.0,17.66,11.38,0.0,
10.1,92.68419294387421,82.07974581756707,-2.63,-0.72,-0.21,8.0,0.0,0.0,13.0,0.0,1.0,2.0,17.46,11.38,0.0,
10.125,92.66241929438742,82.0709745817567,-2.34,-0.91,0.15,8.0,0.0,0.0,14.0,0.0,1.0,2.0,17.56,11.38,0.0,
10.149,92.62424192943874,82.12409745817567,-2.97,-1.46,0.01,8.0,0.0,0.0,13.0,0.0,1.0,2.0,17.56,11.48,0.0,
10.174,92.56642419294387,82.10240974581757,-2.93,-0.73,-0.25,8.0,0.0,0.0,13.0,0.0,1.0,2.0,17.56,11.48,0.0,
10.199,92.55164241929438,82.08224097458175,-3.0,0.0,-0.6,8.0,0.0,0.0,13.0,0.0,1.0,2.0,17.56,11.77,0.0,
10.223,92.55916424192944,82.09822409745817,-2.77,-0.17,-1.02,8.0,0.0,0.0,13.0,0.0,1.0,2.0,17.66,11.87,0.0,
10.248,92.60491642419295,82.09082240974581,-2.63,0.08,-0.98,8.0,0.0,0.0,13.0,0.0,1.0,2.0,17.76,12.07,0.0,
10.272,92.6364916424193,82.08108224097458,-2.76,0.33,-0.99,8.0,0.0,0.0,13.0,0.0,1.0,2.0,17.76,12.16,0.0,
10.297,92.65764916424193,82.09810822409746,-2.29,0.16,-0.96,8.0,0.0,0.0,14.0,0.0,1.0,2.0,17.95,12.65,0.29,
10.321,92.7137649164242,82.11781082240975,-2.55,0.12,-0.65,8.0,0.0,0.0,13.0,0.0,1.0,2.0,17.95,12.95,0.29,
10.346,92.80037649164242,82.11978108224098,-2.95,-0.1,-1.14,8.0,0.0,0.0,13.0,0.0,1.0,2.0,17.95,13.34,0.2,
10.371,92.84503764916424,82.0749781082241,-2.98,-0.49,-0.5,8.0,1.0,0.0,13.0,0.0,1.0,2.0,18.15,13.64,0.29,
10.395,92.88550376491642,82.0704978108224,-2.6,-0.11,-0.13,8.0,1.0,0.0,14.0,0.0,1.0,2.0,18.25,13.93,0.2,
10.42,92.92555037649166,82.12404978108223,-2.7,-0.65,0.21,8.0,1.0,0.0,13.0,0.0,1.0,2.0,18.34,14.13,0.0,
10.444,92.94755503764917,82.18340497810823,-2.83,-1.27,0.35,8.0,1.0,0.0,13.0,0.0,1.0,2.0,18.34,14.22,0.0,
10.468,92.94975550376492,82.18934049781083,-2.99,-1.52,0.4,8.0,1.0,0.0,14.0,0.0,1.0,2.0,18.34,14.22,0.0,
10.492,92.92297555037649,82.18993404978109,-3.13,-1.12,0.18,8.0,1.0,0.0,14.0,0.0,1.0,2.0,18.44,14.32,0.0,
10.517,92.94729755503765,82.19899340497811,-3.08,-0.87,-0.09,8.0,1.0,0.0,12.0,0.0,1.0,2.0,18.54,14.32,0.0,
10.542,93.00372975550377,82.18189934049781,-3.01,-0.24,-0.12,8.0,1.0,0.0,14.0,0.0,1.0,2.0,18.64,14.52,0.2,
10.566,93.05437297555038,82.16218993404978,-2.98,-0.03,-0.18,8.0,1.0,0.0,14.0,0.0,1.0,2.0,18.74,14.72,0.0,
10.591,93.06843729755502,82.19621899340498,-3.17,-0.21,-0.31,8.0,1.0,0.0,14.0,0.0,1.0,2.0,18.84,14.72,0.0,
10.615,93.0428437297555,82.1996218993405,-3.37,-0.33,0.03,8.0,1.0,0.0,14.0,0.0,1.0,2.0,18.93,14.91,0.49,
10.64,93.06728437297554,82.22696218993406,-3.53,-0.75,0.19,8.0,1.0,0.0,14.0,0.0,1.0,2.0,19.13,15.11,0.2,
10.664,93.05172843729756,82.22069621899341,-3.56,-1.09,0.23,8.0,1.0,0.0,11.0,0.0,1.0,2.0,19.52,15.21,0.39,
10.689,93.09517284372974,82.17506962189934,-3.36,-1.47,0.4,8.0,1.0,0.0,14.0,0.0,1.0,2.0,19.62,15.5,0.29,
10.714,93.12651728437297,82.16150696218993,-3.54,-1.6,0.19,8.0,1.0,0.0,14.0,0.0,1.0,2.0,19.82,15.6,0.0,
10.738,93.10265172843728,82.13315069621899,-3.46,-1.47,-0.13,8.0,1.0,0.0,14.0,0.0,1.0,2.0,19.91,15.7,0.0,
10.763,93.13626517284374,82.0673150696219,-3.66,-1.1,-0.24,8.0,1.0,0.0,14.0,0.0,1.0,2.0,20.01,15.79,0.0,
10.787,93.14862651728438,82.03373150696218,-3.38,-1.12,-0.98,8.0,1.0,0.0,14.0,0.0,1.0,2.0,20.11,15.99,0.0,
10.812,93.14086265172844,82.03937315069624,-3.4,-1.34,-1.4,8.0,1.0,0.0,14.0,0.0,1.0,2.0,20.4,16.19,0.0,
10.836,93.14008626517285,82.05793731506962,-3.45,-1.45,-1.78,8.0,1.0,0.0,14.0,0.0,1.0,2.0,20.6,16.58,0.98,
10.861,93.14000862651729,82.14979373150696,-3.75,-0.37,-1.82,8.0,1.0,0.0,14.0,0.0,1.0,2.0,20.9,17.27,0.0,
10.886,93.19400086265173,82.1319793731507,-3.98,-0.39,-1.27,8.0,1.0,0.0,15.0,0.0,1.0,2.0,21.29,18.05,0.39,
10.91,93.28040008626519,82.11219793731507,-4.57,-0.63,-0.31,8.0,1.0,0.0,15.0,0.0,1.0,2.0,21.97,18.74,0.59,
10.935,93.35204000862652,82.1192197937315,-4.79,-2.08,-0.21,8.0,1.0,0.0,16.0,1.0,1.0,2.0,22.56,19.52,0.0,
10.959,93.37720400086265,82.10192197937315,-5.29,-3.4,0.23,8.0,1.0,0.0,15.0,1.0,1.0,2.0,22.96,19.91,0.0,
10.984,93.35272040008627,82.07319219793732,-5.17,-3.83,0.0,8.0,1.0,0.0,16.0,1.0,1.0,2.0,23.15,20.01,0.0,
11.009,93.27827204000863,82.04331921979374,-5.12,-4.17,0.76,8.0,1.0,0.0,14.0,1.0,1.0,2.0,23.25,19.72,0.0,
11.033,93.19882720400085,81.98633192197939,-4.83,-3.83,0.82,8.0,1.0,0.0,16.0,1.0,1.0,2.0,23.25,19.33,0.0,
11.058,93.1728827204001,81.94463319219793,-4.53,-3.89,0.13,8.0,1.0,0.0,16.0,1.0,1.0,2.0,23.15,18.64,0.0,
11.081,93.12528827204001,81.8774633192198,-4.04,-4.37,-0.47,8.0,1.0,0.0,16.0,1.0,1.0,2.0,23.15,18.25,0.0,
11.106,93.05752882720401,81.86174633192198,-4.0,-4.63,-0.56,8.0,1.0,0.0,16.0,1.0,1.0,2.0,22.86,17.85,0.0,
11.13,92.9517528827204,81.7791746331922,-3.87,-4.37,-0.26,8.0,1.0,0.0,16.0,1.0,1.0,2.0,22.66,17.56,0.0,
11.155,92.88717528827203,81.77991746331922,-3.45,-3.95,-0.08,8.0,1.0,0.0,16.0,1.0,1.0,2.0,22.37,17.17,0.0,
11.18,92.71871752882721,81.75299174633193,-3.5,-2.86,-0.46,8.0,1.0,0.0,15.0,1.0,1.0,2.0,22.07,16.87,0.29,
11.204,92.65687175288272,81.7232991746332,-4.4,-3.32,-0.68,8.0,1.0,0.0,15.0,1.0,1.0,2.0,22.07,16.97,0.69,
11.229,92.62368717528827,81.67532991746332,-4.33,-3.63,-1.05,8.0,1.0,0.0,15.0,1.0,1.0,2.0,21.88,16.97,0.29,
11.253,92.56636871752883,81.67953299174634,-4.57,-3.57,-0.15,8.0,1.0,0.0,14.0,1.0,1.0,2.0,21.58,16.68,0.2,
11.278,92.42563687175289,81.67995329917464,-5.56,-4.2,-1.08,8.0,0.0,0.0,14.0,1.0,1.0,2.0,21.19,16.38,0.2,
11.302,92.3485636871753,81.64399532991746,-6.37,-4.93,-0.76,8.0,0.0,0.0,13.0,1.0,1.0,2.0,20.9,15.99,0.1,
11.327,92.33185636871752,81.60439953299175,-6.95,-5.0,1.24,7.0,0.0,0.0,12.0,1.0,1.0,2.0,20.01,15.21,0.0,
11.352,92.31218563687176,81.52843995329917,-7.24,-5.76,3.15,7.0,0.0,0.0,10.0,1.0,1.0,2.0,19.13,14.13,0.0,
11.376,92.27421856368717,81.53884399532993,-8.55,-5.63,5.57,6.0,0.0,0.0,7.0,0.0,1.0,2.0,17.85,12.75,0.78,
11.401,92.11742185636871,81.46788439953298,-10.46,-5.09,10.92,5.0,0.0,0.0,4.0,0.0,1.0,2.0,16.19,10.5,2.35,
11.425,91.73274218563687,81.3257884399533,-13.04,-6.43,14.7,5.0,0.0,0.0,0.0,0.0,1.0,1.0,14.81,9.12,5.89,
11.45,91.5052742185637,81.20357884399533,-14.37,-12.42,26.21,4.0,0.0,0.0,10.0,0.0,1.0,1.0,12.16,7.65,7.06,
11.474,91.27552742185637,81.27235788439953,-18.56,-27.95,25.0,3.0,0.0,0.0,8.0,0.0,1.0,1.0,10.1,5.89,5.2,
11.499,90.85655274218564,81.18923578843996,-28.37,-30.42,10.42,2.0,0.0,0.0,5.0,0.0,0.0,0.0,7.85,4.32,2.26,
11.524,90.33765527421858,81.00992357884398,-34.13,-16.45,13.04,2.0,0.0,0.0,2.0,0.0,0.0,0.0,5.89,2.35,2.75,
11.548,88.52176552742185,81.18999235788439,-41.47,-17.13,21.44,1.0,0.0,0.0,1.0,0.0,0.0,0.0,3.92,0.49,9.42,
11.572,88.40317655274218,83.43099923578845,-30.69,-7.1,1.22,1.0,0.0,0.0,0.0,0.0,0.0,0.0,2.35,0.0,16.19,
11.596,88.09431765527422,87.09309992357885,-17.7,-7.82,5.7,0.0,0.0,0.0,0.0,0.0,0.0,0.0,0.59,0.0,51.6,
11.62,87.38843176552743,90.59130999235789,5.9,-19.84,6.23,0.0,0.0,0.0,0.0,0.0,0.0,0.0,0.0,0.0,9.42,
11.643,86.65184317655275,94.0911309992358,19.52,-20.47,1.69,0.0,0.0,0.0,0.0,0.0,0.0,0.0,0.0,0.0,0.0,
11.668,86.47018431765528,97.11411309992357,23.1,-6.88,3.21,0.0,0.0,0.0,0.0,0.0,0.0,0.0,0.0,0.0,0.0,
11.692,86.55101843176554,99.05441130999236,25.45,6.32,6.11,0.0,0.0,0.0,0.0,0.0,0.0,0.0,0.0,0.0,0.0,
11.715,86.83810184317656,99.73444113099924,29.69,15.57,10.22,0.0,0.0,0.0,0.0,0.0,0.0,0.0,0.0,0.0,0.88,
11.74,87.41581018431765,99.73044411309994,31.04,22.21,8.09,0.0,0.0,0.0,0.0,0.0,0.0,0.0,0.0,0.0,0.49,
11.763,88.06758101843177,98.90204441130999,29.04,21.94,8.0,0.0,0.0,0.0,0.0,0.0,0.0,0.0,0.0,0.0,0.98,
11.787,88.79875810184318,97.50520444113099,18.66,21.41,8.5,0.0,0.0,0.0,0.0,0.0,0.0,0.0,0.0,0.0,0.0,
11.811,89.27687581018432,95.3675204441131,9.0,18.59,8.01,0.0,0.0,0.0,0.0,0.0,0.0,0.0,0.0,0.0,0.0,
11.835,89.54968758101843,92.72375204441133,8.82,5.56,7.75,0.0,0.0,0.0,0.0,0.0,0.0,0.0,0.0,0.0,13.24,
11.858,89.59496875810184,89.65137520444114,11.83,6.62,8.6,0.0,0.0,0.0,0.0,0.0,0.0,0.0,0.0,0.0,11.97,
11.882,89.92349687581017,86.93213752044412,17.82,3.54,9.32,0.0,0.0,0.0,0.0,0.0,0.0,0.0,0.0,0.0,0.69,
11.906,90.55034968758102,84.21221375204442,25.82,7.54,12.37,0.0,0.0,0.0,0.0,0.0,0.0,0.0,0.0,0.0,0.0,
11.929,91.1800349687581,82.01422137520444,35.02,7.42,20.23,0.0,0.0,0.0,0.0,0.0,0.0,0.0,0.0,0.0,1.28,
11.954,91.66600349687582,80.12042213752044,40.13,9.24,23.47,0.0,0.0,0.0,0.0,0.0,0.0,0.0,0.0,0.0,0.1,
11.977,91.69660034968759,78.76104221375203,41.38,6.95,20.62,0.0,0.0,0.0,0.0,0.0,0.0,0.0,0.0,0.0,0.0,
12.001,91.37566003496876,77.41910422137519,42.21,11.58,15.77,0.0,0.0,0.0,0.0,0.0,0.0,0.0,0.0,0.0,2.84,
12.024,90.89356600349687,76.09691042213753,51.34,-1.66,4.15,0.0,0.0,0.0,0.0,0.0,0.0,0.0,0.0,0.0,0.0,
12.048,90.2603566003497,76.37869104221376,49.95,-12.56,-5.57,0.0,0.0,0.0,0.0,0.0,0.0,0.0,0.0,0.0,0.0,
12.071,89.96303566003498,76.90186910422138,38.15,-15.15,-9.57,0.0,0.0,0.0,0.0,0.0,0.0,0.0,0.0,0.0,0.0,
12.096,90.00530356600349,76.74718691042214,34.21,-19.07,-14.96,0.0,0.0,0.0,0.0,0.0,0.0,0.0,0.0,0.0,4.02,
12.12,89.39753035660036,76.44371869104222,33.0,-19.58,-18.53,0.0,0.0,0.0,0.0,0.0,0.0,0.0,0.0,0.0,0.0,
12.144,89.02175303566004,75.88237186910422,32.88,-22.06,-20.85,0.0,0.0,0.0,0.0,0.0,0.0,0.0,0.0,0.0,8.14,
12.168,90.84717530356599,74.19723718691043,4.34,14.82,-34.05,0.0,0.0,0.0,0.0,0.0,0.0,0.0,0.0,0.0,14.32,
12.191,89.47271753035659,77.63772371869105,-36.38,-1.68,-27.5,0.0,0.0,0.0,0.0,0.0,0.0,0.0,0.2,0.0,17.07,
12.215,89.78527175303566,80.7267723718691,-84.4,59.66,26.0,0.0,0.0,0.0,0.0,0.0,0.0,0.0,0.0,0.0,3.34,
12.239,90.30252717530357,81.0896772371869,-114.99,55.08,2.73,0.0,0.0,0.0,0.0,0.0,0.0,0.0,0.39,0.0,3.04,
12.263,91.18225271753036,78.55196772371869,-100.6,49.22,-30.81,0.0,0.0,0.0,0.0,0.0,0.0,0.0,0.98,0.0,3.34,
12.286,91.89122527175303,77.02019677237186,-57.09,22.37,-39.03,0.0,0.0,0.0,3.0,0.0,0.0,0.0,2.06,0.0,3.43,
12.311,92.8171225271753,76.8220196772372,-26.64,9.74,-25.89,1.0,0.0,0.0,4.0,0.0,0.0,0.0,3.24,0.78,0.0,
12.335,93.96271225271754,77.79220196772373,-14.6,8.13,-10.5,1.0,0.0,0.0,5.0,0.0,0.0,0.0,3.63,0.1,0.0,
12.359,95.04927122527175,78.59122019677238,-12.89,-1.0,-8.75,3.0,0.0,0.0,7.0,0.0,0.0,0.0,3.83,0.0,0.0,
12.383,95.04092712252718,79.29212201967724,-9.66,-14.85,-3.71,3.0,0.0,0.0,8.0,0.0,0.0,0.0,3.92,0.0,0.0,
12.407,94.57209271225271,79.83921220196774,-9.75,-11.55,-3.83,4.0,0.0,0.0,9.0,0.0,0.0,0.0,4.22,0.0,0.0,
12.432,94.38120927122527,80.44292122019678,-9.24,-9.47,-2.95,5.0,0.0,0.0,10.0,0.0,0.0,0.0,4.81,0.59,21.68,
12.456,94.45212092712252,80.88129212201969,-11.28,-8.27,-5.77,5.0,0.0,0.0,11.0,0.0,0.0,0.0,5.69,1.47,2.94,
12.48,94.56721209271225,81.16812921220196,-12.18,-6.78,-2.8,6.0,0.0,0.0,1.0,0.0,0.0,0.0,6.97,2.65,10.3,
12.505,94.80372120927122,81.49381292122021,-13.15,-11.81,-2.18,6.0,0.0,0.0,3.0,0.0,0.0,1.0,8.44,3.92,0.0,
12.529,95.09737212092712,81.61638129212201,-18.53,-21.14,-2.4,7.0,0.0,0.0,4.0,0.0,1.0,1.0,10.2,4.81,0.0,
12.554,94.97373721209271,81.55663812921219,-20.91,-34.25,-0.06,7.0,1.0,0.0,10.0,0.0,1.0,1.0,11.28,5.0,0.0,
12.578,93.85437372120927,81.40666381292122,-13.67,-16.24,-0.36,8.0,1.0,0.0,14.0,0.0,2.0,2.0,12.95,5.49,0.0,
12.603,92.97743737212093,81.24766638129212,-7.36,3.23,-2.73,9.0,1.0,0.0,16.0,0.0,2.0,2.0,15.3,6.67,0.0,
12.627,92.7277437372121,81.30376663812922,-4.0,14.33,-5.63,9.0,1.0,0.0,18.0,1.0,2.0,2.0,17.56,7.95,0.0,
12.652,92.69377437372121,81.39037666381293,-3.05,23.64,-5.44,9.0,1.0,0.0,19.0,1.0,2.0,2.0,19.23,9.71,0.0,
12.677,92.87037743737211,81.61503766638128,-2.66,35.25,-7.5,9.0,0.0,0.0,19.0,1.0,2.0,2.0,19.82,12.26,0.0,
12.701,93.73403774373722,81.70050376663812,-2.47,32.31,-5.27,9.0,0.0,0.0,18.0,1.0,2.0,2.0,20.4,16.68,0.0,
12.726,94.6934037743737,81.87105037666382,-3.57,23.63,-3.86,8.0,0.0,0.0,17.0,2.0,2.0,3.0,22.66,23.45,0.0,
12.75,95.32034037743736,82.12210503766639,-1.69,21.35,1.98,8.0,0.0,0.0,15.0,2.0,2.0,3.0,25.21,29.92,0.0,
12.775,95.83303403774374,82.14721050376664,-0.81,20.21,7.89,7.0,0.0,0.0,14.0,2.0,2.0,3.0,29.14,36.1,0.0,
12.8,96.25330340377437,82.25772105037666,1.23,20.67,12.89,7.0,0.0,0.0,13.0,2.0,2.0,3.0,31.39,46.7,0.0,
12.824,96.79033034037742,82.27777210503767,1.42,19.42,13.6,6.0,0.0,0.0,11.0,2.0,2.0,3.0,34.14,53.66,0.0,
12.849,97.20403303403775,82.42377721050376,1.37,16.87,16.69,6.0,0.0,0.0,10.0,2.0,2.0,3.0,37.18,60.23,0.0,
12.873,97.70440330340378,82.43837772105037,1.06,14.53,19.64,5.0,0.0,0.0,8.0,2.0,2.0,3.0,40.02,66.71,0.0,
12.898,98.10544033034039,82.52083777210504,0.35,10.56,19.79,5.0,0.0,0.0,6.0,2.0,2.0,3.0,42.67,72.89,0.0,
12.921,98.66754403303403,82.4480837772105,-3.98,7.98,16.18,5.0,0.0,0.0,5.0,2.0,2.0,3.0,46.5,78.09,0.0,
12.946,99.0927544033034,82.25180837772105,-4.97,5.41,15.77,4.0,0.0,0.0,5.0,3.0,2.0,3.0,49.15,82.6,0.0,
12.971,99.54927544033033,82.0251808377721,-5.76,-0.08,12.19,4.0,0.0,0.0,6.0,3.0,2.0,3.0,51.4,86.43,0.0,
12.995,99.96392754403303,81.84951808377721,-5.84,-6.54,8.36,4.0,0.0,0.0,6.0,3.0,2.0,4.0,52.19,88.58,0.0,
13.02,99.6093927544033,81.69695180837773,-5.01,-9.71,3.21,4.0,0.0,0.0,7.0,3.0,2.0,4.0,52.29,88.88,0.0,
13.044,99.27693927544033,81.48369518083777,-4.91,-6.98,-0.25,5.0,0.0,0.0,8.0,2.0,2.0,4.0,51.8,88.58,0.0,
13.069,99.31569392754402,81.29136951808377,-0.3,-9.15,-3.96,5.0,0.0,0.0,8.0,2.0,2.0,4.0,50.52,87.11,0.0,
13.093,99.9585693927544,81.01113695180838,3.78,-20.21,-12.84,5.0,0.0,0.0,8.0,2.0,2.0,3.0,47.38,83.09,0.0,
13.118,100.01385693927544,81.71211369518085,-2.02,-32.62,-19.37,5.0,0.0,0.0,8.0,1.0,2.0,3.0,41.01,75.73,1.08,
13.143,99.11038569392755,81.92621136951809,-13.18,-23.96,-10.08,6.0,0.0,0.0,11.0,1.0,2.0,3.0,33.94,65.43,2.06,
13.167,98.15603856939276,81.76762113695182,-14.77,-17.25,-7.97,7.0,0.0,0.0,14.0,1.0,2.0,3.0,30.9,56.51,0.69,
13.192,97.77260385693928,81.57176211369517,-14.72,-16.26,-11.79,7.0,1.0,0.0,18.0,1.0,2.0,3.0,31.49,54.05,1.57,
13.216,97.45526038569392,81.48917621136953,-14.04,-20.55,-5.11,7.0,1.0,0.0,20.0,1.0,2.0,3.0,33.06,51.7,0.39,
13.242,96.9015260385694,81.27391762113695,-12.66,-16.11,-0.9,8.0,1.0,0.0,23.0,1.0,2.0,4.0,34.34,49.15,0.0,
13.266,96.43215260385693,81.20739176211369,-12.4,-9.98,0.84,8.0,1.0,0.0,24.0,1.0,2.0,4.0,36.1,48.07,0.0,
13.291,96.18721526038568,81.07473917621138,-12.07,-7.04,1.31,8.0,1.0,0.0,25.0,2.0,2.0,4.0,38.75,47.97,0.0,
13.316,96.01872152603858,80.85447391762114,-12.14,-5.18,0.11,8.0,1.0,0.0,26.0,2.0,3.0,4.0,43.26,48.07,0.0,
13.34,95.86687215260386,80.70644739176211,-12.16,-6.66,1.98,8.0,1.0,0.0,27.0,2.0,3.0,5.0,46.6,47.97,0.0,
13.365,95.68968721526039,80.58364473917621,-11.33,-7.13,5.72,9.0,1.0,0.0,28.0,2.0,3.0,5.0,49.93,48.07,0.0,
13.389,95.38396872152603,80.35536447391762,-11.83,-5.34,6.69,9.0,1.0,0.0,28.0,2.0,3.0,5.0,53.56,48.66,0.0,
13.414,95.2273968721526,80.13453644739177,-14.37,-3.72,6.71,8.0,1.0,0.0,30.0,2.0,3.0,6.0,57.68,50.03,0.0,
13.438,95.12173968721527,79.99545364473917,-18.23,-3.54,6.87,8.0,1.0,0.0,30.0,2.0,4.0,6.0,65.33,51.11,0.0,
13.463,95.15617396872153,79.70254536447392,-20.05,-7.79,9.11,8.0,1.0,0.0,31.0,2.0,4.0,6.0,71.51,52.39,0.0,
13.488,94.78161739687215,79.32225453644739,-21.38,-8.66,8.36,7.0,1.0,0.0,31.0,2.0,4.0,7.0,77.7,52.58,0.0,
13.512,94.51016173968722,79.00522545364474,-25.33,-6.41,10.73,7.0,1.0,0.0,31.0,2.0,5.0,7.0,84.37,52.88,0.0,
13.537,94.26701617396873,78.64952254536446,-31.46,-9.45,12.94,6.0,0.0,0.0,30.0,2.0,5.0,7.0,91.33,53.37,0.39,
13.561,93.90070161739688,78.03795225453645,-34.92,-11.13,11.94,5.0,0.0,0.0,28.0,2.0,5.0,8.0,101.73,54.45,1.08,
13.586,93.5670701617397,77.63479522545364,-43.81,-10.34,13.48,4.0,0.0,0.0,26.0,2.0,5.0,8.0,108.6,54.94,2.26,
13.611,92.89470701617397,76.63147952254536,-47.76,4.57,15.89,3.0,0.0,0.0,22.0,2.0,6.0,8.0,115.86,54.05,1.96,
13.635,92.0174707016174,74.32614795225453,-48.13,14.41,-0.24,1.0,0.0,0.0,15.0,2.0,6.0,8.0,122.53,51.7,2.75,
13.66,92.10974707016175,73.83461479522545,-57.47,15.98,11.5,0.0,0.0,0.0,5.0,2.0,6.0,9.0,127.73,46.4,0.0,
13.684,92.14597470701618,73.42546147952254,-67.56,17.15,9.76,0.0,0.0,0.0,11.0,2.0,6.0,9.0,131.16,38.65,0.0,
13.709,92.49159747070162,72.95254614795226,-84.66,17.36,11.46,0.0,0.0,0.0,6.0,2.0,6.0,9.0,131.36,31.1,0.0,
13.733,91.98615974707016,73.36425461479523,-100.89,25.28,10.06,0.0,0.0,0.0,2.0,2.0,7.0,9.0,125.96,22.27,1.08,
13.758,91.37761597470701,71.77642546147952,-108.96,37.55,5.12,0.0,0.0,0.0,0.0,2.0,7.0,9.0,116.64,13.34,3.53,
13.783,91.2447615974707,69.75464254614795,-114.77,25.65,2.4,0.0,0.0,0.0,0.0,2.0,7.0,8.0,101.14,6.38,1.57,
13.807,92.51847615974708,67.38346425461481,-114.09,14.82,-18.78,0.0,0.0,0.0,0.0,2.0,7.0,8.0,83.19,4.71,2.65,
13.832,95.2648476159747,64.85134642546147,-104.49,-13.31,-42.7,0.0,0.0,0.0,0.0,2.0,6.0,7.0,44.54,3.24,27.08,
13.856,97.00648476159748,62.753134642546144,-88.0,-28.42,-35.85,0.0,0.0,0.0,0.0,0.0,4.0,4.0,20.21,1.86,13.93,
13.881,96.37064847615974,58.07931346425462,-50.89,-35.14,-19.4,0.0,0.0,0.0,0.0,0.0,2.0,1.0,10.79,0.98,3.73,
13.905,97.65706484761597,63.047931346425464,5.15,-63.88,-20.84,0.0,0.0,0.0,0.0,0.0,0.0,0.0,5.0,1.86,1.57,
13.929,97.78570648476159,72.77879313464256,44.16,-58.67,5.56,0.0,0.0,0.0,0.0,0.0,0.0,0.0,1.67,1.96,4.02,
13.953,98.02357064847617,80.06087931346426,84.9,-84.02,4.99,0.0,0.0,0.0,0.0,0.0,0.0,0.0,0.29,1.96,43.85,
13.976,97.68735706484762,85.76608793134643,105.24,-87.28,31.34,0.0,0.0,0.0,0.0,0.0,0.0,0.0,0.39,1.86,21.39,
14.001,96.37573570648476,89.81060879313465,99.82,-45.49,49.68,0.0,0.0,0.0,0.0,0.0,0.0,0.0,0.98,1.77,8.83,
14.024,93.79657357064848,91.01606087931347,98.87,-27.6,52.56,0.0,0.0,0.0,0.0,0.0,0.0,0.0,1.37,1.77,4.81,
14.049,91.44165735706486,90.42560608793134,113.94,-23.63,44.2,0.0,0.0,0.0,0.0,0.0,0.0,0.0,1.37,1.86,0.0,
14.072,89.92816573570649,89.06156060879314,117.21,-16.61,22.24,0.0,0.0,0.0,0.0,0.0,0.0,0.0,1.47,1.77,0.0,
14.097,89.16481657357065,87.40415606087932,111.02,-8.13,5.2,0.0,0.0,0.0,0.0,0.0,0.0,0.0,1.77,1.67,0.0,
14.12,88.82748165735707,85.45641560608793,108.84,2.62,-10.77,0.0,0.0,0.0,0.0,0.0,0.0,0.0,1.77,1.57,0.0,
14.144,88.7667481657357,83.26364156060879,97.5,24.61,-11.25,0.0,0.0,0.0,0.0,0.0,0.0,0.0,1.57,1.67,0.0,
14.169,89.85867481657357,80.34436415606088,82.38,27.92,-6.84,0.0,0.0,0.0,0.0,0.0,0.0,0.0,1.67,1.77,0.0,
14.192,90.25586748165735,77.21743641560609,61.24,25.18,8.57,0.0,0.0,0.0,0.0,0.0,0.0,0.0,1.57,1.77,0.0,
14.216,90.59258674816573,73.2597436415606,23.95,31.84,-1.92,0.0,0.0,0.0,0.0,0.0,0.0,0.0,1.86,1.86,0.0,
14.24,89.78925867481658,69.47997436415606,36.74,23.34,-8.01,0.0,0.0,0.0,0.0,0.0,0.0,0.0,1.77,1.67,1.67,
14.264,88.93492586748167,66.9239974364156,46.51,10.45,-24.89,0.0,0.0,0.0,0.0,0.0,0.0,0.0,1.37,1.57,0.49,
14.287,90.28049258674818,66.30839974364156,30.56,20.92,-39.82,0.0,0.0,0.0,0.0,0.0,0.0,0.0,1.77,1.37,0.88,
14.311,91.26104925867482,63.609839974364164,-20.44,23.06,-0.7,0.0,0.0,0.0,0.0,0.0,0.0,0.0,2.16,1.18,3.63,
14.336,89.20810492586749,59.51498399743642,-74.05,12.85,-15.5,0.0,0.0,0.0,1.0,0.0,0.0,0.0,2.06,1.28,0.88,
14.36,87.65281049258675,62.37249839974364,-50.41,3.31,-59.58,1.0,0.0,0.0,4.0,0.0,0.0,0.0,3.14,2.16,0.0,
14.384,88.85628104925867,64.80024983997436,15.33,-22.08,-19.98,1.0,0.0,0.0,8.0,0.0,0.0,0.0,5.69,5.1,0.59,
14.408,90.10162810492585,67.59902498399744,-1.05,34.37,-19.82,2.0,0.0,0.0,10.0,0.0,1.0,0.0,8.14,6.28,0.0,
14.433,91.22516281049259,69.56190249839975,-2.73,23.53,-0.87,2.0,0.0,0.0,11.0,0.0,1.0,1.0,10.1,6.28,0.0,
14.457,92.45351628104926,71.16219024983998,-5.45,8.27,-2.56,3.0,0.0,0.0,0.0,0.0,1.0,1.0,11.77,6.77,0.0,
14.482,92.46835162810493,72.63621902498399,-3.9,-5.12,3.6,4.0,0.0,0.0,3.0,0.0,1.0,1.0,13.34,7.46,0.0,
14.505,92.17283516281049,73.7376219024984,-1.89,0.35,3.11,4.0,0.0,0.0,6.0,0.0,1.0,1.0,15.01,8.24,0.0,
14.53,91.86428351628105,74.69376219024983,-0.11,6.42,-2.79,5.0,0.0,0.0,8.0,0.0,1.0,1.0,16.09,9.03,0.0,
14.555,92.2204283516281,75.70737621902498,-0.87,2.91,-1.98,5.0,0.0,0.0,9.0,0.0,1.0,1.0,17.27,9.71,0.49,
14.579,92.58004283516281,76.5737376219025,-3.6,-3.17,1.14,6.0,0.0,0.0,11.0,0.0,1.0,1.0,18.34,10.69,0.0,
14.604,92.60700428351629,77.14637376219024,-3.08,-3.93,3.5,6.0,0.0,0.0,13.0,0.0,1.0,1.0,19.52,11.97,0.0,
14.627,92.43870042835162,77.64463737621902,-2.81,0.3,1.71,6.0,0.0,0.0,14.0,0.0,1.0,2.0,20.5,12.75,0.0,
14.652,92.46687004283515,78.1714637376219,-3.12,3.34,0.17,6.0,0.0,0.0,15.0,0.0,1.0,2.0,21.78,13.24,0.0,
14.676,92.62268700428352,78.6021463737622,-4.35,1.46,0.6,6.0,0.0,0.0,16.0,0.0,1.0,2.0,22.66,13.93,0.0,
14.701,92.80026870042835,78.94221463737622,-4.85,0.57,0.62,6.0,0.0,0.0,17.0,0.0,1.0,2.0,23.54,14.52,0.0,
14.726,92.81802687004283,79.22822146373763,-4.73,-0.25,1.66,6.0,0.0,0.0,18.0,0.0,2.0,2.0,24.52,15.3,0.0,
14.75,92.7388026870043,79.38282214637377,-3.48,-0.78,1.68,6.0,0.0,0.0,19.0,0.0,2.0,2.0,25.51,15.89,0.0,
14.775,92.64988026870043,79.59628221463737,-3.19,0.37,1.31,7.0,0.0,0.0,19.0,0.0,2.0,2.0,26.29,16.68,0.0,
14.798,92.63198802687005,79.78862822146374,-3.04,0.33,0.67,7.0,0.0,0.0,20.0,0.0,2.0,2.0,27.27,17.27,0.0,
14.823,92.74719880268701,79.95186282214637,-4.11,-1.24,0.78,7.0,0.0,0.0,21.0,0.0,2.0,2.0,27.76,17.76,0.0,
14.848,92.85771988026872,80.02218628221463,-4.23,-2.72,1.31,7.0,0.0,0.0,21.0,0.0,2.0,2.0,28.15,18.05,0.0,
14.872,92.76977198802687,80.04721862822146,-4.23,-2.88,1.28,7.0,0.0,0.0,22.0,0.0,2.0,2.0,28.45,18.25,0.0,
14.897,92.67997719880269,80.07672186282215,-4.03,-1.26,0.47,7.0,0.0,0.0,22.0,0.0,2.0,2.0,28.84,18.54,0.1,
14.921,92.78799771988027,80.11567218628221,-3.53,-1.68,0.21,7.0,0.0,0.0,23.0,1.0,2.0,2.0,29.33,18.54,0.0,
14.946,92.79879977198802,80.15556721862822,-3.1,-2.3,0.63,7.0,0.0,0.0,22.0,1.0,2.0,2.0,29.33,18.54,0.0,
14.97,92.8178799771988,80.26755672186283,-3.12,-2.83,2.02,7.0,0.0,0.0,23.0,1.0,2.0,2.0,29.23,18.34,0.0,
14.995,92.80178799771987,80.31475567218628,-3.66,-1.85,2.82,7.0,0.0,0.0,23.0,1.0,2.0,2.0,29.14,18.25,0.0,
15.02,92.782178799772,80.34647556721862,-3.95,-1.72,2.02,7.0,0.0,0.0,23.0,1.0,2.0,2.0,28.94,18.15,0.0,
15.043,92.7532178799772,80.27764755672186,-3.98,-1.82,1.69,7.0,0.0,0.0,23.0,1.0,2.0,2.0,29.04,17.95,0.2,
15.068,92.75032178799773,80.31576475567218,-4.01,-1.66,1.56,7.0,0.0,0.0,23.0,1.0,2.0,2.0,29.14,17.66,0.0,
15.092,92.68703217879978,80.36457647556723,-4.11,-1.56,1.96,7.0,0.0,0.0,23.0,1.0,2.0,2.0,29.04,17.36,0.0,
15.117,92.62670321787998,80.32445764755671,-3.95,-1.13,1.81,7.0,0.0,0.0,23.0,1.0,2.0,2.0,29.23,17.27,0.2,
15.141,92.575670321788,80.29344576475567,-3.68,-1.42,2.05,7.0,0.0,0.0,24.0,1.0,2.0,3.0,29.14,17.07,0.0,
15.166,92.6065670321788,80.30834457647558,-3.56,-1.98,1.43,6.0,0.0,0.0,23.0,1.0,2.0,2.0,29.23,16.87,0.0,
15.191,92.60065670321788,80.32783445764755,-3.43,-1.54,1.21,6.0,0.0,0.0,23.0,1.0,2.0,3.0,29.14,16.68,0.29,
15.215,92.5370656703218,80.31178344576476,-3.24,-1.05,0.56,6.0,0.0,0.0,23.0,1.0,2.0,3.0,29.04,16.28,0.0,
15.24,92.54870656703218,80.36417834457649,-3.15,-1.22,0.53,6.0,0.0,0.0,23.0,1.0,2.0,3.0,28.84,16.28,0.0,
15.264,92.53187065670322,80.36041783445765,-3.11,-1.52,0.34,6.0,0.0,0.0,23.0,1.0,2.0,3.0,28.84,16.09,0.0,
15.289,92.53918706567032,80.32404178344576,-2.9,-1.21,-0.3,6.0,0.0,0.0,23.0,1.0,2.0,3.0,28.74,16.19,0.0,
15.313,92.59391870656704,80.32040417834457,-2.62,-1.71,-0.4,6.0,0.0,0.0,23.0,1.0,2.0,3.0,28.65,16.09,0.0,
15.338,92.5723918706567,80.34704041783445,-2.29,-1.75,0.02,6.0,0.0,0.0,23.0,1.0,2.0,3.0,28.45,16.09,0.0,
15.362,92.54323918706567,80.35870404178344,-2.28,-0.99,-0.41,6.0,0.0,0.0,23.0,1.0,2.0,3.0,28.15,15.99,0.0,
15.386,92.54932391870656,80.38687040417834,-2.18,-1.36,-0.22,6.0,0.0,0.0,22.0,1.0,2.0,3.0,27.86,16.09,0.39,
15.411,92.54093239187065,80.35368704041782,-1.88,-1.29,0.19,6.0,0.0,0.0,22.0,1.0,2.0,3.0,27.66,15.89,0.0,
15.435,92.53109323918707,80.35936870404178,-1.98,-1.51,-0.13,6.0,0.0,0.0,22.0,1.0,2.0,2.0,27.37,15.89,0.39,
15.46,92.4671093239187,80.39593687040419,-2.27,-1.46,0.18,6.0,0.0,0.0,22.0,1.0,2.0,2.0,26.98,15.89,0.39,
15.484,92.43371093239188,80.33659368704042,-2.0,-1.25,0.18,6.0,0.0,0.0,22.0,1.0,2.0,2.0,26.68,15.79,0.49,
15.509,92.4033710932392,80.33065936870403,-2.2,-1.4,-0.47,6.0,0.0,0.0,22.0,0.0,2.0,2.0,26.49,15.7,1.18,
15.534,92.41833710932391,80.3750659368704,-2.11,-1.34,-0.99,6.0,0.0,0.0,22.0,0.0,2.0,2.0,26.39,15.5,2.06,
15.558,92.45583371093238,80.41550659368704,-2.14,-1.46,-0.77,6.0,0.0,0.0,22.0,0.0,2.0,2.0,26.29,15.6,1.47,
15.583,92.39658337109323,80.4915506593687,-2.23,-1.06,-0.55,6.0,0.0,0.0,22.0,0.0,2.0,2.0,26.09,15.6,0.88,
15.607,92.42665833710933,80.51715506593688,-2.44,-0.79,-0.38,6.0,0.0,0.0,21.0,0.0,2.0,2.0,25.9,15.6,0.29,
15.632,92.44766583371093,80.60071550659369,-2.66,-1.02,-0.27,6.0,0.0,0.0,22.0,0.0,2.0,2.0,25.7,15.6,0.2,
15.656,92.44976658337109,80.61807155065938,-2.42,-0.85,-0.16,6.0,0.0,0.0,21.0,0.0,2.0,2.0,25.8,15.6,0.29,
15.681,92.37797665833712,80.62880715506593,-2.34,-0.76,-0.02,6.0,0.0,0.0,22.0,0.0,2.0,2.0,25.51,15.5,0.2,
15.706,92.40679766583371,80.65688071550659,-2.25,-1.34,0.1,6.0,0.0,0.0,21.0,0.0,2.0,2.0,25.41,15.4,0.2,
15.73,92.47267976658337,80.66868807155066,-2.24,-1.37,0.39,6.0,0.0,0.0,21.0,0.0,2.0,2.0,25.21,15.4,0.2,
15.755,92.39826797665833,80.69686880715507,-2.4,-0.9,-0.15,6.0,0.0,0.0,21.0,0.0,2.0,2.0,25.02,15.21,0.39,
15.779,92.42682679766584,80.7356868807155,-2.23,-1.02,-0.29,6.0,0.0,0.0,21.0,0.0,2.0,2.0,24.72,15.11,0.98,
15.804,92.43868267976657,80.76656868807154,-2.73,-1.08,-0.24,6.0,0.0,0.0,20.0,0.0,2.0,2.0,24.52,15.01,0.98,
15.828,92.42186826797665,80.76065686880716,-3.2,-1.23,-0.24,6.0,0.0,0.0,20.0,0.0,2.0,2.0,24.33,14.91,0.1,
15.853,92.43818682679766,80.80506568688071,-2.9,-1.24,-0.05,6.0,0.0,0.0,20.0,0.0,2.0,2.0,24.33,14.81,0.0,
15.878,92.42181868267976,80.76450656868808,-3.05,-1.05,-0.42,6.0,0.0,0.0,20.0,0.0,2.0,2.0,24.33,14.81,0.0,
15.902,92.46518186826798,80.7964506568688,-3.34,0.0,-0.31,7.0,0.0,0.0,20.0,0.0,2.0,2.0,24.23,14.91,0.1,
15.927,92.48751818682679,80.81764506568688,-3.26,-0.56,-0.27,7.0,0.0,0.0,20.0,0.0,2.0,2.0,24.33,15.01,0.29,
15.951,92.60675181868268,80.80176450656869,-3.47,-0.5,0.07,7.0,0.0,0.0,20.0,0.0,2.0,2.0,24.43,15.11,0.0,
15.976,92.67267518186827,80.81817645065686,-3.51,-0.46,0.01,7.0,0.0,0.0,21.0,0.0,2.0,2.0,24.52,15.3,0.0,
16.001,92.70626751818682,80.80181764506568,-3.4,-0.73,0.06,7.0,0.0,0.0,21.0,0.0,2.0,2.0,24.82,15.21,0.0,
16.025,92.69162675181869,80.80918176450656,-3.06,-0.76,0.05,7.0,0.0,0.0,21.0,0.0,2.0,2.0,24.92,15.3,0.1,
16.05,92.74416267518188,80.78291817645065,-3.06,-0.82,-0.06,7.0,0.0,0.0,21.0,0.0,2.0,2.0,24.92,15.21,0.49,
16.074,92.74041626751819,80.78929181764508,-3.27,-1.01,-0.01,7.0,0.0,0.0,21.0,0.0,2.0,2.0,24.82,15.3,0.39,
16.099,92.70404162675183,80.7809291817645,-3.06,-1.06,0.35,7.0,0.0,0.0,20.0,0.0,2.0,2.0,24.82,15.21,0.29,
16.123,92.62840416267518,80.80709291817645,-3.2,-0.53,-0.08,6.0,0.0,0.0,21.0,0.0,2.0,2.0,24.82,15.21,0.0,
16.148,92.66584041626751,80.84570929181764,-2.92,-1.06,-0.13,6.0,0.0,0.0,18.0,0.0,2.0,2.0,24.72,15.21,0.0,
16.173,92.66058404162675,80.84057092918177,-2.9,-1.76,-0.2,6.0,0.0,0.0,20.0,0.0,2.0,2.0,24.62,15.11,0.0,
16.197,92.62405840416268,80.83105709291817,-2.63,-1.95,-0.15,6.0,0.0,0.0,20.0,0.0,2.0,2.0,24.33,14.91,0.0,
16.222,92.69240584041627,80.85710570929182,-2.72,-1.35,-0.39,6.0,0.0,0.0,20.0,0.0,2.0,2.0,24.13,14.81,0.1,
16.246,92.73524058404162,80.85071057092918,-2.91,-1.25,-0.09,6.0,0.0,0.0,19.0,0.0,2.0,2.0,23.94,14.72,0.69,
16.271,92.68552405840417,80.85907105709292,-2.82,-1.13,0.08,6.0,0.0,0.0,19.0,0.0,2.0,2.0,23.74,14.62,0.29,
16.294,92.68955240584042,80.8239071057093,-2.81,-1.71,-0.15,6.0,0.0,0.0,19.0,0.0,2.0,2.0,23.45,14.32,0.2,
16.32,92.68995524058404,80.80239071057093,-2.68,-2.05,0.27,6.0,0.0,0.0,18.0,0.0,2.0,2.0,23.15,13.93,0.59,
16.344,92.6539955240584,80.8272390710571,-2.65,-1.34,0.2,6.0,0.0,0.0,18.0,0.0,2.0,2.0,22.86,13.73,0.69,
16.368,92.61439955240584,80.8477239071057,-2.45,-1.69,0.11,6.0,0.0,0.0,18.0,0.0,2.0,2.0,22.46,13.44,0.0,
16.393,92.63743995524058,80.89477239071057,-2.4,-2.11,0.44,6.0,0.0,0.0,20.0,0.0,2.0,2.0,22.07,13.24,1.67,
16.417,92.62174399552406,80.91747723907106,-2.5,-2.36,0.56,6.0,0.0,0.0,17.0,0.0,2.0,2.0,21.78,12.95,1.57,
16.442,92.59317439955241,80.8477477239071,-2.42,-2.14,0.18,6.0,0.0,0.0,15.0,0.0,2.0,2.0,21.39,12.56,1.37,
16.466,92.62631743995524,80.8677747723907,-2.5,-1.63,-0.23,6.0,0.0,0.0,16.0,0.0,2.0,2.0,21.09,12.26,0.1,
16.491,92.57563174399553,80.86077747723907,-2.68,-1.5,-0.49,6.0,0.0,0.0,15.0,0.0,2.0,2.0,20.7,12.07,0.2,
16.516,92.60656317439955,80.8510777477239,-2.54,-1.24,-0.14,6.0,0.0,0.0,16.0,0.0,2.0,2.0,20.6,11.97,0.0,
16.54,92.69965631743995,80.8501077747724,-2.34,-1.82,-0.07,6.0,0.0,0.0,16.0,0.0,2.0,2.0,20.4,11.87,0.0,
16.565,92.68196563174399,80.83201077747724,-2.2,-1.86,-0.07,6.0,0.0,0.0,15.0,0.0,1.0,2.0,20.21,11.77,0.0,
16.589,92.6711965631744,80.84820107774772,-2.29,-1.51,-0.12,6.0,0.0,0.0,15.0,0.0,1.0,2.0,19.91,11.58,0.0,
16.614,92.66111965631744,80.91282010777478,-2.54,-1.39,0.18,6.0,0.0,0.0,14.0,0.0,1.0,2.0,19.72,11.48,0.0,
16.638,92.65111196563174,80.88328201077748,-2.46,-1.82,0.14,6.0,0.0,0.0,14.0,0.0,1.0,2.0,19.62,11.28,0.69,
16.663,92.61411119656317,80.88932820107775,-2.13,-1.47,0.52,6.0,0.0,0.0,14.0,0.0,1.0,2.0,19.33,10.99,1.77,
16.688,92.60141111965632,80.88993282010777,-1.98,-1.74,0.46,6.0,0.0,0.0,14.0,0.0,1.0,1.0,19.03,10.79,0.69,
16.712,92.63614111196563,80.96199328201078,-2.22,-1.5,0.63,6.0,0.0,0.0,14.0,0.0,1.0,1.0,18.84,10.5,3.04,
16.737,92.67561411119657,81.00519932820109,-2.31,-1.58,0.75,6.0,0.0,0.0,14.0,0.0,1.0,1.0,18.54,10.4,1.18,
16.76,92.66156141111966,81.0455199328201,-2.21,-1.31,0.6,6.0,0.0,0.0,13.0,0.0,1.0,1.0,18.34,10.3,2.94,
16.785,92.63315614111197,81.103551993282,-2.33,-1.57,0.55,6.0,0.0,0.0,13.0,0.0,1.0,1.0,18.25,10.1,2.06,
16.809,92.6123156141112,81.1183551993282,-2.61,-1.8,0.52,6.0,0.0,0.0,13.0,0.0,1.0,1.0,18.05,9.91,0.0,
16.834,92.67323156141113,81.18283551993282,-2.37,-1.61,1.01,6.0,0.0,0.0,12.0,0.0,1.0,1.0,17.76,9.71,0.0,
16.859,92.58932315614112,81.21628355199329,-2.54,-1.49,-0.58,6.0,0.0,0.0,12.0,0.0,1.0,1.0,17.46,9.61,0.1,
16.883,92.56293231561412,81.27362835519932,-1.63,-1.53,1.45,5.0,0.0,0.0,11.0,0.0,1.0,1.0,17.36,9.42,0.39,
16.908,92.52429323156142,81.29736283551993,-1.86,-2.02,0.89,5.0,0.0,0.0,11.0,0.0,1.0,1.0,17.07,9.22,0.39,
16.931,92.53842932315614,81.290736283552,-1.82,-2.81,0.85,5.0,0.0,0.0,10.0,0.0,1.0,1.0,16.58,8.93,1.47,
16.956,92.4858429323156,81.3710736283552,-1.81,-2.76,1.6,5.0,0.0,0.0,10.0,0.0,1.0,1.0,16.28,8.53,1.57,
16.98,92.47158429323156,81.38810736283553,-1.86,-2.89,1.02,5.0,0.0,0.0,10.0,0.0,1.0,1.0,15.99,8.24,0.0,
17.005,92.42515842932315,81.38981073628355,-1.69,-3.71,1.54,5.0,0.0,0.0,9.0,0.0,1.0,1.0,15.7,7.95,0.0,
17.03,92.3665158429323,81.38098107362836,-1.92,-2.94,1.08,5.0,0.0,0.0,9.0,0.0,1.0,0.0,15.3,7.55,0.0,
17.053,92.32465158429322,81.44309810736284,-1.87,-1.69,1.17,5.0,0.0,0.0,8.0,0.0,1.0,0.0,15.01,7.06,0.0,
17.078,92.31146515842933,81.45830981073628,-1.61,-1.5,1.06,5.0,0.0,0.0,8.0,0.0,1.0,0.0,14.72,6.87,2.65,
17.102,92.31914651584293,81.48683098107362,-1.76,-1.69,1.18,5.0,0.0,0.0,8.0,0.0,1.0,0.0,14.42,6.67,0.0,
17.127,92.27491465158428,81.49868309810736,-1.87,-1.43,1.18,5.0,0.0,0.0,7.0,0.0,1.0,0.0,14.32,6.47,0.0,
17.15,92.24349146515841,81.49086830981074,-1.81,-1.85,1.13,5.0,0.0,0.0,7.0,0.0,1.0,0.0,14.13,6.28,1.86,
17.175,92.20434914651584,81.55308683098109,-2.56,-0.89,0.76,5.0,0.0,0.0,7.0,0.0,1.0,0.0,14.03,6.28,3.04,
17.2,92.20943491465157,81.58630868309812,-2.61,-0.85,0.44,5.0,0.0,0.0,7.0,0.0,1.0,0.0,13.93,6.28,1.37,
17.224,92.28194349146516,81.58963086830983,-2.73,-1.33,0.29,5.0,0.0,0.0,6.0,0.0,1.0,0.0,14.13,6.28,1.67,
17.248,92.31619434914651,81.62596308683098,-2.61,-1.06,0.24,5.0,0.0,0.0,6.0,0.0,1.0,0.0,14.03,6.38,1.37,
17.272,92.28361943491466,81.6745963086831,-2.56,-1.24,0.32,5.0,0.0,0.0,6.0,0.0,1.0,0.0,14.03,6.38,0.0,
17.297,92.24436194349146,81.72445963086831,-2.45,-0.76,-0.02,5.0,0.0,0.0,6.0,0.0,1.0,0.0,14.03,6.38,0.2,
17.321,92.24043619434913,81.69344596308683,-2.76,-0.62,0.12,5.0,0.0,0.0,7.0,0.0,1.0,0.0,13.83,6.38,0.0,
17.346,92.3210436194349,81.72634459630868,-2.95,-0.62,0.33,5.0,0.0,0.0,6.0,0.0,1.0,0.0,13.93,6.38,0.59,
17.37,92.32910436194348,81.69363445963087,-2.79,-0.7,-0.41,5.0,0.0,0.0,7.0,0.0,1.0,0.0,13.93,6.38,0.2,
17.394,92.30291043619434,81.64536344596308,-2.53,-1.03,0.24,5.0,0.0,0.0,7.0,0.0,1.0,0.0,14.03,6.47,1.47,
17.419,92.29129104361944,81.64953634459633,-2.43,-0.55,0.34,5.0,0.0,0.0,6.0,0.0,1.0,0.0,14.03,6.47,0.0,
17.443,92.29912910436194,81.70395363445964,-2.55,-1.36,0.24,5.0,0.0,0.0,6.0,0.0,1.0,0.0,14.03,6.57,0.0,
17.467,92.29991291043618,81.70939536344596,-2.5,-1.15,0.34,5.0,0.0,0.0,6.0,0.0,1.0,0.0,14.03,6.67,0.0,
17.491,92.36299129104363,81.7549395363446,-2.36,-1.26,0.42,5.0,0.0,0.0,6.0,0.0,1.0,0.0,14.03,6.67,0.1,
17.516,92.35129912910435,81.80449395363446,-2.55,-0.73,0.12,5.0,0.0,0.0,6.0,0.0,1.0,0.0,14.03,6.77,1.57,
17.541,92.35912991291043,81.80044939536344,-2.92,-1.07,-0.08,5.0,0.0,0.0,7.0,0.0,1.0,0.0,14.13,6.77,1.37,
17.565,92.37791299129104,81.81804493953634,-2.7,-1.33,-0.03,5.0,0.0,0.0,8.0,0.0,1.0,0.0,14.32,7.06,1.28,
17.589,92.3527912991291,81.82880449395364,-2.7,-1.08,0.01,5.0,0.0,0.0,7.0,0.0,1.0,0.0,14.32,7.06,0.0,
17.613,92.36827912991292,81.83888044939536,-2.7,-1.42,-0.1,5.0,0.0,0.0,7.0,0.0,1.0,0.0,14.42,7.16,0.29,
17.638,92.47782791299129,81.86688804493954,-3.05,-1.51,-0.03,5.0,0.0,0.0,8.0,0.0,1.0,0.0,14.52,7.26,0.29,
17.662,92.48878279129913,81.84268880449396,-3.43,-1.27,-0.2,5.0,0.0,0.0,8.0,0.0,1.0,0.0,14.72,7.46,0.0,
17.687,92.50787827912991,81.84926888044939,-3.16,-0.95,-0.3,5.0,0.0,0.0,8.0,0.0,1.0,0.0,14.81,7.55,0.0,
17.711,92.51878782791299,81.87692688804493,-2.99,-0.56,-0.87,5.0,0.0,0.0,8.0,0.0,1.0,0.0,15.01,7.65,0.0,
17.735,92.5198787827913,81.9246926888045,-3.04,-0.84,-0.39,5.0,0.0,0.0,9.0,0.0,1.0,1.0,15.01,7.75,0.39,
17.76,92.51098787827912,81.96546926888044,-3.53,-1.24,-0.53,5.0,0.0,0.0,9.0,0.0,1.0,1.0,15.11,7.85,0.0,
17.784,92.53709878782792,81.94254692688804,-3.72,-0.71,-0.75,5.0,0.0,0.0,10.0,0.0,1.0,1.0,15.21,8.14,0.0,
17.809,92.55770987878279,81.9672546926888,-3.33,-0.48,-0.7,5.0,0.0,0.0,10.0,0.0,1.0,1.0,15.6,8.34,0.88,
17.833,92.54177098787828,81.98772546926888,-3.38,-0.66,-0.19,5.0,0.0,0.0,10.0,0.0,1.0,1.0,15.89,8.53,0.0,
17.858,92.53117709878782,81.9807725469269,-3.63,-0.02,-0.59,5.0,0.0,0.0,10.0,0.0,1.0,1.0,16.09,8.83,0.0,
17.883,92.51211770987878,81.98907725469269,-3.69,-0.33,-0.53,6.0,0.0,0.0,10.0,0.0,1.0,1.0,16.28,9.12,0.0,
17.907,92.54621177098788,81.98090772546928,-3.77,-0.19,-0.23,6.0,0.0,0.0,11.0,0.0,1.0,1.0,16.48,9.52,0.0,
17.931,92.59462117709879,81.96209077254693,-3.37,-0.73,-0.08,6.0,0.0,0.0,11.0,0.0,1.0,1.0,16.78,9.71,1.86,
17.955,92.56346211770988,81.8972090772547,-3.44,-0.71,-0.27,6.0,0.0,0.0,11.0,0.0,1.0,1.0,17.07,9.81,0.0,
17.98,92.54234621177099,81.87272090772548,-4.13,-0.49,-0.47,6.0,0.0,0.0,11.0,0.0,1.0,1.0,17.27,10.1,0.0,
18.004,92.5672346211771,81.83427209077256,-3.79,-0.67,-0.41,6.0,0.0,0.0,11.0,0.0,1.0,1.0,17.66,10.4,1.18,
18.029,92.5427234621177,81.77642720907726,-3.23,-1.07,0.08,6.0,0.0,0.0,12.0,0.0,1.0,1.0,17.85,10.69,1.28,
18.054,92.63927234621177,81.75264272090773,-2.94,-1.04,0.0,6.0,0.0,0.0,12.0,0.0,1.0,1.0,17.95,10.69,0.98,
18.078,92.63092723462118,81.71426427209077,-3.05,-1.38,0.15,6.0,0.0,0.0,12.0,0.0,1.0,1.0,17.95,10.59,0.39,
18.103,92.58509272346211,81.71942642720907,-2.88,-1.64,0.2,6.0,0.0,0.0,12.0,0.0,1.0,1.0,17.85,10.59,0.1,
18.127,92.58950927234622,81.71094264272091,-2.67,-1.82,0.25,6.0,0.0,0.0,11.0,0.0,1.0,1.0,17.85,10.5,0.0,
18.152,92.59895092723463,81.70109426427209,-2.66,-1.87,0.47,6.0,0.0,0.0,12.0,0.0,1.0,1.0,17.76,10.4,0.0,
18.177,92.60889509272346,81.7361094264272,-2.45,-2.15,0.34,6.0,0.0,0.0,11.0,0.0,1.0,1.0,17.66,10.4,0.0,
18.201,92.60988950927235,81.74861094264273,-2.58,-2.56,0.5,6.0,0.0,0.0,12.0,0.0,1.0,1.0,17.46,10.2,0.0,
18.226,92.50198895092723,81.78586109426428,-2.59,-2.45,0.45,6.0,0.0,0.0,11.0,0.0,1.0,1.0,17.17,10.01,0.0,
18.249,92.44619889509272,81.79858610942642,-2.69,-1.97,0.34,6.0,0.0,0.0,12.0,0.0,1.0,1.0,17.07,9.91,0.69,
18.274,92.45861988950927,81.82685861094265,-2.87,-2.03,0.21,6.0,0.0,0.0,12.0,0.0,1.0,1.0,16.97,9.91,3.34,
18.298,92.46886198895092,81.89268586109426,-2.96,-1.82,-0.02,6.0,0.0,0.0,12.0,0.0,1.0,1.0,16.97,9.71,0.0,
18.323,92.46088619889508,81.92626858610943,-3.17,-1.56,0.0,6.0,0.0,0.0,12.0,0.0,1.0,1.0,16.78,9.71,3.43,
18.348,92.40608861988952,81.91162685861093,-3.54,-1.78,-0.23,6.0,0.0,0.0,12.0,0.0,1.0,1.0,16.97,9.61,0.0,
18.372,92.40960886198894,81.8651626858611,-3.38,-1.75,-0.29,6.0,0.0,0.0,12.0,0.0,1.0,1.0,16.87,9.71,0.29,
18.397,92.43696088619889,81.8515162685861,-3.45,-1.34,0.21,6.0,0.0,0.0,12.0,0.0,1.0,1.0,16.87,9.71,0.39,
18.421,92.41269608861988,81.80515162685862,-3.47,-1.5,0.18,6.0,0.0,0.0,12.0,0.0,1.0,1.0,16.97,9.71,3.92,
18.445,92.428269608862,81.81851516268586,-3.37,-1.31,0.02,6.0,0.0,0.0,12.0,0.0,1.0,1.0,17.07,9.81,0.0,
18.469,92.38482696088619,81.81085151626858,-3.09,-1.23,-0.01,6.0,0.0,0.0,12.0,0.0,1.0,1.0,17.07,9.71,0.0,
18.494,92.34448269608862,81.85508515162687,-3.27,-1.45,-0.08,6.0,0.0,0.0,12.0,0.0,1.0,1.0,16.97,9.71,0.0,
18.519,92.36744826960887,81.90450851516268,-3.55,-1.63,-0.13,6.0,0.0,0.0,13.0,0.0,1.0,1.0,16.97,9.61,0.0,
18.543,92.40574482696088,81.89145085151627,-3.4,-1.74,-0.02,6.0,0.0,0.0,13.0,0.0,1.0,1.0,16.97,9.61,0.49,
18.568,92.33757448269608,81.91714508515163,-3.26,-1.67,0.12,6.0,0.0,0.0,12.0,0.0,1.0,1.0,16.97,9.61,0.2,
18.592,92.37575744826961,81.86571450851517,-3.56,-1.74,0.07,6.0,0.0,0.0,13.0,0.0,1.0,1.0,16.97,9.61,0.29,
18.617,92.37057574482697,81.83357145085152,-3.36,-1.79,0.02,6.0,0.0,0.0,12.0,0.0,1.0,1.0,16.97,9.52,0.1,
18.64,92.37905757448269,81.80335714508516,-3.2,-1.77,0.08,6.0,0.0,0.0,13.0,0.0,1.0,1.0,16.97,9.52,0.0,
18.665,92.40690575744827,81.78233571450852,-3.05,-1.95,0.21,6.0,0.0,0.0,13.0,0.0,1.0,1.0,16.87,9.42,0.69,
18.69,92.40069057574483,81.77123357145085,-2.98,-2.01,0.25,6.0,0.0,0.0,13.0,0.0,1.0,1.0,16.87,9.32,0.98,
18.714,92.38206905757448,81.76112335714508,-2.84,-2.06,0.27,6.0,0.0,0.0,12.0,0.0,1.0,1.0,16.78,9.22,0.49,
18.739,92.38020690575745,81.74211233571451,-2.98,-1.85,0.36,6.0,0.0,0.0,12.0,0.0,1.0,1.0,16.68,9.12,1.08,
18.763,92.39802069057575,81.74921123357146,-2.86,-2.17,0.15,6.0,0.0,0.0,12.0,0.0,1.0,1.0,16.58,9.12,0.29,
18.787,92.38180206905757,81.78592112335716,-3.06,-1.92,0.07,6.0,0.0,0.0,12.0,0.0,1.0,1.0,16.48,9.03,1.96,
18.811,92.34418020690576,81.79859211233571,-3.05,-1.99,0.21,6.0,0.0,0.0,13.0,0.0,1.0,1.0,16.28,8.93,0.0,
18.836,92.31341802069058,81.77285921123357,-3.12,-1.86,-0.01,6.0,0.0,0.0,12.0,0.0,1.0,1.0,16.28,8.93,0.0,
18.861,92.31034180206906,81.75228592112336,-3.33,-2.0,0.07,6.0,0.0,0.0,12.0,0.0,1.0,1.0,16.19,8.83,0.29,
18.885,92.3010341802069,81.78622859211234,-3.1,-1.84,0.26,6.0,0.0,0.0,12.0,0.0,1.0,1.0,16.19,8.63,0.0,
18.91,92.2821034180207,81.74462285921123,-2.95,-2.15,0.27,6.0,0.0,0.0,12.0,0.0,1.0,1.0,16.09,8.53,0.0,
18.933,92.27121034180206,81.69546228592112,-3.1,-2.31,0.35,6.0,0.0,0.0,12.0,0.0,1.0,1.0,15.89,8.34,0.2,
18.958,92.24312103418019,81.71754622859211,-3.01,-2.35,0.2,6.0,0.0,0.0,11.0,0.0,1.0,1.0,15.79,8.14,0.2,
18.982,92.24931210341802,81.73775462285921,-2.85,-2.78,0.47,6.0,0.0,0.0,11.0,0.0,1.0,1.0,15.6,8.04,0.29,
19.007,92.1959312103418,81.73977546228592,-3.02,-2.21,0.34,6.0,0.0,0.0,12.0,0.0,1.0,0.0,15.5,7.95,1.18,
19.032,92.15459312103418,81.75797754622859,-3.43,-2.1,0.34,6.0,0.0,0.0,11.0,0.0,1.0,0.0,15.3,7.75,0.0,
19.056,92.13245931210342,81.74179775462287,-2.93,-1.91,0.19,6.0,0.0,0.0,12.0,0.0,1.0,0.0,15.3,7.55,0.39,
19.08,92.05824593121034,81.72217977546228,-2.8,-1.57,0.41,6.0,0.0,0.0,11.0,0.0,1.0,0.0,15.11,7.46,0.1,
19.104,92.03282459312103,81.72921797754623,-2.88,-1.43,0.19,6.0,0.0,0.0,11.0,0.0,1.0,0.0,15.01,7.26,0.2,
19.129,91.9942824593121,81.72992179775463,-2.74,-1.46,0.21,6.0,0.0,0.0,11.0,0.0,1.0,0.0,14.91,7.26,0.0,
19.153,91.98142824593123,81.79299217977547,-2.57,-1.64,0.3,6.0,0.0,0.0,11.0,0.0,1.0,0.0,14.91,7.16,0.0,
19.178,91.97114282459312,81.80829921797755,-2.6,-1.99,0.38,5.0,0.0,0.0,11.0,0.0,1.0,0.0,14.81,7.06,0.0,
19.203,92.02411428245931,81.80982992179776,-2.5,-2.53,0.48,6.0,0.0,0.0,10.0,0.0,1.0,0.0,14.62,6.87,0.59,
19.226,92.02941142824592,81.82798299217978,-2.5,-2.11,0.6,5.0,0.0,0.0,11.0,0.0,1.0,0.0,14.42,6.87,0.98,
19.251,91.99394114282458,81.83879829921798,-3.05,-1.39,0.15,5.0,0.0,0.0,10.0,0.0,1.0,0.0,14.32,6.67,0.69,
19.275,91.99039411428245,81.8038798299218,-3.27,-1.41,-0.22,5.0,0.0,0.0,11.0,0.0,1.0,0.0,14.22,6.57,0.1,
19.3,91.95403941142825,81.77338798299218,-3.03,-1.52,-0.27,5.0,0.0,0.0,9.0,0.0,1.0,0.0,14.22,6.67,0.1,
19.324,91.97740394114284,81.80633879829922,-2.73,-1.49,-0.3,6.0,0.0,0.0,11.0,0.0,1.0,0.0,14.32,6.67,0.1,
19.349,91.91674039411427,81.80063387982993,-3.08,-1.47,-0.01,6.0,0.0,0.0,11.0,0.0,1.0,0.0,14.42,6.67,0.29,
19.374,91.98267403941142,81.791063387983,-2.98,-1.41,0.14,6.0,0.0,0.0,11.0,0.0,1.0,0.0,14.42,6.67,0.39,
19.397,91.99826740394114,81.8621063387983,-3.31,-1.12,0.24,6.0,0.0,0.0,11.0,0.0,1.0,0.0,14.32,6.77,0.2,
19.422,91.90982674039412,81.86021063387983,-3.46,-1.26,-0.05,6.0,0.0,0.0,11.0,0.0,1.0,0.0,14.42,6.87,0.0,
19.446,91.90998267403941,81.78802106338799,-3.4,-1.27,-0.31,6.0,0.0,0.0,11.0,0.0,1.0,0.0,14.62,6.97,0.0,
19.471,91.89199826740395,81.7628021063388,-3.08,-1.37,-0.37,6.0,0.0,0.0,11.0,0.0,1.0,0.0,14.81,7.06,0.0,
19.495,91.8361998267404,81.79628021063388,-3.11,-0.66,-0.21,6.0,0.0,0.0,11.0,0.0,1.0,0.0,15.01,7.36,0.0,
19.52,91.84861998267402,81.79062802106338,-3.39,-0.64,-0.34,6.0,0.0,0.0,11.0,0.0,1.0,0.0,15.11,7.46,0.69,
19.545,91.88586199826742,81.76306280210633,-3.33,-0.45,-0.29,6.0,0.0,0.0,11.0,0.0,1.0,0.0,15.3,7.65,0.2,
19.569,91.88958619982675,81.78730628021063,-3.31,-0.76,-0.25,6.0,0.0,0.0,12.0,0.0,1.0,0.0,15.4,7.85,0.29,
19.594,91.88995861998268,81.78073062802106,-3.23,-0.47,-0.34,6.0,0.0,0.0,12.0,0.0,1.0,1.0,15.6,7.95,0.2,
19.618,91.92599586199827,81.7980730628021,-3.31,-0.78,-0.29,6.0,0.0,0.0,12.0,0.0,1.0,1.0,15.79,8.04,1.28,
19.643,91.95659958619981,81.85380730628022,-3.21,-1.0,-0.39,6.0,0.0,0.0,11.0,0.0,1.0,1.0,15.89,8.14,0.39,
19.667,91.94165995861998,81.86838073062803,-3.21,-0.88,-0.41,6.0,0.0,0.0,12.0,0.0,1.0,1.0,15.89,8.24,0.49,
19.691,91.96716599586199,81.86983807306281,-3.03,-0.96,-0.47,6.0,0.0,0.0,11.0,0.0,1.0,1.0,15.99,8.44,1.08,
19.716,91.9337165995862,81.82498380730627,-3.06,-0.77,-0.3,6.0,0.0,0.0,12.0,0.0,1.0,1.0,16.09,8.44,0.0,
19.74,91.93937165995861,81.84749838073061,-3.01,-1.02,-0.24,6.0,0.0,0.0,13.0,0.0,1.0,1.0,16.19,8.53,0.0,
19.765,92.00293716599587,81.81374983807306,-2.79,-0.91,-0.21,6.0,0.0,0.0,13.0,0.0,1.0,1.0,16.28,8.63,0.0,
19.789,92.05429371659959,81.83737498380731,-2.92,-0.76,-0.24,6.0,0.0,0.0,13.0,0.0,1.0,1.0,16.28,8.73,0.0,
19.814,92.05942937165996,81.84873749838073,-2.74,-0.63,-0.21,6.0,0.0,0.0,13.0,0.0,1.0,1.0,16.28,8.83,0.0,
19.838,92.023942937166,81.86787374983808,-3.02,-0.76,-0.18,6.0,0.0,0.0,14.0,0.0,1.0,1.0,16.38,550.05,0.0,
19.863,92.0383942937166,81.8517873749838,-2.97,-0.75,-0.21,6.0,0.0,0.0,13.0,0.0,1.0,1.0,16.48,9.03,0.2,
19.888,92.05783942937165,81.82317873749837,-3.18,-1.02,-0.29,6.0,0.0,0.0,13.0,0.0,1.0,1.0,16.58,9.03,0.2,
19.912,92.09578394293716,81.80231787374984,-2.83,-1.23,-0.07,6.0,0.0,0.0,13.0,0.0,1.0,1.0,16.58,9.12,0.2,
19.937,92.10857839429372,81.75523178737498,-2.85,-1.59,0.22,6.0,0.0,0.0,13.0,0.0,1.0,1.0,16.58,9.12,0.29,
19.961,92.10085783942937,81.7775231787375,-2.63,-1.93,0.47,6.0,0.0,0.0,13.0,0.0,1.0,1.0,16.58,9.22,0.1,
19.985,92.10008578394293,81.79775231787376,-2.78,-1.6,0.44,6.0,0.0,0.0,13.0,0.0,1.0,1.0,16.48,9.12,0.39,
20.009,92.1450085783943,81.79077523178738,-2.95,-1.53,0.15,6.0,0.0,0.0,13.0,0.0,1.0,1.0,16.38,9.03,0.29,
20.034,92.09550085783943,81.80807752317874,-3.04,-1.59,-0.03,6.0,0.0,0.0,14.0,0.0,1.0,1.0,16.28,8.93,0.39,
20.059,92.09955008578395,81.80980775231788,-3.08,-1.31,0.05,6.0,0.0,0.0,16.0,0.0,1.0,1.0,16.28,9.12,0.0,
