time,pitch,roll,gyrx,gyry,gyrz,f1,f2,f3,f4,f5,f6,f7,g1,g2,g3
0.392,52.33,60.33,-4.57,-1.98,-1.08,0.0,0.0,0.0,0.0,0.0,0.0,0.0,0.0,0.0,0.49,
0.415,60.196,69.44699999999999,-4.88,-0.03,1.51,0.0,0.0,0.0,0.0,0.0,0.0,0.0,0.0,0.0,0.59,
0.439,67.73259999999999,78.20670000000001,-3.69,0.54,4.31,0.0,0.0,0.0,0.0,0.0,0.0,0.0,0.0,0.0,0.39,
0.462,74.17425999999999,85.70667,0.87,-1.49,3.47,0.0,0.0,0.0,0.0,0.0,0.0,0.0,0.0,0.0,0.39,
0.486,79.498426,91.946667,1.08,-1.58,-0.23,0.0,0.0,0.0,0.0,0.0,0.0,0.0,0.0,0.0,0.39,
0.509,84.1258426,97.2326667,-4.4,-0.9,-3.02,0.0,0.0,0.0,0.0,0.0,0.0,0.0,0.0,0.0,0.39,
0.533,88.11658426000001,101.86526667,-5.79,-0.97,-2.6,0.0,0.0,0.0,0.0,0.0,0.0,0.0,0.0,0.0,0.69,
0.558,91.62965842599999,106.02752666699999,-4.08,-0.85,-0.78,0.0,0.0,0.0,0.0,0.0,0.0,0.0,0.0,0.0,0.69,
0.581,94.44696584260001,109.36875266669999,-4.04,-0.6,0.79,0.0,0.0,0.0,0.0,0.0,0.0,0.0,0.0,0.0,0.59,
0.605,96.77169658426,111.97987526666999,-4.02,-1.59,1.31,0.0,0.0,0.0,0.0,0.0,0.0,0.0,0.0,0.0,0.39,
0.628,98.705169658426,114.202987526667,-3.64,-2.34,1.34,0.0,0.0,0.0,0.0,0.0,0.0,0.0,0.0,0.0,0.39,
0.652,100.1405169658426,116.0722987526667,-4.16,-0.9,0.31,0.0,0.0,0.0,0.0,0.0,0.0,0.0,0.0,0.0,0.69,
0.676,101.43605169658426,117.77122987526667,-4.31,-0.39,-0.87,0.0,0.0,0.0,0.0,0.0,0.0,0.0,0.0,0.0,0.88,
0.7,102.56460516965844,119.16512298752666,-4.08,-1.79,-0.92,0.0,0.0,0.0,0.0,0.0,0.0,0.0,0.0,0.0,0.78,
0.723,103.60446051696584,120.35751229875267,-2.02,-1.78,-0.55,0.0,0.0,0.0,0.0,0.0,0.0,0.0,0.0,0.0,0.69,
0.748,104.4464460516966,121.30475122987527,-1.45,-2.06,0.25,0.0,0.0,0.0,0.0,0.0,0.0,0.0,0.0,0.0,0.39,
0.772,105.35864460516966,122.11047512298752,-3.14,-2.61,1.46,0.0,0.0,0.0,0.0,0.0,0.0,0.0,0.0,0.0,0.59,
0.795,106.10686446051696,122.78504751229875,-3.58,-1.09,0.95,0.0,0.0,0.0,0.0,0.0,0.0,0.0,0.0,0.0,0.78,
0.82,106.60468644605169,123.48250475122988,-3.76,1.23,-0.27,0.0,0.0,0.0,0.0,0.0,0.0,0.0,0.0,0.0,0.88,
0.843,107.01446864460516,124.28125047512299,-5.76,-0.24,-0.08,0.0,0.0,0.0,0.0,0.0,0.0,0.0,0.0,0.0,0.88,
0.867,107.30744686446052,124.8921250475123,-5.63,-1.31,0.39,0.0,0.0,0.0,0.0,0.0,0.0,0.0,0.0,0.0,0.78,
0.891,107.72374468644604,125.39421250475122,-2.76,-1.92,-1.04,0.0,0.0,0.0,0.0,0.0,0.0,0.0,0.0,0.0,0.69,
0.915,107.9993744686446,125.65142125047512,-0.89,-0.82,-1.64,0.0,0.0,0.0,0.0,0.0,0.0,0.0,0.0,0.0,0.78,
0.939,108.18893744686446,125.89314212504752,-2.36,-0.04,-2.37,0.0,0.0,0.0,0.0,0.0,0.0,0.0,0.0,0.0,1.08,
0.963,108.40589374468645,126.10631421250474,-3.35,-0.66,-1.66,0.0,0.0,0.0,0.0,0.0,0.0,0.0,0.0,0.0,1.08,
0.987,108.64358937446863,126.21763142125047,-1.92,-1.49,-0.92,0.0,0.0,0.0,0.0,0.0,0.0,0.0,0.0,0.0,0.98,
1.01,108.75735893744687,126.23776314212505,-0.97,-1.37,0.24,0.0,0.0,0.0,0.0,0.0,0.0,0.0,0.0,0.0,0.88,
1.034,108.8767358937447,126.30277631421251,-1.46,-0.89,1.31,0.0,0.0,0.0,0.0,0.0,0.0,0.0,0.0,0.0,0.69,
1.058,109.03267358937447,126.40827763142126,-2.06,-0.88,1.78,0.0,0.0,0.0,0.0,0.0,0.0,0.0,0.0,0.0,0.88,
1.082,109.20126735893744,126.54482776314214,-2.54,-0.56,0.61,0.0,0.0,0.0,0.0,0.0,0.0,0.0,0.0,0.0,1.08,
1.105,109.31712673589375,126.63048277631421,-2.96,-0.66,-0.53,0.0,0.0,0.0,0.0,0.0,0.0,0.0,0.0,0.0,1.08,
1.13,109.48171267358937,126.72004827763142,-3.96,-1.18,-1.77,0.0,0.0,0.0,0.0,0.0,0.0,0.0,0.0,0.0,0.88,
1.154,109.71417126735892,126.86400482776313,-5.69,-0.66,-0.96,0.0,0.0,0.0,0.0,0.0,0.0,0.0,0.0,0.0,0.78,
1.177,109.72841712673589,126.9774004827763,-6.02,0.11,0.64,0.0,0.0,0.0,0.0,0.0,0.0,0.0,0.0,0.0,0.69,
1.201,109.71184171267357,127.14174004827763,-3.27,-0.72,1.03,0.0,0.0,0.0,0.0,0.0,0.0,0.0,0.0,0.0,0.98,
1.225,109.66518417126736,127.27517400482776,-0.47,-3.02,1.08,0.0,0.0,0.0,0.0,0.0,0.0,0.0,0.0,0.0,1.47,
1.249,109.63351841712674,127.29751740048276,-2.01,-3.94,1.33,0.0,0.0,0.0,0.0,0.0,0.0,0.0,0.0,0.0,1.18,
1.272,109.55835184171266,127.07475174004827,-2.59,-2.23,0.51,0.0,0.0,0.0,0.0,0.0,0.0,0.0,0.0,0.0,0.88,
1.297,109.63183518417127,126.88147517400483,-3.46,-0.55,-0.92,0.0,0.0,0.0,0.0,0.0,0.0,0.0,0.0,0.0,0.78,
1.32,109.67518351841713,126.76314751740048,-5.81,-0.72,-0.53,0.0,0.0,0.0,0.0,0.0,0.0,0.0,0.0,0.0,0.78,
1.344,109.8415183518417,126.91331475174006,-4.59,-1.59,-0.22,0.0,0.0,0.0,0.0,0.0,0.0,0.0,0.0,0.0,0.88,
1.369,110.02015183518417,127.162331475174,-2.12,-1.36,1.3,0.0,0.0,0.0,0.0,0.0,0.0,0.0,0.0,0.0,1.18,
1.392,110.09201518351841,127.37623314751741,-2.19,0.15,1.7,0.0,0.0,0.0,0.0,0.0,0.0,0.0,0.0,0.0,0.98,
1.416,110.03620151835185,127.43362331475174,-2.76,0.45,0.8,0.0,0.0,0.0,0.0,0.0,0.0,0.0,0.0,0.0,0.69,
1.439,109.98562015183518,127.35836233147516,-3.02,-1.17,-0.65,0.0,0.0,0.0,0.0,0.0,0.0,0.0,0.0,0.0,0.29,
1.464,109.9175620151835,127.20683623314751,-3.19,-1.5,-2.26,0.0,0.0,0.0,0.0,0.0,0.0,0.0,0.0,0.0,0.29,
1.487,110.06375620151834,127.22768362331476,-2.89,0.15,-2.67,0.0,0.0,0.0,0.0,0.0,0.0,0.0,0.0,0.0,0.29,
1.511,110.01537562015183,127.25676836233148,-1.76,0.45,-0.47,0.0,0.0,0.0,0.0,0.0,0.0,0.0,0.0,0.0,0.39,
1.536,109.94753756201519,127.33167683623316,-3.83,-0.39,0.82,0.0,0.0,0.0,0.0,0.0,0.0,0.0,0.0,0.0,0.69,
1.559,109.81475375620151,127.26716768362331,-4.38,-1.08,1.3,0.0,0.0,0.0,0.0,0.0,0.0,0.0,0.1,0.0,0.78,
1.583,109.67547537562015,127.09871676836232,-1.67,-1.22,-0.08,0.0,0.0,0.0,0.0,0.0,0.0,0.0,0.0,0.0,0.69,
1.606,109.55354753756203,127.00987167683623,-3.25,-0.44,-0.64,0.0,0.0,0.0,0.0,0.0,0.0,0.0,0.0,0.0,0.39,
1.631,109.6673547537562,126.99198716768362,-6.89,-1.36,-0.19,0.0,0.0,0.0,0.0,0.0,0.0,0.0,0.0,0.0,0.39,
1.654,109.71473547537562,127.03519871676838,-5.98,-2.02,1.05,0.0,0.0,0.0,0.0,0.0,0.0,0.0,0.0,0.0,0.59,
1.678,109.71947354753756,127.04851987167683,-3.65,-0.89,1.23,0.0,0.0,0.0,0.0,0.0,0.0,0.0,0.0,0.0,0.88,
1.702,109.69294735475376,127.11285198716769,-3.79,-1.28,1.66,0.0,0.0,0.0,0.0,0.0,0.0,0.0,0.0,0.0,0.88,
1.726,109.68129473547538,127.07428519871677,-5.76,-1.46,2.09,0.0,0.0,0.0,0.0,0.0,0.0,0.0,0.0,0.0,0.59,
1.75,109.64412947354754,126.98942851987168,-5.52,-1.75,0.74,0.0,0.0,0.0,0.0,0.0,0.0,0.0,0.0,0.0,0.59,
1.773,109.78441294735474,127.08894285198717,-3.83,-2.5,0.43,0.0,0.0,0.0,0.0,0.0,0.0,0.0,0.0,0.0,0.69,
1.798,109.89744129473547,127.09889428519871,-3.29,-1.83,1.02,0.0,0.0,0.0,0.0,0.0,0.0,0.0,0.0,0.0,0.98,
1.821,110.07074412947355,127.09988942851987,-2.71,-0.69,0.77,0.0,0.0,0.0,0.0,0.0,0.0,0.0,0.0,0.0,0.88,
1.845,110.15107441294735,126.94698894285199,-2.63,-1.09,0.66,0.0,0.0,0.0,0.0,0.0,0.0,0.0,0.0,0.0,0.88,
1.869,110.19510744129474,126.7696988942852,-4.68,-0.66,0.85,0.0,0.0,0.0,0.0,0.0,0.0,0.0,0.0,0.0,0.69,
1.893,110.34351074412947,126.75196988942852,-5.64,-0.62,0.34,0.0,0.0,0.0,0.0,0.0,0.0,0.0,0.0,0.0,0.49,
1.916,110.28635107441295,126.65119698894284,-4.24,-0.89,-0.5,0.0,0.0,0.0,0.0,0.0,0.0,0.0,0.1,0.0,0.88,
1.941,110.49663510744129,126.61411969889429,-3.24,-2.13,-1.55,0.0,0.0,0.0,0.0,0.0,0.0,0.0,0.0,0.0,0.98,
1.965,110.58066351074413,126.61041196988943,-5.49,-1.11,0.42,0.0,0.0,0.0,0.0,0.0,0.0,0.0,0.0,0.0,1.08,
1.988,110.56206635107442,126.69104119698895,-5.92,0.73,1.84,0.0,0.0,0.0,0.0,0.0,0.0,0.0,0.0,0.0,0.88,
2.012,110.40720663510744,126.69910411969889,-5.37,0.0,1.48,0.0,0.0,0.0,0.0,0.0,0.0,0.0,0.0,0.0,0.69,
2.035,110.22072066351075,126.78091041196988,-5.17,-1.1,0.24,0.0,0.0,0.0,0.0,0.0,0.0,0.0,0.0,0.0,0.88,
2.06,110.05807206635107,126.81609104119698,-2.92,-2.15,-0.64,0.0,0.0,0.0,0.0,0.0,0.0,0.0,0.0,0.0,0.88,
2.083,109.9338072066351,126.85560910411971,-3.15,-1.92,-0.73,0.0,0.0,0.0,0.0,0.0,0.0,0.0,0.0,0.0,1.08,
2.107,109.87638072066352,126.80556091041197,-5.32,-1.76,-1.15,0.0,0.0,0.0,0.0,0.0,0.0,0.0,0.0,0.0,1.08,
2.131,109.82563807206634,126.7195560910412,-5.21,-1.02,-1.02,0.0,0.0,0.0,0.0,0.0,0.0,0.0,0.0,0.0,0.98,
2.155,109.75756380720664,126.60295560910413,-3.91,-0.43,-0.32,0.0,0.0,0.0,0.0,0.0,0.0,0.0,0.1,0.0,0.88,
2.179,109.83175638072066,126.61829556091043,-4.43,-1.6,0.34,0.0,0.0,0.0,0.0,0.0,0.0,0.0,0.1,0.0,0.88,
2.203,109.85717563807206,126.62882955609103,-4.57,-2.79,1.47,0.0,0.0,0.0,0.0,0.0,0.0,0.0,0.1,0.0,1.08,
2.227,109.7607175638072,126.70188295560911,-2.56,-1.79,1.66,0.0,0.0,0.0,0.0,0.0,0.0,0.0,0.0,0.0,1.28,
2.25,109.82307175638071,126.62818829556092,-2.4,-0.9,0.52,0.0,0.0,0.0,0.0,0.0,0.0,0.0,0.0,0.0,1.08,
2.275,109.73930717563807,126.2248188295561,-5.11,-1.44,0.2,0.0,0.0,0.0,0.0,0.0,0.0,0.0,0.0,0.0,0.78,
2.298,109.7129307175638,125.68048188295562,-8.62,-2.89,-0.98,0.0,0.0,0.0,0.0,0.0,0.0,0.0,0.0,0.0,0.78,
2.322,109.93529307175638,125.22104818829557,-11.28,-2.43,-0.95,0.0,0.0,0.0,0.0,0.0,0.0,0.0,0.0,0.0,1.08,
2.347,110.20952930717563,124.93210481882957,-9.65,-0.34,0.8,0.0,0.0,0.0,0.0,0.0,0.0,0.0,0.0,0.0,1.28,
2.37,110.35395293071757,124.71421048188296,-11.02,2.7,3.73,0.0,0.0,0.0,0.0,0.0,0.0,0.0,0.0,0.0,1.28,
2.394,110.26939529307177,124.3054210481883,-14.85,2.73,5.61,0.0,0.0,0.0,0.0,0.0,0.0,0.0,0.0,0.0,0.98,
2.417,110.05393952930717,123.65254210481882,-16.79,0.72,3.91,0.0,0.0,0.0,0.0,0.0,0.0,0.0,0.0,0.0,0.29,
2.442,109.89739395293071,123.22725421048189,-20.38,0.08,1.27,0.0,0.0,0.0,0.0,0.0,0.0,0.0,0.0,0.0,0.49,
2.465,109.76473939529308,122.81572542104819,-24.23,-0.84,0.34,0.0,0.0,0.0,0.0,0.0,0.0,0.0,0.0,0.0,0.39,
2.489,109.5264739395293,121.83857254210481,-24.66,-3.18,-2.76,0.0,0.0,0.0,0.0,0.0,0.0,0.0,0.0,0.0,0.39,
2.513,109.10664739395294,120.17485725421048,-25.98,-5.43,-7.98,0.0,0.0,0.0,0.0,0.0,0.0,0.0,0.0,0.0,0.69,
2.537,108.78566473939529,118.94648572542104,-35.47,-6.02,-11.05,0.0,0.0,0.0,0.0,0.0,0.0,0.0,0.0,0.0,0.59,
2.562,108.91556647393953,118.23864857254209,-43.74,-5.45,-10.38,0.0,0.0,0.0,0.0,0.0,0.0,0.0,0.0,0.0,0.59,
2.585,108.97355664739396,117.7628648572542,-42.6,-5.44,-6.87,0.0,0.0,0.0,0.0,0.0,0.0,0.0,0.0,0.0,0.59,
2.61,108.64635566473939,117.06728648572542,-39.73,-5.12,-6.52,0.0,0.0,0.0,0.0,0.0,0.0,0.0,0.0,0.0,0.49,
2.633,108.27163556647395,116.39472864857254,-41.76,-4.41,-5.14,0.0,0.0,0.0,0.0,0.0,0.0,0.0,0.0,0.0,0.88,
2.658,107.91916355664739,115.65247286485724,-49.5,-5.02,-6.2,0.0,0.0,0.0,0.0,0.0,0.0,0.0,0.0,0.0,0.69,
2.681,107.59591635566474,114.84024728648572,-59.23,-5.58,-6.65,0.0,0.0,0.0,0.0,0.0,0.0,0.0,0.0,0.0,0.78,
2.705,107.30259163556646,113.77802472864856,-71.82,-5.56,-7.56,0.0,0.0,0.0,0.0,0.0,0.0,0.0,0.2,0.0,0.88,
2.729,107.21925916355663,112.71780247286486,-87.82,-0.73,-5.64,0.0,0.0,0.0,0.0,0.0,0.0,0.0,0.29,0.0,1.08,
2.753,107.30992591635565,111.53178024728649,-95.84,-8.69,-5.95,0.0,0.0,0.0,0.0,0.0,0.0,0.0,0.2,0.0,1.18,
2.778,107.15699259163557,110.12617802472865,-90.86,-10.77,-1.02,0.0,0.0,0.0,0.0,0.0,0.0,0.0,0.2,0.0,0.88,
2.801,106.88069925916355,108.54561780247286,-87.91,-9.08,-3.44,0.0,0.0,0.0,0.0,0.0,0.0,0.0,0.1,0.0,2.16,
2.826,106.61906992591636,107.07356178024727,-86.03,-2.47,0.5,0.0,0.0,0.0,0.0,0.0,0.0,0.0,0.1,0.0,13.83,
2.849,105.84590699259165,105.27035617802473,-89.02,-4.33,0.27,0.0,0.0,0.0,0.0,0.0,0.0,0.0,0.29,0.0,6.77,
2.874,105.08459069925917,103.30803561780247,-96.96,-3.5,-3.5,0.0,0.0,0.0,0.0,0.0,0.0,0.0,0.29,0.0,3.43,
2.897,104.90045906992592,100.42980356178025,-96.37,-4.83,-5.64,0.0,0.0,0.0,0.0,0.0,0.0,0.0,0.29,0.0,2.26,
2.921,105.2510459069926,97.06398035617802,-77.79,-9.07,-6.95,0.0,0.0,0.0,0.0,0.0,0.0,0.0,0.29,0.0,4.71,
2.946,105.57410459069926,94.75639803561779,-55.8,-8.96,-3.37,0.0,0.0,0.0,0.0,0.0,0.0,0.0,0.2,0.0,2.35,
2.969,105.72341045906992,93.10363980356178,-48.09,-4.97,5.54,0.0,0.0,0.0,0.0,0.0,0.0,0.0,0.29,0.0,3.04,
2.993,105.792341045907,91.54336398035618,-54.92,1.42,10.34,0.0,0.0,0.0,0.0,0.0,0.0,0.0,0.29,0.0,1.57,
3.017,105.7542341045907,89.93833639803562,-62.79,6.84,11.12,0.0,0.0,0.0,0.0,0.0,0.0,0.0,0.29,0.0,1.18,
3.041,105.67842341045908,87.96883363980356,-55.8,10.07,10.9,0.0,0.0,0.0,0.0,0.0,0.0,0.0,0.1,0.0,1.57,
3.064,105.5178423410459,86.16088336398035,-25.66,3.11,8.62,0.0,0.0,0.0,0.0,0.0,0.0,0.0,0.0,0.0,1.57,
3.089,104.29578423410459,84.03608833639804,-7.61,-2.01,-18.53,0.0,0.0,0.0,0.0,0.0,0.0,0.0,0.0,0.0,1.67,
3.112,103.52557842341047,84.7776088336398,-27.7,-2.74,3.13,0.0,0.0,0.0,0.0,0.0,0.0,0.0,0.0,0.0,1.18,
3.136,103.16055784234105,85.72476088336398,-53.02,-11.54,6.63,0.0,0.0,0.0,0.0,0.0,0.0,0.0,0.0,0.0,1.86,
3.161,102.96205578423411,87.4754760883364,-60.09,-11.92,17.32,0.0,0.0,0.0,0.0,0.0,0.0,0.0,0.1,0.0,0.39,
3.184,102.7622055784234,88.82054760883365,-56.95,-10.8,21.37,0.0,0.0,0.0,0.0,0.0,0.0,0.0,0.1,0.0,0.0,
3.209,102.31922055784233,90.05305476088337,-22.08,-16.26,-12.47,0.0,0.0,0.0,0.0,0.0,0.0,0.0,0.2,0.0,0.0,
3.232,101.90592205578423,94.70330547608835,62.37,-34.84,-7.11,0.0,0.0,0.0,0.0,0.0,0.0,0.0,2.45,0.29,0.0,
3.256,101.38759220557843,98.96633054760883,44.63,-9.38,-18.63,0.0,0.0,0.0,0.0,0.0,0.0,0.0,4.51,0.49,0.0,
3.28,104.47675922055784,104.08163305476089,-18.3,8.86,35.8,0.0,0.0,0.0,0.0,0.0,0.0,0.0,5.4,0.78,0.0,
3.304,103.86767592205578,100.42616330547608,-26.38,-20.21,4.4,0.0,0.0,0.0,0.0,0.0,0.0,0.0,5.1,0.78,0.0,
3.329,102.15076759220557,97.4326163305476,-10.12,-18.02,0.85,0.0,0.0,0.0,1.0,0.0,0.0,0.0,5.3,1.08,0.78,
3.352,101.34007675922055,94.73926163305475,4.85,6.48,-3.18,0.0,0.0,0.0,0.0,0.0,0.0,0.0,5.4,1.18,0.0,
3.377,102.12300767592204,93.53392616330548,-2.39,-2.61,-5.11,0.0,0.0,0.0,0.0,0.0,0.0,0.0,5.2,1.18,0.0,
3.4,102.6603007675922,92.29739261633054,-9.12,-6.39,2.47,0.0,0.0,0.0,1.0,0.0,0.0,0.0,5.4,1.08,0.39,
3.424,102.21903007675922,90.81473926163306,-3.01,-7.5,5.11,0.0,0.0,0.0,1.0,0.0,0.0,0.0,5.79,1.47,1.18,
3.448,101.49090300767593,89.7034739261633,-1.2,-5.46,2.21,0.0,0.0,0.0,1.0,0.0,1.0,0.0,6.38,1.77,0.0,
3.472,101.04009030076759,88.79134739261633,-2.94,0.84,1.31,0.0,0.0,0.0,1.0,0.0,1.0,0.0,6.57,1.86,0.0,
3.495,101.00400903007676,88.14213473926162,-2.82,1.97,2.21,1.0,0.0,0.0,1.0,0.0,1.0,0.0,6.67,1.77,0.0,
3.519,101.12640090300766,87.55521347392616,-1.69,-0.89,0.98,1.0,0.0,0.0,1.0,0.0,1.0,0.0,6.77,1.77,0.39,
3.544,101.02164009030076,87.03752134739263,-1.73,-2.94,1.13,1.0,0.0,0.0,1.0,0.0,0.0,0.0,6.67,1.77,0.29,
3.567,100.96616400903007,86.67975213473926,-2.26,-1.8,0.76,1.0,0.0,0.0,1.0,0.0,0.0,0.0,6.67,1.77,0.39,
3.591,100.924616400903,86.31097521347392,-2.76,-1.99,0.88,1.0,0.0,0.0,1.0,0.0,0.0,0.0,6.77,1.86,0.39,
3.615,100.9114616400903,86.00409752134739,-2.89,-1.53,0.96,1.0,0.0,0.0,1.0,0.0,0.0,0.0,6.77,1.86,0.39,
3.639,100.91014616400903,85.71240975213475,-2.75,-1.81,0.56,1.0,0.0,0.0,1.0,0.0,0.0,0.0,6.67,1.77,0.49,
3.662,100.8650146164009,85.58424097521346,-2.86,-1.6,0.82,1.0,0.0,0.0,1.0,0.0,0.0,0.0,6.67,1.77,0.59,
3.687,100.81550146164008,85.40042409752134,-3.04,-0.98,1.1,2.0,0.0,0.0,1.0,0.0,0.0,0.0,6.87,1.86,0.69,
3.71,100.747550146164,85.22004240975214,-2.77,0.0,0.71,2.0,0.0,0.0,1.0,0.0,0.0,0.0,6.77,1.86,0.49,
3.734,100.7677550146164,85.0130042409752,-2.58,0.15,0.51,2.0,0.0,0.0,1.0,0.0,0.0,0.0,6.87,1.96,0.39,
3.758,100.78777550146165,84.95630042409752,-2.6,0.3,0.31,2.0,0.0,0.0,1.0,0.0,1.0,0.0,6.77,1.96,0.39,
3.782,100.83477755014616,84.85163004240977,-2.76,0.38,0.08,2.0,0.0,0.0,1.0,0.0,1.0,0.0,6.87,1.96,0.29,
3.806,100.87547775501461,84.74216300424098,-2.73,0.16,0.08,2.0,0.0,0.0,1.0,0.0,1.0,0.0,6.77,1.96,0.59,
3.829,100.85254777550146,84.66821630042409,-2.91,0.08,0.03,2.0,0.0,0.0,1.0,0.0,1.0,0.0,6.87,1.96,0.59,
3.853,100.94925477755014,84.6338216300424,-3.02,-0.15,0.22,2.0,0.0,0.0,1.0,0.0,1.0,0.0,6.87,1.96,0.49,
3.877,100.92292547775502,84.54938216300425,-2.88,-0.53,0.21,2.0,0.0,0.0,1.0,0.0,1.0,0.0,6.97,1.96,0.29,
3.901,100.9202925477755,84.54093821630043,-2.95,-0.9,0.21,2.0,0.0,0.0,1.0,0.0,1.0,0.0,6.87,1.96,0.2,
3.924,100.92002925477755,84.53109382163004,-2.87,-0.81,0.22,2.0,0.0,0.0,1.0,0.0,1.0,0.0,6.87,1.86,0.39,
3.949,100.96500292547776,84.584109382163,-2.84,-0.21,0.42,2.0,0.0,0.0,1.0,0.0,1.0,0.0,6.87,1.86,0.69,
3.973,100.94250029254778,84.5804109382163,-2.99,-0.58,0.24,2.0,0.0,0.0,1.0,0.0,1.0,0.0,6.87,1.86,0.78,
3.996,100.97625002925479,84.53504109382163,-2.99,-0.99,0.15,2.0,0.0,0.0,1.0,0.0,1.0,0.0,6.87,1.86,0.49,
4.021,101.02462500292549,84.52150410938216,-2.96,-1.15,0.34,2.0,0.0,0.0,1.0,0.0,1.0,0.0,6.87,1.86,0.2,
4.044,101.00246250029255,84.50215041093821,-2.85,-1.13,0.02,2.0,0.0,0.0,1.0,0.0,1.0,0.0,6.87,1.86,0.0,
4.068,101.07224625002925,84.50021504109381,-2.97,-0.89,0.02,2.0,0.0,0.0,1.0,0.0,1.0,0.0,6.77,1.86,0.0,
4.092,101.12422462500292,84.47302150410937,-2.85,-1.33,0.05,3.0,0.0,0.0,1.0,0.0,1.0,0.0,6.77,1.86,0.0,
4.116,101.12942246250029,84.45230215041094,-2.71,-1.68,0.24,3.0,0.0,0.0,1.0,0.0,1.0,0.0,6.77,1.77,0.1,
4.14,101.19294224625003,84.45923021504109,-2.76,-1.5,0.17,3.0,0.0,0.0,1.0,0.0,1.0,0.0,6.57,1.77,0.29,
4.163,101.16329422462499,84.48692302150411,-2.99,-1.45,0.23,3.0,0.0,0.0,1.0,0.0,1.0,0.0,6.57,1.77,0.29,
4.188,101.0883294224625,84.4446923021504,-3.11,-1.26,0.05,3.0,0.0,0.0,1.0,0.0,1.0,0.0,6.57,1.67,0.39,
4.211,101.13483294224625,84.38646923021503,-3.11,-1.33,-0.07,3.0,0.0,0.0,1.0,0.0,1.0,0.0,6.57,1.67,0.39,
4.236,101.16648329422462,84.3536469230215,-3.15,-1.22,0.17,3.0,0.0,0.0,1.0,0.0,1.0,0.0,6.57,1.67,0.2,
4.259,101.15164832942247,84.36836469230215,-3.23,-0.87,0.22,3.0,0.0,0.0,1.0,0.0,1.0,0.0,6.57,1.77,0.39,
4.283,101.08716483294224,84.36983646923022,-2.93,-0.57,0.18,3.0,0.0,0.0,1.0,0.0,1.0,0.0,6.57,1.67,0.69,
4.306,101.09871648329421,84.40598364692302,-2.8,-0.56,0.16,3.0,0.0,0.0,1.0,0.0,1.0,0.0,6.57,1.77,0.69,
4.331,101.10887164832941,84.42759836469232,-2.85,-0.71,0.18,3.0,0.0,0.0,1.0,0.0,1.0,0.0,6.57,1.77,0.39,
4.355,101.18188716483294,84.42075983646924,-2.88,-0.67,0.05,3.0,0.0,0.0,1.0,0.0,1.0,0.0,6.47,1.67,0.39,
4.378,101.19818871648329,84.36607598364694,-2.7,-1.05,0.11,3.0,0.0,0.0,1.0,0.0,1.0,0.0,6.47,1.77,0.49,
4.403,101.21781887164832,84.3696075983647,-3.05,-1.22,0.02,3.0,0.0,0.0,1.0,0.0,1.0,0.0,6.38,1.86,0.49,
4.426,101.19278188716483,84.36096075983647,-2.94,-1.24,-0.07,3.0,0.0,0.0,1.0,0.0,1.0,0.0,6.47,1.67,0.59,
4.45,101.19027818871648,84.36909607598365,-2.92,-1.51,-0.07,3.0,0.0,0.0,1.0,0.0,1.0,0.0,6.47,1.77,0.59,
4.474,101.17202781887164,84.34290960759837,-3.15,-1.27,0.14,3.0,0.0,0.0,1.0,0.0,1.0,0.0,6.38,1.67,0.49,
4.498,101.11620278188715,84.32229096075983,-3.05,-1.25,0.03,3.0,0.0,0.0,1.0,0.0,0.0,0.0,6.38,1.67,0.39,
4.523,101.1376202781887,84.34722909607598,-2.99,-1.12,0.07,3.0,0.0,0.0,1.0,0.0,0.0,0.0,6.38,1.67,0.59,
4.546,101.16676202781886,84.3767229096076,-3.14,-1.01,0.12,3.0,0.0,0.0,1.0,0.0,0.0,0.0,6.38,1.77,0.78,
4.57,101.16967620278189,84.40667229096076,-3.02,-1.14,0.11,3.0,0.0,0.0,1.0,0.0,0.0,0.0,6.38,1.77,0.69,
4.593,101.16096762027819,84.40966722909607,-3.29,-1.1,0.21,3.0,0.0,0.0,1.0,0.0,1.0,0.0,6.38,1.77,0.59,
4.618,101.12409676202782,84.4099667229096,-3.09,-0.84,0.05,3.0,0.0,0.0,1.0,0.0,1.0,0.0,6.47,1.77,0.49,
4.641,101.08440967620277,84.46399667229096,-3.24,-0.73,-0.02,3.0,0.0,0.0,1.0,0.0,1.0,0.0,6.47,1.77,0.59,
4.665,101.11644096762029,84.46939966722908,-3.04,-0.92,0.19,3.0,0.0,0.0,1.0,0.0,1.0,0.0,6.57,1.77,0.69,
4.689,101.11064409676203,84.47893996672292,-3.07,-1.11,-0.12,3.0,0.0,0.0,1.0,0.0,1.0,0.0,6.47,1.67,0.78,
4.713,101.1010644096762,84.5068939966723,-3.15,-1.2,-0.07,3.0,0.0,0.0,1.0,0.0,1.0,0.0,6.47,1.67,0.69,
4.738,101.16310644096761,84.48268939966724,-2.99,-1.21,-0.16,3.0,0.0,0.0,1.0,0.0,1.0,0.0,6.47,1.77,0.49,
4.761,101.19631064409676,84.50726893996674,-3.17,-1.24,0.05,3.0,0.0,0.0,1.0,0.0,1.0,0.0,6.38,1.67,0.49,
4.785,101.15463106440968,84.51872689399667,-3.26,-1.05,-0.13,3.0,0.0,0.0,1.0,0.0,1.0,0.0,6.38,1.77,0.59,
4.809,101.15946310644097,84.51087268939968,-3.27,-1.07,0.08,3.0,0.0,0.0,1.0,0.0,1.0,0.0,6.47,1.77,0.88,
4.833,101.18694631064409,84.50108726893997,-3.14,-1.11,-0.11,3.0,0.0,0.0,1.0,0.0,1.0,0.0,6.38,1.77,0.98,
4.857,101.1626946310644,84.45510872689401,-3.31,-0.92,-0.09,3.0,0.0,0.0,1.0,0.0,1.0,0.0,6.47,1.77,0.2,
4.881,101.20526946310643,84.4505108726894,-3.18,-0.92,-0.05,3.0,0.0,0.0,1.0,0.0,1.0,0.0,6.47,1.77,0.2,
4.904,101.20952694631063,84.43205108726895,-3.11,-0.83,0.21,3.0,0.0,0.0,1.0,0.0,1.0,0.0,6.47,1.77,0.29,
4.929,101.23695269463106,84.43020510872691,-3.34,-0.69,0.06,3.0,0.0,0.0,1.0,0.0,1.0,0.0,6.47,1.77,0.2,
4.953,101.2306952694631,84.39402051087269,-3.38,-1.1,0.1,3.0,0.0,0.0,1.0,0.0,1.0,0.0,6.38,1.77,0.39,
4.976,101.23006952694631,84.34540205108728,-3.05,-1.29,0.07,3.0,0.0,0.0,1.0,0.0,1.0,0.0,6.38,1.86,0.39,
5.001,101.23900695269462,84.30454020510874,-3.24,-0.92,-0.22,3.0,0.0,0.0,1.0,0.0,1.0,0.0,6.47,1.86,0.59,
5.024,101.23990069526945,84.25545402051088,-3.38,-0.49,0.06,3.0,0.0,0.0,1.0,0.0,1.0,0.0,6.47,1.86,0.49,
5.048,101.29399006952694,84.27754540205109,-3.11,-0.73,0.15,3.0,0.0,0.0,1.0,0.0,1.0,0.0,6.38,1.77,0.49,
5.072,101.3173990069527,84.27975454020512,-3.26,-0.82,0.02,3.0,0.0,0.0,1.0,0.0,1.0,0.0,6.47,1.77,0.29,
5.096,101.25673990069527,84.33397545402052,-3.3,-0.85,0.13,3.0,0.0,0.0,1.0,0.0,1.0,0.0,6.47,1.77,0.29,
5.12,101.29567399006953,84.30339754540205,-3.4,-0.67,0.05,3.0,0.0,0.0,1.0,0.0,1.0,0.0,6.47,1.86,0.59,
5.144,101.31756739900695,84.3093397545402,-3.34,-0.53,0.4,3.0,0.0,0.0,1.0,0.0,1.0,0.0,6.57,1.86,0.78,
5.168,101.3647567399007,84.34593397545402,-3.37,-0.76,0.2,3.0,0.0,0.0,1.0,0.0,1.0,0.0,6.57,1.86,0.59,
5.191,101.40547567399007,84.3315933975454,-3.21,-0.98,0.15,3.0,0.0,0.0,1.0,0.0,1.0,0.0,6.57,1.86,0.69,
5.216,101.364547567399,84.30315933975454,-3.27,-1.02,0.1,3.0,0.0,0.0,1.0,0.0,1.0,0.0,6.47,1.86,0.78,
5.239,101.3874547567399,84.29131593397545,-3.13,-1.19,0.03,3.0,0.0,0.0,1.0,0.0,1.0,0.0,6.47,1.77,0.78,
5.263,101.41674547567399,84.29913159339755,-3.27,-0.82,0.0,3.0,0.0,0.0,1.0,0.0,1.0,0.0,6.47,1.86,0.88,
5.286,101.41967454756741,84.27291315933975,-3.56,-0.52,-0.12,3.0,0.0,0.0,1.0,0.0,1.0,0.0,6.57,1.77,0.88,
5.311,101.42896745475674,84.29729131593398,-3.49,-0.47,0.06,3.0,0.0,0.0,1.0,0.0,1.0,0.0,6.47,1.77,0.78,
5.335,101.48389674547566,84.3087291315934,-3.52,-0.58,0.05,3.0,0.0,0.0,1.0,0.0,1.0,0.0,6.67,1.96,0.88,
5.358,101.49838967454757,84.32787291315934,-3.2,-0.83,0.22,3.0,0.0,0.0,1.0,0.0,1.0,0.0,6.57,1.86,0.78,
5.383,101.46383896745475,84.34778729131592,-3.07,-0.92,-0.11,3.0,0.0,0.0,1.0,0.0,1.0,0.0,6.67,1.86,0.69,
5.406,101.46038389674547,84.3317787291316,-2.82,-1.21,0.15,3.0,0.0,0.0,1.0,0.0,1.0,0.0,6.67,1.86,0.88,
5.431,101.42403838967455,84.30317787291317,-3.13,-1.17,0.15,3.0,0.0,0.0,1.0,0.0,1.0,0.0,6.57,1.86,0.98,
5.454,101.41140383896746,84.25531778729132,-3.13,-1.1,0.05,3.0,0.0,0.0,1.0,0.0,1.0,0.0,6.57,1.86,0.88,
5.478,101.44614038389675,84.20553177872912,-3.08,-1.25,-0.02,3.0,0.0,0.0,1.0,0.0,1.0,0.0,6.57,1.86,0.78,
5.502,101.42261403838968,84.19155317787292,-2.98,-1.58,-0.02,3.0,0.0,0.0,1.0,0.0,1.0,0.0,6.57,1.96,0.78,
5.526,101.45626140383897,84.1811553177873,-2.84,-1.35,-0.18,3.0,0.0,0.0,1.0,0.0,1.0,0.0,6.57,1.86,0.88,
5.55,101.48662614038389,84.18011553177874,-2.89,-1.52,-0.12,3.0,0.0,0.0,1.0,0.0,1.0,0.0,6.47,1.86,0.88,
5.574,101.44466261403839,84.18001155317789,-3.15,-1.28,-0.24,3.0,0.0,0.0,1.0,0.0,1.0,0.0,6.47,1.86,0.98,
5.598,101.46746626140384,84.19800115531778,-2.89,-1.34,-0.03,3.0,0.0,0.0,1.0,0.0,1.0,0.0,6.57,1.77,0.88,
5.622,101.47874662614039,84.21780011553177,-3.05,-1.14,0.14,3.0,0.0,0.0,1.0,0.0,1.0,0.0,6.47,1.86,0.78,
5.646,101.38987466261403,84.19278001155318,-3.17,-1.2,0.22,3.0,0.0,0.0,1.0,0.0,1.0,0.0,6.47,1.86,0.88,
5.669,101.4079874662614,84.20827800115532,-3.07,-1.08,0.0,3.0,0.0,0.0,1.0,0.0,1.0,0.0,6.57,1.96,1.08,
5.694,101.39179874662614,84.24582780011553,-3.02,-1.37,-0.05,3.0,0.0,0.0,1.0,0.0,1.0,0.0,6.57,1.86,0.29,
5.718,101.40817987466262,84.21358278001155,-3.24,-1.27,-0.11,3.0,0.0,0.0,1.0,0.0,1.0,0.0,6.57,1.86,0.39,
5.741,101.43681798746627,84.20135827800115,-2.93,-1.19,0.11,3.0,0.0,0.0,1.0,0.0,1.0,0.0,6.67,1.86,0.39,
5.766,101.43968179874663,84.21813582780011,-3.09,-1.25,-0.03,3.0,0.0,0.0,1.0,0.0,1.0,0.0,6.47,1.77,0.49,
5.789,101.43996817987467,84.21981358278,-3.07,-0.96,0.03,3.0,0.0,0.0,1.0,0.0,1.0,0.0,6.57,1.86,0.39,
5.813,101.43999681798746,84.165981358278,-3.09,-1.21,-0.01,3.0,0.0,0.0,1.0,0.0,1.0,0.0,6.67,1.86,0.29,
5.837,101.46699968179875,84.1155981358278,-3.16,-1.23,0.08,3.0,0.0,0.0,1.0,0.0,1.0,0.0,6.67,1.96,0.29,
5.861,101.49669996817988,84.13755981358278,-3.07,-1.1,0.26,3.0,0.0,0.0,1.0,0.0,1.0,0.0,6.67,1.86,0.59,
5.884,101.526669996818,84.16675598135828,-3.15,-1.15,0.04,3.0,0.0,0.0,1.0,0.0,1.0,0.0,6.67,1.86,0.49,
5.909,101.5206669996818,84.16967559813583,-3.1,-1.31,0.02,3.0,0.0,0.0,1.0,0.0,1.0,0.0,6.57,1.86,0.59,
5.933,101.54706669996817,84.1789675598136,-2.98,-1.34,-0.18,3.0,0.0,0.0,1.0,0.0,1.0,0.0,6.57,1.86,0.59,
5.957,101.54070666999682,84.20689675598136,-3.26,-1.5,-0.05,3.0,0.0,0.0,1.0,0.0,1.0,0.0,6.57,1.86,0.49,
5.981,101.51307066699968,84.17368967559814,-3.32,-1.37,-0.04,3.0,0.0,0.0,1.0,0.0,1.0,0.0,6.57,1.86,0.59,
6.004,101.52830706669998,84.17936896755982,-3.34,-0.99,0.26,3.0,0.0,0.0,1.0,0.0,1.0,0.0,6.47,1.77,0.59,
6.029,101.57483070666999,84.19793689675598,-3.27,-0.85,0.09,3.0,0.0,0.0,1.0,0.0,1.0,0.0,6.57,1.77,0.39,
6.052,101.597483070667,84.1727936896756,-3.37,-0.99,0.08,3.0,0.0,0.0,1.0,0.0,1.0,0.0,6.57,1.86,0.49,
6.076,101.60874830706669,84.17027936896756,-3.1,-1.0,-0.05,3.0,0.0,0.0,1.0,0.0,1.0,0.0,6.57,1.86,0.59,
6.1,101.56487483070669,84.15202793689677,-3.09,-1.08,0.18,3.0,0.0,0.0,1.0,0.0,1.0,0.0,6.67,1.86,0.49,
6.124,101.56948748307066,84.15020279368969,-2.95,-1.27,-0.06,3.0,0.0,0.0,1.0,0.0,1.0,0.0,6.57,1.86,0.78,
6.148,101.61494874830707,84.22202027936896,-3.17,-1.36,0.19,3.0,0.0,0.0,1.0,0.0,1.0,0.0,6.47,1.86,0.78,
6.172,101.61949487483072,84.20220202793689,-3.21,-1.23,0.13,3.0,0.0,0.0,1.0,0.0,1.0,0.0,6.47,1.86,0.88,
6.196,101.58394948748307,84.17322020279369,-3.12,-1.32,0.05,3.0,0.0,0.0,1.0,0.0,1.0,0.0,6.47,1.96,0.78,
6.219,101.58939494874832,84.17932202027939,-3.17,-1.5,0.13,3.0,0.0,0.0,1.0,0.0,1.0,0.0,6.38,1.86,0.69,
6.244,101.60793949487483,84.17093220202794,-2.99,-1.52,0.04,3.0,0.0,0.0,1.0,0.0,1.0,0.0,6.47,1.86,0.69,
6.267,101.60979394948748,84.16109322020279,-3.11,-1.23,0.01,3.0,0.0,0.0,1.0,0.0,1.0,0.0,6.47,1.86,0.78,
6.291,101.60997939494874,84.20510932202028,-3.06,-1.21,-0.04,3.0,0.0,0.0,1.0,0.0,1.0,0.0,6.47,1.86,0.98,
6.316,101.62799793949488,84.21851093220202,-3.07,-1.09,0.15,3.0,0.0,0.0,1.0,0.0,1.0,0.0,6.47,1.86,0.78,
6.339,101.63879979394949,84.2108510932202,-3.08,-1.09,0.15,3.0,0.0,0.0,1.0,0.0,1.0,0.0,6.47,1.96,0.69,
6.363,101.61287997939495,84.20108510932202,-2.98,-0.98,-0.05,3.0,0.0,0.0,1.0,0.0,1.0,0.0,6.47,1.96,0.69,
6.387,101.64628799793951,84.2361085109322,-3.15,-1.49,-0.1,3.0,0.0,0.0,1.0,0.0,1.0,0.0,6.47,1.86,0.78,
6.411,101.55062879979396,84.22161085109322,-3.08,-1.24,0.18,3.0,0.0,0.0,1.0,0.0,1.0,0.0,6.47,1.96,0.88,
6.434,101.58606287997941,84.25616108510933,-3.27,-0.9,0.21,3.0,0.0,0.0,1.0,0.0,1.0,0.0,6.57,1.96,0.98,
6.459,101.61660628799795,84.19661610851094,-3.1,-0.84,0.16,3.0,0.0,0.0,1.0,0.0,1.0,0.0,6.57,1.86,0.88,
6.482,101.6376606287998,84.14566161085109,-3.11,-1.14,0.02,3.0,0.0,0.0,1.0,0.0,1.0,0.0,6.67,1.96,0.88,
6.506,101.61276606287997,84.14956616108512,-3.12,-1.09,-0.01,3.0,0.0,0.0,1.0,0.0,1.0,0.0,6.67,1.96,0.29,
6.531,101.64627660628801,84.13195661610851,-3.13,-1.34,-0.09,3.0,0.0,0.0,1.0,0.0,1.0,0.0,6.57,2.06,0.2,
6.554,101.57762766062879,84.14819566161086,-3.18,-1.22,-0.03,3.0,0.0,0.0,1.0,0.0,1.0,0.0,6.57,1.96,0.1,
6.579,101.57976276606287,84.1498195661611,-3.13,-1.11,0.11,3.0,0.0,0.0,1.0,0.0,1.0,0.0,6.57,1.96,0.1,
6.602,101.59797627660629,84.12298195661612,-2.99,-1.44,-0.05,3.0,0.0,0.0,1.0,0.0,1.0,0.0,6.67,1.96,0.29,
6.626,101.60879762766062,84.1382981956616,-3.08,-1.55,-0.07,3.0,0.0,0.0,1.0,0.0,1.0,0.0,6.67,2.06,0.59,
6.65,101.60087976276606,84.14882981956617,-3.01,-1.54,-0.12,3.0,0.0,0.0,1.0,0.0,1.0,0.0,6.67,1.96,0.49,
6.674,101.5730879762766,84.20388298195661,-2.97,-1.61,0.05,3.0,0.0,0.0,1.0,0.0,1.0,0.0,6.47,1.96,0.39,
6.697,101.61530879762768,84.23638829819566,-3.04,-1.41,0.15,3.0,0.0,0.0,1.0,0.0,1.0,0.0,6.57,1.86,0.39,
6.722,101.61953087976278,84.22163882981957,-2.95,-1.48,0.08,3.0,0.0,0.0,1.0,0.0,1.0,0.0,6.47,1.96,0.39,
6.746,101.60195308797627,84.22016388298195,-2.87,-1.6,0.04,3.0,0.0,0.0,1.0,0.0,1.0,0.0,6.47,1.86,0.59,
6.769,101.60019530879762,84.21101638829819,-2.79,-1.51,0.02,3.0,0.0,0.0,1.0,0.0,1.0,0.0,6.47,1.86,0.59,
6.794,101.55501953087976,84.18310163882984,-2.96,-1.34,0.01,3.0,0.0,0.0,1.0,0.0,1.0,0.0,6.38,1.67,0.59,
6.817,101.57750195308797,84.07231016388299,-2.97,-1.27,-0.11,3.0,0.0,0.0,1.0,0.0,1.0,0.0,6.28,1.57,0.59,
6.841,101.6427501953088,84.0342310163883,-2.7,-1.27,0.32,3.0,0.0,0.0,1.0,0.0,1.0,0.0,5.98,1.47,0.69,
6.865,101.59527501953089,84.04842310163883,-2.56,-2.21,0.53,3.0,0.0,0.0,1.0,0.0,1.0,0.0,5.89,1.18,0.88,
6.889,101.5635275019531,84.10384231016388,-2.52,-2.31,0.18,3.0,0.0,0.0,1.0,0.0,1.0,0.0,5.69,1.18,1.08,
6.913,101.5243527501953,84.1723842310164,-2.51,-2.16,0.01,3.0,0.0,0.0,1.0,0.0,1.0,0.0,5.59,0.98,0.88,
6.937,101.45743527501953,84.13423842310164,-1.89,-1.73,-0.28,3.0,0.0,0.0,0.0,0.0,1.0,0.0,5.4,0.88,0.88,
6.961,101.45074352750196,84.16642384231017,-1.91,-1.98,-0.21,3.0,0.0,0.0,0.0,0.0,1.0,0.0,5.2,0.78,0.59,
6.985,101.4050743527502,84.13364238423101,-1.39,-1.4,-0.15,3.0,0.0,0.0,0.0,0.0,1.0,0.0,5.0,0.59,0.59,
7.009,101.25650743527501,84.2203642384231,-0.24,0.51,-0.05,3.0,0.0,0.0,0.0,0.0,1.0,0.0,4.71,0.59,1.08,
7.032,101.2686507435275,84.19303642384232,0.39,1.31,0.05,3.0,0.0,0.0,0.0,0.0,0.0,0.0,4.41,0.49,1.67,
7.056,101.24286507435275,84.27130364238424,1.44,2.49,-0.6,3.0,0.0,0.0,0.0,0.0,0.0,0.0,4.22,0.49,1.77,
7.08,101.40228650743528,84.50413036423842,0.89,-0.02,0.65,3.0,0.0,0.0,0.0,0.0,0.0,0.0,3.92,0.29,2.55,
7.104,101.42722865074353,84.59041303642384,-1.27,-2.81,1.4,3.0,0.0,0.0,0.0,0.0,0.0,0.0,3.83,0.0,2.45,
7.128,101.44772286507435,84.69804130364237,-2.17,-3.54,0.94,3.0,0.0,0.0,0.0,0.0,0.0,0.0,3.73,0.0,2.06,
7.151,101.30577228650743,84.75380413036424,-2.02,-1.83,0.03,3.0,0.0,0.0,0.0,0.0,0.0,0.0,3.83,0.0,1.67,
7.176,101.33657722865074,84.83138041303643,-1.92,-1.44,0.47,3.0,0.0,0.0,0.0,0.0,0.0,0.0,3.83,0.0,1.67,
7.199,101.39365772286507,84.82113804130364,-3.04,-0.69,-0.02,3.0,0.0,0.0,0.0,0.0,0.0,0.0,3.92,0.0,1.08,
7.223,101.35436577228651,84.80211380413036,-3.66,-1.98,-0.3,3.0,0.0,0.0,0.0,0.0,0.0,0.0,3.92,0.0,0.78,
7.247,101.41343657722865,84.76421138041304,-3.83,-2.37,-0.83,3.0,0.0,0.0,0.0,0.0,0.0,0.0,4.12,0.0,0.88,
7.271,101.37434365772287,84.9674211380413,-3.58,-0.71,-0.85,3.0,0.0,0.0,0.0,0.0,0.0,0.0,4.22,0.29,0.98,
7.296,101.47843436577227,85.00574211380413,-4.2,-5.77,-0.02,3.0,0.0,0.0,0.0,0.0,1.0,0.0,4.22,0.49,1.08,
7.319,101.60584343657723,85.07257421138041,-4.64,-6.0,0.51,3.0,0.0,0.0,0.0,0.0,1.0,0.0,4.41,0.69,0.98,
7.343,101.70858434365772,85.16025742113804,-6.27,-9.07,2.48,3.0,0.0,0.0,0.0,0.0,1.0,0.0,4.61,0.98,0.0,
7.367,101.54785843436578,85.0700257421138,-7.21,-12.02,4.54,3.0,0.0,0.0,0.0,0.0,1.0,0.0,5.0,1.28,0.0,
7.391,101.47778584343658,85.02500257421138,-7.92,-13.95,3.26,3.0,0.0,0.0,1.0,0.0,1.0,0.0,5.59,1.67,0.0,
7.415,101.08377858434366,84.88550025742114,-9.14,-14.61,3.55,3.0,0.0,0.0,1.0,0.0,1.0,0.0,5.98,2.16,0.0,
7.439,100.80137785843436,84.55655002574211,-10.49,-14.41,2.56,3.0,0.0,0.0,2.0,0.0,1.0,0.0,6.47,2.65,0.0,
7.462,100.48513778584343,84.2446550025742,-8.88,-13.95,1.62,4.0,0.0,0.0,2.0,0.0,1.0,0.0,7.06,3.53,0.0,
7.487,100.20151377858434,84.23146550025743,-8.79,-10.86,2.02,4.0,0.0,0.0,2.0,0.0,1.0,0.0,7.55,4.02,0.0,
7.511,100.56915137785845,83.94214655002574,-9.95,-8.6,2.05,4.0,0.0,0.0,2.0,0.0,1.0,0.0,7.85,4.51,0.0,
7.535,100.24591513778583,83.80521465500257,-10.37,-10.66,5.58,4.0,0.0,0.0,2.0,0.0,2.0,0.0,8.53,5.1,0.0,
7.559,100.57359151377858,83.61152146550026,-11.88,-13.21,6.03,4.0,0.0,0.0,3.0,0.0,2.0,0.0,9.22,5.59,0.0,
7.583,100.47135915137785,83.57415214655002,-12.63,-7.73,4.45,5.0,0.0,0.0,3.0,0.0,2.0,0.0,10.5,6.28,0.0,
7.607,100.50613591513779,83.06641521465501,-9.34,-5.98,7.97,5.0,0.0,0.0,3.0,0.0,2.0,0.0,11.38,7.06,0.2,
7.631,100.09561359151378,82.88064152146549,-7.81,-9.32,8.08,5.0,0.0,0.0,4.0,0.0,3.0,0.0,11.97,7.65,0.0,
7.655,99.93756135915137,83.19506415214656,-11.65,-9.74,9.45,5.0,0.0,0.0,4.0,0.0,3.0,1.0,12.56,8.44,0.0,
7.68,99.63375613591514,83.22650641521466,-12.69,-14.3,10.92,6.0,0.0,0.0,4.0,0.0,3.0,1.0,13.34,9.32,0.0,
7.704,99.28837561359151,82.97765064152146,-11.52,-16.28,11.08,7.0,0.0,0.0,5.0,0.0,4.0,1.0,14.52,10.69,0.0,
7.728,98.91183756135915,82.85376506415216,-13.47,-13.8,11.71,7.0,0.0,0.0,6.0,0.0,5.0,2.0,16.28,12.07,0.0,
7.752,98.15418375613591,82.35537650641521,-10.48,-11.98,9.02,8.0,0.0,0.0,6.0,0.0,5.0,2.0,17.36,13.44,0.0,
7.777,97.30441837561358,82.08053765064152,-7.69,-9.33,7.95,8.0,0.0,0.0,7.0,0.0,6.0,3.0,18.25,14.91,1.37,
7.801,96.97644183756135,81.81005376506415,-7.47,-9.79,4.87,9.0,0.0,0.0,7.0,0.0,6.0,3.0,18.74,16.28,7.46,
7.825,96.95264418375615,81.67500537650642,-7.97,-6.85,5.02,9.0,0.0,0.0,7.0,0.0,7.0,3.0,19.23,17.27,7.75,
7.849,96.75226441837562,81.41850053765064,-9.4,-3.08,2.62,10.0,0.0,0.0,7.0,0.0,7.0,4.0,19.91,18.05,6.87,
7.874,96.38122644183755,81.16785005376506,-6.7,0.7,1.77,10.0,0.0,0.0,8.0,0.0,7.0,4.0,20.8,18.93,0.0,
7.898,96.19112264418375,80.9897850053765,-4.53,1.6,0.36,10.0,0.0,0.0,8.0,0.0,8.0,4.0,21.39,19.52,0.0,
7.922,96.10911226441837,80.62997850053766,-1.35,3.09,-0.41,11.0,0.0,0.0,8.0,0.0,8.0,5.0,21.68,20.21,0.0,
7.947,96.01991122644185,80.50399785005376,-0.15,3.43,-2.15,11.0,0.0,0.0,8.0,0.0,8.0,5.0,21.78,20.7,0.0,
7.97,95.84899112264418,80.64439978500536,2.89,4.32,-1.65,11.0,0.0,0.0,8.0,0.0,8.0,4.0,21.78,20.99,0.0,
7.995,96.02989911226442,80.75743997850053,2.71,1.88,-4.22,11.0,0.0,0.0,8.0,0.0,7.0,4.0,21.68,21.29,0.0,
8.019,96.00298991122645,80.70574399785006,4.76,-0.55,-4.8,11.0,0.0,0.0,7.0,0.0,7.0,3.0,21.39,21.29,0.29,
8.043,96.11729899112264,80.961574399785,4.71,2.94,-4.4,11.0,0.0,0.0,7.0,0.0,6.0,2.0,20.5,21.09,3.83,
8.068,96.23672989911226,81.1131574399785,4.28,1.82,-3.54,11.0,0.0,0.0,6.0,0.0,5.0,2.0,19.91,20.21,18.15,
8.092,96.39267298991123,81.23631574399785,4.37,1.0,-2.92,11.0,0.0,0.0,6.0,0.0,5.0,2.0,19.33,19.03,0.0,
8.116,96.48026729899112,81.40163157439979,4.08,1.45,-2.21,11.0,0.0,0.0,5.0,0.0,4.0,1.0,18.64,17.56,0.0,
8.14,96.51602672989911,81.65216315743999,4.91,1.4,-2.37,11.0,0.0,0.0,5.0,0.0,4.0,1.0,17.95,16.28,0.0,
8.164,96.7896026729899,82.046216315744,0.94,3.47,-0.24,10.0,0.0,0.0,5.0,0.0,4.0,1.0,17.07,14.72,3.63,
8.188,96.780960267299,82.1216216315744,-4.2,5.71,0.79,10.0,0.0,0.0,5.0,0.0,4.0,1.0,16.78,13.44,2.16,
8.212,96.61809602672989,82.21016216315745,-4.37,7.03,-0.18,10.0,0.0,0.0,5.0,0.0,4.0,1.0,17.36,12.46,1.37,
8.237,96.772809602673,82.30901621631574,-2.89,9.68,0.63,10.0,0.0,0.0,5.0,0.0,5.0,1.0,17.95,11.87,1.18,
8.26,96.81528096026729,82.22890162163158,-4.39,7.5,-1.85,10.0,0.0,0.0,5.0,0.0,5.0,1.0,18.34,11.77,2.16,
8.285,96.87352809602672,82.13989016216316,-3.58,10.37,-0.49,10.0,0.0,0.0,5.0,0.0,5.0,1.0,19.03,12.16,0.0,
8.309,96.93335280960267,82.24798901621632,-0.34,13.27,-0.73,10.0,0.0,0.0,5.0,0.0,5.0,1.0,19.72,12.65,0.0,
8.334,97.11933528096027,82.23179890162163,-0.34,12.94,-1.53,9.0,0.0,0.0,5.0,0.0,5.0,1.0,20.4,12.95,4.32,
8.357,97.57893352809603,82.11317989016216,0.76,10.62,-3.0,9.0,0.0,0.0,5.0,0.0,5.0,1.0,21.09,13.15,0.59,
8.382,97.78689335280961,82.0023179890162,-0.14,7.73,-2.03,9.0,0.0,0.0,5.0,0.0,4.0,1.0,21.58,13.54,0.29,
8.407,98.47368933528095,82.03623179890164,-2.7,0.68,-0.51,9.0,0.0,0.0,5.0,0.0,5.0,1.0,22.27,14.03,0.0,
8.43,98.65036893352809,82.34562317989015,-6.46,-3.61,-0.95,9.0,0.0,0.0,5.0,0.0,5.0,2.0,22.56,14.52,0.0,
8.455,98.52403689335281,82.38556231798901,-7.94,-7.33,-0.16,10.0,0.0,0.0,6.0,0.0,5.0,2.0,23.35,15.6,7.36,
8.479,98.45740368933528,82.3715562317989,-7.8,-0.35,1.53,10.0,0.0,0.0,6.0,0.0,5.0,3.0,24.52,17.17,6.28,
8.503,98.17174036893354,82.30715562317988,-7.79,2.85,1.85,10.0,0.0,0.0,7.0,0.0,6.0,4.0,26.59,19.13,7.36,
8.527,98.29617403689335,82.24671556231797,-8.98,2.32,1.8,11.0,0.0,0.0,7.0,0.0,6.0,4.0,28.35,21.19,0.0,
8.552,98.71361740368934,82.3306715562318,-11.31,-0.56,2.82,11.0,0.0,0.0,7.0,0.0,7.0,5.0,30.21,23.15,0.0,
8.577,99.02536174036894,82.09606715562317,-10.37,-2.82,3.67,11.0,0.0,0.0,8.0,0.0,7.0,5.0,31.69,24.82,0.0,
8.6,99.0565361740369,81.91960671556232,-7.92,-1.56,3.36,11.0,0.0,0.0,8.0,0.0,7.0,5.0,33.16,25.8,0.0,
8.625,98.9786536174037,81.73096067155623,-5.24,-0.84,2.79,11.0,0.0,0.0,8.0,0.0,8.0,6.0,34.53,26.49,0.0,
8.649,98.94386536174038,81.58609606715562,-4.08,-0.08,2.73,11.0,0.0,0.0,9.0,0.0,8.0,6.0,35.61,26.59,0.0,
8.673,99.02138653617405,81.49960960671555,-2.92,-1.12,1.54,12.0,0.0,0.0,9.0,0.0,8.0,6.0,36.1,26.59,0.0,
8.697,99.0921386536174,81.45496096067156,-1.98,-3.63,1.15,11.0,0.0,0.0,9.0,0.0,8.0,6.0,36.2,26.29,0.0,
8.722,99.05421386536173,81.43249609606715,-1.63,-4.24,0.44,12.0,0.0,0.0,8.0,0.0,8.0,6.0,36.0,25.6,0.0,
8.747,98.97842138653618,81.34024960960672,-1.54,-5.83,-0.54,12.0,0.0,0.0,8.0,0.0,8.0,6.0,35.41,24.92,0.39,
8.77,98.94384213865362,81.25902496096067,1.05,-7.05,-1.66,11.0,0.0,0.0,8.0,0.0,7.0,6.0,34.73,23.94,1.67,
8.795,98.86838421386537,81.43090249609607,1.97,-8.03,-1.32,12.0,0.0,0.0,7.0,0.0,7.0,5.0,33.65,22.56,4.61,
8.819,98.68983842138653,81.4840902496096,-1.63,-7.29,-1.09,12.0,0.0,0.0,7.0,0.0,7.0,5.0,31.59,20.99,14.03,
8.844,98.64498384213864,81.47140902496096,-2.98,-6.35,-0.78,11.0,0.0,0.0,8.0,0.0,7.0,5.0,30.8,20.01,8.04,
8.868,98.59549838421387,81.51514090249609,-2.95,-5.44,-0.37,11.0,0.0,0.0,8.0,0.0,7.0,5.0,30.61,19.52,1.96,
8.892,98.49154983842139,81.51051409024961,-2.79,-4.52,0.21,12.0,0.0,0.0,8.0,0.0,7.0,4.0,30.12,19.03,1.67,
8.916,98.42715498384214,81.52805140902497,-3.08,-2.9,0.04,12.0,0.0,0.0,8.0,0.0,7.0,4.0,29.72,18.64,1.86,
8.941,98.32171549838421,81.58380514090251,-3.56,-1.47,-0.17,12.0,0.0,0.0,8.0,0.0,7.0,4.0,29.43,18.44,0.69,
8.966,98.27517154983842,81.60738051409025,-4.66,0.56,-0.03,12.0,0.0,0.0,8.0,0.0,7.0,5.0,29.14,18.44,0.69,
8.989,98.29751715498384,81.62773805140903,-5.04,0.63,0.53,12.0,0.0,0.0,8.0,0.0,7.0,5.0,29.43,18.74,0.88,
9.014,98.31775171549839,81.6567738051409,-4.85,0.97,0.8,11.0,0.0,0.0,8.0,0.0,7.0,5.0,29.92,19.23,0.69,
9.038,98.31977517154984,81.60567738051408,-4.23,-0.04,0.69,12.0,0.0,0.0,8.0,0.0,7.0,5.0,30.31,19.91,0.0,
9.062,98.31997751715498,81.60056773805141,-4.82,0.31,0.7,12.0,0.0,0.0,8.0,0.0,7.0,5.0,30.71,20.4,0.0,
9.086,98.31099775171549,81.60005677380514,-4.4,0.27,0.71,12.0,0.0,0.0,8.0,0.0,7.0,5.0,30.9,20.8,0.0,
9.111,98.31009977517155,81.5550056773805,-4.34,0.79,0.41,12.0,0.0,0.0,8.0,0.0,7.0,5.0,31.29,21.29,0.0,
9.135,98.39100997751716,81.46950056773804,-5.11,0.38,0.73,12.0,0.0,0.0,8.0,0.0,7.0,5.0,31.59,21.68,0.0,
9.159,98.41710099775172,81.42495005677381,-4.73,0.07,1.24,12.0,0.0,0.0,8.0,0.0,7.0,5.0,31.98,22.17,0.0,
9.183,98.46471009977517,81.37549500567738,-4.19,-0.64,0.92,12.0,0.0,0.0,8.0,0.0,7.0,5.0,32.27,22.46,0.0,
9.207,98.43347100997752,81.29854950056773,-3.92,-1.66,1.0,12.0,0.0,0.0,9.0,0.0,7.0,5.0,32.67,22.76,0.0,
9.232,98.38534710099775,81.22785495005677,-4.11,-2.31,0.69,12.0,0.0,0.0,9.0,0.0,7.0,6.0,32.86,22.86,0.0,
9.256,98.43453471009977,81.22978549500567,-4.11,-2.54,0.52,12.0,0.0,0.0,9.0,0.0,7.0,6.0,33.26,23.15,0.0,
9.28,98.46645347100998,81.21197854950057,-3.69,-3.21,0.9,12.0,0.0,0.0,9.0,0.0,7.0,6.0,33.45,23.15,0.0,
9.305,98.469645347101,81.25519785495005,-3.92,-2.82,1.18,12.0,0.0,0.0,9.0,0.0,7.0,6.0,33.65,23.15,0.0,
9.329,98.51496453471009,81.286519785495,-3.97,-2.78,1.6,12.0,0.0,0.0,9.0,0.0,7.0,6.0,33.65,23.15,0.0,
9.354,98.56449645347101,81.3256519785495,-3.98,-2.72,1.24,12.0,0.0,0.0,9.0,0.0,7.0,6.0,33.75,22.96,0.0,
9.377,98.47044964534709,81.23956519785494,-4.11,-2.58,1.48,12.0,0.0,0.0,9.0,0.0,8.0,6.0,33.75,22.86,0.29,
9.402,98.47004496453471,81.20395651978549,-3.63,-2.83,1.44,12.0,0.0,0.0,9.0,0.0,7.0,6.0,33.84,22.66,0.0,
9.426,98.42500449645347,81.18239565197857,-3.85,-2.95,1.03,12.0,0.0,0.0,9.0,0.0,7.0,6.0,33.94,22.56,0.1,
9.45,98.35750044964534,81.16223956519785,-3.74,-3.35,1.04,12.0,0.0,0.0,9.0,0.0,7.0,6.0,33.94,22.37,0.2,
9.475,98.29675004496454,81.1782239565198,-4.02,-3.03,1.1,12.0,0.0,0.0,9.0,0.0,7.0,6.0,34.04,22.17,3.73,
9.499,98.23667500449646,81.17082239565198,-3.47,-3.02,0.9,12.0,0.0,0.0,9.0,0.0,7.0,6.0,34.14,22.07,3.63,
9.524,98.14966750044965,81.1520822395652,-3.37,-2.97,0.47,12.0,0.0,0.0,9.0,0.0,7.0,6.0,34.14,21.97,0.0,
9.547,98.05996675004496,81.10520822395651,-3.36,-3.36,0.47,12.0,0.0,0.0,9.0,0.0,7.0,6.0,34.14,21.68,0.59,
9.572,98.0239966750045,81.08252082239565,-3.29,-3.22,0.56,11.0,0.0,0.0,9.0,0.0,7.0,6.0,34.24,21.68,0.39,
9.596,97.88539966750047,81.07125208223955,-3.39,-3.08,0.45,11.0,0.0,0.0,9.0,0.0,7.0,6.0,34.34,21.48,0.78,
9.62,97.83553996675005,81.02512520822394,-3.18,-3.01,-0.08,11.0,0.0,0.0,9.0,0.0,7.0,6.0,34.34,21.29,0.78,
9.645,97.80355399667499,81.00251252082239,-2.85,-3.07,-0.31,11.0,0.0,0.0,9.0,0.0,7.0,6.0,34.53,21.19,0.0,
9.669,97.76435539966751,80.98225125208225,-2.84,-2.68,-0.29,11.0,0.0,0.0,9.0,0.0,7.0,6.0,34.53,21.19,0.78,
9.694,97.72443553996675,80.99822512520822,-2.58,-2.69,-0.02,11.0,0.0,0.0,9.0,0.0,7.0,6.0,34.53,21.09,1.08,
9.718,97.63944355399667,81.02682251252082,-2.4,-2.59,-0.01,11.0,0.0,0.0,9.0,0.0,7.0,6.0,34.53,20.9,5.0,
9.743,97.61294435539966,81.08368225125209,-2.37,-2.21,-0.19,11.0,0.0,0.0,9.0,0.0,7.0,6.0,34.34,20.8,2.55,
9.766,97.56529443553997,81.0713682251252,-2.36,-2.11,-0.53,11.0,0.0,0.0,9.0,0.0,7.0,6.0,34.34,20.7,1.77,
9.791,97.51552944355399,81.03413682251252,-2.24,-1.95,-0.45,11.0,0.0,0.0,8.0,0.0,7.0,6.0,34.14,20.31,1.37,
9.816,97.5465529443554,81.11141368225125,-2.11,-1.6,-0.44,11.0,0.0,0.0,8.0,0.0,6.0,6.0,34.04,20.21,1.08,
9.84,97.55865529443554,81.11014136822511,-2.04,-1.47,-0.5,11.0,0.0,0.0,8.0,0.0,6.0,6.0,33.75,20.01,1.18,
9.865,97.55086552944356,81.11901413682251,-1.92,-1.72,-0.71,11.0,0.0,0.0,8.0,0.0,6.0,5.0,33.55,20.01,1.28,
9.888,97.53208655294435,81.11990141368226,-2.3,-1.66,-0.6,11.0,0.0,0.0,8.0,0.0,6.0,5.0,33.35,19.82,0.88,
9.913,97.52120865529443,81.17399014136824,-2.28,-1.53,-0.68,11.0,0.0,0.0,8.0,0.0,6.0,5.0,33.16,19.72,0.39,
9.937,97.62812086552944,81.26039901413682,-2.58,-1.33,-0.54,11.0,0.0,0.0,8.0,0.0,6.0,5.0,33.06,19.62,0.29,
9.962,97.64781208655295,81.27803990141368,-2.79,-1.24,-0.39,11.0,0.0,0.0,8.0,0.0,6.0,5.0,33.06,19.72,0.0,
9.987,97.6227812086553,81.26180399014137,-2.84,-1.31,-0.34,11.0,0.0,0.0,8.0,0.0,6.0,5.0,33.06,19.62,0.0,
10.01,97.62927812086554,81.21518039901413,-2.69,-1.25,-0.36,11.0,0.0,0.0,8.0,0.0,6.0,5.0,32.86,19.72,0.0,
10.035,97.65692781208656,81.21951803990142,-2.9,-1.45,-0.2,11.0,0.0,0.0,8.0,0.0,6.0,5.0,32.86,19.72,0.0,
10.059,97.61469278120866,81.21095180399014,-2.99,-1.59,-0.18,11.0,0.0,0.0,8.0,0.0,6.0,5.0,32.77,19.82,0.0,
10.084,97.64646927812086,81.25509518039901,-3.06,-1.4,-0.06,11.0,0.0,0.0,8.0,0.0,6.0,5.0,32.77,19.82,0.0,
10.108,97.67664692781209,81.2865095180399,-3.21,-1.69,0.13,11.0,0.0,0.0,8.0,0.0,6.0,5.0,32.57,19.72,0.29,
10.133,97.65266469278122,81.24465095180399,-3.23,-1.43,-0.15,11.0,0.0,0.0,8.0,0.0,6.0,5.0,32.27,19.72,0.2,
10.158,97.62326646927812,81.2674650951804,-3.03,-1.62,0.07,11.0,0.0,0.0,8.0,0.0,6.0,5.0,32.18,19.62,0.49,
10.181,97.63832664692782,81.28774650951804,-3.05,-1.73,-0.01,11.0,0.0,0.0,8.0,0.0,6.0,5.0,31.98,19.42,0.49,
10.206,97.61283266469279,81.2627746509518,-2.96,-1.65,-0.02,11.0,0.0,0.0,8.0,0.0,6.0,5.0,31.88,19.42,0.49,
10.23,97.57428326646928,81.30527746509517,-2.6,-1.62,-0.15,11.0,0.0,0.0,8.0,0.0,6.0,5.0,31.69,19.33,0.2,
10.255,97.49842832664693,81.34552774650952,-2.66,-1.61,-0.21,11.0,0.0,0.0,8.0,0.0,6.0,5.0,31.69,19.13,0.0,
10.279,97.49984283266468,81.30455277465096,-2.73,-1.57,0.12,11.0,0.0,0.0,8.0,0.0,6.0,5.0,31.39,19.03,0.0,
10.304,97.43698428326648,81.34545527746509,-2.72,-1.44,0.02,11.0,0.0,0.0,8.0,0.0,6.0,5.0,31.1,18.93,0.0,
10.329,97.42169842832664,81.28654552774651,-2.57,-1.33,-0.31,11.0,0.0,0.0,8.0,0.0,6.0,5.0,30.9,18.93,2.06,
10.353,97.44716984283266,81.29865455277465,-2.57,-1.7,-0.54,11.0,0.0,0.0,8.0,0.0,6.0,5.0,30.71,18.93,3.24,
10.377,97.46771698428327,81.27286545527747,-2.63,-1.71,-0.63,11.0,0.0,0.0,8.0,0.0,6.0,5.0,30.71,18.74,1.57,
10.401,97.40677169842834,81.30628654552774,-2.31,-1.67,-0.61,11.0,0.0,0.0,8.0,0.0,6.0,5.0,30.61,18.64,0.0,
10.426,97.41867716984282,81.27362865455277,-2.39,-1.45,-0.65,11.0,0.0,0.0,8.0,0.0,6.0,5.0,30.41,18.44,0.0,
10.45,97.39286771698428,81.29736286545528,-2.33,-1.5,-0.62,11.0,0.0,0.0,8.0,0.0,6.0,5.0,30.31,18.44,0.39,
10.475,97.38128677169843,81.29973628654552,-2.1,-1.5,-0.58,11.0,0.0,0.0,8.0,0.0,6.0,4.0,30.12,18.34,0.29,
10.5,97.39812867716985,81.29997362865456,-2.09,-1.31,-0.6,11.0,0.0,0.0,8.0,0.0,6.0,4.0,30.02,18.25,0.49,
10.524,97.44481286771698,81.35399736286546,-2.01,-1.48,-0.53,11.0,0.0,0.0,8.0,0.0,6.0,4.0,29.92,18.25,0.69,
10.549,97.41348128677168,81.40439973628655,-1.32,-1.34,-1.38,11.0,0.0,0.0,8.0,0.0,6.0,4.0,29.82,18.15,0.29,
10.573,97.42834812867719,81.42743997362867,-1.11,-0.58,-1.36,11.0,0.0,0.0,7.0,0.0,6.0,4.0,29.53,18.34,0.0,
10.597,97.29483481286772,81.39374399736288,-0.73,0.24,-1.52,11.0,0.0,0.0,8.0,0.0,6.0,4.0,29.63,18.64,0.0,
10.621,97.37148348128676,81.42637439973629,-0.96,-0.47,-2.17,11.0,0.0,0.0,8.0,0.0,5.0,4.0,29.92,19.62,0.0,
10.646,97.46014834812867,81.58263743997362,-2.79,0.95,-0.6,12.0,0.0,0.0,8.0,0.0,5.0,4.0,30.31,20.6,0.29,
10.671,97.57701483481287,81.76026374399737,-5.07,2.85,1.66,12.0,0.0,0.0,8.0,0.0,6.0,4.0,30.61,21.09,1.57,
10.695,97.88570148348128,81.84102637439973,-6.42,1.37,2.69,12.0,0.0,0.0,8.0,0.0,6.0,4.0,30.41,21.19,5.4,
10.719,97.90757014834813,81.83110263743998,-6.8,0.49,3.85,11.0,0.0,0.0,8.0,0.0,6.0,5.0,30.12,20.7,6.38,
10.743,97.71175701483482,81.61411026374401,-6.01,0.27,2.5,11.0,0.0,0.0,7.0,0.0,6.0,5.0,29.63,19.72,2.26,
10.768,97.7551757014835,81.47541102637439,-3.87,-0.6,1.12,11.0,0.0,0.0,7.0,0.0,6.0,5.0,29.14,18.74,1.57,
10.792,97.80451757014836,81.42554110263744,-2.21,-2.05,0.61,11.0,0.0,0.0,7.0,0.0,6.0,4.0,28.94,17.95,2.35,
10.816,97.75545175701484,81.33955411026375,-0.8,-3.04,-0.77,11.0,0.0,0.0,7.0,0.0,6.0,4.0,28.35,17.27,0.59,
10.841,97.64254517570149,81.28595541102638,-0.04,-2.92,-1.75,11.0,0.0,0.0,7.0,0.0,6.0,4.0,27.57,16.38,0.0,
10.865,97.60425451757015,81.34359554110264,0.24,-2.34,-2.26,11.0,0.0,0.0,7.0,0.0,5.0,3.0,27.08,15.99,0.0,
10.89,97.56442545175702,81.42135955411027,0.1,-2.21,-1.82,10.0,0.0,0.0,6.0,0.0,5.0,3.0,26.68,15.6,0.59,
10.914,97.6144425451757,81.53713595541102,0.16,-1.78,-0.98,10.0,0.0,0.0,6.0,0.0,5.0,2.0,26.29,15.11,0.0,
10.939,97.62844425451758,81.5937135955411,-0.19,-1.82,-0.56,10.0,0.0,0.0,6.0,0.0,5.0,2.0,26.0,14.91,0.0,
10.962,97.69284442545177,81.69837135955412,-0.62,-1.93,-0.18,10.0,0.0,0.0,6.0,0.0,4.0,2.0,25.6,14.62,1.08,
10.987,97.68128444254518,81.75383713595541,-0.88,-1.55,0.14,10.0,0.0,0.0,5.0,0.0,4.0,2.0,25.21,14.32,7.55,
11.012,97.69812844425452,81.81338371359553,-1.19,-2.14,0.3,10.0,0.0,0.0,5.0,0.0,4.0,2.0,24.92,13.93,0.88,
11.036,97.68181284442545,81.87333837135955,-1.64,-2.23,0.41,10.0,0.0,0.0,5.0,0.0,4.0,2.0,24.62,13.64,5.98,
11.061,97.65318128444255,81.89733383713596,-1.87,-2.71,-0.04,10.0,0.0,0.0,5.0,0.0,4.0,2.0,24.43,13.34,0.0,
11.085,97.57831812844425,81.90873338371358,-1.85,-3.11,-0.31,10.0,0.0,0.0,5.0,0.0,4.0,2.0,24.23,13.15,0.0,
11.11,97.50783181284442,81.99087333837136,-2.58,-2.52,-0.41,10.0,0.0,0.0,5.0,0.0,4.0,1.0,24.03,13.05,0.0,
11.133,97.50978318128443,82.02608733383713,-3.03,-1.84,-0.15,10.0,0.0,0.0,5.0,0.0,4.0,2.0,24.03,13.05,0.0,
11.158,97.54597831812845,82.02960873338371,-2.92,-1.51,-0.21,10.0,0.0,0.0,5.0,0.0,4.0,2.0,24.03,13.05,0.0,
11.183,97.55859783181285,82.02096087333837,-2.57,-1.69,-0.26,10.0,0.0,0.0,5.0,0.0,4.0,2.0,24.03,13.15,0.2,
11.207,97.51485978318128,82.04709608733384,-2.57,-1.82,-0.15,10.0,0.0,0.0,5.0,0.0,4.0,2.0,24.13,13.15,1.96,
11.232,97.53748597831813,81.97770960873338,-2.52,-1.66,-0.08,10.0,0.0,0.0,5.0,0.0,4.0,1.0,23.94,994.54,0.0,
11.256,97.45874859783181,81.99777096087334,-2.13,-1.63,-0.11,10.0,0.0,0.0,5.0,0.0,4.0,1.0,23.84,13.15,0.0,
11.281,97.39687485978317,81.99977709608733,-1.86,-1.6,-0.08,10.0,0.0,0.0,5.0,0.0,4.0,1.0,23.74,13.24,0.0,
11.305,97.42668748597833,82.03597770960874,-1.34,-1.74,0.05,10.0,0.0,0.0,5.0,0.0,4.0,1.0,23.64,13.34,0.0,
11.329,97.38466874859783,82.13859777096087,-1.67,-1.51,0.08,10.0,0.0,0.0,5.0,0.0,4.0,1.0,23.54,13.34,0.0,
11.354,97.28146687485977,82.09485977709609,-0.41,-1.62,-0.72,10.0,0.0,0.0,5.0,0.0,3.0,1.0,23.45,13.44,4.61,
11.378,97.20814668748598,82.1354859777096,0.57,-1.64,-0.52,10.0,0.0,0.0,4.0,0.0,3.0,1.0,23.45,13.54,3.83,
11.402,97.16481466874859,82.19354859777096,0.03,-1.36,-0.69,10.0,0.0,0.0,4.0,0.0,3.0,1.0,22.96,13.73,2.16,
11.426,97.17848146687486,82.26235485977709,-0.47,-1.6,-0.58,10.0,0.0,0.0,4.0,0.0,3.0,1.0,22.56,14.03,1.28,
11.451,97.18884814668749,82.3142354859777,-0.5,-1.76,-0.68,10.0,0.0,0.0,4.0,0.0,3.0,1.0,22.37,14.22,0.98,
11.475,97.18988481466874,82.40942354859777,0.35,-2.14,-1.2,10.0,0.0,0.0,4.0,0.0,3.0,1.0,22.07,14.52,1.18,
11.499,97.21698848146687,82.50894235485978,-0.54,-1.21,-0.75,10.0,0.0,0.0,4.0,0.0,3.0,1.0,21.58,14.72,2.06,
11.524,97.2826988481467,82.65389423548598,-2.47,1.58,1.39,10.0,0.0,0.0,4.0,0.0,3.0,1.0,21.29,15.01,1.86,
11.548,97.35226988481466,82.75838942354859,-3.97,2.02,2.11,10.0,0.0,0.0,4.0,0.0,3.0,1.0,21.39,15.3,1.86,
11.572,97.50322698848146,82.77783894235486,-5.29,0.63,2.11,10.0,0.0,0.0,4.0,0.0,3.0,1.0,21.78,15.4,0.78,
11.596,97.51832269884815,82.67178389423549,-5.96,-0.87,2.02,10.0,0.0,0.0,4.0,0.0,3.0,1.0,22.27,15.7,0.29,
11.621,97.49283226988481,82.62517838942355,-4.82,-2.05,1.35,10.0,0.0,0.0,5.0,0.0,4.0,2.0,22.76,15.5,4.02,
11.645,97.50828322698848,82.55751783894236,-4.33,-3.19,0.17,10.0,0.0,0.0,5.0,0.0,4.0,2.0,23.15,15.4,7.95,
11.669,97.36582832269885,82.48775178389424,-4.06,-3.18,-0.43,10.0,0.0,0.0,5.0,0.0,4.0,2.0,23.45,15.3,1.28,
11.694,97.35158283226988,82.45377517838942,-4.21,-2.01,-0.4,10.0,0.0,0.0,5.0,0.0,4.0,2.0,24.13,15.7,3.43,
11.718,97.37715828322698,82.50437751783895,-4.23,-1.85,-0.09,10.0,0.0,0.0,5.0,0.0,4.0,2.0,24.72,16.28,0.0,
11.743,97.3707158283227,82.48243775178389,-4.13,-2.33,0.14,10.0,0.0,0.0,5.0,0.0,4.0,2.0,25.41,16.87,0.0,
11.767,97.33407158283227,82.41724377517838,-3.74,-2.53,0.41,10.0,0.0,0.0,5.0,0.0,4.0,2.0,25.8,17.36,0.0,
11.792,97.31240715828324,82.49172437751784,-3.75,-2.97,0.44,10.0,0.0,0.0,6.0,0.0,4.0,2.0,26.19,17.76,0.0,
11.816,97.31924071582831,82.55317243775178,-4.22,-3.08,1.21,10.0,0.0,0.0,6.0,0.0,4.0,2.0,26.49,18.25,0.29,
11.84,97.31992407158282,82.50531724377518,-4.77,-3.34,0.83,10.0,0.0,0.0,6.0,0.0,4.0,2.0,26.88,18.54,0.1,
11.865,97.3109924071583,82.51853172437751,-4.97,-3.92,1.6,10.0,0.0,0.0,6.0,0.0,4.0,2.0,27.08,18.74,0.0,
11.889,97.28309924071584,82.47485317243775,-5.79,-4.26,1.78,10.0,0.0,0.0,6.0,0.0,4.0,1.0,27.08,18.64,0.0,
11.914,97.24430992407157,82.38048531724378,-6.74,-4.58,2.11,10.0,0.0,0.0,6.0,0.0,4.0,1.0,26.98,18.34,0.0,
11.938,97.12343099240715,82.29004853172438,-7.26,-4.26,2.39,9.0,0.0,0.0,5.0,0.0,4.0,1.0,26.78,17.66,0.0,
11.962,97.05734309924071,82.26300485317245,-7.93,-4.69,4.1,9.0,0.0,0.0,4.0,0.0,3.0,1.0,26.09,16.28,0.0,
11.986,96.97873430992406,82.02630048531724,-5.24,-7.64,5.92,7.0,0.0,0.0,3.0,0.0,2.0,0.0,23.45,14.03,12.07,
12.011,96.6918734309924,82.59663004853172,-8.89,-10.76,14.36,6.0,0.0,0.0,2.0,0.0,2.0,0.0,20.11,10.79,13.15,
12.036,98.28318734309923,84.89466300485317,-16.47,-14.1,40.92,5.0,0.0,0.0,1.0,0.0,1.0,0.0,16.48,6.87,3.83,
12.059,98.00131873430992,86.26746630048532,-52.27,-6.88,44.4,4.0,0.0,0.0,0.0,0.0,1.0,0.0,13.15,3.34,4.02,
12.084,98.91813187343098,87.52974663004854,-63.37,0.3,54.31,4.0,0.0,0.0,0.0,0.0,1.0,0.0,9.32,1.28,3.53,
12.107,99.9818131873431,90.22997466300485,-60.02,3.73,59.66,4.0,0.0,0.0,0.0,0.0,1.0,0.0,5.1,0.0,3.14,
12.131,100.03418131873431,94.36999746630048,-30.13,-1.32,51.33,3.0,0.0,0.0,0.0,0.0,1.0,0.0,1.77,0.0,2.75,
12.155,99.96741813187343,99.38299974663005,2.84,-2.67,40.02,3.0,0.0,0.0,0.0,0.0,1.0,0.0,0.0,0.0,1.86,
12.179,99.11474181318734,103.38529997466301,27.53,-0.48,35.03,2.0,0.0,0.0,0.0,0.0,1.0,0.0,0.0,0.0,0.49,
12.203,97.88647418131873,105.9365299974663,47.43,4.26,18.37,2.0,0.0,0.0,0.0,0.0,1.0,0.0,0.0,0.0,1.28,
12.227,96.72864741813187,106.88465299974662,65.69,6.73,0.76,2.0,0.0,0.0,0.0,0.0,1.0,0.0,0.0,0.0,1.77,
12.251,95.72186474181319,106.85346529997466,84.53,8.54,-27.15,2.0,0.0,0.0,0.0,0.0,1.0,0.0,0.0,0.0,0.59,
12.274,95.43218647418134,106.65234652999746,94.86,6.73,-47.63,2.0,0.0,0.0,0.0,0.0,1.0,0.0,0.0,0.0,0.88,
12.299,95.51121864741813,106.44323465299975,96.88,8.02,-59.98,1.0,0.0,0.0,0.0,0.0,1.0,0.0,0.0,0.0,0.88,
12.322,95.77112186474181,106.24232346529998,100.06,8.71,-64.0,1.0,0.0,0.0,0.0,0.0,1.0,0.0,0.0,0.0,1.67,
12.346,96.08511218647419,105.71823234652999,99.06,7.78,-63.61,1.0,0.0,0.0,0.0,0.0,1.0,0.0,0.0,0.0,1.28,
12.37,96.50351121864742,104.900823234653,101.34,8.52,-59.99,1.0,0.0,0.0,0.0,0.0,1.0,0.0,0.0,0.0,0.2,
12.394,96.31135112186475,104.0000823234653,105.33,2.62,-55.37,1.0,0.0,0.0,0.0,0.0,1.0,0.0,0.0,0.0,1.08,
12.418,95.70713511218648,103.54100823234651,110.38,2.7,-38.69,1.0,0.0,0.0,0.0,0.0,1.0,0.0,0.0,0.0,1.47,
12.442,95.74571351121864,102.69410082323465,107.6,13.11,-33.18,1.0,0.0,0.0,0.0,0.0,1.0,0.0,0.1,0.0,1.37,
12.466,96.15457135112186,101.24141008232345,97.89,11.37,-18.62,1.0,0.0,0.0,0.0,0.0,1.0,0.0,0.49,0.0,2.16,
12.49,96.49245713511219,98.66614100823234,83.56,4.47,-6.48,1.0,0.0,0.0,0.0,0.0,1.0,0.0,0.78,0.0,1.08,
12.514,96.50824571351123,95.34861410082323,63.85,5.21,0.68,1.0,0.0,0.0,0.0,0.0,1.0,0.0,1.18,0.0,0.59,
12.537,96.66282457135114,91.72286141008232,39.1,7.85,13.58,1.0,0.0,0.0,0.0,0.0,1.0,0.0,1.18,0.0,0.59,
12.561,96.57928245713511,88.31828614100823,10.3,-0.06,15.47,0.0,0.0,0.0,0.0,0.0,1.0,0.0,1.37,0.0,1.08,
12.585,96.5979282457135,85.77282861410083,-17.5,-5.34,13.9,0.0,0.0,0.0,0.0,0.0,1.0,0.0,1.28,0.0,1.28,
12.609,96.83379282457136,83.72728286141009,-41.59,-8.42,16.6,0.0,0.0,0.0,0.0,0.0,1.0,0.0,1.18,0.0,1.08,
12.633,96.78537928245714,81.69572828614102,-50.72,-4.42,14.14,0.0,0.0,0.0,0.0,0.0,1.0,0.0,0.88,0.0,1.47,
12.657,94.85453792824572,83.85957282861409,-54.95,10.51,21.84,0.0,0.0,0.0,0.0,0.0,1.0,0.0,0.59,0.0,1.37,
12.681,95.55245379282456,87.27995728286142,-102.31,22.82,11.96,0.0,0.0,0.0,0.0,0.0,0.0,0.0,0.0,0.0,3.73,
12.704,95.52324537928246,87.49599572828615,-157.76,40.27,-6.85,0.0,0.0,0.0,0.0,0.0,0.0,0.0,0.0,0.0,4.22,
12.729,94.58432453792825,87.49959957282861,-167.18,26.24,-55.39,0.0,0.0,0.0,0.0,0.0,0.0,0.0,0.0,0.0,15.6,
12.752,96.47943245379282,87.36495995728285,-193.74,58.73,-63.1,0.0,0.0,0.0,0.0,0.0,1.0,0.0,0.0,0.0,18.84,
12.777,97.85694324537928,86.01949599572828,-162.53,46.98,-14.86,1.0,0.0,0.0,0.0,0.0,1.0,0.0,0.0,0.59,5.49,
12.802,102.06269432453793,80.27794959957282,-78.95,-5.49,45.8,1.0,0.0,0.0,0.0,0.0,2.0,0.0,0.69,1.08,6.87,
12.825,101.27726943245379,77.59779495995727,-57.76,-44.33,-5.12,2.0,0.0,0.0,1.0,0.0,2.0,0.0,7.55,6.47,6.38,
12.85,100.91072694324538,78.22077949599574,-56.93,-40.76,3.21,3.0,0.0,0.0,3.0,0.0,4.0,1.0,12.75,10.2,2.16,
12.874,99.27207269432455,78.96707794959957,-27.61,-29.3,10.44,4.0,0.0,0.0,5.0,0.0,7.0,2.0,17.76,11.97,0.59,
12.899,97.93820726943247,78.91570779495996,-24.02,-24.53,18.83,5.0,0.0,0.0,6.0,0.0,9.0,4.0,20.4,13.15,0.0,
12.923,97.79582072694325,79.43257077949599,-17.69,-4.38,3.04,5.0,0.0,0.0,8.0,0.0,10.0,5.0,23.64,14.22,0.0,
12.948,98.71758207269433,80.0602570779496,-14.11,3.56,-4.31,6.0,0.0,0.0,9.0,0.0,12.0,5.0,27.76,15.99,0.0,
12.973,99.31375820726942,80.43802570779496,-17.09,1.56,-4.61,7.0,0.0,0.0,10.0,0.0,1.0,6.0,31.39,18.25,0.0,
12.996,99.51737582072695,80.4848025707795,-16.76,1.91,-2.94,8.0,0.0,0.0,11.0,0.0,3.0,6.0,34.14,20.5,0.0,
13.021,99.3217375820727,80.52548025707796,-13.86,5.91,-0.9,8.0,0.0,0.0,12.0,1.0,6.0,7.0,40.12,22.66,0.0,
13.045,99.36517375820728,80.74554802570779,-12.99,12.4,0.07,9.0,0.0,0.0,1.0,1.0,8.0,7.0,46.5,25.02,0.0,
13.07,99.90051737582073,80.89355480257078,-13.01,16.05,3.04,10.0,0.0,0.0,2.0,1.0,9.0,8.0,53.27,27.76,0.0,
13.094,100.44005173758208,80.72835548025708,-12.82,9.53,4.15,10.0,0.0,0.0,4.0,2.0,10.0,8.0,58.96,30.8,0.0,
13.119,100.7190051737582,80.59483554802571,-10.96,6.42,3.57,11.0,0.0,0.0,4.0,2.0,10.0,8.0,64.45,33.06,0.0,
13.144,101.13390051737584,80.46448355480257,-8.25,3.22,5.87,11.0,0.0,0.0,5.0,2.0,10.0,8.0,70.73,34.04,0.0,
13.168,101.39139005173759,80.34344835548025,-6.28,-0.19,6.24,12.0,0.0,0.0,5.0,2.0,11.0,8.0,75.44,33.55,0.0,
13.193,101.48013900517375,80.24134483554803,-3.82,-5.44,6.89,12.0,0.0,0.0,5.0,2.0,11.0,9.0,79.85,32.37,0.0,
13.217,101.48001390051738,80.17713448355481,-0.69,-10.9,6.06,0.0,0.0,0.0,5.0,2.0,11.0,9.0,82.99,31.29,0.0,
13.242,101.30900139005173,80.16171344835548,3.0,-15.15,5.6,2.0,0.0,0.0,6.0,2.0,11.0,9.0,84.17,30.12,1.86,
13.266,100.99490013900515,80.31317134483554,0.18,-14.21,6.12,3.0,0.0,0.0,6.0,1.0,11.0,9.0,82.5,28.55,3.92,
13.29,100.6664900139005,80.36431713448357,-1.77,-12.26,5.88,5.0,0.0,0.0,6.0,1.0,11.0,9.0,79.66,27.17,0.0,
13.315,100.30064900139006,80.44143171344835,-1.38,-13.34,6.34,6.0,0.0,0.0,6.0,1.0,11.0,9.0,78.19,26.09,0.0,
13.339,99.823064900139,80.59314317134483,-0.76,-12.37,6.47,6.0,0.0,0.0,6.0,1.0,11.0,9.0,76.91,24.92,0.59,
13.364,99.19030649001391,80.86031431713448,-3.73,-12.04,4.12,7.0,0.0,0.0,6.0,1.0,11.0,10.0,75.34,23.45,0.0,
13.388,99.0550306490014,80.72503143171345,-5.08,-9.23,3.73,8.0,0.0,0.0,6.0,1.0,11.0,10.0,74.16,22.37,1.08,
13.413,98.82550306490015,80.63950314317134,-4.4,-4.88,3.6,10.0,0.0,0.0,6.0,1.0,11.0,10.0,74.36,22.27,0.49,
13.437,98.51455030649002,80.54995031431713,-2.98,2.24,5.6,9.0,0.0,0.0,6.0,1.0,11.0,10.0,73.38,22.86,0.0,
13.462,98.591455030649,80.41499503143173,-0.47,-0.07,4.61,9.0,0.0,0.0,6.0,1.0,10.0,9.0,68.77,24.52,0.0,
13.487,98.7791455030649,80.41049950314317,2.22,-3.31,5.24,9.0,0.0,0.0,5.0,1.0,8.0,9.0,63.77,25.6,0.0,
13.51,98.84291455030649,80.66204995031431,-0.66,-3.54,5.21,9.0,0.0,0.0,4.0,1.0,7.0,9.0,59.94,25.41,0.1,
13.535,98.56129145503066,80.76820499503143,-3.98,-1.31,6.37,10.0,0.0,0.0,4.0,1.0,6.0,9.0,56.8,25.41,1.67,
13.559,98.20912914550307,80.77882049950314,-5.76,5.31,7.5,10.0,0.0,0.0,4.0,1.0,4.0,8.0,55.43,26.59,2.06,
13.584,98.2099129145503,80.83388204995032,-8.73,9.27,7.14,10.0,0.0,0.0,4.0,1.0,3.0,8.0,55.13,29.33,0.0,
13.607,98.07499129145504,80.85738820499503,-14.76,16.08,8.23,10.0,0.0,0.0,5.0,1.0,3.0,9.0,56.21,32.86,0.0,
13.632,98.1064991291455,80.8327388204995,-17.95,14.88,12.73,9.0,0.0,0.0,6.0,2.0,3.0,9.0,60.33,38.55,0.0,
13.657,98.32564991291454,80.64127388204996,-24.83,11.15,15.82,7.0,0.0,0.0,6.0,3.0,4.0,10.0,67.39,44.54,0.0,
13.681,98.50956499129146,80.559127388205,-27.87,6.65,24.05,3.0,0.0,0.0,6.0,3.0,4.0,11.0,75.44,49.05,0.0,
13.706,98.77995649912914,80.7939127388205,-33.56,-3.83,35.26,11.0,0.0,0.0,4.0,4.0,4.0,11.0,86.92,52.78,1.57,
13.73,98.52799564991292,81.92439127388205,-38.34,-9.7,39.12,9.0,0.0,0.0,0.0,4.0,5.0,11.0,93.59,53.96,2.06,
13.755,98.25079956499128,81.4254391273882,-70.43,2.5,47.74,8.0,0.0,0.0,10.0,4.0,6.0,11.0,98.79,48.95,8.83,
13.779,97.69207995649913,80.71854391273882,-91.08,16.39,45.4,7.0,0.0,0.0,6.0,4.0,6.0,11.0,101.73,39.53,11.38,
13.804,96.82620799564991,79.57685439127388,-108.0,35.02,32.93,6.0,0.0,0.0,2.0,3.0,2.0,11.0,100.06,25.21,11.87,
13.829,96.46062079956499,79.0576854391274,-125.15,35.96,28.69,5.0,0.0,0.0,0.0,3.0,0.0,10.0,84.95,15.6,9.22,
13.853,96.0280620799565,78.94276854391275,-141.27,45.3,33.24,4.0,0.0,0.0,0.0,2.0,11.0,9.0,66.02,8.93,6.28,
13.878,96.70480620799566,77.16727685439128,-156.11,59.35,21.1,3.0,0.0,0.0,0.0,2.0,10.0,8.0,43.36,3.53,0.0,
13.902,99.31048062079957,75.55872768543912,-165.74,6.47,-0.17,2.0,0.0,0.0,0.0,1.0,8.0,6.0,22.17,0.0,0.0,
13.926,103.10804806207996,72.01387276854392,-159.66,1.13,2.09,2.0,0.0,0.0,0.0,1.0,5.0,2.0,10.79,0.0,0.0,
13.95,107.528804806208,74.33238727685439,-70.6,-10.08,7.44,2.0,0.0,0.0,0.0,1.0,2.0,0.0,5.3,0.0,1.67,
13.974,110.68888048062081,81.05323872768544,6.11,-44.52,51.27,2.0,0.0,0.0,0.0,1.0,2.0,0.0,1.77,0.0,2.45,
13.999,108.61988804806208,85.99132387276855,61.37,-56.8,53.66,2.0,0.0,0.0,0.0,1.0,1.0,0.0,1.28,0.0,3.43,
14.023,106.73898880480621,90.50813238727686,72.76,-48.31,54.95,2.0,0.0,0.0,0.0,1.0,1.0,0.0,1.77,0.0,2.75,
14.047,104.23789888048061,94.34381323872768,77.74,-35.47,65.92,2.0,0.0,0.0,0.0,1.0,1.0,0.0,1.67,0.0,3.92,
14.071,101.56678988804806,96.17638132387277,100.16,-17.79,52.41,2.0,0.0,0.0,0.0,1.0,1.0,0.0,1.47,0.0,1.08,
14.095,98.9956789888048,96.30563813238727,131.26,-15.08,33.53,2.0,0.0,0.0,0.0,1.0,1.0,0.0,1.18,0.0,2.16,
14.119,95.95756789888048,94.67156381323872,141.05,-4.43,-2.89,2.0,0.0,0.0,0.0,1.0,2.0,0.0,1.08,0.0,0.78,
14.143,93.47575678988805,92.47415638132388,139.41,11.07,-43.5,2.0,0.0,0.0,0.0,1.0,2.0,0.0,1.08,0.0,0.0,
14.168,92.0395756789888,89.77041563813238,139.4,22.01,-74.83,2.0,0.0,0.0,0.0,1.0,2.0,0.0,0.98,0.0,0.59,
14.191,91.85995756789889,86.71004156381323,145.68,12.15,-93.48,2.0,0.0,0.0,0.0,1.0,2.0,0.0,1.28,0.0,0.29,
14.216,92.8679957567899,84.29800415638132,152.46,-11.21,-79.42,1.0,0.0,0.0,0.0,1.0,2.0,0.0,1.57,0.0,1.18,
14.24,94.22879957567898,81.50080041563812,143.47,-22.33,-51.21,1.0,0.0,0.0,0.0,1.0,2.0,0.0,1.96,0.0,0.78,
14.264,95.90387995756791,78.35908004156381,118.18,-24.87,-26.76,1.0,0.0,0.0,0.0,1.0,2.0,0.0,2.45,0.0,0.59,
14.288,97.52038799575679,75.61490800415639,71.91,-13.8,2.99,1.0,0.0,0.0,0.0,1.0,2.0,0.0,2.55,0.0,0.78,
14.312,98.36603879957566,72.13649080041564,-14.28,20.19,15.85,1.0,0.0,0.0,0.0,1.0,1.0,0.0,2.65,0.0,3.43,
14.337,95.28260387995756,65.74964908004156,-142.57,38.43,-78.46,1.0,0.0,0.0,0.0,1.0,1.0,0.0,1.57,0.0,5.79,
14.36,96.95426038799576,62.03296490800415,1.85,-55.26,-29.32,1.0,0.0,0.0,2.0,1.0,2.0,0.0,2.55,1.18,3.73,
14.385,96.15842603879958,64.87429649080042,11.0,-26.4,-8.55,2.0,0.0,0.0,3.0,1.0,2.0,0.0,8.34,4.51,0.2,
14.409,94.77384260387996,67.27342964908004,-19.09,9.85,-14.07,2.0,0.0,0.0,3.0,1.0,2.0,0.0,11.67,5.1,0.0,
14.433,95.076384260388,69.51134296490801,-8.89,24.76,-9.78,3.0,0.0,0.0,3.0,1.0,2.0,0.0,14.32,5.1,0.0,
14.457,96.79863842603879,70.8511342964908,-4.79,11.59,2.78,3.0,0.0,0.0,3.0,0.0,2.0,0.0,18.74,5.0,0.1,
14.482,97.11486384260388,72.63211342964908,-3.57,11.32,7.54,3.0,0.0,0.0,3.0,0.0,2.0,0.0,20.31,5.59,3.14,
14.505,96.80448638426039,74.03421134296491,-3.37,2.62,6.1,3.0,0.0,0.0,4.0,0.0,2.0,1.0,21.29,6.08,0.69,
14.53,96.14344863842604,75.21842113429649,-2.31,1.2,3.02,4.0,0.0,0.0,4.0,0.0,3.0,1.0,22.37,6.87,0.2,
14.554,95.8523448638426,76.35384211342965,-3.2,4.01,1.53,4.0,0.0,0.0,4.0,0.0,3.0,1.0,23.35,7.65,0.0,
14.578,96.03023448638424,77.30438421134296,-3.42,1.72,-1.3,4.0,0.0,0.0,5.0,0.0,3.0,1.0,24.43,8.34,0.0,
14.603,96.51602344863842,78.2544384211343,-5.08,-1.77,0.07,5.0,0.0,0.0,5.0,0.0,3.0,1.0,25.31,8.83,0.0,
14.626,96.75360234486385,78.88944384211342,-5.2,-3.22,2.72,5.0,0.0,0.0,5.0,0.0,3.0,1.0,26.39,9.12,0.0,
14.651,96.63336023448639,79.41194438421134,-4.01,-3.47,4.13,5.0,0.0,0.0,5.0,0.0,3.0,2.0,26.68,9.32,1.77,
14.675,96.24333602344863,79.75219443842114,-1.7,-0.12,2.51,6.0,0.0,0.0,6.0,0.0,4.0,2.0,26.68,9.42,0.39,
14.699,96.02433360234487,80.22721944384212,-1.86,2.85,-0.34,6.0,0.0,0.0,6.0,0.0,4.0,2.0,26.59,9.61,0.0,
14.724,95.99343336023448,80.66172194438421,-3.63,4.68,-0.49,6.0,0.0,0.0,6.0,0.0,4.0,2.0,26.78,10.01,0.59,
14.748,96.22434333602345,81.04717219443843,-4.08,2.48,-0.37,7.0,0.0,0.0,6.0,0.0,4.0,2.0,27.37,10.59,0.0,
14.772,96.34643433360235,81.35571721944385,-4.58,1.38,1.53,7.0,0.0,0.0,6.0,0.0,4.0,2.0,28.06,11.09,0.0,
14.796,96.32264343336024,81.58457172194439,-4.24,0.69,1.91,7.0,0.0,0.0,7.0,0.0,4.0,2.0,28.74,11.48,0.0,
14.821,96.23026434333602,81.74245717219443,-3.81,0.63,1.05,7.0,0.0,0.0,7.0,0.0,4.0,3.0,28.94,11.67,0.0,
14.844,96.2120264343336,81.87524571721946,-2.99,-0.45,-0.37,8.0,0.0,0.0,7.0,0.0,4.0,3.0,29.43,12.16,0.0,
14.869,96.38120264343337,82.01452457172195,-2.68,-1.05,-0.4,8.0,0.0,0.0,7.0,0.0,4.0,3.0,29.72,12.46,0.0,
14.894,96.53312026434332,82.1274524571722,-2.98,-1.44,-0.15,8.0,0.0,0.0,7.0,0.0,5.0,3.0,29.92,12.75,0.0,
14.918,96.54831202643433,82.15674524571722,-3.13,-2.06,-0.45,8.0,0.0,0.0,7.0,0.0,5.0,3.0,30.02,13.05,0.0,
14.942,96.54083120264345,82.23167452457172,-2.66,-1.73,-0.11,8.0,0.0,0.0,8.0,0.0,5.0,3.0,29.92,13.05,0.0,
14.966,96.53108312026436,82.36516745245717,-1.83,-1.37,-0.42,9.0,0.0,0.0,8.0,0.0,5.0,3.0,29.72,12.85,0.0,
14.991,96.54810831202643,82.46851674524572,-2.08,-0.4,0.33,9.0,0.0,0.0,7.0,0.0,5.0,3.0,29.33,12.75,0.0,
15.015,96.47781083120265,82.58685167452458,-2.53,0.56,0.91,9.0,0.0,0.0,7.0,0.0,5.0,3.0,29.04,12.56,0.0,
15.039,96.59678108312026,82.70668516745246,-4.02,-0.09,0.39,9.0,0.0,0.0,7.0,0.0,5.0,3.0,28.84,12.46,0.0,
15.064,96.62667810831202,82.72766851674525,-4.04,0.34,0.66,9.0,0.0,0.0,8.0,0.0,5.0,3.0,28.84,12.56,0.0,
15.088,96.5936678108312,82.72976685167453,-3.69,-0.32,0.15,9.0,0.0,0.0,8.0,0.0,5.0,3.0,29.04,12.65,0.0,
15.112,96.58136678108312,82.72997668516746,-3.2,-1.1,-0.33,9.0,0.0,0.0,8.0,0.0,5.0,3.0,29.14,12.65,0.0,
15.136,96.5981366781083,82.71199766851674,-3.2,-2.13,-0.53,9.0,0.0,0.0,8.0,0.0,5.0,3.0,29.14,12.75,0.0,
15.161,96.67181366781084,82.71019976685167,-3.61,-2.28,-0.54,9.0,0.0,0.0,8.0,0.0,5.0,3.0,29.04,12.95,0.2,
15.185,96.58918136678108,82.71001997668516,-3.98,-2.32,-0.7,9.0,0.0,0.0,8.0,0.0,5.0,3.0,29.14,13.05,0.59,
15.21,96.56291813667812,82.73700199766851,-4.33,-0.47,0.72,10.0,0.0,0.0,8.0,0.0,5.0,3.0,29.14,13.05,0.0,
15.234,96.58729181366782,82.72170019976686,-3.73,-0.81,1.02,10.0,0.0,0.0,8.0,0.0,5.0,3.0,29.14,13.05,0.2,
15.258,96.52672918136678,82.71117001997668,-3.87,-0.33,0.06,10.0,0.0,0.0,8.0,0.0,5.0,3.0,28.94,13.05,0.0,
15.283,96.54767291813667,82.66511700199767,-3.86,-1.63,-0.35,10.0,0.0,0.0,8.0,0.0,5.0,3.0,28.84,13.05,0.59,
15.307,96.56776729181367,82.67851170019978,-3.42,-2.19,-0.45,10.0,0.0,0.0,8.0,0.0,5.0,3.0,28.74,12.95,0.0,
15.332,96.59677672918136,82.67085117001999,-3.36,-1.58,-0.23,10.0,0.0,0.0,8.0,0.0,5.0,3.0,28.74,12.95,0.0,
15.356,96.61767767291815,82.679085117002,-3.4,-1.31,-0.26,10.0,0.0,0.0,8.0,0.0,5.0,3.0,28.74,12.85,0.0,
15.381,96.59276776729183,82.6259085117002,-3.05,-1.69,0.22,10.0,0.0,0.0,8.0,0.0,5.0,3.0,28.84,12.75,0.0,
15.405,96.5902767767292,82.59359085117002,-3.22,-1.33,0.4,10.0,0.0,0.0,8.0,0.0,5.0,3.0,28.74,12.75,0.0,
15.429,96.59902767767292,82.554359085117,-2.98,-1.86,0.35,10.0,0.0,0.0,8.0,0.0,5.0,3.0,28.74,12.65,0.0,
15.454,96.58190276776729,82.5684359085117,-2.94,-2.27,-0.09,10.0,0.0,0.0,8.0,0.0,5.0,3.0,28.65,12.65,0.49,
15.478,96.51719027677673,82.54284359085116,-2.87,-1.63,-0.03,10.0,0.0,0.0,8.0,0.0,5.0,3.0,28.55,12.65,0.1,
15.503,96.49271902767767,82.61228435908512,-3.02,-1.48,0.19,10.0,0.0,0.0,8.0,0.0,5.0,3.0,28.45,12.56,0.39,
15.526,96.46327190276776,82.58322843590851,-2.98,-1.34,0.47,10.0,0.0,0.0,8.0,0.0,5.0,3.0,28.35,12.36,0.39,
15.551,96.43332719027678,82.56232284359085,-2.77,-1.56,0.4,10.0,0.0,0.0,8.0,0.0,5.0,3.0,28.25,12.26,0.78,
15.576,96.45733271902768,82.62323228435909,-3.15,-1.15,-0.08,10.0,0.0,0.0,8.0,0.0,5.0,3.0,28.15,12.16,1.28,
15.6,96.44173327190278,82.64732322843591,-3.14,-1.05,-0.22,10.0,0.0,0.0,8.0,0.0,5.0,3.0,28.06,12.07,0.69,
15.625,96.46717332719028,82.62273232284359,-3.03,-1.05,-0.03,10.0,0.0,0.0,8.0,0.0,5.0,3.0,28.06,12.07,0.49,
15.649,96.45171733271903,82.62027323228436,-3.02,-1.25,-0.23,10.0,0.0,0.0,8.0,0.0,5.0,3.0,27.96,12.07,0.69,
15.674,96.42317173327191,82.58402732322844,-3.18,-1.06,-0.03,10.0,0.0,0.0,8.0,0.0,5.0,3.0,27.96,11.97,0.69,
15.698,96.43831717332719,82.57140273232284,-3.19,-1.11,0.62,10.0,0.0,0.0,8.0,0.0,5.0,3.0,27.96,12.07,0.2,
15.722,96.41283171733272,82.61514027323229,-3.39,-0.87,0.27,10.0,0.0,0.0,8.0,0.0,5.0,3.0,28.06,12.07,0.2,
15.747,96.41928317173327,82.61051402732323,-3.34,-0.86,0.05,10.0,0.0,0.0,8.0,0.0,5.0,3.0,27.96,12.07,0.0,
15.771,96.40192831717333,82.61005140273232,-3.17,-1.28,-0.1,10.0,0.0,0.0,8.0,0.0,5.0,3.0,28.06,12.26,0.1,
15.796,96.38219283171733,82.61000514027323,-2.92,-1.72,-0.3,10.0,0.0,0.0,8.0,0.0,5.0,3.0,27.96,12.36,0.2,
15.82,96.34421928317174,82.66400051402732,-2.96,-1.65,-0.7,10.0,0.0,0.0,8.0,0.0,5.0,3.0,27.96,12.36,0.39,
15.845,96.30442192831717,82.64240005140273,-2.91,-1.58,-0.47,10.0,0.0,0.0,8.0,0.0,5.0,3.0,27.86,12.36,0.69,
15.868,96.30044219283172,82.68524000514027,-2.88,-1.56,-0.4,10.0,0.0,0.0,8.0,0.0,5.0,3.0,27.96,12.36,0.69,
15.893,96.37204421928317,82.66252400051403,-2.91,-0.41,-0.08,10.0,0.0,0.0,8.0,0.0,5.0,3.0,27.96,12.46,0.39,
15.918,96.38820442192832,82.6512524000514,-2.6,-0.3,0.13,10.0,0.0,0.0,8.0,0.0,5.0,3.0,27.76,12.36,0.49,
15.942,96.45282044219283,82.58712524000514,-2.47,-0.65,0.13,10.0,0.0,0.0,8.0,0.0,5.0,3.0,27.76,12.36,0.49,
15.967,96.45028204421929,82.61671252400052,-2.69,-0.81,-0.07,10.0,0.0,0.0,8.0,0.0,5.0,3.0,27.66,12.46,0.69,
15.991,96.47702820442194,82.63767125240005,-2.43,-1.11,-0.18,10.0,0.0,0.0,8.0,0.0,5.0,3.0,27.66,12.36,1.28,
16.016,96.5067028204422,82.63976712524001,-2.46,-1.13,-0.27,10.0,0.0,0.0,8.0,0.0,5.0,3.0,27.57,12.36,1.18,
16.04,96.51867028204421,82.684976712524,-2.66,-1.24,-0.24,10.0,0.0,0.0,8.0,0.0,5.0,3.0,27.47,12.26,0.88,
16.064,96.51086702820443,82.67149767125241,-2.45,-1.46,-0.24,10.0,0.0,0.0,8.0,0.0,5.0,3.0,27.47,12.26,0.98,
16.089,96.54608670282043,82.67014976712525,-2.34,-1.54,-0.15,10.0,0.0,0.0,8.0,0.0,5.0,3.0,27.27,12.16,0.59,
16.113,96.57660867028204,82.68801497671254,-2.42,-1.03,-0.11,10.0,0.0,0.0,8.0,0.0,5.0,3.0,27.17,12.07,1.67,
16.138,96.5796608670282,82.68980149767125,-2.36,-0.95,-0.02,10.0,0.0,0.0,8.0,0.0,5.0,3.0,26.98,12.07,0.78,
16.162,96.51696608670282,82.73498014976713,-2.31,-1.08,0.1,10.0,0.0,0.0,8.0,0.0,5.0,2.0,26.88,11.87,0.88,
16.187,96.52869660867029,82.7934980149767,-2.67,-1.05,-0.01,10.0,0.0,0.0,8.0,0.0,5.0,2.0,26.59,11.87,0.88,
16.211,96.58386966086704,82.79934980149767,-2.69,-0.98,-0.11,10.0,0.0,0.0,8.0,0.0,5.0,2.0,26.59,11.87,0.78,
16.236,96.59838696608671,82.77293498014976,-2.61,-1.15,-0.18,10.0,0.0,0.0,8.0,0.0,5.0,2.0,26.49,11.77,0.59,
16.26,96.60883869660867,82.75229349801498,-2.75,-1.15,-0.05,10.0,0.0,0.0,8.0,0.0,5.0,2.0,26.49,11.77,0.59,
16.284,96.59188386966088,82.7502293498015,-2.82,-0.92,-0.07,10.0,0.0,0.0,8.0,0.0,5.0,3.0,26.49,11.87,0.69,
16.309,96.63518838696609,82.78602293498015,-2.69,-1.32,-0.07,10.0,0.0,0.0,8.0,0.0,5.0,3.0,26.49,11.87,0.78,
16.333,96.6395188386966,82.82560229349801,-2.85,-1.45,-0.28,10.0,0.0,0.0,8.0,0.0,5.0,3.0,26.49,11.87,0.29,
16.358,96.57695188386965,82.81156022934981,-2.66,-1.52,-0.42,10.0,0.0,0.0,8.0,0.0,5.0,2.0,26.49,11.97,0.39,
16.382,96.61569518838698,82.83715602293499,-2.72,-1.82,-0.29,10.0,0.0,0.0,8.0,0.0,5.0,2.0,26.49,11.97,0.2,
16.407,96.69156951883869,82.8757156022935,-3.02,-1.01,0.37,10.0,0.0,0.0,8.0,0.0,5.0,2.0,26.49,11.97,0.0,
16.431,96.71715695188387,82.86157156022935,-3.2,-0.52,0.24,10.0,0.0,0.0,8.0,0.0,5.0,2.0,26.49,11.97,0.0,
16.455,96.70171569518838,82.87815715602294,-3.04,-0.77,0.08,10.0,0.0,0.0,8.0,0.0,5.0,3.0,26.49,11.97,0.0,
16.48,96.69117156951884,82.90681571560229,-2.79,-1.31,-0.34,10.0,0.0,0.0,8.0,0.0,5.0,3.0,26.49,12.07,0.29,
16.504,96.63611715695188,82.94568157156023,-2.63,-1.27,-0.44,10.0,0.0,0.0,8.0,0.0,5.0,2.0,26.49,12.07,0.29,
16.529,96.6756117156952,82.96756815715602,-2.98,-0.96,0.09,10.0,0.0,0.0,8.0,0.0,5.0,2.0,26.39,11.97,0.49,
16.553,96.67956117156953,82.9427568157156,-3.24,-0.5,0.34,10.0,0.0,0.0,8.0,0.0,5.0,3.0,26.39,11.97,0.39,
16.577,96.67095611715695,82.93127568157158,-2.89,-0.85,0.18,10.0,0.0,0.0,8.0,0.0,5.0,3.0,26.39,12.07,0.29,
16.602,96.7060956117157,82.91212756815716,-2.91,-0.99,-0.01,10.0,0.0,0.0,8.0,0.0,5.0,3.0,26.39,11.97,0.39,
16.626,96.70960956117156,82.91921275681571,-2.74,-1.25,-0.27,10.0,0.0,0.0,8.0,0.0,5.0,3.0,26.29,12.07,0.59,
16.651,96.67396095611716,82.91992127568157,-2.85,-1.64,-0.35,10.0,0.0,0.0,8.0,0.0,5.0,3.0,26.19,11.87,0.59,
16.675,96.67939609561174,82.94699212756815,-2.79,-2.19,-0.44,10.0,0.0,0.0,8.0,0.0,5.0,3.0,26.19,11.97,0.2,
16.7,96.62593960956119,82.94069921275681,-2.85,-1.96,-0.27,10.0,0.0,0.0,8.0,0.0,5.0,3.0,26.19,11.97,0.2,
16.724,96.66559396095612,82.94006992127568,-2.62,-1.96,-0.44,11.0,0.0,0.0,8.0,0.0,5.0,3.0,26.19,11.97,0.2,
16.749,96.65155939609562,82.93100699212758,-2.88,-1.43,-0.21,10.0,0.0,0.0,8.0,0.0,5.0,2.0,26.19,11.97,0.0,
16.773,96.56915593960957,82.93010069921277,-2.89,-1.21,0.69,11.0,0.0,0.0,8.0,0.0,5.0,2.0,26.19,12.07,0.0,
16.797,96.56091559396097,82.89401006992128,-2.57,-0.54,-0.05,11.0,0.0,0.0,8.0,0.0,5.0,3.0,26.0,12.07,0.1,
16.822,96.5870915593961,82.89940100699214,-2.89,-0.6,0.1,11.0,0.0,0.0,8.0,0.0,5.0,3.0,26.19,12.07,0.29,
16.846,96.6077091559396,82.88194010069921,-2.89,-0.93,0.02,11.0,0.0,0.0,8.0,0.0,5.0,3.0,26.19,12.16,0.29,
16.871,96.61877091559397,82.87119401006993,-2.73,-1.3,-0.39,11.0,0.0,0.0,8.0,0.0,5.0,3.0,26.29,12.26,0.59,
16.896,96.65587709155939,82.897119401007,-2.98,-1.19,-0.43,11.0,0.0,0.0,8.0,0.0,5.0,3.0,26.29,12.36,0.29,
16.919,96.65958770915594,82.92671194010072,-2.92,-1.2,0.11,11.0,0.0,0.0,8.0,0.0,5.0,3.0,26.29,12.36,0.39,
16.944,96.67795877091561,82.92067119401007,-2.96,-1.36,-0.19,11.0,0.0,0.0,8.0,0.0,5.0,3.0,26.39,12.46,0.78,
16.968,96.66179587709156,82.94706711940101,-3.11,-1.3,-0.11,11.0,0.0,0.0,8.0,0.0,5.0,3.0,26.39,12.56,0.88,
16.993,96.64217958770915,82.9767067119401,-3.07,-1.26,-0.31,11.0,0.0,0.0,8.0,0.0,5.0,3.0,26.39,12.56,0.78,
17.017,96.63121795877092,82.97067067119401,-3.01,-1.52,-0.44,11.0,0.0,0.0,8.0,0.0,5.0,3.0,26.39,12.65,0.39,
17.042,96.63012179587709,82.9880670671194,-3.12,-1.11,0.28,10.0,0.0,0.0,8.0,0.0,5.0,3.0,26.59,12.75,0.0,
17.067,96.63901217958771,82.94480670671194,-2.99,-1.08,0.25,11.0,0.0,0.0,8.0,0.0,5.0,3.0,26.49,12.75,0.0,
17.09,96.67590121795878,82.9584806706712,-2.99,-1.34,-0.11,11.0,0.0,0.0,8.0,0.0,5.0,3.0,26.49,12.75,0.1,
17.115,96.70659012179587,82.92384806706711,-3.06,-1.32,-0.24,11.0,0.0,0.0,8.0,0.0,5.0,3.0,26.49,12.75,0.0,
17.139,96.73665901217959,82.8843848067067,-2.92,-1.47,-0.15,11.0,0.0,0.0,9.0,0.0,5.0,3.0,26.39,12.75,0.0,
17.164,96.77566590121796,82.88943848067066,-2.98,-1.54,-0.02,11.0,0.0,0.0,8.0,0.0,5.0,3.0,26.39,12.75,0.29,
17.188,96.7165665901218,82.91694384806706,-3.03,-1.68,-0.25,11.0,0.0,0.0,8.0,0.0,5.0,3.0,26.49,12.75,0.49,
17.213,96.67465665901219,82.9466943848067,-2.91,-1.76,-0.27,11.0,0.0,0.0,8.0,0.0,5.0,3.0,26.39,12.75,0.1,
17.238,96.69746566590122,82.96766943848067,-3.05,-1.55,-0.15,11.0,0.0,0.0,8.0,0.0,5.0,3.0,26.39,12.65,0.29,
17.261,96.69074656659012,82.94276694384807,-3.09,-1.31,0.28,11.0,0.0,0.0,8.0,0.0,5.0,3.0,26.29,12.65,0.59,
17.286,96.69907465665901,82.9492766943848,-3.02,-1.56,0.29,11.0,0.0,0.0,8.0,0.0,5.0,3.0,26.19,12.65,0.69,
17.31,96.6639074656659,82.94092766943848,-2.91,-1.31,0.14,11.0,0.0,0.0,8.0,0.0,5.0,3.0,26.29,12.65,0.78,
17.335,96.6783907465666,82.95809276694385,-2.91,-1.59,-0.11,11.0,0.0,0.0,8.0,0.0,5.0,3.0,26.29,12.56,0.49,
17.359,96.67983907465667,83.01380927669439,-2.86,-1.67,-0.08,11.0,0.0,0.0,8.0,0.0,5.0,3.0,26.09,12.36,0.2,
17.384,96.66198390746567,83.03738092766945,-3.15,-1.44,-0.04,11.0,0.0,0.0,8.0,0.0,5.0,3.0,26.09,12.36,0.1,
17.409,96.68719839074657,83.04873809276695,-2.91,-1.06,-0.02,11.0,0.0,0.0,8.0,0.0,5.0,3.0,26.0,12.26,0.1,
17.432,96.70771983907466,83.0318738092767,-3.26,-0.92,0.32,11.0,0.0,0.0,8.0,0.0,5.0,3.0,26.19,12.36,0.0,
17.457,96.70077198390746,83.03918738092767,-3.35,-1.34,0.03,10.0,0.0,0.0,8.0,0.0,5.0,3.0,26.09,12.36,0.1,
17.481,96.77207719839075,83.04891873809277,-3.29,-1.49,-0.23,11.0,0.0,0.0,8.0,0.0,5.0,3.0,25.9,12.36,0.2,
17.506,96.80620771983908,83.05889187380927,-3.0,-1.67,-0.15,10.0,0.0,0.0,8.0,0.0,5.0,3.0,26.09,12.36,0.49,
17.53,96.78262077198391,83.04188918738093,-2.94,-1.91,-0.16,11.0,0.0,0.0,8.0,0.0,5.0,3.0,26.0,12.36,0.59,
17.555,96.7892620771984,83.12118891873808,-2.85,-1.76,-0.15,11.0,0.0,0.0,8.0,0.0,5.0,3.0,26.0,12.26,0.39,
17.579,96.74492620771984,83.09311889187381,-3.01,-1.66,-0.1,11.0,0.0,0.0,8.0,0.0,5.0,3.0,26.09,12.26,0.29,
17.603,96.69549262077199,83.09931188918738,-3.03,-1.33,0.15,11.0,0.0,0.0,8.0,0.0,5.0,3.0,26.0,12.26,0.39,
17.628,96.68154926207721,83.10893118891875,-3.24,-1.11,0.19,11.0,0.0,0.0,8.0,0.0,5.0,3.0,26.0,12.16,0.59,
17.652,96.72515492620772,83.11889311889188,-3.08,-1.24,0.24,11.0,0.0,0.0,8.0,0.0,5.0,3.0,25.9,12.16,0.59,
17.677,96.71151549262078,83.0838893118892,-2.98,-1.12,-0.07,11.0,0.0,0.0,8.0,0.0,5.0,3.0,25.9,12.16,0.1,
17.701,96.66515154926208,83.0713889311889,-3.14,-1.4,0.12,11.0,0.0,0.0,8.0,0.0,5.0,3.0,25.9,12.16,0.1,
17.726,96.6335151549262,83.0341388931189,-3.05,-1.43,-0.23,11.0,0.0,0.0,8.0,0.0,5.0,3.0,26.0,12.16,0.2,
17.75,96.62135151549263,83.01241388931189,-3.12,-1.81,-0.18,11.0,0.0,0.0,8.0,0.0,5.0,3.0,26.0,12.16,0.0,
17.774,96.60213515154926,82.94724138893119,-3.14,-1.91,-0.15,11.0,0.0,0.0,8.0,0.0,5.0,3.0,26.0,12.16,0.1,
17.799,96.59121351515493,83.02172413889312,-3.25,-1.16,0.0,11.0,0.0,0.0,8.0,0.0,5.0,3.0,26.0,12.16,0.2,
17.823,96.59912135151549,82.99317241388931,-3.41,-1.27,0.31,11.0,0.0,0.0,8.0,0.0,5.0,3.0,26.0,12.16,0.29,
17.848,96.65391213515154,82.97231724138894,-3.34,-1.25,0.12,11.0,0.0,0.0,8.0,0.0,5.0,3.0,26.0,12.16,0.49,
17.872,96.62339121351516,82.9882317241389,-3.3,-1.43,-0.03,11.0,0.0,0.0,8.0,0.0,5.0,3.0,26.0,12.26,0.49,
17.896,96.58433912135152,82.99882317241389,-3.02,-1.67,-0.22,11.0,0.0,0.0,8.0,0.0,5.0,3.0,26.0,12.26,0.59,
17.921,96.57143391213515,82.97288231724139,-3.27,-1.7,-0.09,11.0,0.0,0.0,8.0,0.0,5.0,3.0,26.19,12.26,0.59,
17.945,96.5701433912135,82.99728823172414,-3.32,-1.66,-0.15,11.0,0.0,0.0,9.0,0.0,5.0,3.0,26.19,12.26,0.49,
17.97,96.59701433912134,83.02672882317242,-3.34,-1.63,-0.04,11.0,0.0,0.0,9.0,0.0,5.0,3.0,26.19,12.26,0.59,
17.994,96.61770143391215,83.02967288231724,-3.12,-1.39,-0.01,11.0,0.0,0.0,9.0,0.0,5.0,3.0,26.19,12.26,0.69,
18.019,96.59277014339122,83.01196728823173,-3.08,-0.98,0.26,11.0,0.0,0.0,9.0,0.0,5.0,3.0,26.09,12.26,0.1,
18.043,96.59927701433912,83.00119672882317,-3.17,-1.21,0.14,11.0,0.0,0.0,9.0,0.0,5.0,3.0,26.19,12.26,0.0,
18.067,96.60892770143391,82.97311967288232,-2.98,-1.48,0.15,11.0,0.0,0.0,9.0,0.0,5.0,3.0,26.19,12.26,0.0,
18.092,96.63689277014339,83.00631196728824,-3.25,-1.79,-0.15,11.0,0.0,0.0,9.0,0.0,5.0,3.0,26.09,12.26,0.0,
18.116,96.59468927701435,83.01863119672882,-3.04,-1.25,-0.15,11.0,0.0,0.0,9.0,0.0,5.0,3.0,26.0,12.26,0.2,
18.141,96.58146892770142,82.96586311967289,-3.29,-1.2,-0.02,11.0,0.0,0.0,9.0,0.0,5.0,3.0,26.09,12.26,0.2,
18.165,96.52614689277013,82.95158631196729,-2.88,-1.37,0.17,11.0,0.0,0.0,9.0,0.0,5.0,3.0,26.09,12.26,0.49,
18.19,96.54761468927701,82.95015863119673,-2.71,-1.5,0.16,11.0,0.0,0.0,9.0,0.0,5.0,3.0,26.09,12.26,0.39,
18.213,96.5677614689277,82.99501586311968,-2.73,-1.34,-0.18,11.0,0.0,0.0,9.0,0.0,5.0,3.0,25.9,12.16,0.39,
18.238,96.52477614689276,82.98150158631196,-2.82,-1.3,0.0,11.0,0.0,0.0,9.0,0.0,5.0,3.0,26.0,12.16,0.49,
18.263,96.53847761468928,82.95315015863119,-2.82,-1.19,-0.15,11.0,0.0,0.0,9.0,0.0,5.0,3.0,25.9,12.16,0.39,
18.287,96.52184776146892,82.86931501586312,-3.15,-1.23,-0.18,11.0,0.0,0.0,9.0,0.0,5.0,3.0,25.9,12.16,0.49,
18.312,96.50218477614689,82.8339315015863,-2.95,-0.97,-0.11,11.0,0.0,0.0,9.0,0.0,5.0,3.0,25.8,12.07,0.59,
18.336,96.5272184776147,82.86639315015864,-3.05,-1.09,-0.11,11.0,0.0,0.0,9.0,0.0,5.0,3.0,25.7,12.07,0.59,
18.361,96.53872184776148,82.91463931501586,-3.09,-1.34,0.02,11.0,0.0,0.0,9.0,0.0,5.0,3.0,25.8,12.16,0.39,
18.384,96.47687218477616,82.91046393150158,-3.3,-1.28,0.04,11.0,0.0,0.0,9.0,0.0,5.0,3.0,25.7,12.07,0.1,
18.409,96.48868721847761,82.96404639315016,-3.09,-0.98,0.01,11.0,0.0,0.0,9.0,0.0,5.0,3.0,25.8,12.26,0.2,
18.434,96.49886872184777,82.91540463931501,-3.21,-1.34,-0.09,11.0,0.0,0.0,9.0,0.0,5.0,3.0,25.8,12.26,0.1,
18.458,96.57188687218478,82.9195404639315,-3.25,-1.36,-0.22,11.0,0.0,0.0,9.0,0.0,5.0,3.0,26.0,12.26,0.29,
18.483,96.55218868721848,82.94695404639315,-3.18,-1.35,-0.07,11.0,0.0,0.0,9.0,0.0,5.0,3.0,26.0,12.26,0.49,
18.507,96.51421886872185,82.97669540463932,-3.24,-1.13,-0.16,11.0,0.0,0.0,9.0,0.0,5.0,3.0,26.0,12.36,0.78,
18.531,96.57342188687218,83.01566954046393,-3.07,-1.18,-0.13,11.0,0.0,0.0,9.0,0.0,5.0,3.0,26.0,12.36,0.59,
18.555,96.56134218868723,83.0735669540464,-3.0,-1.37,-0.3,11.0,0.0,0.0,9.0,0.0,5.0,3.0,26.0,12.36,0.39,
18.58,96.55113421886873,83.08835669540464,-3.13,-1.38,-0.18,11.0,0.0,0.0,9.0,0.0,5.0,3.0,26.09,12.56,0.1,
18.605,96.57711342188686,83.05383566954046,-3.21,-1.66,-0.08,11.0,0.0,0.0,9.0,0.0,5.0,3.0,26.0,12.56,0.69,
18.629,96.56171134218869,82.99638356695405,-3.33,-1.11,-0.04,11.0,0.0,0.0,9.0,0.0,5.0,3.0,26.19,12.56,0.69,
18.654,96.60517113421886,82.9726383566954,-3.15,-0.99,0.02,11.0,0.0,0.0,9.0,0.0,5.0,3.0,26.19,12.65,0.98,
18.678,96.65451711342189,82.98826383566954,-3.02,-1.06,0.12,11.0,0.0,0.0,9.0,0.0,6.0,3.0,26.19,12.65,0.59,
18.702,96.64145171134219,82.92682638356695,-3.08,-1.12,-0.03,11.0,0.0,0.0,9.0,0.0,6.0,3.0,26.29,12.85,0.59,
18.726,96.63114517113422,82.9476826383567,-3.25,-0.9,0.01,11.0,0.0,0.0,9.0,0.0,6.0,3.0,26.29,12.85,0.39,
18.751,96.66611451711341,82.95876826383567,-3.25,-0.95,-0.1,11.0,0.0,0.0,9.0,0.0,6.0,3.0,26.39,12.95,0.0,
18.776,96.66061145171133,82.95087682638356,-3.22,-1.27,0.09,11.0,0.0,0.0,9.0,0.0,6.0,3.0,26.49,13.05,0.0,
18.8,96.69606114517113,82.99508768263836,-3.12,-1.34,-0.02,11.0,0.0,0.0,9.0,0.0,6.0,3.0,26.49,13.05,0.0,
18.825,96.70860611451711,82.99050876826384,-3.17,-1.29,-0.12,11.0,0.0,0.0,9.0,0.0,6.0,3.0,26.49,13.15,0.0,
18.849,96.69186061145172,83.00805087682639,-3.19,-1.21,-0.07,11.0,0.0,0.0,9.0,0.0,6.0,3.0,26.59,13.15,0.1,
18.873,96.69018606114517,83.00080508768264,-3.11,-1.37,-0.21,11.0,0.0,0.0,9.0,0.0,6.0,3.0,26.68,13.15,0.49,
18.897,96.63601860611452,82.97308050876826,-2.88,-1.14,-0.04,11.0,0.0,0.0,9.0,0.0,6.0,3.0,26.68,13.24,0.2,
18.922,96.63960186061145,82.98830805087682,-3.0,-1.2,-0.21,11.0,0.0,0.0,9.0,0.0,6.0,3.0,26.68,13.24,0.49,
18.947,96.63996018606115,82.99883080508768,-3.05,-1.02,-0.07,11.0,0.0,0.0,9.0,0.0,6.0,3.0,26.68,13.24,0.1,
18.971,96.70299601860611,83.02688308050877,-3.02,-1.09,0.08,11.0,0.0,0.0,9.0,0.0,6.0,3.0,26.68,13.24,0.59,
18.996,96.70929960186061,83.00268830805088,-2.9,-1.24,-0.15,11.0,0.0,0.0,9.0,0.0,6.0,3.0,26.68,13.34,0.39,
19.02,96.69192996018606,82.97326883080508,-3.11,-1.4,0.03,11.0,0.0,0.0,9.0,0.0,6.0,3.0,26.68,13.34,0.59,
19.044,96.70819299601861,82.9703268830805,-3.01,-1.34,0.06,11.0,0.0,0.0,9.0,0.0,6.0,3.0,26.68,13.24,0.69,
19.068,96.66481929960186,82.96103268830805,-3.14,-1.37,0.0,11.0,0.0,0.0,9.0,0.0,6.0,3.0,26.68,13.15,0.29,
19.093,96.69648192996019,82.97810326883081,-3.12,-1.27,0.01,11.0,0.0,0.0,9.0,0.0,6.0,3.0,26.68,13.15,0.0,
19.118,96.68164819299604,82.97981032688308,-3.05,-1.42,0.05,11.0,0.0,0.0,9.0,0.0,6.0,3.0,26.59,13.15,0.1,
19.142,96.65316481929962,83.02498103268832,-3.15,-0.99,0.08,11.0,0.0,0.0,9.0,0.0,6.0,3.0,26.59,13.15,0.1,
19.166,96.63231648192996,83.01149810326883,-2.96,-1.51,-0.01,11.0,0.0,0.0,9.0,0.0,6.0,3.0,26.59,13.15,0.78,
19.19,96.58523164819299,83.02814981032688,-3.13,-1.08,0.0,11.0,0.0,0.0,9.0,0.0,6.0,3.0,26.59,13.15,0.49,
19.215,96.6255231648193,83.01181498103269,-3.07,-0.98,0.02,11.0,0.0,0.0,9.0,0.0,6.0,3.0,26.49,13.05,0.2,
19.239,96.65655231648194,83.01918149810326,-3.14,-1.33,-0.05,11.0,0.0,0.0,9.0,0.0,6.0,3.0,26.49,13.05,0.1,
19.264,96.6506552316482,83.01991814981032,-2.88,-1.24,-0.3,11.0,0.0,0.0,9.0,0.0,6.0,3.0,26.39,13.05,0.1,
19.289,96.66806552316481,82.96599181498104,-2.92,-1.44,-0.24,11.0,0.0,0.0,9.0,0.0,6.0,3.0,26.49,12.95,0.49,
19.312,96.64280655231647,82.9875991814981,-3.0,-1.12,-0.03,11.0,0.0,0.0,9.0,0.0,6.0,3.0,26.49,12.95,0.88,
19.337,96.61328065523165,82.98975991814982,-3.15,-1.3,-0.05,11.0,0.0,0.0,9.0,0.0,6.0,3.0,26.49,13.05,0.88,
19.361,96.65532806552316,82.96297599181499,-3.11,-1.03,0.26,11.0,0.0,0.0,9.0,0.0,6.0,3.0,26.49,13.05,0.1,
19.386,96.6415328065523,82.90629759918151,-3.2,-1.0,-0.03,11.0,0.0,0.0,9.0,0.0,6.0,3.0,26.39,13.15,0.2,
19.41,96.65815328065523,82.92762975991816,-3.17,-1.3,-0.02,11.0,0.0,0.0,9.0,0.0,6.0,3.0,26.59,13.05,0.0,
19.435,96.71381532806552,82.85776297599182,-2.83,-1.59,-0.14,11.0,0.0,0.0,9.0,0.0,6.0,3.0,26.59,13.05,0.0,
19.46,96.71938153280655,82.85977629759918,-3.21,-1.41,-0.28,11.0,0.0,0.0,9.0,0.0,6.0,3.0,26.49,13.15,0.0,
19.484,96.68393815328066,82.86897762975993,-2.92,-1.67,-0.02,11.0,0.0,0.0,9.0,0.0,6.0,3.0,26.39,13.05,0.2,
19.508,96.68939381532806,82.860897762976,-3.11,-1.37,-0.15,11.0,0.0,0.0,9.0,0.0,6.0,3.0,26.49,13.24,0.29,
19.532,96.68993938153281,82.86908977629761,-3.12,-1.1,-0.12,11.0,0.0,0.0,9.0,0.0,6.0,3.0,26.49,13.15,0.49,
19.557,96.70799393815328,82.86090897762976,-3.1,-1.05,-0.08,11.0,0.0,0.0,9.0,0.0,6.0,3.0,26.49,13.15,0.59,
19.581,96.72779939381533,82.89609089776299,-3.06,-1.12,0.08,11.0,0.0,0.0,9.0,0.0,6.0,3.0,26.59,13.15,0.49,
19.606,96.68477993938154,82.85460908977629,-3.2,-1.25,0.21,11.0,0.0,0.0,9.0,0.0,6.0,3.0,26.59,13.15,0.59,
19.631,96.67147799393815,82.84146090897764,-3.02,-1.39,-0.03,11.0,0.0,0.0,9.0,0.0,6.0,3.0,26.59,13.24,0.49,
19.655,96.67014779939382,82.86714609089778,-3.11,-1.24,-0.2,11.0,0.0,0.0,9.0,0.0,6.0,3.0,26.68,13.34,0.39,
19.68,96.63401477993938,82.91471460908977,-2.9,-1.46,-0.15,11.0,0.0,0.0,9.0,0.0,6.0,3.0,26.59,13.34,0.49,
19.703,96.62140147799394,82.95547146090898,-3.16,-1.37,-0.06,11.0,0.0,0.0,9.0,0.0,6.0,3.0,26.68,13.34,0.0,
19.728,96.61114014779939,82.9145471460909,-3.12,-1.1,-0.22,11.0,0.0,0.0,9.0,0.0,6.0,3.0,26.78,13.34,0.0,
19.752,96.61911401477995,82.9014547146091,-3.24,-1.08,0.09,11.0,0.0,0.0,9.0,0.0,6.0,3.0,26.78,13.54,0.0,
19.777,96.62891140147799,82.9091454714609,-3.22,-1.24,0.05,11.0,0.0,0.0,9.0,0.0,6.0,3.0,26.88,13.44,0.0,
19.802,96.7108911401478,82.90991454714609,-3.19,-1.33,0.09,11.0,0.0,0.0,9.0,0.0,6.0,3.0,26.88,13.64,0.0,
19.826,96.71908911401478,82.8919914547146,-3.22,-1.43,-0.11,11.0,0.0,0.0,9.0,0.0,6.0,3.0,26.98,13.54,0.2,
19.85,96.72890891140148,82.89919914547147,-3.4,-1.38,0.05,11.0,0.0,0.0,9.0,0.0,6.0,3.0,26.98,13.54,0.0,
19.874,96.71189089114014,82.94491991454714,-3.25,-1.22,0.1,11.0,0.0,0.0,9.0,0.0,6.0,3.0,27.08,13.44,0.0,
19.899,96.71918908911401,82.93149199145472,-3.38,-1.26,0.0,11.0,0.0,0.0,9.0,0.0,6.0,3.0,26.98,13.54,0.0,
19.923,96.7199189089114,82.91214919914547,-3.26,-1.47,0.01,11.0,0.0,0.0,9.0,0.0,6.0,3.0,27.08,13.44,0.0,
19.948,96.74699189089114,82.97321491991455,-3.16,-1.67,0.05,11.0,0.0,0.0,9.0,0.0,6.0,3.0,27.08,13.64,0.29,
19.972,96.76769918908911,82.97032149199146,-3.07,-1.44,0.02,11.0,0.0,0.0,9.0,0.0,6.0,3.0,27.08,13.54,0.49,
19.996,96.7697699189089,82.96103214919914,-3.25,-1.63,-0.19,11.0,0.0,0.0,9.0,0.0,6.0,3.0,27.08,13.54,0.39,
20.021,96.7339769918909,82.93310321491992,-3.05,-1.59,-0.31,11.0,0.0,0.0,9.0,0.0,6.0,3.0,27.17,13.64,0.78,
20.045,96.7303976991891,82.84031032149198,-3.15,-1.65,-0.18,11.0,0.0,0.0,9.0,0.0,6.0,3.0,27.17,13.54,0.1,
20.07,96.68503976991892,82.8040310321492,-3.31,-1.56,0.0,11.0,0.0,0.0,9.0,0.0,6.0,3.0,27.08,13.54,0.0,
20.094,96.68950397699189,82.79140310321493,-2.97,-1.6,0.05,11.0,0.0,0.0,9.0,0.0,6.0,3.0,27.08,13.44,0.0,
20.118,96.6809503976992,82.79914031032149,-3.02,-1.11,0.25,11.0,0.0,0.0,9.0,0.0,6.0,3.0,26.98,13.54,0.0,
20.143,96.69809503976992,82.83591403103216,-3.05,-1.34,0.11,11.0,0.0,0.0,9.0,0.0,6.0,3.0,26.98,13.54,0.0,
20.167,96.690809503977,82.86659140310323,-3.4,-1.44,0.23,11.0,0.0,0.0,9.0,0.0,6.0,3.0,26.98,13.44,0.2,
20.192,96.6090809503977,82.82465914031032,-3.12,-1.07,-0.05,11.0,0.0,0.0,9.0,0.0,6.0,3.0,26.88,13.34,0.49,
20.216,96.61890809503979,82.81146591403105,-3.08,-1.49,-0.18,12.0,0.0,0.0,9.0,0.0,6.0,3.0,26.88,13.34,0.29,
20.24,96.63789080950397,82.8011465914031,-3.18,-1.44,-0.2,11.0,0.0,0.0,9.0,0.0,6.0,3.0,26.98,13.44,0.2,
20.264,96.6397890809504,82.8001146591403,-3.06,-1.65,-0.15,11.0,0.0,0.0,9.0,0.0,6.0,3.0,26.88,13.34,0.2,
20.289,96.65797890809503,82.78201146591404,-2.96,-1.43,-0.1,11.0,0.0,0.0,9.0,0.0,6.0,3.0,26.88,13.24,0.29,
20.314,96.6417978908095,82.78020114659141,-3.18,-1.16,0.15,12.0,0.0,0.0,9.0,0.0,6.0,3.0,26.88,13.24,0.69,
20.338,96.71217978908095,82.81602011465914,-3.33,-1.19,0.11,11.0,0.0,0.0,9.0,0.0,6.0,3.0,26.88,13.24,1.08,
20.363,96.6832179789081,82.81060201146592,-3.21,-1.07,0.04,11.0,0.0,0.0,9.0,0.0,6.0,3.0,26.78,13.24,0.69,
20.386,96.65332179789083,82.8100602011466,-3.13,-1.34,-0.17,11.0,0.0,0.0,9.0,0.0,6.0,3.0,26.68,13.15,0.69,
20.411,96.69533217978908,82.84600602011466,-3.18,-1.44,-0.21,11.0,0.0,0.0,9.0,0.0,6.0,3.0,26.78,13.15,0.2,
20.435,96.71753321797891,82.92160060201148,-3.18,-1.5,0.24,11.0,0.0,0.0,9.0,0.0,6.0,3.0,26.88,13.15,0.0,
20.46,96.7287533217979,82.92916006020116,-3.19,-1.17,0.16,11.0,0.0,0.0,9.0,0.0,6.0,3.0,26.78,13.24,0.0,
20.485,96.74787533217979,82.94791600602011,-3.09,-1.39,0.03,11.0,0.0,0.0,9.0,0.0,6.0,3.0,26.88,13.24,0.0,
20.509,96.74078753321798,82.92279160060201,-3.26,-1.37,0.02,11.0,0.0,0.0,9.0,0.0,6.0,3.0,26.88,13.15,0.29,
20.533,96.7490787533218,82.90227916006022,-3.39,-1.02,-0.15,11.0,0.0,0.0,9.0,0.0,6.0,3.0,26.88,13.15,0.29,
20.557,96.74990787533218,82.91822791600602,-3.18,-1.27,-0.18,11.0,0.0,0.0,9.0,0.0,6.0,3.0,26.88,13.24,0.2,
20.582,96.74099078753322,82.8928227916006,-3.46,-1.4,-0.31,11.0,0.0,0.0,9.0,0.0,6.0,3.0,26.98,13.24,0.0,
20.606,96.74009907875332,82.84528227916007,-3.37,-1.42,-0.08,11.0,0.0,0.0,9.0,0.0,6.0,3.0,26.98,13.44,0.29,
20.631,96.74000990787533,82.84952822791601,-3.24,-1.24,0.05,11.0,0.0,0.0,9.0,0.0,6.0,3.0,27.08,13.44,0.29,
20.656,96.70400099078753,82.7869528227916,-3.26,-1.23,0.16,11.0,0.0,0.0,9.0,0.0,6.0,3.0,26.98,13.34,0.59,
20.68,96.70040009907875,82.78069528227917,-3.05,-1.4,-0.05,11.0,0.0,0.0,9.0,0.0,6.0,3.0,27.08,13.44,0.49,
20.704,96.72704000990788,82.81606952822791,-3.35,-1.25,-0.05,11.0,0.0,0.0,9.0,0.0,6.0,3.0,27.08,13.44,0.29,
20.728,96.71170400099079,82.8106069528228,-3.27,-1.08,0.05,11.0,0.0,0.0,9.0,0.0,6.0,3.0,27.08,13.44,0.2,
20.753,96.71917040009907,82.78306069528229,-3.11,-0.97,0.17,12.0,0.0,0.0,9.0,0.0,6.0,3.0,27.17,13.54,0.0,
20.777,96.7019170400099,82.79830606952822,-3.36,-0.91,0.33,11.0,0.0,0.0,9.0,0.0,6.0,3.0,27.17,13.54,0.0,
20.802,96.69119170400099,82.79983060695281,-3.32,-1.13,-0.02,11.0,0.0,0.0,9.0,0.0,6.0,3.0,27.17,13.64,0.0,
20.827,96.6631191704001,82.82698306069528,-3.39,-1.06,-0.05,11.0,0.0,0.0,9.0,0.0,6.0,3.0,27.27,13.64,0.2,
20.851,96.67831191704002,82.78469830606954,-3.0,-1.07,-0.21,11.0,0.0,0.0,9.0,0.0,6.0,3.0,27.37,13.83,0.29,
20.875,96.715831191704,82.78046983060696,-3.45,-1.25,-0.27,11.0,0.0,0.0,9.0,0.0,6.0,3.0,27.47,13.83,0.0,
20.899,96.7285831191704,82.8070469830607,-3.46,-1.05,0.06,11.0,0.0,0.0,9.0,0.0,6.0,3.0,27.47,13.83,0.0,
20.924,96.70285831191704,82.84570469830606,-3.05,-1.11,-0.01,11.0,0.0,0.0,9.0,0.0,6.0,3.0,27.47,13.93,0.2,
20.948,96.6912858311917,82.84057046983062,-3.12,-1.31,0.15,11.0,0.0,0.0,9.0,0.0,6.0,3.0,27.57,13.93,0.98,
20.973,96.70812858311916,82.83105704698306,-3.11,-1.47,0.06,11.0,0.0,0.0,9.0,0.0,6.0,3.0,27.47,14.03,0.59,
20.998,96.69181285831192,82.78510570469831,-3.38,-1.36,-0.21,11.0,0.0,0.0,9.0,0.0,6.0,3.0,27.57,13.93,0.69,
21.021,96.74418128583119,82.75351057046984,-3.1,-1.08,-0.08,11.0,0.0,0.0,9.0,0.0,6.0,3.0,27.57,14.03,0.98,
21.046,96.74041812858312,82.76835105704697,-3.2,-1.31,0.14,11.0,0.0,0.0,9.0,0.0,6.0,3.0,27.57,14.03,0.39,
21.07,96.78504181285831,82.7878351057047,-3.01,-1.44,-0.06,11.0,0.0,0.0,9.0,0.0,6.0,3.0,27.47,14.03,0.0,
21.095,96.79850418128584,82.78078351057047,-3.08,-1.4,-0.02,11.0,0.0,0.0,9.0,0.0,6.0,3.0,27.57,14.03,0.0,
21.12,96.74585041812858,82.78907835105706,-3.03,-1.19,0.02,11.0,0.0,0.0,9.0,0.0,6.0,3.0,27.57,14.03,0.0,
21.144,96.71358504181286,82.76290783510571,-3.16,-0.99,-0.03,11.0,0.0,0.0,9.0,0.0,6.0,3.0,27.57,14.13,0.0,
21.169,96.70135850418129,82.68829078351058,-3.17,-1.17,0.12,11.0,0.0,0.0,9.0,0.0,6.0,4.0,27.57,14.03,0.0,
