time,pitch,roll,gyrx,gyry,gyrz,f1,f2,f3,f4,f5,f6,f7,g1,g2,g3
0.349,58.06,27.66,-2.0,0.0,0.0,0.0,0.0,0.0,0.0,0.0,0.0,0.0,0.2,0.1,0.0,
0.362,64.28800000000001,30.737999999999996,-2.0,1.0,0.0,0.0,0.0,0.0,0.0,0.0,0.0,0.0,0.1,0.0,0.0,
0.375,70.11280000000001,33.6828,-3.0,0.0,0.0,0.0,0.0,0.0,0.0,0.0,0.0,0.0,0.0,0.0,0.0,
0.388,75.22228000000001,36.19128,-2.0,0.0,0.0,0.0,0.0,0.0,0.0,0.0,0.0,0.0,0.1,0.0,0.0,
0.401,79.612228,38.278127999999995,-2.0,0.0,0.0,0.0,0.0,0.0,0.0,0.0,0.0,0.0,0.0,0.0,0.0,
0.414,83.3362228,40.0078128,-2.0,0.0,0.0,0.0,0.0,0.0,0.0,0.0,0.0,0.0,0.0,0.0,0.0,
0.428,86.52562228,41.50378128,-2.0,0.0,0.0,0.0,0.0,0.0,0.0,0.0,0.0,0.0,0.1,0.0,0.0,
0.44,89.19356222799999,42.787378128,-2.0,-1.0,0.0,0.0,0.0,0.0,0.0,0.0,0.0,0.0,0.1,0.0,0.0,
0.453,91.43135622280002,43.9507378128,-2.0,-1.0,0.0,0.0,0.0,0.0,0.0,0.0,0.0,0.0,0.1,0.0,0.0,
0.466,93.32913562228,44.89507378128,-2.0,0.0,0.0,0.0,0.0,0.0,0.0,0.0,0.0,0.0,0.1,0.0,0.1,
0.48,94.931913562228,45.745507378128,-2.0,-2.0,0.0,0.0,0.0,0.0,0.0,0.0,0.0,0.0,0.1,0.1,0.1,
0.493,96.4691913562228,46.4065507378128,-2.0,-1.0,0.0,0.0,0.0,0.0,0.0,0.0,0.0,0.0,0.1,0.0,0.1,
0.505,97.80191913562228,46.895655073781285,-2.0,-2.0,0.0,0.0,0.0,0.0,0.0,0.0,0.0,0.0,0.1,0.0,0.0,
0.519,98.91619191356224,47.25056550737813,-2.0,-2.0,0.0,0.0,0.0,0.0,0.0,0.0,0.0,0.0,0.1,0.0,0.0,
0.532,99.82861919135624,47.61905655073781,-1.0,0.0,-1.0,0.0,0.0,0.0,0.0,0.0,0.0,0.0,0.1,0.0,0.0,
0.545,100.50486191913564,47.99790565507378,-2.0,0.0,0.0,0.0,0.0,0.0,0.0,0.0,0.0,0.0,0.1,0.0,0.1,
0.559,101.03148619191357,48.395790565507376,-2.0,0.0,0.0,0.0,0.0,0.0,0.0,0.0,0.0,0.0,0.0,0.0,0.0,
0.571,101.61514861919137,48.69657905655073,-3.0,0.0,1.0,0.0,0.0,0.0,0.0,0.0,0.0,0.0,0.0,0.0,0.1,
0.584,102.10551486191913,48.98765790565508,-3.0,-1.0,2.0,0.0,0.0,0.0,0.0,0.0,0.0,0.0,0.1,0.0,0.1,
0.598,102.53255148619192,49.151765790565506,-2.0,-2.0,1.0,0.0,0.0,0.0,0.0,0.0,0.0,0.0,0.2,0.0,0.0,
0.611,102.8362551486192,49.36617657905655,-2.0,-1.0,1.0,0.0,0.0,0.0,0.0,0.0,0.0,0.0,0.1,0.0,0.1,
0.624,103.06462551486192,49.522617657905656,-2.0,-2.0,0.0,0.0,0.0,0.0,0.0,0.0,0.0,0.0,0.1,0.0,0.1,
0.637,103.17746255148619,49.74526176579057,-2.0,-1.0,0.0,0.0,0.0,0.0,0.0,0.0,0.0,0.0,0.1,0.0,0.1,
0.651,103.49474625514863,49.88452617657905,-2.0,-2.0,0.0,0.0,0.0,0.0,0.0,0.0,0.0,0.0,0.1,0.0,0.1,
0.664,103.58947462551485,50.05145261765791,-2.0,-2.0,0.0,0.0,0.0,0.0,0.0,0.0,0.0,0.0,0.1,0.0,0.0,
0.676,103.67994746255148,50.1851452617658,-2.0,-1.0,0.0,0.0,0.0,0.0,0.0,0.0,0.0,0.0,0.1,0.0,0.0,
0.69,103.85099474625515,50.19851452617659,-1.0,-2.0,0.0,0.0,0.0,0.0,0.0,0.0,0.0,0.0,0.2,0.0,0.0,
0.703,103.87709947462551,50.361851452617664,-1.0,-1.0,0.0,0.0,0.0,0.0,0.0,0.0,0.0,0.0,0.1,0.0,0.0,
0.716,104.01470994746256,50.40518514526177,-1.0,0.0,0.0,0.0,0.0,0.0,0.0,0.0,0.0,0.0,0.1,0.0,0.0,
0.73,104.01047099474626,50.45451851452618,-1.0,0.0,0.0,0.0,0.0,0.0,0.0,0.0,0.0,0.0,0.1,0.0,0.0,
0.743,104.10004709947462,50.45945185145262,-1.0,0.0,0.0,0.0,0.0,0.0,0.0,0.0,0.0,0.0,0.1,0.0,0.0,
0.755,104.21700470994746,50.40594518514526,-1.0,-1.0,0.0,0.0,0.0,0.0,0.0,0.0,0.0,0.0,0.1,0.0,0.0,
0.769,104.27370047099475,50.34659451851453,-1.0,0.0,0.0,0.0,0.0,0.0,0.0,0.0,0.0,0.0,0.1,0.0,0.0,
0.782,104.25237004709948,50.37665945185146,0.0,0.0,-1.0,0.0,0.0,0.0,0.0,0.0,0.0,0.0,0.1,0.0,0.0,
0.795,104.11523700470994,50.37966594518515,0.0,1.0,-1.0,0.0,0.0,0.0,0.0,0.0,0.0,0.0,0.1,0.0,0.0,
0.808,103.939523700471,50.37996659451852,0.0,1.0,0.0,0.0,0.0,0.0,0.0,0.0,0.0,0.0,0.1,0.0,0.0,
0.821,103.8319523700471,50.37099665945185,0.0,0.0,0.0,0.0,0.0,0.0,0.0,0.0,0.0,0.0,0.1,0.0,0.0,
0.834,103.83019523700472,50.28009966594519,0.0,0.0,0.0,0.0,0.0,0.0,0.0,0.0,0.0,0.0,0.0,0.0,0.0,
0.847,103.82101952370047,50.10000996659452,0.0,-1.0,0.0,0.0,0.0,0.0,0.0,0.0,0.0,0.0,0.0,0.0,0.0,
0.861,103.82910195237005,49.90200099665945,0.0,-1.0,0.0,0.0,0.0,0.0,0.0,0.0,0.0,0.0,0.1,0.0,0.0,
0.873,103.784910195237,49.720200099665945,0.0,-1.0,0.0,0.0,0.0,0.0,0.0,0.0,0.0,0.0,0.2,0.0,0.0,
0.886,103.8344910195237,49.59402000996659,0.0,-1.0,-1.0,0.0,0.0,0.0,0.0,0.0,0.0,0.0,0.2,0.0,0.0,
0.9,103.97444910195236,49.446402000996656,0.0,0.0,-1.0,0.0,0.0,0.0,0.0,0.0,0.0,0.0,0.1,0.0,0.0,
0.913,103.87144491019524,49.431640200099665,-1.0,0.0,-1.0,0.0,0.0,0.0,0.0,0.0,0.0,0.0,0.1,0.0,0.0,
0.926,103.82514449101953,49.49316402000997,-3.0,2.0,0.0,0.0,0.0,0.0,0.0,0.0,0.0,0.0,0.1,0.0,0.0,
0.939,103.82051444910195,49.580316402001,-4.0,1.0,0.0,0.0,0.0,0.0,0.0,0.0,0.0,0.0,0.0,0.0,0.0,
0.952,103.80205144491019,49.715031640200095,-5.0,0.0,1.0,0.0,0.0,0.0,0.0,0.0,0.0,0.0,0.1,0.0,0.0,
0.965,103.85420514449102,49.70150316402001,-5.0,-1.0,1.0,0.0,0.0,0.0,0.0,0.0,0.0,0.0,0.2,0.0,0.0,
0.978,103.94942051444909,49.673150316402,-3.0,-2.0,1.0,0.0,0.0,0.0,0.0,0.0,0.0,0.0,0.1,0.0,0.0,
0.992,103.92294205144492,49.724315031640195,-2.0,-1.0,0.0,0.0,0.0,0.0,0.0,0.0,0.0,0.0,0.1,0.0,0.0,
1.005,103.9652942051445,49.79243150316402,-3.0,0.0,-1.0,0.0,0.0,0.0,0.0,0.0,0.0,0.0,0.1,0.0,0.0,
1.017,103.95152942051445,49.8802431503164,-3.0,1.0,-2.0,0.0,0.0,0.0,0.0,0.0,0.0,0.0,0.1,0.0,0.0,
1.031,103.91415294205144,50.03302431503164,-3.0,1.0,-2.0,0.0,0.0,0.0,0.0,0.0,0.0,0.0,0.1,0.0,0.0,
1.044,103.87441529420515,50.12030243150317,-4.0,0.0,-2.0,0.0,0.0,0.0,0.0,0.0,0.0,0.0,0.1,0.0,0.0,
1.057,103.89744152942052,50.210030243150314,-3.0,0.0,-2.0,0.0,0.0,0.0,0.0,0.0,0.0,0.0,0.1,0.0,0.0,
1.071,103.89074415294206,50.291003024315025,-3.0,0.0,-1.0,0.0,0.0,0.0,0.0,0.0,0.0,0.0,0.0,0.0,0.0,
1.084,103.7550744152942,50.37110030243151,-3.0,0.0,-1.0,0.0,0.0,0.0,0.0,0.0,0.0,0.0,0.1,0.0,0.0,
1.097,103.65150744152942,50.55011003024315,-3.0,0.0,0.0,0.0,0.0,0.0,0.0,0.0,0.0,0.0,0.2,0.0,0.0,
1.11,103.59615074415295,50.667011003024314,-2.0,0.0,0.0,0.0,0.0,0.0,0.0,0.0,0.0,0.0,0.1,0.0,0.0,
1.123,103.59961507441528,50.75070110030243,-2.0,0.0,0.0,0.0,0.0,0.0,0.0,0.0,0.0,0.0,0.1,0.0,0.0,
1.136,103.59996150744152,50.82207011003024,-1.0,0.0,0.0,0.0,0.0,0.0,0.0,0.0,0.0,0.0,0.1,0.0,0.0,
1.149,103.68099615074415,50.82020701100302,-1.0,-1.0,0.0,0.0,0.0,0.0,0.0,0.0,0.0,0.0,0.1,0.0,0.0,
1.163,103.79709961507442,50.7750207011003,-1.0,-2.0,0.0,0.0,0.0,0.0,0.0,0.0,0.0,0.0,0.0,0.0,0.0,
1.176,103.88070996150745,50.72550207011003,-1.0,-2.0,0.0,0.0,0.0,0.0,0.0,0.0,0.0,0.0,0.0,0.0,0.0,
1.188,104.03307099615074,50.630550207011,-2.0,-2.0,0.0,0.0,0.0,0.0,0.0,0.0,0.0,0.0,0.0,0.0,0.0,
1.202,104.23730709961508,50.522055020701096,-2.0,-3.0,0.0,0.0,0.0,0.0,0.0,0.0,0.0,0.0,0.1,0.0,0.0,
1.215,104.3387307099615,50.47520550207011,-1.0,-1.0,0.0,0.0,0.0,0.0,0.0,0.0,0.0,0.0,0.1,0.0,0.0,
1.228,104.42987307099614,50.46152055020701,-1.0,0.0,0.0,0.0,0.0,0.0,0.0,0.0,0.0,0.0,0.1,0.0,0.0,
1.242,104.42098730709962,50.4871520550207,-1.0,0.0,0.0,0.0,0.0,0.0,0.0,0.0,0.0,0.0,0.1,0.0,0.0,
1.255,104.51909873070996,50.47171520550207,-2.0,0.0,0.0,0.0,0.0,0.0,0.0,0.0,0.0,0.0,0.1,0.0,0.0,
1.267,104.49290987307099,50.45217152055021,-2.0,1.0,0.0,0.0,0.0,0.0,0.0,0.0,0.0,0.0,0.1,0.0,0.0,
1.281,104.44529098730709,50.46821715205502,-2.0,1.0,0.0,0.0,0.0,0.0,0.0,0.0,0.0,0.0,0.1,0.0,0.0,
1.294,104.36852909873072,50.451821715205504,-2.0,0.0,0.0,0.0,0.0,0.0,0.0,0.0,0.0,0.0,0.2,0.0,0.0,
1.307,104.35185290987306,50.43218217152055,-2.0,0.0,0.0,0.0,0.0,0.0,0.0,0.0,0.0,0.0,0.2,0.0,0.0,
1.32,104.1791852909873,50.520218217152056,-1.0,0.0,0.0,0.0,0.0,0.0,0.0,0.0,0.0,0.0,0.1,0.0,0.0,
1.333,103.99091852909874,50.64602182171521,-1.0,0.0,0.0,0.0,0.0,0.0,0.0,0.0,0.0,0.0,0.1,0.0,0.0,
1.346,103.85509185290988,50.71260218217152,0.0,0.0,0.0,0.0,0.0,0.0,0.0,0.0,0.0,0.0,0.1,0.0,0.0,
1.359,103.79650918529099,50.755260218217146,0.0,-1.0,1.0,0.0,0.0,0.0,0.0,0.0,0.0,0.0,0.1,0.0,0.0,
1.373,103.70965091852909,50.786526021821714,0.0,-1.0,0.0,0.0,0.0,0.0,0.0,0.0,0.0,0.0,0.1,0.0,0.0,
1.385,103.72796509185291,50.69065260218217,0.0,-1.0,0.0,0.0,0.0,0.0,0.0,0.0,0.0,0.0,0.1,0.0,0.0,
1.398,103.6577965091853,50.65406526021822,0.0,0.0,0.0,0.0,0.0,0.0,0.0,0.0,0.0,0.0,0.1,0.0,0.0,
1.412,103.65077965091854,50.632406526021825,-1.0,-1.0,0.0,0.0,0.0,0.0,0.0,0.0,0.0,0.0,0.1,0.0,0.0,
1.425,103.67707796509187,50.58524065260218,-1.0,0.0,-1.0,0.0,0.0,0.0,0.0,0.0,0.0,0.0,0.1,0.0,0.0,
1.438,103.71570779650918,50.427524065260215,-1.0,0.0,-1.0,0.0,0.0,0.0,0.0,0.0,0.0,0.0,0.1,0.0,0.0,
1.452,103.79157077965093,50.24975240652602,-1.0,0.0,-1.0,0.0,0.0,0.0,0.0,0.0,0.0,0.0,0.1,0.0,0.0,
1.464,103.79915707796509,50.096975240652604,-1.0,0.0,-1.0,0.0,0.0,0.0,0.0,0.0,0.0,0.0,0.1,0.0,0.0,
1.477,103.76391570779651,50.03669752406526,-2.0,0.0,-2.0,0.0,0.0,0.0,0.0,0.0,0.0,0.0,0.1,0.0,0.0,
1.49,103.72439157077964,50.048669752406525,-2.0,0.0,-1.0,0.0,0.0,0.0,0.0,0.0,0.0,0.0,0.1,0.0,0.0,
1.504,103.70243915707796,50.049866975240654,-3.0,0.0,0.0,0.0,0.0,0.0,0.0,0.0,0.0,0.0,0.2,0.0,0.0,
1.517,103.66424391570779,50.07698669752406,-3.0,0.0,0.0,0.0,0.0,0.0,0.0,0.0,0.0,0.0,0.1,0.0,0.0,
1.53,103.63342439157077,50.115698669752405,-2.0,0.0,0.0,0.0,0.0,0.0,0.0,0.0,0.0,0.0,0.0,0.0,0.0,
1.543,103.51334243915709,50.245569866975245,-2.0,0.0,0.0,0.0,0.0,0.0,0.0,0.0,0.0,0.0,0.1,0.0,0.0,
1.556,103.4023342439157,50.33955698669753,-2.0,0.0,0.0,0.0,0.0,0.0,0.0,0.0,0.0,0.0,0.1,0.0,0.0,
1.569,103.40923342439157,50.41195569866975,-1.0,-1.0,-1.0,0.0,0.0,0.0,0.0,0.0,0.0,0.0,0.1,0.0,0.0,
1.583,103.49992334243916,50.50019556986697,-1.0,-1.0,-1.0,0.0,0.0,0.0,0.0,0.0,0.0,0.0,0.1,0.0,0.0,
1.596,103.6439923342439,50.536019556986695,-1.0,0.0,-2.0,0.0,0.0,0.0,0.0,0.0,0.0,0.0,0.1,0.0,0.0,
1.609,103.71239923342439,50.65660195569867,-2.0,0.0,-2.0,0.0,0.0,0.0,0.0,0.0,0.0,0.0,0.2,0.0,0.0,
1.623,103.71023992334244,50.70466019556987,-2.0,-1.0,-1.0,0.0,0.0,0.0,0.0,0.0,0.0,0.0,0.2,0.0,0.0,
1.636,103.71902399233424,50.69146601955699,-1.0,0.0,-1.0,0.0,0.0,0.0,0.0,0.0,0.0,0.0,0.1,0.0,0.0,
1.648,103.78290239923342,50.6361466019557,-1.0,0.0,-1.0,0.0,0.0,0.0,0.0,0.0,0.0,0.0,0.2,0.0,0.0,
1.661,103.70829023992334,50.67561466019557,-1.0,1.0,-2.0,0.0,0.0,0.0,0.0,0.0,0.0,0.0,0.1,0.0,0.0,
1.675,103.61082902399232,50.82356146601956,-1.0,0.0,-1.0,0.0,0.0,0.0,0.0,0.0,0.0,0.0,0.1,0.0,0.0,
1.688,103.56508290239924,50.90135614660195,-1.0,0.0,0.0,0.0,0.0,0.0,0.0,0.0,0.0,0.0,0.1,0.0,0.0,
1.701,103.39850829023993,50.96313561466019,0.0,-1.0,0.0,0.0,0.0,0.0,0.0,0.0,0.0,0.0,0.1,0.0,0.0,
1.715,103.38185082902399,50.99631356146602,0.0,0.0,0.0,0.0,0.0,0.0,0.0,0.0,0.0,0.0,0.1,0.0,0.0,
1.727,103.2541850829024,50.9996313561466,0.0,0.0,0.0,0.0,0.0,0.0,0.0,0.0,0.0,0.0,0.1,0.0,0.0,
1.74,103.16941850829024,51.02696313561466,1.0,-1.0,0.0,0.0,0.0,0.0,0.0,0.0,0.0,0.0,0.1,0.0,0.0,
1.754,103.08894185082903,51.05669631356147,1.0,-2.0,-1.0,0.0,0.0,0.0,0.0,0.0,0.0,0.0,0.0,0.0,0.0,
1.767,103.16189418508291,50.98766963135614,0.0,0.0,-1.0,0.0,0.0,0.0,0.0,0.0,0.0,0.0,0.1,0.0,0.0,
1.779,103.23218941850828,50.87276696313562,0.0,-2.0,-1.0,0.0,0.0,0.0,0.0,0.0,0.0,0.0,0.2,0.0,0.0,
1.793,103.29321894185082,50.789276696313564,0.0,-2.0,-1.0,0.0,0.0,0.0,0.0,0.0,0.0,0.0,0.1,0.0,0.0,
1.806,103.2633218941851,50.78092766963136,-1.0,-1.0,-1.0,0.0,0.0,0.0,0.0,0.0,0.0,0.0,0.2,0.0,0.0,
1.819,103.2243321894185,50.82509276696314,-1.0,-1.0,0.0,0.0,0.0,0.0,0.0,0.0,0.0,0.0,0.1,0.0,0.0,
1.832,103.20243321894186,50.874509276696315,-1.0,-1.0,0.0,0.0,0.0,0.0,0.0,0.0,0.0,0.0,0.1,0.0,0.0,
1.846,103.10124332189419,50.92445092766963,-1.0,-2.0,1.0,0.0,0.0,0.0,0.0,0.0,0.0,0.0,0.1,0.0,0.0,
1.859,103.15412433218941,50.974445092766956,-1.0,-2.0,2.0,0.0,0.0,0.0,0.0,0.0,0.0,0.0,0.2,0.0,0.0,
1.872,103.17741243321895,51.015444509276705,-1.0,0.0,2.0,0.0,0.0,0.0,0.0,0.0,0.0,0.0,0.1,0.0,0.0,
1.886,103.3867412433219,51.00154445092767,-2.0,-1.0,1.0,0.0,0.0,0.0,0.0,0.0,0.0,0.0,0.1,0.0,0.0,
1.898,103.46167412433219,51.072154445092764,-2.0,-2.0,0.0,0.0,0.0,0.0,0.0,0.0,0.0,0.0,0.1,0.0,0.0,
1.911,103.38816741243322,51.24121544450928,-2.0,-1.0,0.0,0.0,0.0,0.0,0.0,0.0,0.0,0.0,0.1,0.0,0.0,
1.925,103.24581674124333,51.50112154445093,-1.0,-1.0,-1.0,0.0,0.0,0.0,0.0,0.0,0.0,0.0,0.1,0.0,0.0,
1.938,103.13258167412434,51.87811215444509,0.0,0.0,0.0,0.0,0.0,0.0,0.0,0.0,0.0,0.0,0.1,0.0,0.0,
1.951,102.88725816741243,52.41081121544451,0.0,-2.0,1.0,0.0,0.0,0.0,0.0,0.0,0.0,0.0,0.1,0.0,0.0,
1.965,102.79072581674126,52.93208112154445,1.0,-1.0,1.0,0.0,0.0,0.0,0.0,0.0,0.0,0.0,0.2,0.0,0.0,
1.978,102.70007258167414,53.37120811215445,2.0,-2.0,1.0,0.0,0.0,0.0,0.0,0.0,0.0,0.0,0.1,0.0,0.0,
1.991,102.56500725816741,53.72112081121544,4.0,-2.0,2.0,0.0,0.0,0.0,0.0,0.0,0.0,0.0,0.1,0.0,0.0,
2.003,102.27250072581673,54.05311208112155,5.0,0.0,3.0,0.0,0.0,0.0,0.0,0.0,0.0,0.0,0.1,0.0,0.0,
2.017,101.95525007258168,54.43731120811215,6.0,-1.0,5.0,0.0,0.0,0.0,0.0,0.0,0.0,0.0,0.1,0.0,0.0,
2.03,101.48252500725818,54.961731120811216,6.0,0.0,8.0,0.0,0.0,0.0,0.0,0.0,0.0,0.0,0.0,0.0,0.0,
2.043,100.94925250072582,55.554173112081116,8.0,-1.0,11.0,0.0,0.0,0.0,0.0,0.0,0.0,0.0,0.2,0.0,0.0,
2.056,100.01392525007257,56.306417311208115,10.0,0.0,16.0,0.0,0.0,0.0,0.0,0.0,0.0,0.0,0.1,0.0,0.0,
2.069,98.59739252500725,57.16464173112081,12.0,1.0,22.0,0.0,0.0,0.0,0.0,0.0,0.0,0.0,0.1,0.0,0.0,
2.082,97.30373925250072,57.808464173112085,14.0,2.0,29.0,0.0,0.0,0.0,0.0,0.0,0.0,0.0,0.0,0.0,0.0,
2.096,95.85137392525007,58.34084641731121,16.0,-9.0,38.0,0.0,0.0,0.0,0.0,0.0,0.0,0.0,0.1,0.0,0.0,
2.109,94.94113739252501,58.97008464173112,20.0,-10.0,42.0,0.0,0.0,0.0,0.0,0.0,0.0,0.0,0.1,0.0,0.0,
2.122,94.6071137392525,59.52800846417312,25.0,-23.0,46.0,0.0,0.0,0.0,0.0,0.0,0.0,0.0,0.1,0.0,0.0,
2.136,94.23171137392525,60.22280084641731,32.0,-31.0,47.0,0.0,0.0,0.0,0.0,0.0,0.0,0.0,0.1,0.0,0.0,
2.149,94.14917113739253,60.85928008464173,40.0,-31.0,45.0,0.0,0.0,0.0,0.0,0.0,0.0,0.0,0.1,0.0,0.0,
2.162,94.10491711373925,61.444928008464174,47.0,-41.0,44.0,0.0,0.0,0.0,0.0,0.0,0.0,0.0,0.2,0.0,0.0,
2.176,93.69549171137393,62.214492800846415,55.0,-42.0,41.0,0.0,0.0,0.0,0.0,0.0,0.0,0.0,0.1,0.0,0.0,
2.189,93.5015491711374,62.750449280084645,60.0,-38.0,39.0,0.0,0.0,0.0,0.0,0.0,0.0,0.0,0.2,0.0,0.0,
2.202,93.20315491711375,63.23604492800846,64.0,-36.0,39.0,0.0,0.0,0.0,0.0,0.0,0.0,0.0,0.1,0.0,0.0,
2.215,92.77731549171138,63.644604492800845,65.0,-31.0,35.0,0.0,0.0,0.0,0.0,0.0,0.0,0.0,0.0,0.0,0.0,
2.229,92.46473154917115,64.49546044928009,58.0,-23.0,37.0,0.0,0.0,0.0,0.0,0.0,0.0,0.0,0.0,0.0,0.0,
2.242,92.91947315491711,64.50854604492801,55.0,-22.0,37.0,0.0,0.0,0.0,0.0,0.0,0.0,0.0,0.1,0.0,0.0,
2.255,92.56894731549171,64.30285460449281,47.0,-25.0,40.0,0.0,0.0,0.0,0.0,0.0,0.0,0.0,0.1,0.0,0.0,
2.269,92.17389473154917,63.778285460449275,39.0,-20.0,38.0,0.0,0.0,0.0,0.0,0.0,0.0,0.0,0.1,0.1,0.0,
2.282,91.42338947315491,62.870828546044926,34.0,-29.0,40.0,0.0,0.0,0.0,0.0,0.0,0.0,0.0,0.1,0.1,0.0,
2.295,90.1153389473155,62.18608285460449,32.0,-31.0,41.0,0.0,0.0,0.0,0.0,0.0,0.0,0.0,0.1,0.2,0.0,
2.31,89.26453389473154,61.23560828546045,33.0,-38.0,43.0,0.0,0.0,0.0,0.0,0.0,0.0,0.0,0.1,0.1,0.0,
2.323,87.75745338947316,60.39356082854604,35.0,-50.0,43.0,0.0,0.0,0.0,0.0,0.0,0.0,0.0,0.1,0.2,0.0,
2.336,86.41874533894732,59.895356082854605,33.0,-43.0,38.0,0.0,0.0,0.0,0.0,0.0,0.0,0.0,0.1,0.1,0.0,
2.35,85.51987453389474,58.96353560828546,29.0,-42.0,33.0,0.0,0.0,0.0,0.0,0.0,0.0,0.0,0.1,0.1,0.0,
2.363,84.88998745338947,58.051353560828545,22.0,-48.0,28.0,0.0,0.0,0.0,0.0,0.0,0.0,0.0,0.1,0.2,0.0,
2.376,84.53899874533894,57.06013535608285,12.0,-42.0,21.0,0.0,0.0,0.0,0.0,0.0,0.0,0.0,0.1,0.29,0.0,
2.39,84.55789987453389,56.27701353560828,4.0,-40.0,16.0,0.0,0.0,0.0,0.0,0.0,0.0,0.0,0.1,0.29,0.0,
2.403,84.58678998745339,55.901701353560824,0.0,-38.0,14.0,0.0,0.0,0.0,0.0,0.0,0.0,0.0,0.1,0.29,0.0,
2.416,84.16667899874535,56.17917013535608,0.0,-37.0,17.0,0.0,0.0,0.0,0.0,0.0,0.0,0.0,0.1,0.29,0.0,
2.429,84.23266789987454,57.070917013535606,2.0,-39.0,18.0,0.0,0.0,0.0,0.0,0.0,0.0,0.0,0.2,0.2,0.0,
2.443,83.90626678998746,57.736091701353565,7.0,-41.0,17.0,0.0,0.0,0.0,0.0,0.0,0.0,0.0,0.1,0.1,0.0,
2.456,83.74762667899874,58.61260917013536,8.0,-35.0,18.0,0.0,0.0,0.0,0.0,0.0,0.0,0.0,0.1,0.0,0.0,
2.469,84.00176266789988,59.25826091701353,10.0,-25.0,16.0,0.0,0.0,0.0,0.0,0.0,0.0,0.0,0.1,0.0,0.0,
2.483,83.88317626678999,60.06982609170135,9.0,-19.0,12.0,0.0,0.0,0.0,0.0,0.0,0.0,0.0,0.0,0.0,0.0,
2.496,83.664317626679,61.788982609170134,5.0,1.0,9.0,0.0,0.0,0.0,0.0,0.0,0.0,0.0,0.0,0.1,0.0,
2.509,83.8044317626679,63.39189826091701,5.0,4.0,10.0,0.0,0.0,0.0,0.0,0.0,0.0,0.0,0.0,0.1,0.0,
2.523,83.8094431762668,65.3971898260917,4.0,6.0,9.0,0.0,0.0,0.0,0.0,0.0,0.0,0.0,0.0,0.1,0.0,
2.535,83.89094431762669,67.53271898260917,9.0,11.0,11.0,0.0,0.0,0.0,0.0,0.0,0.0,0.0,0.1,0.0,0.0,
2.548,83.61109443176267,69.30327189826092,17.0,13.0,15.0,0.0,0.0,0.0,0.0,0.0,0.0,0.0,0.1,0.0,0.0,
2.562,85.30210944317626,70.6863271898261,-5.0,27.0,11.0,0.0,0.0,0.0,0.0,0.0,0.0,0.0,0.0,0.0,0.0,
2.575,85.81321094431763,69.19563271898261,34.0,15.0,8.0,0.0,0.0,0.0,0.0,0.0,0.0,0.0,0.0,0.1,0.0,
2.588,86.98032109443176,67.16556327189826,38.0,0.0,3.0,0.0,0.0,0.0,0.0,0.0,0.0,0.0,0.1,1.37,0.0,
2.601,88.58203210944318,64.90155632718984,27.0,-22.0,-3.0,0.0,0.0,0.0,0.0,0.0,0.0,0.0,0.1,3.14,0.0,
2.615,88.04920321094431,61.46215563271898,15.0,-29.0,-10.0,0.0,0.0,0.0,0.0,0.0,0.0,0.0,0.1,5.2,0.0,
2.628,85.27792032109443,62.990215563271896,26.0,-84.0,-4.0,0.0,0.0,0.0,0.0,0.0,0.0,0.0,0.1,7.65,0.0,
2.641,82.26479203210945,65.75302155632718,22.0,-64.0,0.0,0.0,0.0,0.0,0.0,0.0,0.0,0.0,0.1,8.93,0.0,
2.655,80.59547920321094,68.99030215563272,13.0,-29.0,16.0,0.0,0.0,0.0,0.0,0.0,0.0,0.0,0.1,7.75,0.0,
2.668,79.6725479203211,71.94203021556326,6.0,2.0,18.0,0.0,0.0,0.0,0.0,0.0,0.0,0.0,0.1,3.73,0.0,
2.68,79.01325479203211,73.77620302155633,-2.0,25.0,30.0,0.0,0.0,0.0,0.0,0.0,0.0,0.0,0.1,3.83,0.0,
2.694,78.98332547920322,74.65262030215564,3.0,55.0,39.0,0.0,0.0,0.0,0.0,0.0,0.0,0.0,0.2,4.41,0.0,
2.707,78.93533254792032,73.55226203021556,24.0,57.0,60.0,0.0,0.0,0.0,0.0,0.0,0.0,0.0,0.2,4.71,0.0,
2.72,79.13753325479203,71.47122620302156,61.0,46.0,64.0,0.0,0.0,0.0,0.0,0.0,0.0,0.0,0.2,5.2,0.0,
2.734,81.2817533254792,69.39112262030216,82.0,-1.0,75.0,0.0,0.0,0.0,0.0,0.0,0.0,0.0,0.1,5.3,0.0,
2.747,82.78317533254793,68.28311226203022,79.0,-57.0,57.0,0.0,0.0,0.0,0.0,0.0,0.0,0.0,0.1,3.14,0.0,
2.76,80.5123175332548,68.73031122620301,38.0,-16.0,38.0,0.0,1.0,0.0,0.0,0.0,0.0,0.0,0.2,2.65,0.0,
2.774,79.51123175332549,73.40103112262031,41.0,-20.0,11.0,0.0,1.0,0.0,0.0,0.0,0.0,0.0,0.2,2.26,0.0,
2.787,77.25112317533254,74.43510311226203,36.0,-48.0,42.0,0.0,1.0,0.0,0.0,0.0,0.0,0.0,0.0,1.57,0.0,
2.8,76.22411231753324,74.28651031122621,45.0,-22.0,15.0,0.0,1.0,0.0,0.0,0.0,0.0,0.0,0.0,0.0,0.0,
2.814,75.33841123175331,75.16265103112264,44.0,-27.0,4.0,0.0,1.0,0.0,0.0,0.0,0.0,0.0,0.0,0.0,0.0,
2.828,74.11584112317534,75.16926510311227,38.0,-29.0,20.0,0.0,1.0,0.0,0.0,0.0,0.0,0.0,0.0,0.0,0.2,
2.841,73.05758411231753,76.33992651031123,23.0,-3.0,19.0,0.0,1.0,0.0,0.0,0.0,0.0,0.0,0.0,0.0,0.59,
2.854,72.63675841123175,79.03099265103113,11.0,29.0,15.0,0.0,1.0,0.0,0.0,0.0,0.0,0.0,0.0,0.0,0.88,
2.868,73.26967584112317,81.55009926510311,5.0,49.0,-8.0,0.0,1.0,0.0,0.0,0.0,0.0,0.0,0.0,0.0,0.98,
2.881,73.64796758411231,86.2030099265103,-27.0,41.0,19.0,0.0,1.0,0.0,0.0,0.0,0.0,0.0,0.2,0.0,1.08,
2.894,72.99279675841123,87.82030099265103,-50.0,34.0,37.0,0.0,2.0,0.0,0.0,0.0,0.0,0.0,0.49,0.0,1.18,
2.908,73.56627967584112,88.0540300992651,-59.0,38.0,24.0,0.0,2.0,0.0,0.0,0.0,0.0,0.0,0.88,0.0,1.37,
2.921,75.9096279675841,85.32340300992651,-80.0,66.0,22.0,0.0,2.0,0.0,0.0,0.0,0.0,0.0,1.18,0.0,1.47,
2.934,82.2729627967584,80.71234030099265,-65.0,43.0,-11.0,0.0,2.0,0.0,0.0,0.0,0.0,0.0,1.47,0.0,1.86,
2.949,84.28629627967585,77.92023403009927,-21.0,-41.0,0.0,0.0,2.0,0.0,0.0,0.0,0.0,0.0,1.67,1.18,2.06,
2.962,84.35262962796759,76.77702340300993,-4.0,-77.0,-31.0,0.0,2.0,0.0,0.0,0.0,0.0,0.0,1.86,4.71,2.16,
2.975,80.94826296279675,76.599702340301,-11.0,-65.0,4.0,0.0,2.0,0.0,0.0,0.0,0.0,0.0,1.77,7.46,1.96,
2.989,78.40282629627968,76.3839702340301,3.0,1.0,-12.0,0.0,2.0,0.0,0.0,0.0,0.0,0.0,1.57,8.73,1.28,
3.002,77.47328262962797,76.227397023403,4.0,0.0,-7.0,0.0,2.0,0.0,0.0,0.0,0.0,0.0,1.37,9.32,1.08,
3.015,77.8393282629628,75.5637397023403,5.0,9.0,-11.0,0.0,2.0,0.0,0.0,0.0,0.0,0.0,1.28,9.32,1.28,
3.028,78.51493282629629,75.45237397023404,6.0,12.0,-10.0,0.0,2.0,0.0,0.0,0.0,0.0,0.0,1.37,9.42,1.47,
3.042,79.05949328262965,75.6842373970234,4.0,-7.0,-1.0,0.0,2.0,0.0,0.0,0.0,0.0,0.0,1.47,9.61,1.86,
3.056,78.75394932826296,76.41842373970235,2.0,-9.0,1.0,0.0,2.0,0.0,0.0,0.0,0.0,0.0,1.57,10.5,2.94,
3.069,77.5443949328263,77.39184237397023,0.0,-10.0,-4.0,0.0,2.0,0.0,0.0,0.0,0.0,0.0,1.77,11.09,3.34,
3.083,76.44243949328263,77.63318423739703,0.0,-2.0,-2.0,0.0,2.0,0.0,0.0,0.0,0.0,0.0,1.67,11.48,3.53,
3.096,76.07124394932826,77.60331842373971,-1.0,-1.0,-1.0,0.0,2.0,0.0,0.0,0.0,0.0,0.0,1.47,11.77,3.63,
3.109,76.18712439493282,77.45633184237397,-3.0,6.0,-1.0,0.0,2.0,0.0,0.0,0.0,0.0,0.0,1.47,11.87,3.73,
3.123,76.6037124394933,77.52263318423739,-5.0,0.0,1.0,0.0,2.0,0.0,0.0,0.0,0.0,0.0,1.37,11.58,3.53,
3.136,76.89737124394934,77.39426331842374,-5.0,-1.0,0.0,0.0,2.0,0.0,0.0,0.0,0.0,0.0,1.28,11.38,3.34,
3.15,76.93573712439493,77.21942633184237,-5.0,-4.0,-1.0,0.0,2.0,0.0,0.0,0.0,0.0,0.0,1.28,11.38,3.14,
3.164,76.6515737124395,77.07594263318424,-7.0,-7.0,0.0,0.0,2.0,0.0,0.0,0.0,0.0,0.0,1.18,11.48,2.84,
3.177,76.38915737124395,76.99859426331842,-6.0,-1.0,-3.0,0.0,2.0,0.0,0.0,0.0,0.0,0.0,1.18,11.67,2.65,
3.19,76.3179157371244,76.83785942633183,-6.0,-5.0,-1.0,0.0,2.0,0.0,0.0,0.0,0.0,0.0,1.18,12.36,2.16,
3.204,76.19379157371245,76.70478594263318,-4.0,-2.0,-1.0,0.0,2.0,0.0,0.0,0.0,0.0,0.0,1.08,12.56,2.06,
3.217,75.94737915737124,76.53847859426331,-3.0,-1.0,0.0,0.0,2.0,0.0,0.0,0.0,0.0,0.0,0.98,12.65,1.77,
3.231,75.78773791573713,76.47684785942634,-2.0,0.0,-2.0,0.0,2.0,0.0,0.0,0.0,0.0,0.0,0.98,12.56,1.67,
3.245,75.78077379157371,76.45268478594264,-2.0,0.0,-2.0,0.0,2.0,0.0,0.0,0.0,0.0,0.0,0.98,12.46,1.47,
3.258,75.86107737915736,76.34226847859426,-3.0,0.0,-2.0,0.0,2.0,0.0,0.0,0.0,0.0,0.0,0.98,12.36,1.47,
3.271,75.89610773791574,76.16022684785942,-2.0,-2.0,-1.0,0.0,2.0,0.0,0.0,0.0,0.0,0.0,962.95,12.26,1.37,
3.284,75.77361077379159,76.06102268478594,-2.0,-2.0,-2.0,0.0,2.0,0.0,0.0,0.0,0.0,0.0,78.09,12.16,1.37,
3.299,75.48236107737915,76.0871022684786,-2.0,1.0,-4.0,0.0,2.0,0.0,0.0,0.0,0.0,0.0,1.08,12.16,1.37,
3.312,75.22823610773793,76.17971022684786,-4.0,4.0,-4.0,0.0,2.0,0.0,0.0,0.0,0.0,0.0,1.18,12.07,1.28,
3.325,75.19382361077379,76.23397102268478,-4.0,5.0,-5.0,0.0,2.0,0.0,0.0,0.0,0.0,0.0,1.28,12.07,1.37,
3.339,75.42438236107738,76.19439710226848,-3.0,7.0,-7.0,0.0,2.0,0.0,0.0,0.0,0.0,0.0,1.67,11.97,1.37,
3.352,75.74443823610774,76.10943971022684,-4.0,5.0,-6.0,0.0,2.0,0.0,0.0,0.0,0.0,0.0,1.86,11.87,1.37,
3.365,76.19944382361078,76.39794397102268,-5.0,1.0,-10.0,0.0,2.0,0.0,0.0,0.0,0.0,0.0,1.96,11.67,0.98,
3.38,76.09194438236108,76.46279439710227,-4.0,0.0,-10.0,0.0,1.0,0.0,0.0,0.0,0.0,0.0,1.96,11.77,0.78,
3.393,75.82019443823611,75.86627943971023,-5.0,3.0,-9.0,0.0,1.0,0.0,0.0,0.0,0.0,0.0,2.06,11.87,0.69,
3.406,75.84701944382361,75.68962794397103,-3.0,7.0,-2.0,0.0,1.0,0.0,0.0,0.0,0.0,0.0,1.96,11.97,0.49,
3.42,75.89470194438236,75.53696279439711,-2.0,8.0,-7.0,0.0,1.0,0.0,0.0,0.0,0.0,0.0,1.86,11.97,0.2,
3.433,76.18747019443823,75.7556962794397,-4.0,10.0,-6.0,0.0,1.0,0.0,0.0,0.0,0.0,0.0,1.86,11.58,0.0,
3.446,76.60374701944383,76.00256962794397,-3.0,14.0,-2.0,0.0,1.0,0.0,0.0,0.0,0.0,0.0,1.77,11.28,0.0,
3.46,76.62737470194438,76.06325696279438,-5.0,3.0,-2.0,0.0,1.0,0.0,0.0,0.0,0.0,0.0,1.67,10.89,0.0,
3.473,76.39573747019443,76.09632569627944,-9.0,2.0,2.0,0.0,1.0,0.0,0.0,0.0,0.0,0.0,1.67,10.3,0.0,
3.486,76.35457374701944,75.99163256962795,-5.0,7.0,5.0,0.0,1.0,0.0,0.0,0.0,0.0,0.0,1.47,9.52,0.0,
3.5,76.62045737470196,76.2151632569628,-13.0,8.0,6.0,0.0,1.0,0.0,0.0,0.0,0.0,0.0,1.28,7.55,0.0,
3.513,76.5390457374702,76.21051632569628,-2.0,6.0,11.0,0.0,1.0,0.0,0.0,0.0,0.0,0.0,1.28,6.38,0.0,
3.526,76.73790457374702,75.82305163256963,-4.0,21.0,8.0,0.0,1.0,0.0,0.0,0.0,0.0,0.0,1.18,5.3,0.0,
3.539,77.00979045737472,75.64030516325697,-1.0,10.0,13.0,0.0,1.0,0.0,0.0,0.0,0.0,0.0,1.18,4.22,0.0,
3.553,77.34297904573747,75.4870305163257,0.0,9.0,9.0,0.0,0.0,0.0,0.0,0.0,0.0,0.0,1.08,3.14,0.0,
3.566,77.34929790457375,75.46270305163257,9.0,2.0,10.0,0.0,0.0,0.0,0.0,0.0,0.0,0.0,0.88,1.37,0.0,
3.579,77.69192979045738,76.18927030516326,6.0,-18.0,10.0,0.0,0.0,0.0,0.0,0.0,0.0,0.0,0.78,0.39,0.0,
3.593,77.69019297904575,76.56792703051633,12.0,-26.0,4.0,0.0,0.0,0.0,0.0,0.0,0.0,0.0,0.59,0.0,0.0,
3.606,78.09501929790459,77.18179270305164,4.0,-35.0,11.0,0.0,0.0,0.0,0.0,0.0,0.0,0.0,0.39,0.0,0.0,
3.619,78.27950192979046,77.35117927030517,8.0,-31.0,13.0,0.0,0.0,0.0,0.0,0.0,0.0,0.0,0.39,0.0,0.0,
3.633,78.46895019297904,78.13311792703051,12.0,-32.0,-1.0,0.0,0.0,0.0,0.0,0.0,0.0,0.0,0.2,0.0,0.0,
3.646,78.86589501929791,79.22831179270304,13.0,-18.0,-5.0,0.0,0.0,0.0,0.0,0.0,0.0,0.0,0.2,0.0,0.0,
3.659,78.8425895019298,80.79583117927031,23.0,-29.0,-10.0,0.0,0.0,0.0,0.0,0.0,0.0,0.0,0.1,0.0,0.1,
3.673,78.55225895019296,82.33858311792703,27.0,-15.0,-9.0,0.0,0.0,0.0,0.0,0.0,0.0,0.0,0.1,0.0,0.39,
3.686,78.14522589501928,82.8528583117927,18.0,-10.0,-1.0,0.0,0.0,0.0,0.0,0.0,0.0,0.0,0.2,0.0,0.39,
3.699,77.90652258950192,82.62528583117927,28.0,-7.0,-5.0,0.0,0.0,0.0,0.0,0.0,0.0,0.0,0.2,0.0,0.2,
3.713,76.98265225895018,82.30552858311792,25.0,-9.0,-7.0,0.0,0.0,0.0,0.0,0.0,0.0,0.0,0.1,0.0,0.2,
3.726,76.07126522589502,82.06655285831181,9.0,2.0,-4.0,0.0,0.0,0.0,0.0,0.0,0.0,0.0,0.1,0.0,0.29,
3.739,75.2421265225895,81.67365528583117,-1.0,22.0,-6.0,0.0,0.0,0.0,0.0,0.0,0.0,0.0,0.1,0.0,0.29,
3.752,75.07821265225896,81.14836552858313,-6.0,25.0,-4.0,0.0,0.0,0.0,0.0,0.0,0.0,0.0,0.1,0.0,0.2,
3.766,75.2778212652259,79.6558365528583,-5.0,15.0,0.0,0.0,0.0,0.0,0.0,0.0,0.0,0.0,0.2,0.0,0.1,
3.779,75.0997821265226,77.49958365528583,-3.0,0.0,1.0,0.0,0.0,0.0,0.0,0.0,0.0,0.0,0.2,0.0,0.1,
3.792,74.51497821265227,74.68295836552859,-7.0,-17.0,6.0,0.0,0.0,0.0,0.0,0.0,0.0,0.0,0.2,0.0,0.2,
3.806,73.70949782126523,71.92629583655287,-15.0,-26.0,13.0,0.0,0.0,0.0,0.0,0.0,0.0,0.0,0.2,0.0,0.2,
3.819,73.32294978212651,69.98562958365528,-30.0,-3.0,13.0,0.0,0.0,0.0,0.0,0.0,0.0,0.0,0.2,0.0,0.29,
3.832,74.05829497821264,68.69356295836553,-48.0,29.0,-1.0,0.0,0.0,0.0,0.0,0.0,0.0,0.0,0.2,0.0,0.29,
3.846,75.15782949782127,67.76335629583654,-44.0,54.0,-23.0,0.0,0.0,0.0,0.0,0.0,0.0,0.0,933.62,0.0,0.39,
3.868,77.53578294978212,68.06633562958365,-32.0,44.0,-50.0,0.0,0.0,0.0,0.0,0.0,0.0,0.0,0.2,0.1,0.88,
3.883,77.80957829497822,69.34763356295836,-35.0,0.0,-34.0,0.0,0.0,0.0,0.0,0.0,0.0,0.0,0.2,1.57,0.88,
3.896,79.02495782949782,72.28376335629584,-5.0,-36.0,-45.0,0.0,0.0,0.0,0.0,0.0,0.0,0.0,0.2,3.43,0.39,
3.909,77.85049578294979,74.38637633562958,-17.0,-74.0,11.0,0.0,0.0,0.0,0.0,0.0,0.0,0.0,0.1,4.91,0.0,
3.922,75.90604957829497,74.56063763356296,-14.0,-32.0,11.0,0.0,0.0,0.0,0.0,0.0,0.0,0.0,0.1,6.67,0.0,
3.936,74.15460495782949,73.57006376335629,-10.0,-16.0,16.0,0.0,0.0,0.0,0.0,0.0,0.0,0.0,0.2,6.67,0.0,
3.949,73.23246049578295,72.85000637633563,3.0,1.0,0.0,0.0,0.0,0.0,0.0,0.0,0.0,0.0,0.29,6.28,0.0,
3.962,73.16724604957828,73.35400063763356,8.0,6.0,-7.0,0.0,0.0,0.0,0.0,0.0,0.0,0.0,0.2,5.79,0.0,
3.976,73.46672460495783,73.69240006376336,8.0,18.0,-7.0,0.0,0.0,0.0,0.0,0.0,0.0,0.0,0.1,5.49,0.0,
3.989,75.53967246049578,73.34824000637633,8.0,24.0,-16.0,0.0,0.0,0.0,0.0,0.0,0.0,0.0,0.29,5.4,0.0,
4.002,77.89796724604957,73.16082400063763,4.0,-7.0,-6.0,0.0,0.0,0.0,0.0,0.0,0.0,0.0,0.29,5.79,0.0,
4.016,78.59279672460495,73.28608240006376,-2.0,-28.0,5.0,0.0,1.0,0.0,0.0,0.0,0.0,0.0,0.2,6.47,0.0,
4.029,78.25727967246048,74.62160824000637,-1.0,-40.0,16.0,0.0,1.0,0.0,0.0,0.0,0.0,0.0,0.29,7.36,0.0,
4.042,76.25272796724606,75.23216082400063,-1.0,-35.0,11.0,0.0,1.0,0.0,0.0,0.0,0.0,0.0,0.59,8.44,0.0,
4.056,74.7922727967246,75.35621608240007,3.0,-16.0,5.0,0.0,1.0,0.0,0.0,0.0,0.0,0.0,0.78,9.91,0.0,
4.069,73.93522727967246,75.28762160824002,3.0,1.0,6.0,0.0,1.0,0.0,0.0,0.0,0.0,0.0,1.18,10.69,0.0,
4.082,73.28252272796723,74.43476216082401,12.0,7.0,-1.0,0.0,2.0,0.0,0.0,0.0,0.0,0.0,1.57,11.48,0.1,
4.096,72.71325227279672,74.9524762160824,8.0,9.0,0.0,0.0,2.0,0.0,0.0,0.0,0.0,0.0,1.28,12.16,0.2,
4.109,72.80932522727967,75.31924762160824,10.0,6.0,-3.0,0.0,2.0,0.0,0.0,0.0,0.0,0.0,0.78,12.46,0.39,
4.122,72.70193252272797,75.15792476216083,2.0,4.0,5.0,0.0,2.0,0.0,0.0,0.0,0.0,0.0,0.29,12.75,0.39,
4.135,72.79019325227279,76.44679247621609,3.0,6.0,-1.0,0.0,2.0,0.0,0.0,0.0,0.0,0.0,0.0,12.75,0.49,
4.149,73.22201932522728,77.41267924762161,-3.0,12.0,1.0,0.0,2.0,0.0,0.0,0.0,0.0,0.0,0.0,12.75,0.59,
4.162,73.70620193252273,77.72526792476216,-8.0,11.0,2.0,0.0,2.0,0.0,0.0,0.0,0.0,0.0,0.0,12.95,0.59,
4.175,74.26762019325227,77.72952679247622,-13.0,10.0,4.0,0.0,2.0,0.0,0.0,0.0,0.0,0.0,0.0,13.24,0.39,
4.189,74.67476201932523,77.33395267924763,-12.0,2.0,2.0,0.0,2.0,0.0,0.0,0.0,0.0,0.0,0.1,14.62,0.2,
4.203,74.71547620193253,77.06039526792476,-10.0,0.0,2.0,0.0,2.0,0.0,0.0,0.0,0.0,0.0,0.29,15.7,0.1,
4.216,74.53054762019326,76.75403952679248,-8.0,7.0,0.0,0.0,2.0,0.0,0.0,0.0,0.0,0.0,0.39,16.97,0.0,
4.23,74.46705476201932,76.40840395267925,-5.0,11.0,-2.0,0.0,2.0,0.0,0.0,0.0,0.0,0.0,0.39,18.05,0.0,
4.243,74.54170547620193,76.21184039526793,-5.0,10.0,-2.0,0.0,2.0,0.0,0.0,0.0,0.0,0.0,0.39,19.42,0.0,
4.256,74.6211705476202,76.2011840395268,-3.0,8.0,-2.0,0.0,2.0,0.0,0.0,0.0,0.0,0.0,0.29,19.82,0.0,
4.27,74.62011705476202,76.12811840395268,-5.0,10.0,-1.0,0.0,2.0,0.0,0.0,0.0,0.0,0.0,0.29,19.91,0.0,
4.283,74.8270117054762,76.06681184039527,-6.0,12.0,-1.0,0.0,2.0,0.0,0.0,0.0,0.0,0.0,0.39,20.11,0.0,
4.297,75.33370117054761,75.95268118403953,-6.0,9.0,-1.0,0.0,2.0,0.0,0.0,0.0,0.0,0.0,0.39,20.31,0.0,
4.311,75.62737011705475,75.84226811840395,-4.0,2.0,-1.0,0.0,2.0,0.0,0.0,0.0,0.0,0.0,0.39,20.7,0.0,
4.324,75.78273701170548,75.75922681184039,-5.0,0.0,-1.0,0.0,2.0,0.0,0.0,0.0,0.0,0.0,0.39,20.9,0.0,
4.337,75.85227370117055,75.66092268118405,-4.0,0.0,-2.0,0.0,2.0,0.0,0.0,0.0,0.0,0.0,0.39,20.99,0.0,
4.35,75.89522737011706,75.5700922681184,-3.0,-2.0,-2.0,0.0,1.0,0.0,0.0,0.0,0.0,0.0,0.49,21.19,0.0,
4.364,75.92652273701171,75.57000922681183,-2.0,-3.0,-2.0,0.0,1.0,0.0,0.0,0.0,0.0,0.0,0.49,21.29,0.0,
4.378,75.87565227370118,75.59700092268118,-2.0,-6.0,-2.0,0.0,1.0,0.0,0.0,0.0,0.0,0.0,0.49,21.19,0.0,
4.391,75.63656522737013,75.61770009226812,-2.0,-4.0,-2.0,0.0,1.0,0.0,0.0,0.0,0.0,0.0,0.49,21.09,0.0,
4.405,75.405656522737,75.61977000922681,-3.0,0.0,-2.0,0.0,1.0,0.0,0.0,0.0,0.0,0.0,0.59,20.99,0.0,
4.418,75.4455656522737,75.59297700092269,-3.0,2.0,-2.0,0.0,1.0,0.0,0.0,0.0,0.0,0.0,0.69,20.8,0.0,
4.431,75.53955656522737,75.64429770009228,-3.0,0.0,-3.0,0.0,1.0,0.0,0.0,0.0,0.0,0.0,0.69,20.5,0.0,
4.446,75.61195565652274,75.58642977000923,-3.0,0.0,-3.0,0.0,1.0,0.0,0.0,0.0,0.0,0.0,0.78,20.21,0.0,
4.459,75.68219556565226,75.52664297700093,-3.0,-1.0,-2.0,0.0,1.0,0.0,0.0,0.0,0.0,0.0,0.88,20.11,0.0,
4.472,75.63521955656522,75.5206642977001,-3.0,0.0,-2.0,0.0,1.0,0.0,0.0,0.0,0.0,0.0,0.88,20.11,0.0,
4.486,75.63052195565652,75.52006642977001,-3.0,0.0,-2.0,0.0,1.0,0.0,0.0,0.0,0.0,0.0,0.88,20.01,0.0,
4.499,75.61205219556565,75.51100664297701,-3.0,0.0,-2.0,0.0,1.0,0.0,0.0,0.0,0.0,0.0,0.98,19.91,0.0,
4.512,75.69120521955658,75.4831006642977,-3.0,0.0,-2.0,0.0,1.0,0.0,0.0,0.0,0.0,0.0,0.98,19.91,0.0,
4.526,75.78912052195565,75.38131006642978,-2.0,-1.0,-2.0,0.0,1.0,0.0,0.0,0.0,0.0,0.0,0.98,19.82,0.0,
4.54,75.87091205219556,75.35313100664297,-2.0,-3.0,-2.0,0.0,1.0,0.0,0.0,0.0,0.0,0.0,0.98,19.72,0.0,
4.553,75.85209120521955,75.4043131006643,-2.0,-2.0,-1.0,0.0,1.0,0.0,0.0,0.0,0.0,0.0,0.88,19.42,0.0,
4.567,75.86820912052195,75.47243131006643,-1.0,-2.0,-1.0,0.0,1.0,0.0,0.0,0.0,0.0,0.0,0.98,19.33,0.0,
4.58,75.86982091205219,75.47024313100664,-1.0,-3.0,-1.0,0.0,1.0,0.0,0.0,0.0,0.0,0.0,0.98,19.13,0.0,
4.593,75.81598209120521,75.47902431310067,-1.0,-3.0,-1.0,0.0,1.0,0.0,0.0,0.0,0.0,0.0,0.98,19.03,0.0,
4.608,75.79259820912053,75.56090243131005,-1.0,-3.0,0.0,0.0,1.0,0.0,0.0,0.0,0.0,0.0,0.88,18.74,0.0,
4.621,75.69125982091207,75.52409024313101,-1.0,-2.0,0.0,0.0,1.0,0.0,0.0,0.0,0.0,0.0,0.88,18.54,0.0,
4.634,75.65412598209122,75.5024090243131,-2.0,-2.0,0.0,0.0,1.0,0.0,0.0,0.0,0.0,0.0,0.78,18.34,0.0,
4.647,75.57841259820911,75.48224090243131,-2.0,-3.0,0.0,0.0,1.0,0.0,0.0,0.0,0.0,0.0,0.78,18.34,0.0,
4.661,75.4988412598209,75.48022409024313,-2.0,-1.0,0.0,0.0,1.0,0.0,0.0,0.0,0.0,0.0,0.78,18.34,0.0,
4.674,75.47288412598209,75.49802240902432,-2.0,-1.0,0.0,0.0,1.0,0.0,0.0,0.0,0.0,0.0,0.78,18.25,0.0,
4.687,75.48828841259821,75.48180224090243,-2.0,-1.0,-1.0,0.0,1.0,0.0,0.0,0.0,0.0,0.0,0.88,18.25,0.0,
4.702,75.48082884125982,75.48018022409025,-2.0,-2.0,0.0,0.0,1.0,0.0,0.0,0.0,0.0,0.0,0.88,18.25,0.0,
4.715,75.44408288412598,75.46201802240903,-2.0,-2.0,0.0,0.0,1.0,0.0,0.0,0.0,0.0,0.0,0.88,18.34,0.0,
4.728,75.37740828841261,75.4512018022409,-2.0,-1.0,-1.0,0.0,1.0,0.0,0.0,0.0,0.0,0.0,0.88,18.34,0.0,
4.742,75.40674082884127,75.4321201802241,-2.0,-1.0,-1.0,0.0,1.0,0.0,0.0,0.0,0.0,0.0,0.78,18.54,0.0,
4.755,75.33767408288412,75.4212120180224,-2.0,-2.0,-1.0,0.0,1.0,0.0,0.0,0.0,0.0,0.0,0.78,18.54,0.0,
4.768,75.29476740828842,75.40212120180226,-2.0,-1.0,-1.0,0.0,1.0,0.0,0.0,0.0,0.0,0.0,0.78,18.44,0.0,
4.783,75.36247674082885,75.38221212018023,-2.0,-1.0,-2.0,0.0,1.0,0.0,0.0,0.0,0.0,0.0,0.88,18.54,0.0,
4.796,75.36024767408288,75.38022121201801,-2.0,-1.0,-1.0,0.0,1.0,0.0,0.0,0.0,0.0,0.0,0.88,18.64,0.0,
4.809,75.2610247674083,75.3080221212018,-2.0,-2.0,-1.0,0.0,1.0,0.0,0.0,0.0,0.0,0.0,0.98,18.74,0.0,
4.823,75.17910247674084,75.29180221212019,-2.0,-2.0,-2.0,0.0,1.0,0.0,0.0,0.0,0.0,0.0,0.98,18.74,0.0,
4.837,75.09891024767408,75.27218022121201,-2.0,0.0,-2.0,0.0,1.0,0.0,0.0,0.0,0.0,0.0,0.98,18.64,0.0,
4.85,75.12689102476742,75.2972180221212,-2.0,0.0,-2.0,0.0,1.0,0.0,0.0,0.0,0.0,0.0,0.98,18.74,0.0,
4.864,75.14768910247675,75.25472180221213,-2.0,0.0,-2.0,0.0,1.0,0.0,0.0,0.0,0.0,0.0,0.98,18.74,0.0,
4.877,75.16776891024767,75.27747218022122,-2.0,0.0,-2.0,0.0,1.0,0.0,0.0,0.0,0.0,0.0,0.98,18.84,0.0,
4.89,75.20577689102475,75.31574721802212,-2.0,0.0,-2.0,0.0,1.0,0.0,0.0,0.0,0.0,0.0,0.98,18.84,0.0,
4.903,75.13757768910247,75.31957472180221,-2.0,-1.0,-2.0,0.0,1.0,0.0,0.0,0.0,0.0,0.0,1.08,18.84,0.0,
4.917,75.08575776891024,75.33795747218024,-2.0,0.0,-2.0,0.0,1.0,0.0,0.0,0.0,0.0,0.0,0.98,18.84,0.0,
4.93,75.16157577689103,75.35779574721802,-2.0,0.0,-3.0,0.0,1.0,0.0,0.0,0.0,0.0,0.0,1.08,18.93,0.0,
4.944,75.1691575776891,75.34177957472181,-3.0,0.0,-3.0,0.0,1.0,0.0,0.0,0.0,0.0,0.0,1.08,18.93,0.0,
4.958,75.17891575776892,75.3671779574722,-2.0,0.0,-2.0,0.0,1.0,0.0,0.0,0.0,0.0,0.0,1.18,18.93,0.0,
4.971,75.16189157577689,75.29771779574723,-2.0,0.0,-2.0,0.0,1.0,0.0,0.0,0.0,0.0,0.0,1.18,18.93,0.0,
4.984,75.22318915757769,75.27277177957471,-2.0,1.0,-2.0,0.0,1.0,0.0,0.0,0.0,0.0,0.0,1.18,18.93,0.0,
4.998,75.24731891575777,75.30627717795748,-2.0,1.0,-2.0,0.0,1.0,0.0,0.0,0.0,0.0,0.0,1.08,18.93,0.0,
5.011,75.32173189157578,75.34562771779575,-2.0,1.0,-1.0,0.0,1.0,0.0,0.0,0.0,0.0,0.0,1.08,18.93,0.0,
5.024,75.37417318915757,75.33156277177957,-3.0,1.0,-1.0,0.0,1.0,0.0,0.0,0.0,0.0,0.0,1.08,18.93,0.0,
5.038,75.45141731891576,75.33915627717796,-3.0,0.0,-1.0,0.0,1.0,0.0,0.0,0.0,0.0,0.0,1.08,19.03,0.0,
5.051,75.44114173189158,75.2949156277178,-3.0,0.0,0.0,0.0,1.0,0.0,0.0,0.0,0.0,0.0,1.08,19.03,0.0,
5.064,75.38611417318916,75.20049156277179,-3.0,0.0,0.0,0.0,1.0,0.0,0.0,0.0,0.0,0.0,1.08,19.03,0.0,
5.078,75.38961141731892,75.17304915627719,-3.0,0.0,0.0,0.0,1.0,0.0,0.0,0.0,0.0,0.0,1.08,19.03,0.0,
5.091,75.40796114173189,75.24230491562773,-3.0,0.0,0.0,0.0,1.0,0.0,0.0,0.0,0.0,0.0,1.18,19.03,0.0,
5.104,75.43679611417319,75.25823049156278,-3.0,1.0,0.0,0.0,1.0,0.0,0.0,0.0,0.0,0.0,1.18,19.03,0.0,
5.117,75.47567961141732,75.23282304915628,-3.0,0.0,0.0,0.0,1.0,0.0,0.0,0.0,0.0,0.0,1.08,19.13,0.0,
5.131,75.50656796114174,75.10428230491563,-3.0,0.0,0.0,0.0,1.0,0.0,0.0,0.0,0.0,0.0,1.08,19.03,0.0,
5.144,75.46465679611417,75.05542823049156,-3.0,0.0,0.0,0.0,1.0,0.0,0.0,0.0,0.0,0.0,1.18,19.13,0.0,
5.157,75.40646567961143,75.01454282304915,-3.0,0.0,0.0,0.0,1.0,0.0,0.0,0.0,0.0,0.0,1.18,19.13,0.0,
5.171,75.38264656796115,75.03745428230492,-3.0,0.0,0.0,0.0,1.0,0.0,0.0,0.0,0.0,0.0,1.18,19.13,0.0,
5.184,75.40726465679612,75.06674542823049,-3.0,-1.0,0.0,0.0,1.0,0.0,0.0,0.0,0.0,0.0,1.18,19.13,0.0,
5.197,75.45472646567961,75.06067454282305,-3.0,-1.0,0.0,0.0,1.0,0.0,0.0,0.0,0.0,0.0,1.08,19.13,0.0,
5.211,75.40547264656797,75.0330674542823,-3.0,0.0,0.0,0.0,1.0,0.0,0.0,0.0,0.0,0.0,1.18,19.13,0.0,
5.224,75.33754726465679,75.00330674542823,-2.0,-1.0,0.0,0.0,1.0,0.0,0.0,0.0,0.0,0.0,1.18,19.13,0.0,
5.237,75.28575472646568,74.99133067454282,-2.0,-1.0,0.0,0.0,1.0,0.0,0.0,0.0,0.0,0.0,1.08,19.03,0.0,
5.252,75.28057547264658,75.02613306745428,-2.0,0.0,0.0,0.0,1.0,0.0,0.0,0.0,0.0,0.0,1.18,19.13,0.0,
5.265,75.28005754726466,75.02061330674543,-2.0,0.0,0.0,0.0,1.0,0.0,0.0,0.0,0.0,0.0,1.18,19.13,0.0,
5.278,75.29800575472646,75.02906133067454,-2.0,0.0,-1.0,0.0,1.0,0.0,0.0,0.0,0.0,0.0,1.18,19.13,0.0,
5.292,75.32680057547265,75.02090613306746,-2.0,0.0,-1.0,0.0,1.0,0.0,0.0,0.0,0.0,0.0,1.18,19.03,0.0,
5.305,75.34768005754727,74.96609061330675,-2.0,0.0,-1.0,0.0,1.0,0.0,0.0,0.0,0.0,0.0,1.18,19.03,0.0,
5.318,75.34076800575474,74.96960906133067,-2.0,0.0,-1.0,0.0,1.0,0.0,0.0,0.0,0.0,0.0,1.18,19.03,0.0,
5.331,75.35807680057547,74.94296090613307,-2.0,0.0,-1.0,0.0,1.0,0.0,0.0,0.0,0.0,0.0,1.18,19.03,0.0,
5.345,75.32380768005754,74.9492960906133,-2.0,0.0,-1.0,0.0,1.0,0.0,0.0,0.0,0.0,0.0,1.18,19.13,0.0,
5.358,75.30238076800575,74.96792960906133,-2.0,0.0,-2.0,0.0,1.0,0.0,0.0,0.0,0.0,0.0,1.18,19.03,0.0,
5.372,75.29123807680058,74.95179296090613,-2.0,0.0,-2.0,0.0,1.0,0.0,0.0,0.0,0.0,0.0,1.18,19.13,0.0,
5.386,75.28112380768006,74.96817929609061,-2.0,1.0,-2.0,0.0,1.0,0.0,0.0,0.0,0.0,0.0,1.18,19.03,0.0,
5.399,75.325112380768,75.02381792960907,-2.0,1.0,-2.0,0.0,1.0,0.0,0.0,0.0,0.0,0.0,1.18,19.03,0.0,
5.412,75.3115112380768,75.0113817929609,-2.0,0.0,-2.0,0.0,1.0,0.0,0.0,0.0,0.0,0.0,1.18,19.03,0.0,
5.426,75.35515112380767,75.02813817929609,-2.0,0.0,-2.0,0.0,1.0,0.0,0.0,0.0,0.0,0.0,1.18,19.13,0.0,
5.439,75.35051511238076,75.02981381792961,-2.0,0.0,-2.0,0.0,1.0,0.0,0.0,0.0,0.0,0.0,1.08,19.03,0.0,
5.452,75.4220515112381,75.02098138179296,-2.0,0.0,-2.0,0.0,1.0,0.0,0.0,0.0,0.0,0.0,1.08,19.03,0.0,
5.466,75.40220515112382,75.0380981381793,-2.0,-1.0,-2.0,0.0,1.0,0.0,0.0,0.0,0.0,0.0,1.18,19.13,0.0,
5.48,75.38222051511238,75.05780981381793,-2.0,0.0,-2.0,0.0,1.0,0.0,0.0,0.0,0.0,0.0,1.18,19.13,0.0,
5.493,75.40722205151124,75.04178098138179,-2.0,-1.0,-2.0,0.0,1.0,0.0,0.0,0.0,0.0,0.0,1.18,19.13,0.0,
5.507,75.38272220515113,75.05817809813819,-2.0,-1.0,-2.0,0.0,1.0,0.0,0.0,0.0,0.0,0.0,1.18,19.23,0.0,
5.52,75.38027222051511,75.09581780981382,-2.0,0.0,-3.0,0.0,1.0,0.0,0.0,0.0,0.0,0.0,1.08,19.13,0.0,
5.533,75.38002722205151,75.13558178098138,-2.0,0.0,-2.0,0.0,1.0,0.0,0.0,0.0,0.0,0.0,1.08,19.13,0.0,
5.547,75.37100272220516,75.13955817809814,-2.0,0.0,-2.0,0.0,1.0,0.0,0.0,0.0,0.0,0.0,1.18,19.13,0.0,
5.56,75.37910027222051,75.09495581780982,-2.0,-1.0,-2.0,0.0,1.0,0.0,0.0,0.0,0.0,0.0,1.18,19.13,0.0,
5.573,75.40691002722205,75.01849558178098,-2.0,0.0,-2.0,0.0,1.0,0.0,0.0,0.0,0.0,0.0,1.18,19.13,0.0,
5.586,75.4906910027222,75.0378495581781,-2.0,0.0,-2.0,0.0,1.0,0.0,0.0,0.0,0.0,0.0,1.08,19.13,0.0,
5.6,75.49906910027222,75.06678495581781,-2.0,-1.0,-2.0,0.0,1.0,0.0,0.0,0.0,0.0,0.0,1.08,19.13,0.0,
5.613,75.49990691002722,75.08767849558178,-2.0,0.0,-2.0,0.0,1.0,0.0,0.0,0.0,0.0,0.0,1.18,19.23,0.0,
5.626,75.52699069100272,75.04476784955818,-2.0,0.0,-2.0,0.0,1.0,0.0,0.0,0.0,0.0,0.0,1.08,19.23,0.0,
5.64,75.56569906910026,74.99547678495581,-2.0,-1.0,-1.0,0.0,1.0,0.0,0.0,0.0,0.0,0.0,1.08,19.23,0.0,
5.653,75.56956990691002,75.00854767849557,-2.0,-1.0,-1.0,0.0,1.0,0.0,0.0,0.0,0.0,0.0,1.08,19.33,0.0,
5.666,75.50695699069101,75.07285476784956,-2.0,-1.0,-1.0,0.0,1.0,0.0,0.0,0.0,0.0,0.0,1.08,19.33,0.0,
5.68,75.5006956990691,75.08828547678496,-2.0,-1.0,-1.0,0.0,1.0,0.0,0.0,0.0,0.0,0.0,1.08,19.33,0.0,
5.693,75.43706956990692,75.04482854767849,-2.0,-1.0,-1.0,0.0,1.0,0.0,0.0,0.0,0.0,0.0,1.08,19.33,0.0,
5.707,75.45770695699069,75.03148285476784,-2.0,0.0,-1.0,0.0,1.0,0.0,0.0,0.0,0.0,0.0,1.08,19.33,0.0,
5.721,75.45977069569906,75.03014828547678,-2.0,0.0,-1.0,0.0,1.0,0.0,0.0,0.0,0.0,0.0,1.08,19.33,0.0,
5.734,75.43297706956992,75.02101482854768,-2.0,0.0,-1.0,0.0,1.0,0.0,0.0,0.0,0.0,0.0,0.98,19.42,0.0,
5.747,75.38529770695699,74.95710148285477,-3.0,0.0,0.0,0.0,1.0,0.0,0.0,0.0,0.0,0.0,1.08,19.33,0.0,
5.761,75.39852977069572,74.97771014828547,-2.0,0.0,0.0,0.0,1.0,0.0,0.0,0.0,0.0,0.0,1.08,19.33,0.0,
5.773,75.42685297706959,74.93477101482856,-2.0,0.0,0.0,0.0,1.0,0.0,0.0,0.0,0.0,0.0,1.08,19.42,0.0,
5.786,75.41168529770695,74.93047710148286,-2.0,0.0,0.0,0.0,1.0,0.0,0.0,0.0,0.0,0.0,1.18,19.42,0.0,
5.799,75.4371685297707,74.86704771014828,-2.0,0.0,0.0,0.0,1.0,0.0,0.0,0.0,0.0,0.0,0.98,19.33,0.0,
5.813,75.46671685297707,74.90570477101483,-2.0,0.0,-1.0,0.0,1.0,0.0,0.0,0.0,0.0,0.0,1.08,19.33,0.0,
5.826,75.48767168529771,74.90957047710148,-2.0,0.0,-1.0,0.0,1.0,0.0,0.0,0.0,0.0,0.0,1.08,19.42,0.0,
5.839,75.48076716852977,74.92795704771015,-2.0,0.0,-1.0,0.0,1.0,0.0,0.0,0.0,0.0,0.0,0.98,19.42,0.0,
5.853,75.48907671685298,74.97479570477101,-2.0,0.0,-1.0,0.0,1.0,0.0,0.0,0.0,0.0,0.0,0.98,19.33,0.0,
5.866,75.4989076716853,74.9884795704771,-2.0,0.0,-1.0,0.0,1.0,0.0,0.0,0.0,0.0,0.0,1.08,19.33,0.0,
5.879,75.48189076716854,74.9988479570477,-2.0,0.0,-1.0,0.0,1.0,0.0,0.0,0.0,0.0,0.0,1.08,19.33,0.0,
5.893,75.48918907671685,75.03588479570477,-2.0,0.0,-1.0,0.0,1.0,0.0,0.0,0.0,0.0,0.0,1.08,19.42,0.0,
5.906,75.55291890767168,75.01258847957048,-2.0,0.0,-1.0,0.0,1.0,0.0,0.0,0.0,0.0,0.0,1.08,19.33,0.0,
5.919,75.55929189076717,75.00125884795705,-2.0,0.0,-1.0,0.0,1.0,0.0,0.0,0.0,0.0,0.0,0.98,19.33,0.0,
5.933,75.57792918907673,75.02712588479571,-2.0,0.0,-1.0,0.0,1.0,0.0,0.0,0.0,0.0,0.0,1.08,19.33,0.0,
5.946,75.56179291890767,75.00271258847957,-2.0,0.0,-1.0,0.0,1.0,0.0,0.0,0.0,0.0,0.0,1.08,19.42,0.0,
5.959,75.52417929189077,74.93727125884797,-2.0,0.0,-1.0,0.0,1.0,0.0,0.0,0.0,0.0,0.0,1.08,19.42,0.0,
5.972,75.52041792918908,74.9487271258848,-2.0,0.0,-1.0,0.0,1.0,0.0,0.0,0.0,0.0,0.0,1.08,19.33,0.0,
5.986,75.52904179291892,74.94087271258847,-2.0,0.0,-1.0,0.0,1.0,0.0,0.0,0.0,0.0,0.0,1.08,19.42,0.0,
5.999,75.56590417929188,74.89508727125884,-2.0,0.0,-1.0,0.0,1.0,0.0,0.0,0.0,0.0,0.0,0.98,19.42,0.0,
6.012,75.53359041792919,74.90850872712588,-2.0,0.0,-1.0,0.0,1.0,0.0,0.0,0.0,0.0,0.0,0.98,19.42,0.0,
6.026,75.50335904179292,74.9278508727126,-2.0,0.0,-1.0,0.0,1.0,0.0,0.0,0.0,0.0,0.0,0.98,19.33,0.0,
6.039,75.4553359041793,74.94778508727126,-2.0,0.0,-1.0,0.0,1.0,0.0,0.0,0.0,0.0,0.0,1.08,19.33,0.0,
6.052,75.38753359041793,74.85977850872712,-2.0,0.0,-1.0,0.0,1.0,0.0,0.0,0.0,0.0,0.0,1.08,19.33,0.0,
6.066,75.41675335904179,74.85097785087271,-2.0,0.0,-1.0,0.0,1.0,0.0,0.0,0.0,0.0,0.0,1.08,19.33,0.0,
6.079,75.41967533590417,74.83209778508726,-2.0,0.0,-1.0,0.0,1.0,0.0,0.0,0.0,0.0,0.0,1.08,19.33,0.0,
6.092,75.41996753359041,74.80320977850872,-2.0,0.0,-1.0,0.0,1.0,0.0,0.0,0.0,0.0,0.0,1.08,19.42,0.0,
6.106,75.41999675335904,74.79132097785087,-2.0,0.0,-1.0,0.0,1.0,0.0,0.0,0.0,0.0,0.0,1.08,19.23,0.0,
6.119,75.4109996753359,74.78113209778509,-2.0,0.0,-1.0,0.0,0.0,0.0,0.0,0.0,0.0,0.0,1.08,19.33,0.0,
6.132,75.46409996753358,74.7711132097785,-2.0,0.0,-1.0,0.0,0.0,0.0,0.0,0.0,0.0,0.0,1.08,19.33,0.0,
6.146,75.48740999675336,74.78811132097786,-2.0,0.0,-1.0,0.0,1.0,0.0,0.0,0.0,0.0,0.0,0.98,19.33,0.0,
6.16,75.46274099967533,74.82581113209778,-2.0,0.0,-1.0,0.0,0.0,0.0,0.0,0.0,0.0,0.0,0.98,19.23,0.0,
6.173,75.47827409996754,74.80258111320977,-2.0,0.0,-1.0,0.0,1.0,0.0,0.0,0.0,0.0,0.0,0.98,19.23,0.0,
6.187,75.47082740999676,74.87225811132097,-2.0,0.0,-1.0,0.0,1.0,0.0,0.0,0.0,0.0,0.0,1.08,19.13,0.0,
6.2,75.47008274099967,74.8702258111321,-2.0,0.0,-1.0,0.0,1.0,0.0,0.0,0.0,0.0,0.0,1.08,19.13,0.0,
6.213,75.49700827409997,74.8880225811132,-2.0,0.0,-1.0,0.0,1.0,0.0,0.0,0.0,0.0,0.0,1.08,19.13,0.0,
6.226,75.49970082741,74.94380225811132,-2.0,0.0,-1.0,0.0,1.0,0.0,0.0,0.0,0.0,0.0,0.98,19.13,0.0,
6.24,75.481970082741,74.91338022581112,-2.0,0.0,-1.0,0.0,1.0,0.0,0.0,0.0,0.0,0.0,0.98,19.13,0.0,
6.253,75.4621970082741,74.91933802258112,-2.0,0.0,-1.0,0.0,1.0,0.0,0.0,0.0,0.0,0.0,0.98,19.03,0.0,
6.266,75.54121970082741,74.85693380225811,-2.0,0.0,-1.0,0.0,1.0,0.0,0.0,0.0,0.0,0.0,0.98,19.03,0.0,
6.28,75.54912197008275,74.84169338022582,-2.0,-1.0,-1.0,0.0,1.0,0.0,0.0,0.0,0.0,0.0,1.08,19.03,0.0,
6.293,75.54991219700828,74.85816933802258,-2.0,-1.0,-1.0,0.0,1.0,0.0,0.0,0.0,0.0,0.0,0.98,19.13,0.0,
6.306,75.51399121970083,74.84181693380226,-2.0,0.0,-1.0,0.0,1.0,0.0,0.0,0.0,0.0,0.0,1.08,19.13,0.0,
6.32,75.48339912197008,74.84918169338022,-2.0,-1.0,-1.0,0.0,1.0,0.0,0.0,0.0,0.0,0.0,1.08,19.13,0.0,
6.333,75.47133991219701,74.88591816933801,-2.0,0.0,-1.0,0.0,1.0,0.0,0.0,0.0,0.0,0.0,1.08,19.03,0.0,
6.346,75.4971339912197,74.9075918169338,-2.0,0.0,-1.0,0.0,1.0,0.0,0.0,0.0,0.0,0.0,1.08,19.03,0.0,
6.36,75.55371339912197,74.93675918169338,-2.0,0.0,-1.0,0.0,1.0,0.0,0.0,0.0,0.0,0.0,1.08,19.13,0.0,
6.373,75.5503713399122,74.89467591816933,-2.0,0.0,-1.0,0.0,1.0,0.0,0.0,0.0,0.0,0.0,1.08,19.03,0.0,
6.386,75.57703713399123,74.87246759181694,-2.0,0.0,-1.0,0.0,1.0,0.0,0.0,0.0,0.0,0.0,1.08,19.13,0.0,
6.4,75.51670371339912,74.88824675918168,-2.0,0.0,-1.0,0.0,1.0,0.0,0.0,0.0,0.0,0.0,0.98,19.13,0.0,
6.413,75.51967037133991,74.85382467591816,-2.0,0.0,-1.0,0.0,1.0,0.0,0.0,0.0,0.0,0.0,1.08,19.23,0.0,
6.426,75.492967037134,74.86838246759183,-2.0,0.0,-1.0,0.0,1.0,0.0,0.0,0.0,0.0,0.0,1.08,19.23,0.0,
6.439,75.5082967037134,74.86083824675917,-2.0,0.0,-1.0,0.0,1.0,0.0,0.0,0.0,0.0,0.0,0.98,19.13,0.0,
6.453,75.48282967037134,74.86008382467591,-2.0,0.0,-1.0,0.0,1.0,0.0,0.0,0.0,0.0,0.0,1.08,19.13,0.0,
6.466,75.45328296703714,74.86000838246758,-2.0,0.0,-1.0,0.0,1.0,0.0,0.0,0.0,0.0,0.0,1.08,19.23,0.0,
6.479,75.45032829670372,74.88700083824675,-2.0,0.0,-1.0,0.0,1.0,0.0,0.0,0.0,0.0,0.0,1.08,19.23,0.0,
6.493,75.48603282967038,74.90770008382466,-2.0,0.0,0.0,0.0,1.0,0.0,0.0,0.0,0.0,0.0,0.98,19.23,0.0,
6.506,75.49860328296704,74.93677000838247,-2.0,0.0,-1.0,0.0,1.0,0.0,0.0,0.0,0.0,0.0,0.98,19.33,0.0,
6.519,75.5178603282967,74.94867700083825,-2.0,0.0,0.0,0.0,1.0,0.0,0.0,0.0,0.0,0.0,1.08,19.33,0.0,
6.533,75.55578603282967,74.94986770008381,-2.0,0.0,-1.0,0.0,1.0,0.0,0.0,0.0,0.0,0.0,0.98,19.33,0.0,
6.546,75.61357860328297,74.98598677000838,-2.0,0.0,0.0,0.0,1.0,0.0,0.0,0.0,0.0,0.0,1.08,19.33,0.0,
6.559,75.6103578603283,74.98059867700084,-2.0,0.0,0.0,0.0,1.0,0.0,0.0,0.0,0.0,0.0,1.08,19.33,0.0,
6.573,75.55603578603284,74.95305986770008,-2.0,0.0,0.0,0.0,1.0,0.0,0.0,0.0,0.0,0.0,1.08,19.33,0.0,
6.586,75.55960357860329,75.01330598677,-2.0,0.0,-1.0,0.0,1.0,0.0,0.0,0.0,0.0,0.0,0.98,19.42,0.0,
6.599,75.53296035786033,74.974330598677,-2.0,0.0,0.0,0.0,1.0,0.0,0.0,0.0,0.0,0.0,0.98,19.42,0.0,
6.612,75.50329603578604,74.9884330598677,-2.0,-1.0,0.0,0.0,1.0,0.0,0.0,0.0,0.0,0.0,0.98,19.33,0.0,
6.626,75.4643296035786,75.06184330598677,-2.0,0.0,-1.0,0.0,1.0,0.0,0.0,0.0,0.0,0.0,0.98,19.33,0.0,
6.639,75.47843296035786,75.09618433059867,-2.0,0.0,-1.0,0.0,1.0,0.0,0.0,0.0,0.0,0.0,1.08,19.52,0.0,
6.652,75.47084329603578,75.07261843305987,-2.0,0.0,-1.0,0.0,1.0,0.0,0.0,0.0,0.0,0.0,0.98,19.42,0.0,
6.666,75.50608432960358,74.98026184330598,-2.0,0.0,-1.0,0.0,1.0,0.0,0.0,0.0,0.0,0.0,1.08,19.42,0.0,
6.679,75.54560843296036,74.9530261843306,-2.0,0.0,-1.0,0.0,1.0,0.0,0.0,0.0,0.0,0.0,0.98,19.42,0.0,
6.692,75.48656084329603,74.92330261843306,-2.0,0.0,-1.0,0.0,1.0,0.0,0.0,0.0,0.0,0.0,1.08,19.42,0.0,
6.706,75.43565608432962,74.8933302618433,-2.0,0.0,-1.0,0.0,1.0,0.0,0.0,0.0,0.0,0.0,1.08,19.33,0.0,
6.719,75.44856560843296,74.95333302618432,-2.0,0.0,-1.0,0.0,1.0,0.0,0.0,0.0,0.0,0.0,1.08,19.33,0.0,
6.732,75.5038565608433,74.98633330261843,-2.0,0.0,-1.0,0.0,1.0,0.0,0.0,0.0,0.0,0.0,1.08,19.42,0.0,
6.746,75.54538565608433,75.03463333026184,-2.0,0.0,-1.0,0.0,1.0,0.0,0.0,0.0,0.0,0.0,1.08,19.42,0.0,
6.759,75.61253856560845,75.03046333302618,-2.0,0.0,-1.0,0.0,1.0,0.0,0.0,0.0,0.0,0.0,1.08,19.42,0.0,
6.772,75.55625385656084,74.99404633330262,-2.0,0.0,-1.0,0.0,1.0,0.0,0.0,0.0,0.0,0.0,0.98,19.33,0.0,
6.786,75.55962538565609,74.96340463333026,-2.0,0.0,-1.0,0.0,1.0,0.0,0.0,0.0,0.0,0.0,1.08,19.33,0.0,
6.799,75.54196253856561,74.96034046333303,-2.0,0.0,-1.0,0.0,1.0,0.0,0.0,0.0,0.0,0.0,1.08,19.42,0.0,
6.812,75.59419625385655,75.00503404633331,-2.0,0.0,-1.0,0.0,1.0,0.0,0.0,0.0,0.0,0.0,0.98,19.33,0.0,
6.825,75.54541962538566,74.99150340463333,-2.0,0.0,-1.0,0.0,1.0,0.0,0.0,0.0,0.0,0.0,0.98,19.33,0.0,
6.839,75.46854196253857,75.01715034046333,-2.0,0.0,-1.0,0.0,1.0,0.0,0.0,0.0,0.0,0.0,0.98,19.33,0.0,
6.852,75.48785419625386,75.01071503404633,-2.0,0.0,-1.0,0.0,1.0,0.0,0.0,0.0,0.0,0.0,1.08,19.33,0.0,
6.865,75.5257854196254,75.00107150340463,-2.0,0.0,-1.0,0.0,1.0,0.0,0.0,0.0,0.0,0.0,1.08,19.33,0.0,
6.879,75.47557854196253,75.04510715034047,-2.0,0.0,0.0,0.0,1.0,0.0,0.0,0.0,0.0,0.0,0.98,19.33,0.0,
6.892,75.50655785419626,75.05851071503405,-2.0,0.0,0.0,0.0,1.0,0.0,0.0,0.0,0.0,0.0,1.08,19.23,0.0,
6.905,75.53665578541963,75.0868510715034,-2.0,0.0,0.0,0.0,1.0,0.0,0.0,0.0,0.0,0.0,1.08,19.23,0.0,
6.919,75.57566557854197,75.11668510715035,-3.0,0.0,0.0,0.0,1.0,0.0,0.0,0.0,0.0,0.0,1.08,19.33,0.0,
6.932,75.5165665578542,75.02966851071503,-3.0,0.0,0.0,0.0,1.0,0.0,0.0,0.0,0.0,0.0,0.98,19.33,0.0,
6.945,75.52865665578543,74.9849668510715,-3.0,0.0,0.0,0.0,1.0,0.0,0.0,0.0,0.0,0.0,0.98,19.33,0.0,
6.958,75.52986566557854,74.99849668510714,-3.0,0.0,0.0,0.0,1.0,0.0,0.0,0.0,0.0,0.0,1.08,19.33,0.0,
6.971,75.52998656655785,74.9818496685107,-3.0,0.0,0.0,0.0,1.0,0.0,0.0,0.0,0.0,0.0,0.98,19.33,0.0,
6.984,75.43099865665579,74.93518496685108,-3.0,0.0,0.0,0.0,1.0,0.0,0.0,0.0,0.0,0.0,0.98,19.42,0.0,
6.998,75.44809986566558,74.98451849668511,-3.0,1.0,0.0,0.0,1.0,0.0,0.0,0.0,0.0,0.0,0.98,19.52,0.0,
7.011,75.47680998656656,74.94445184966851,-3.0,0.0,0.0,0.0,1.0,0.0,0.0,0.0,0.0,0.0,1.08,19.52,0.0,
7.024,75.48868099865666,74.89544518496685,-3.0,0.0,0.0,0.0,1.0,0.0,0.0,0.0,0.0,0.0,0.98,19.52,0.0,
7.037,75.48986809986567,74.8995445184967,-3.0,0.0,0.0,0.0,1.0,0.0,0.0,0.0,0.0,0.0,0.98,19.52,0.0,
7.051,75.48998680998656,74.88195445184967,-3.0,1.0,0.0,0.0,0.0,0.0,0.0,0.0,0.0,0.0,0.98,19.52,0.0,
7.064,75.53499868099865,74.78119544518496,-3.0,0.0,0.0,0.0,0.0,0.0,0.0,0.0,0.0,0.0,1.08,19.52,0.0,
7.077,75.60249986809987,74.7891195445185,-3.0,0.0,0.0,0.0,0.0,0.0,0.0,0.0,0.0,0.0,1.08,19.52,0.0,
7.091,75.62724998680997,74.78991195445185,-2.0,0.0,-1.0,0.0,1.0,0.0,0.0,0.0,0.0,0.0,0.98,19.52,0.0,
7.104,75.71072499868099,74.79899119544518,-2.0,0.0,0.0,0.0,1.0,0.0,0.0,0.0,0.0,0.0,0.98,19.52,0.0,
7.117,75.71007249986809,74.8178991195445,-1.0,-1.0,0.0,0.0,1.0,0.0,0.0,0.0,0.0,0.0,0.98,20.01,0.0,
7.131,75.67400724998681,74.81078991195446,-1.0,-1.0,0.0,0.0,1.0,0.0,0.0,0.0,0.0,0.0,0.98,20.31,0.0,
7.144,75.62540072499868,74.82807899119544,-1.0,0.0,0.0,0.0,1.0,0.0,0.0,0.0,0.0,0.0,1.08,20.4,0.0,
7.157,75.51254007249987,74.85680789911953,-2.0,0.0,0.0,0.0,1.0,0.0,0.0,0.0,0.0,0.0,1.08,20.31,0.0,
7.171,75.51925400724998,74.82368078991195,-2.0,1.0,0.0,0.0,1.0,0.0,0.0,0.0,0.0,0.0,0.98,20.21,0.0,
7.184,75.56492540072499,74.8653680789912,-2.0,1.0,0.0,0.0,1.0,0.0,0.0,0.0,0.0,0.0,0.98,20.01,0.0,
7.197,75.5874925400725,74.89653680789912,-2.0,0.0,0.0,0.0,1.0,0.0,0.0,0.0,0.0,0.0,0.98,20.01,0.0,
7.211,75.56274925400726,74.92665368078993,-3.0,1.0,1.0,0.0,1.0,0.0,0.0,0.0,0.0,0.0,0.98,19.91,0.0,
7.223,75.63227492540074,74.97466536807899,-3.0,1.0,1.0,0.0,1.0,0.0,0.0,0.0,0.0,0.0,1.08,19.82,0.0,
7.236,75.68422749254006,74.95246653680789,-4.0,1.0,2.0,0.0,1.0,0.0,0.0,0.0,0.0,0.0,1.08,19.52,0.0,
7.249,75.68942274925399,74.98624665368078,-5.0,1.0,1.0,0.0,1.0,0.0,0.0,0.0,0.0,0.0,1.08,19.23,0.0,
7.263,75.74394227492539,75.03462466536809,-5.0,2.0,1.0,0.0,1.0,0.0,0.0,0.0,0.0,0.0,0.98,19.03,0.0,
7.276,75.79439422749253,75.0484624665368,-6.0,4.0,1.0,0.0,1.0,0.0,0.0,0.0,0.0,0.0,1.08,18.93,0.0,
7.289,75.84443942274925,75.05884624665369,-7.0,4.0,2.0,0.0,1.0,0.0,0.0,0.0,0.0,0.0,1.08,18.74,0.0,
7.303,75.97544394227492,74.82588462466536,-6.0,2.0,2.0,0.0,1.0,0.0,0.0,0.0,0.0,0.0,0.98,18.64,0.0,
7.316,76.0335443942275,74.66758846246654,-6.0,2.0,2.0,0.0,1.0,0.0,0.0,0.0,0.0,0.0,0.88,18.54,0.0,
7.329,76.03935443942275,74.60675884624665,-4.0,0.0,1.0,0.0,1.0,0.0,0.0,0.0,0.0,0.0,0.98,18.84,0.0,
7.343,76.05793544394228,74.62767588462467,-4.0,-1.0,1.0,0.0,1.0,0.0,0.0,0.0,0.0,0.0,0.88,18.93,0.0,
7.356,75.95179354439423,74.58476758846247,-5.0,-3.0,1.0,0.0,1.0,0.0,0.0,0.0,0.0,0.0,0.88,19.03,0.0,
7.369,75.77017935443942,74.51747675884626,-5.0,-1.0,1.0,0.0,1.0,0.0,0.0,0.0,0.0,0.0,0.88,19.23,0.0,
7.383,75.64401793544394,74.55574767588462,-5.0,1.0,1.0,0.0,1.0,0.0,0.0,0.0,0.0,0.0,0.88,19.62,0.0,
7.396,75.6944017935444,74.55957476758846,-5.0,3.0,0.0,0.0,1.0,0.0,0.0,0.0,0.0,0.0,0.88,20.01,0.0,
7.409,75.78944017935444,74.52395747675884,-5.0,2.0,0.0,0.0,1.0,0.0,0.0,0.0,0.0,0.0,0.78,20.31,0.0,
7.422,75.78994401793545,74.43939574767589,-4.0,0.0,0.0,0.0,1.0,0.0,0.0,0.0,0.0,0.0,0.78,20.7,0.0,
7.436,75.79899440179355,74.35893957476758,-4.0,0.0,0.0,0.0,1.0,0.0,0.0,0.0,0.0,0.0,0.78,21.09,0.0,
7.449,75.80889944017935,74.30589395747675,-3.0,0.0,0.0,0.0,1.0,0.0,0.0,0.0,0.0,0.0,0.78,22.17,0.0,
7.461,75.66588994401795,74.30058939574768,-3.0,0.0,0.0,0.0,1.0,0.0,0.0,0.0,0.0,0.0,0.78,22.76,0.0,
7.475,75.6155889944018,74.28205893957477,-3.0,3.0,-2.0,0.0,1.0,0.0,0.0,0.0,0.0,0.0,0.78,23.54,0.0,
7.488,75.61055889944018,74.25320589395747,-3.0,1.0,-3.0,0.0,1.0,0.0,0.0,0.0,0.0,0.0,0.69,24.13,0.0,
7.501,75.601055889944,74.31332058939574,-3.0,3.0,-4.0,0.0,1.0,0.0,0.0,0.0,0.0,0.0,0.69,24.82,0.0,
7.515,75.71710558899441,74.31933205893957,-4.0,7.0,-5.0,0.0,0.0,0.0,0.0,0.0,0.0,0.0,0.78,26.39,0.0,
7.528,75.81871055889944,74.32893320589396,-4.0,8.0,-5.0,0.0,0.0,0.0,0.0,0.0,0.0,0.0,0.69,27.37,0.0,
7.541,76.01787105588996,74.19489332058941,-4.0,7.0,-5.0,0.0,0.0,0.0,0.0,0.0,0.0,0.0,0.69,28.35,0.0,
7.556,76.190787105589,74.11848933205894,-5.0,7.0,-6.0,0.0,0.0,0.0,0.0,0.0,0.0,0.0,0.69,29.23,0.0,
7.569,76.3430787105589,74.07484893320589,-6.0,5.0,-6.0,0.0,0.0,0.0,0.0,0.0,0.0,0.0,0.69,30.12,0.0,
7.582,76.3223078710559,74.07048489332058,-7.0,6.0,-7.0,0.0,0.0,0.0,0.0,0.0,0.0,0.0,0.69,32.27,0.0,
7.596,76.37423078710559,73.98904848933206,-10.0,17.0,-9.0,0.0,0.0,0.0,0.0,0.0,0.0,0.0,0.69,33.55,0.0,
7.609,76.67642307871056,73.8549048489332,-10.0,17.0,-7.0,0.0,0.0,0.0,0.0,0.0,0.0,0.0,0.59,34.83,0.0,
7.622,77.06664230787105,73.76949048489332,-9.0,9.0,-7.0,0.0,0.0,0.0,0.0,0.0,0.0,0.0,0.49,36.0,0.0,
7.635,77.6006642307871,73.42794904848934,-11.0,3.0,-3.0,0.0,0.0,0.0,0.0,0.0,0.0,0.0,0.39,37.18,0.0,
7.649,77.82506642307871,72.97079490484893,-6.0,-3.0,0.0,0.0,0.0,0.0,0.0,0.0,0.0,0.0,0.39,39.44,0.0,
7.662,77.87450664230786,72.9340794904849,-1.0,-7.0,0.0,0.0,0.0,0.0,0.0,0.0,0.0,0.0,0.29,40.61,0.0,
7.675,77.7174506642308,73.11040794904848,-2.0,-12.0,2.0,0.0,0.0,0.0,0.0,0.0,0.0,0.0,0.29,42.18,0.0,
7.689,77.43174506642309,73.27204079490485,-3.0,-8.0,2.0,0.0,0.0,0.0,0.0,0.0,0.0,0.0,0.29,44.05,0.0,
7.702,77.59217450664231,73.2882040794905,-1.0,-8.0,4.0,0.0,0.0,0.0,0.0,0.0,0.0,0.0,0.29,45.71,0.0,
7.715,77.84221745066424,72.92082040794905,-1.0,-12.0,4.0,0.0,0.0,0.0,0.0,0.0,0.0,0.0,0.29,48.76,0.0,
7.729,77.83122174506641,72.51508204079491,0.0,-19.0,9.0,0.0,0.0,0.0,0.0,0.0,0.0,0.0,0.29,50.82,0.0,
7.742,77.12812217450664,72.92450820407949,3.0,-28.0,14.0,0.0,0.0,0.0,0.0,0.0,0.0,0.0,0.29,53.37,0.0,
7.756,76.33781221745066,73.14545082040796,6.0,-22.0,10.0,0.0,0.0,0.0,0.0,0.0,0.0,0.0,0.29,56.51,0.0,
7.77,75.92578122174507,73.13154508204079,5.0,-12.0,10.0,0.0,0.0,0.0,0.0,0.0,0.0,0.0,0.39,61.12,0.0,
7.783,75.9475781221745,73.22915450820408,4.0,-18.0,7.0,0.0,0.0,0.0,0.0,0.0,0.0,0.0,0.49,62.59,0.0,
7.796,75.42775781221746,73.3919154508204,4.0,-13.0,5.0,0.0,0.0,0.0,0.0,0.0,0.0,0.0,0.49,64.16,0.0,
7.81,75.16877578122175,73.88519154508205,2.0,-11.0,10.0,0.0,0.0,0.0,0.0,0.0,0.0,0.0,0.49,65.83,0.0,
7.823,74.95387757812219,74.2585191545082,3.0,-17.0,12.0,0.0,0.0,0.0,0.0,0.0,0.0,0.0,0.49,67.3,0.0,
7.837,74.54538775781222,74.25985191545082,5.0,-12.0,8.0,0.0,0.0,0.0,0.0,0.0,0.0,0.0,0.88,69.95,0.0,
7.851,74.26153877578122,74.17898519154508,5.0,-17.0,4.0,0.0,1.0,0.0,0.0,0.0,0.0,0.0,0.88,71.22,0.0,
7.864,73.81015387757812,74.31489851915451,1.0,-8.0,7.0,0.0,1.0,0.0,0.0,0.0,0.0,0.0,0.69,72.4,0.39,
7.877,73.47701538775782,74.63448985191545,1.0,-7.0,4.0,0.0,1.0,0.0,0.0,0.0,0.0,0.0,0.69,73.48,0.59,
7.89,73.19170153877577,74.85544898519154,-3.0,-3.0,2.0,0.0,1.0,0.0,0.0,0.0,0.0,0.0,0.69,74.65,0.59,
7.905,73.02817015387758,74.94954489851915,-3.0,1.0,-1.0,0.0,1.0,0.0,0.0,0.0,0.0,0.0,0.69,77.99,0.59,
7.918,73.07481701538777,74.8599544898519,-4.0,0.0,0.0,0.0,1.0,0.0,0.0,0.0,0.0,0.0,0.59,79.85,0.49,
7.931,73.14248170153878,74.6169954489852,-3.0,4.0,0.0,0.0,1.0,0.0,0.0,0.0,0.0,0.0,0.49,81.72,0.49,
7.945,73.15824817015387,74.37669954489851,-1.0,3.0,2.0,0.0,1.0,0.0,0.0,0.0,0.0,0.0,0.49,83.68,0.49,
7.958,73.13282481701538,74.53266995448985,-1.0,2.0,1.0,0.0,1.0,0.0,0.0,0.0,0.0,0.0,0.49,88.98,0.49,
7.972,73.21128248170153,74.55726699544898,-1.0,0.0,3.0,0.0,1.0,0.0,0.0,0.0,0.0,0.0,0.49,92.51,0.49,
7.986,73.26412824817015,74.3527266995449,1.0,7.0,3.0,0.0,1.0,0.0,0.0,0.0,0.0,0.0,0.49,96.53,0.69,
7.999,73.38641282481701,74.3952726699545,0.0,3.0,6.0,0.0,1.0,0.0,0.0,0.0,0.0,0.0,0.39,100.94,0.69,
8.012,73.62364128248171,74.50752726699545,2.0,7.0,1.0,0.0,1.0,0.0,0.0,0.0,0.0,0.0,0.49,105.46,0.78,
8.026,73.51236412824818,74.66275272669955,2.0,8.0,3.0,0.0,1.0,0.0,0.0,0.0,0.0,0.0,0.49,113.99,0.98,
8.039,73.62723641282481,74.86727527266996,1.0,-1.0,4.0,1.0,1.0,0.0,0.0,0.0,0.0,0.0,0.39,117.62,1.18,
8.053,73.71072364128248,74.707727527267,2.0,5.0,2.0,1.0,1.0,0.0,0.0,0.0,0.0,0.0,0.49,120.37,1.37,
8.067,73.85407236412826,74.6017727527267,3.0,3.0,5.0,1.0,2.0,0.0,0.0,0.0,0.0,0.0,0.59,122.72,1.57,
8.08,74.07540723641281,74.60917727527267,6.0,1.0,7.0,1.0,2.0,1.0,0.0,0.0,0.0,0.0,0.49,126.25,1.96,
8.093,73.89054072364128,74.92491772752726,10.0,1.0,7.0,2.0,2.0,1.0,0.0,0.0,0.0,0.0,0.49,127.24,2.35,
8.107,74.34905407236414,75.74849177275273,7.0,-10.0,7.0,2.0,3.0,1.0,0.0,0.0,0.0,0.0,0.78,127.63,2.94,
8.121,74.29590540723642,76.10984917727528,7.0,4.0,2.0,2.0,3.0,1.0,0.0,0.0,0.0,0.0,1.18,127.63,4.32,
8.134,74.16459054072365,76.09198491772753,7.0,2.0,6.0,3.0,3.0,1.0,0.0,0.0,0.0,0.0,1.67,127.53,4.81,
8.147,74.11545905407236,75.95519849177276,8.0,0.0,4.0,3.0,3.0,2.0,0.0,0.0,0.0,0.0,2.16,127.24,5.4,
8.161,74.05654590540723,76.43651984917727,4.0,1.0,0.0,3.0,3.0,2.0,0.0,0.0,0.0,0.0,2.75,126.84,5.89,
8.175,73.98765459054073,76.57465198491774,4.0,-2.0,4.0,3.0,4.0,2.0,0.0,0.0,0.0,0.0,4.32,126.55,7.06,
8.188,73.87276545905408,76.40846519849178,7.0,1.0,2.0,3.0,4.0,2.0,0.0,0.0,0.0,0.0,5.1,126.55,7.65,
8.202,73.78927654590541,76.38284651984918,9.0,6.0,0.0,4.0,4.0,2.0,0.0,0.0,0.0,0.0,5.79,125.96,8.24,
8.216,74.01492765459055,76.88428465198491,10.0,4.0,-1.0,4.0,4.0,2.0,0.0,0.0,0.0,0.0,6.57,124.19,9.03,
8.229,74.08249276545907,77.07842846519848,12.0,3.0,0.0,4.0,4.0,2.0,0.0,0.0,1.0,0.0,7.55,121.25,11.18,
8.244,73.9992492765459,77.37684284651985,11.0,0.0,0.0,4.0,4.0,2.0,0.0,0.0,1.0,0.0,9.81,117.62,12.36,
8.257,73.9279249276546,77.54168428465198,10.0,3.0,0.0,4.0,4.0,2.0,0.0,0.0,1.0,0.0,11.09,109.48,13.44,
8.271,73.96579249276547,77.7381684284652,11.0,10.0,-2.0,4.0,5.0,2.0,0.0,0.0,1.0,0.0,12.26,105.26,14.52,
8.286,74.23957924927655,77.90181684284651,8.0,8.0,-2.0,4.0,5.0,2.0,0.0,0.0,1.0,0.0,13.34,100.85,16.78,
8.299,74.34795792492766,78.07118168428465,3.0,2.0,0.0,4.0,5.0,2.0,0.0,0.0,1.0,0.0,15.21,96.53,17.66,
8.313,74.43079579249276,78.24111816842847,2.0,1.0,-1.0,4.0,5.0,2.0,0.0,0.0,1.0,0.0,15.79,89.57,18.34,
8.327,74.49307957924927,78.33911181684284,2.0,2.0,-2.0,4.0,5.0,2.0,0.0,0.0,1.0,0.0,16.28,87.21,18.84,
8.341,74.46330795792493,78.5649111816843,2.0,3.0,-2.0,4.0,5.0,2.0,0.0,0.0,1.0,0.0,16.68,85.05,19.33,
8.355,75.0183307957925,79.09149111816845,2.0,2.0,-2.0,4.0,5.0,2.0,0.0,0.0,1.0,0.0,16.97,82.6,19.42,
8.369,75.04683307957924,79.13514911181684,0.0,9.0,-7.0,4.0,5.0,2.0,0.0,0.0,1.0,0.0,16.87,77.3,19.33,
8.383,75.14868330795792,79.20251491118168,-2.0,7.0,-7.0,4.0,5.0,2.0,0.0,0.0,1.0,0.0,16.58,74.95,19.13,
8.396,75.4018683307958,79.20925149111817,-2.0,12.0,-11.0,3.0,5.0,2.0,0.0,0.0,1.0,0.0,16.19,72.79,18.34,
8.411,75.14818683307958,79.38092514911182,-5.0,0.0,-2.0,3.0,4.0,2.0,0.0,0.0,1.0,0.0,15.7,71.22,17.85,
8.425,75.04181868330795,79.49709251491119,-6.0,3.0,-6.0,2.0,4.0,2.0,0.0,0.0,1.0,0.0,14.42,69.55,17.17,
8.438,75.19318186833078,79.43670925149112,0.0,10.0,-11.0,2.0,4.0,1.0,0.0,0.0,1.0,0.0,13.54,68.67,16.48,
8.453,75.11831818683308,79.34967092514911,-3.0,3.0,-5.0,2.0,3.0,1.0,0.0,0.0,1.0,0.0,12.65,66.9,15.01,
8.467,75.27283181868331,79.3229670925149,0.0,8.0,-10.0,1.0,3.0,1.0,0.0,0.0,1.0,0.0,11.77,64.16,14.32,
8.48,75.59428318186832,79.3832967092515,1.0,11.0,-9.0,1.0,2.0,1.0,0.0,0.0,1.0,0.0,10.01,57.09,13.64,
8.495,75.77042831818684,79.31732967092515,-1.0,9.0,-7.0,1.0,2.0,1.0,0.0,0.0,1.0,0.0,9.42,53.17,13.15,
8.508,75.9860428318187,79.29273296709252,-1.0,12.0,-10.0,0.0,2.0,1.0,0.0,0.0,1.0,0.0,8.83,49.25,12.26,
8.522,77.07860428318187,79.32627329670926,-6.0,0.0,-2.0,0.0,2.0,1.0,0.0,0.0,1.0,0.0,8.44,45.13,11.97,
8.536,77.12486042831819,79.02362732967092,-8.0,-2.0,-2.0,0.0,2.0,1.0,0.0,0.0,1.0,0.0,7.65,38.06,11.67,
8.55,77.38148604283181,78.8313627329671,-6.0,-1.0,-1.0,0.0,2.0,1.0,0.0,0.0,1.0,0.0,7.55,36.79,11.38,
8.563,77.18214860428319,78.82113627329672,-8.0,-5.0,3.0,1.0,3.0,1.0,0.0,0.0,1.0,0.0,7.55,36.3,10.79,
8.578,77.19821486042832,78.66711362732968,-8.0,-5.0,2.0,1.0,3.0,1.0,0.0,0.0,1.0,0.0,7.55,36.3,10.5,
8.592,77.19982148604284,78.53471136273296,-11.0,-12.0,5.0,1.0,3.0,1.0,0.0,0.0,1.0,0.0,954.91,37.67,10.4,
8.605,76.83998214860429,78.2424711362733,-11.0,-12.0,6.0,1.0,3.0,1.0,0.0,0.0,1.0,0.0,0.0,38.95,10.01,
8.62,76.49799821486042,78.21324711362732,-8.0,-7.0,3.0,2.0,3.0,1.0,0.0,0.0,1.0,0.0,8.63,41.01,10.1,
8.634,76.12179982148604,78.03032471136274,-7.0,-8.0,1.0,2.0,3.0,1.0,0.0,0.0,1.0,0.0,9.03,43.46,10.2,
8.647,75.8051799821486,77.91303247113629,-3.0,-8.0,0.0,2.0,3.0,2.0,0.0,0.0,1.0,0.0,9.52,48.36,10.3,
8.662,75.81851799821486,77.75730324711363,0.0,-7.0,0.0,2.0,4.0,2.0,0.0,0.0,1.0,0.0,10.4,50.52,11.18,
8.675,75.58585179982148,77.78673032471137,-2.0,-13.0,-1.0,2.0,4.0,2.0,0.0,0.0,1.0,0.0,10.99,51.99,11.87,
8.689,75.08558517998215,77.86167303247115,-1.0,-7.0,-4.0,3.0,4.0,2.0,0.0,0.0,1.0,0.0,11.67,52.88,12.65,
8.704,74.72055851799821,77.77016730324712,1.0,-3.0,-6.0,3.0,4.0,2.0,0.0,0.0,1.0,0.0,12.36,55.23,13.34,
8.718,74.34205585179983,77.86901673032472,2.0,7.0,-7.0,3.0,4.0,2.0,0.0,0.0,1.0,0.0,13.05,56.11,14.91,
8.731,74.39420558517999,78.03190167303248,2.0,7.0,-4.0,3.0,4.0,2.0,0.0,0.0,1.0,0.0,13.24,56.11,15.99,
8.745,74.444420558518,78.19219016730324,1.0,5.0,0.0,3.0,4.0,2.0,0.0,0.0,1.0,0.0,13.54,53.86,16.97,
8.759,74.5484420558518,78.27121901673033,1.0,4.0,0.0,3.0,4.0,2.0,0.0,0.0,1.0,0.0,13.73,52.09,17.95,
8.773,74.79284420558517,78.26112190167305,3.0,3.0,0.0,3.0,4.0,2.0,0.0,0.0,2.0,0.0,14.52,50.13,20.01,
8.786,75.10528442055852,78.2781121901673,4.0,-5.0,2.0,3.0,4.0,2.0,0.0,0.0,2.0,0.0,15.01,47.68,21.09,
8.801,75.40652844205584,78.18981121901673,8.0,-14.0,4.0,3.0,4.0,2.0,0.0,0.0,2.0,0.0,15.7,45.13,22.07,
8.814,75.47265284420558,78.02798112190168,12.0,-26.0,6.0,3.0,4.0,2.0,0.0,1.0,2.0,0.0,16.48,39.34,23.05,
8.828,75.06526528442056,78.32679811219016,14.0,-22.0,2.0,3.0,4.0,2.0,0.0,1.0,2.0,0.0,18.54,36.1,24.62,
8.843,74.44852652844204,78.41067981121901,14.0,-19.0,1.0,3.0,5.0,2.0,0.0,2.0,2.0,0.0,19.82,32.96,25.41,
8.857,74.20685265284422,78.8060679811219,14.0,-13.0,3.0,3.0,5.0,2.0,0.0,2.0,2.0,0.0,21.09,27.57,26.19,
8.87,73.97568526528443,79.00760679811219,16.0,-9.0,6.0,3.0,5.0,2.0,0.0,2.0,3.0,0.0,22.27,25.02,26.88,
8.885,73.88956852652845,79.01876067981121,16.0,-10.0,4.0,3.0,5.0,2.0,0.0,3.0,3.0,0.0,24.62,22.46,27.76,
8.899,73.74595685265284,78.65087606798112,15.0,-24.0,11.0,3.0,5.0,2.0,0.0,3.0,3.0,0.0,26.09,20.01,28.25,
8.912,74.00159568526529,78.99208760679812,29.0,-9.0,0.0,3.0,5.0,2.0,0.0,4.0,3.0,0.0,27.76,15.21,28.94,
8.927,73.53215956852654,79.7462087606798,33.0,-10.0,6.0,2.0,6.0,2.0,0.0,4.0,3.0,0.0,29.63,12.56,29.82,
8.941,74.02521595685265,80.82062087606798,30.0,-9.0,0.0,2.0,6.0,2.0,0.0,4.0,3.0,0.0,32.96,10.1,31.2,
8.955,74.10152159568526,81.1980620876068,42.0,-22.0,3.0,2.0,6.0,2.0,0.0,5.0,4.0,0.0,34.24,7.95,31.69,
8.969,73.48815215956853,81.89280620876067,28.0,-21.0,-4.0,1.0,6.0,2.0,0.0,5.0,4.0,0.0,35.51,4.22,32.18,
8.983,72.48181521595686,83.19528062087606,23.0,-16.0,-1.0,1.0,6.0,2.0,0.0,5.0,4.0,0.0,36.79,2.75,33.45,
8.997,71.69718152159568,84.23452806208759,21.0,-1.0,-1.0,1.0,6.0,2.0,0.0,6.0,4.0,0.0,39.04,1.77,33.94,
9.012,71.34871815215956,84.54545280620876,13.0,5.0,-1.0,1.0,6.0,2.0,0.0,6.0,4.0,0.0,39.63,0.98,34.34,
9.025,71.39487181521596,84.86454528062089,8.0,7.0,0.0,0.0,6.0,2.0,0.0,6.0,4.0,0.0,39.93,0.78,34.73,
9.039,71.4804871815216,85.02245452806208,6.0,5.0,0.0,0.0,6.0,1.0,0.0,6.0,5.0,0.0,39.83,0.49,34.92,
9.053,71.69604871815216,85.09224545280621,2.0,4.0,1.0,0.0,6.0,1.0,0.0,6.0,5.0,0.0,39.53,0.29,34.83,
9.067,71.81660487181522,85.57622454528061,-4.0,6.0,-6.0,0.0,5.0,1.0,0.0,5.0,4.0,0.0,38.36,0.0,34.63,
9.081,71.45966048718152,87.24462245452807,-22.0,11.0,-14.0,0.0,5.0,1.0,0.0,4.0,4.0,0.0,37.28,0.0,34.24,
9.095,70.90196604871815,90.35446224545282,-57.0,33.0,-17.0,0.0,5.0,1.0,0.0,3.0,3.0,0.0,35.32,0.29,31.49,
9.109,75.14819660487183,89.42344622454527,-89.0,48.0,3.0,0.0,4.0,1.0,0.0,2.0,2.0,0.0,31.88,0.88,28.55,
9.123,80.54081966048717,84.52434462245454,-75.0,-19.0,8.0,2.0,5.0,2.0,0.0,2.0,2.0,0.0,20.9,4.41,24.72,
9.138,79.28908196604873,83.61143446224546,-54.0,-50.0,-13.0,3.0,5.0,2.0,0.0,3.0,3.0,0.0,17.85,11.67,21.39,
9.152,77.20190819660486,84.65414344622454,-23.0,-34.0,11.0,4.0,5.0,3.0,0.0,3.0,3.0,0.0,18.44,26.0,19.03,
9.165,75.01319081966048,83.87641434462245,2.0,-7.0,-6.0,4.0,5.0,3.0,0.0,3.0,3.0,0.0,20.9,42.18,18.05,
9.18,73.65131908196605,83.35764143446224,9.0,26.0,-8.0,4.0,5.0,2.0,0.0,3.0,3.0,0.0,24.52,53.66,17.27,
9.194,74.12713190819662,83.42276414344623,2.0,26.0,-4.0,4.0,5.0,2.0,0.0,3.0,3.0,0.0,24.43,49.25,16.48,
9.207,74.63371319081966,83.17727641434463,-5.0,17.0,-4.0,3.0,5.0,2.0,0.0,3.0,3.0,0.0,23.64,43.65,16.28,
9.222,74.81937131908197,83.12572764143447,-14.0,16.0,-3.0,3.0,5.0,2.0,0.0,2.0,2.0,0.0,22.46,39.93,16.09,
9.236,74.9639371319082,82.27457276414344,-19.0,15.0,1.0,3.0,4.0,2.0,0.0,2.0,2.0,0.0,19.52,40.71,15.4,
9.25,75.37439371319081,81.17245727641433,-11.0,5.0,0.0,3.0,4.0,2.0,0.0,2.0,2.0,0.0,17.66,44.83,13.05,
9.264,75.40643937131908,80.72024572764144,-7.0,-6.0,1.0,3.0,5.0,2.0,0.0,2.0,2.0,0.0,16.19,49.25,12.16,
9.278,75.20264393713191,80.41402457276413,-5.0,-8.0,0.0,3.0,4.0,2.0,0.0,2.0,2.0,0.0,15.5,52.78,11.58,
9.291,74.92126439371319,80.11340245727641,-3.0,-9.0,-1.0,3.0,4.0,2.0,0.0,2.0,2.0,0.0,15.3,52.58,11.09,
9.306,74.62312643937132,79.93034024572763,-2.0,-10.0,-2.0,3.0,4.0,2.0,0.0,1.0,2.0,0.0,15.21,51.89,10.4,
9.32,74.36831264393713,79.87603402457277,-1.0,-9.0,-4.0,3.0,4.0,2.0,0.0,1.0,2.0,0.0,15.11,51.01,10.2,
9.334,74.06383126439373,79.94260340245728,-3.0,-5.0,-7.0,2.0,4.0,2.0,0.0,1.0,2.0,0.0,14.81,49.25,9.91,
9.348,73.79938312643937,80.04826034024573,-9.0,0.0,-7.0,2.0,4.0,2.0,0.0,1.0,1.0,0.0,13.73,49.34,9.03,
9.362,73.73693831264393,79.92382603402457,-12.0,6.0,-6.0,2.0,3.0,1.0,0.0,0.0,1.0,0.0,12.65,50.91,8.34,
9.376,73.81169383126439,79.40738260340245,-9.0,5.0,0.0,2.0,3.0,1.0,0.0,0.0,1.0,0.0,11.67,54.25,7.65,
9.39,73.85516938312644,79.20273826034025,-5.0,-2.0,1.0,2.0,3.0,1.0,0.0,0.0,1.0,0.0,10.79,62.39,7.06,
9.404,73.68851693831265,79.21827382603402,-4.0,0.0,0.0,2.0,3.0,2.0,0.0,0.0,1.0,0.0,10.1,64.26,6.67,
9.417,73.59985169383127,79.1388273826034,-4.0,0.0,0.0,2.0,3.0,1.0,0.0,0.0,1.0,0.0,10.3,64.55,6.57,
9.432,73.59098516938313,79.13088273826034,-4.0,1.0,0.0,2.0,3.0,1.0,0.0,0.0,1.0,0.0,10.3,63.96,6.47,
9.445,73.61709851693833,79.08508827382603,-4.0,1.0,-1.0,2.0,3.0,1.0,0.0,0.0,1.0,0.0,10.3,62.39,6.38,
9.459,73.71870985169383,79.03550882738261,-4.0,0.0,-3.0,2.0,3.0,1.0,0.0,0.0,1.0,0.0,10.3,62.1,6.08,
9.473,73.69287098516938,78.92255088273826,-4.0,0.0,-4.0,2.0,3.0,1.0,0.0,0.0,1.0,0.0,9.81,62.2,5.89,
9.487,73.62728709851694,78.88425508827383,-4.0,1.0,-6.0,1.0,3.0,1.0,0.0,0.0,1.0,0.0,9.61,62.39,5.69,
9.5,73.66572870985169,78.80842550882738,-5.0,3.0,-6.0,1.0,3.0,1.0,0.0,0.0,1.0,0.0,9.22,63.27,5.4,
9.515,73.74157287098517,78.72884255088273,-4.0,1.0,-4.0,1.0,3.0,1.0,0.0,0.0,1.0,0.0,8.83,63.96,5.1,
9.528,73.75815728709851,78.64888425508826,-3.0,0.0,-3.0,1.0,3.0,1.0,0.0,0.0,1.0,0.0,7.85,64.75,4.61,
9.542,73.76881572870985,78.58688842550882,-3.0,0.0,-2.0,1.0,3.0,1.0,0.0,0.0,1.0,0.0,7.65,65.14,4.41,
9.555,73.76088157287099,78.55368884255087,-2.0,0.0,-1.0,1.0,2.0,1.0,0.0,0.0,1.0,0.0,7.36,64.65,4.22,
9.57,73.8230881572871,78.47836888425509,-1.0,-1.0,-1.0,1.0,2.0,1.0,0.0,0.0,1.0,0.0,7.26,64.06,4.22,
9.583,73.84730881572871,78.5158368884255,0.0,-2.0,0.0,1.0,2.0,1.0,0.0,0.0,1.0,0.0,7.06,63.08,3.92,
9.596,73.89473088157287,78.52858368884256,0.0,-4.0,0.0,1.0,3.0,1.0,0.0,0.0,1.0,0.0,6.97,61.7,3.83,
9.611,73.85447308815729,78.53885836888426,0.0,-4.0,0.0,1.0,3.0,1.0,0.0,0.0,1.0,0.0,6.97,58.27,3.92,
9.624,73.76944730881573,78.53988583688843,-1.0,-2.0,-1.0,1.0,3.0,1.0,0.0,0.0,1.0,0.0,7.06,56.8,3.83,
9.638,73.69794473088157,78.58498858368885,-1.0,-2.0,0.0,1.0,3.0,1.0,0.0,0.0,1.0,0.0,7.06,55.52,3.83,
9.652,73.60079447308817,78.60749885836888,-1.0,-2.0,0.0,1.0,3.0,1.0,0.0,0.0,1.0,0.0,6.97,54.54,3.83,
9.666,73.58207944730881,78.65474988583688,-1.0,0.0,0.0,1.0,3.0,1.0,0.0,0.0,1.0,0.0,6.97,53.66,3.83,
9.679,73.63420794473087,78.65947498858368,-1.0,-1.0,0.0,1.0,2.0,1.0,0.0,0.0,1.0,0.0,7.06,51.89,3.73,
9.694,73.6484207944731,78.65094749885837,-2.0,-1.0,0.0,1.0,2.0,1.0,0.0,0.0,1.0,0.0,7.06,51.01,3.73,
9.707,73.61384207944731,78.59609474988585,-2.0,-2.0,0.0,1.0,2.0,1.0,0.0,0.0,1.0,0.0,7.06,50.13,3.73,
9.721,73.64638420794473,78.5096094749886,-2.0,-3.0,0.0,1.0,2.0,1.0,0.0,0.0,1.0,0.0,6.87,49.25,3.63,
9.735,73.57763842079447,78.50996094749887,-2.0,-3.0,0.0,1.0,2.0,1.0,0.0,0.0,1.0,0.0,6.87,47.28,3.43,
9.748,73.58876384207946,78.5009960947499,-2.0,-4.0,0.0,1.0,2.0,1.0,0.0,0.0,1.0,0.0,6.77,46.3,3.24,
9.762,73.53587638420795,78.500099609475,-1.0,-5.0,-1.0,1.0,2.0,1.0,0.0,0.0,1.0,0.0,6.67,45.32,3.04,
9.777,73.46758763842078,78.53600996094751,-1.0,-4.0,-2.0,1.0,2.0,1.0,0.0,0.0,1.0,0.0,6.47,44.34,2.84,
9.79,73.40675876384208,78.54860099609475,-2.0,-4.0,-3.0,1.0,2.0,1.0,0.0,0.0,1.0,0.0,6.38,41.4,2.55,
9.804,73.33767587638421,78.61286009960948,-2.0,-2.0,-3.0,1.0,2.0,1.0,0.0,0.0,0.0,0.0,6.08,39.53,1.96,
9.818,73.46576758763842,78.39428600996095,-1.0,-5.0,1.0,0.0,2.0,1.0,0.0,0.0,0.0,0.0,5.89,37.67,1.67,
9.832,73.30757675876386,78.48942860099609,2.0,-15.0,1.0,0.0,2.0,1.0,0.0,0.0,0.0,0.0,5.3,36.0,1.47,
9.845,73.24675767587638,78.68794286009961,1.0,-10.0,-1.0,0.0,2.0,1.0,0.0,0.0,0.0,0.0,5.2,32.57,1.08,
9.86,73.10567576758764,78.59079428600995,1.0,-15.0,1.0,0.0,2.0,1.0,0.0,0.0,0.0,0.0,5.1,31.0,0.78,
9.873,72.76756757675876,78.851079428601,0.0,-12.0,1.0,0.0,2.0,1.0,0.0,0.0,0.0,0.0,5.0,29.53,0.69,
9.887,72.53575675767587,78.98510794286011,-1.0,-7.0,0.0,0.0,2.0,1.0,0.0,0.0,0.0,0.0,5.1,28.55,0.59,
9.901,72.35957567576759,79.016510794286,-3.0,-2.0,0.0,0.0,2.0,1.0,0.0,0.0,0.0,0.0,5.1,28.45,0.49,
9.915,72.06295756757676,79.1006510794286,-5.0,3.0,0.0,0.0,2.0,1.0,0.0,0.0,0.0,0.0,5.2,29.33,0.59,
9.928,72.16829575675767,79.12706510794285,-7.0,7.0,-1.0,1.0,2.0,1.0,0.0,0.0,0.0,0.0,5.2,30.8,0.59,
9.943,72.11582957567576,79.13870651079428,-10.0,14.0,-1.0,1.0,2.0,1.0,0.0,0.0,0.0,0.0,5.2,33.06,0.59,
9.956,72.29958295756757,79.22087065107942,-11.0,19.0,1.0,1.0,2.0,1.0,0.0,0.0,0.0,0.0,4.91,39.93,0.59,
9.97,72.49795829575676,79.13908706510794,-13.0,20.0,0.0,1.0,2.0,1.0,0.0,0.0,0.0,0.0,4.91,44.83,0.78,
9.984,72.77879582957569,78.8519087065108,-14.0,15.0,2.0,1.0,2.0,1.0,0.0,0.0,0.0,0.0,4.91,50.33,0.88,
9.998,72.99587958295757,78.54419087065108,-13.0,13.0,1.0,1.0,2.0,1.0,0.0,0.0,0.0,0.0,5.0,56.21,1.08,
10.011,73.42258795829576,78.30641908706511,-12.0,7.0,1.0,1.0,2.0,1.0,0.0,0.0,0.0,0.0,5.0,67.2,1.18,
10.025,73.57325879582959,78.1476419087065,-10.0,3.0,2.0,1.0,3.0,1.0,0.0,0.0,0.0,0.0,5.3,71.71,1.28,
10.04,73.57032587958295,78.01476419087065,-8.0,2.0,1.0,2.0,3.0,1.0,0.0,0.0,0.0,0.0,5.4,75.14,1.18,
10.053,73.58803258795831,77.91147641908708,-7.0,2.0,0.0,2.0,3.0,1.0,0.0,0.0,0.0,0.0,5.59,77.89,1.18,
10.067,73.53580325879584,77.79314764190872,-6.0,2.0,0.0,2.0,3.0,1.0,0.0,0.0,0.0,0.0,5.59,81.23,1.28,
10.081,73.51258032587958,77.73631476419088,-5.0,3.0,0.0,2.0,3.0,1.0,0.0,0.0,0.0,0.0,5.79,82.6,1.37,
10.095,73.54625803258796,77.56863147641909,-5.0,3.0,0.0,2.0,3.0,1.0,0.0,0.0,0.0,0.0,5.89,83.88,1.37,
10.108,73.61262580325881,77.51586314764191,-3.0,3.0,0.0,2.0,3.0,1.0,0.0,0.0,0.0,0.0,5.98,84.86,1.47,
10.123,73.74526258032589,77.48358631476418,-3.0,1.0,1.0,2.0,3.0,1.0,0.0,0.0,0.0,0.0,5.98,86.72,1.67,
10.136,73.8755262580326,77.47135863147642,-3.0,-1.0,2.0,2.0,3.0,1.0,0.0,0.0,0.0,0.0,6.38,87.21,2.06,
10.15,73.87955262580326,77.47913586314763,-3.0,0.0,1.0,2.0,3.0,1.0,0.0,0.0,0.0,0.0,6.67,87.41,2.35,
10.164,73.96095526258033,77.45291358631476,-3.0,-1.0,0.0,2.0,3.0,1.0,0.0,0.0,0.0,0.0,6.97,87.6,2.65,
10.178,73.93309552625804,77.44129135863147,-3.0,-2.0,0.0,2.0,3.0,2.0,0.0,0.0,0.0,0.0,7.16,88.0,2.84,
10.191,73.88530955262581,77.36812913586314,-3.0,-1.0,0.0,3.0,3.0,2.0,0.0,0.0,0.0,0.0,7.36,88.0,2.94,
10.206,73.88053095526259,77.39681291358633,-2.0,0.0,0.0,3.0,3.0,2.0,0.0,0.0,0.0,0.0,7.85,88.0,3.04,
10.219,73.79905309552626,77.41768129135863,-1.0,0.0,0.0,3.0,3.0,2.0,0.0,0.0,0.0,0.0,7.95,87.8,3.04,
10.233,73.84490530955263,77.32976812913586,-1.0,0.0,0.0,3.0,3.0,2.0,0.0,0.0,0.0,0.0,7.85,86.92,3.04,
10.247,73.77749053095526,77.2939768129136,-1.0,0.0,0.0,3.0,3.0,2.0,0.0,0.0,0.0,0.0,7.85,86.23,3.04,
10.26,73.80674905309553,77.34439768129135,-1.0,0.0,-1.0,3.0,3.0,2.0,0.0,0.0,0.0,0.0,7.75,85.25,3.14,
10.274,73.71067490530955,77.43943976812913,-1.0,0.0,-1.0,2.0,3.0,2.0,0.0,0.0,0.0,0.0,7.55,84.17,3.34,
10.288,73.73706749053095,77.43994397681291,-1.0,0.0,-1.0,2.0,3.0,1.0,0.0,0.0,0.0,0.0,7.46,81.91,3.24,
10.302,73.7577067490531,77.4309943976813,-1.0,-2.0,-1.0,2.0,3.0,1.0,0.0,0.0,0.0,0.0,7.36,81.13,3.24,
10.315,73.73277067490531,77.36709943976813,-2.0,-3.0,-2.0,2.0,3.0,1.0,0.0,0.0,0.0,0.0,7.16,80.34,3.14,
10.33,73.63127706749054,77.42370994397682,-2.0,-1.0,-3.0,2.0,3.0,1.0,0.0,0.0,0.0,0.0,6.77,79.66,3.14,
10.343,73.62112770674906,77.33037099439767,-2.0,0.0,-3.0,2.0,3.0,1.0,0.0,0.0,0.0,0.0,6.47,77.99,3.04,
10.357,73.56611277067492,77.34803709943976,-3.0,1.0,-3.0,2.0,3.0,1.0,0.0,0.0,0.0,0.0,6.08,77.3,2.75,
10.371,73.5876112770675,77.39480370994399,-2.0,3.0,-3.0,2.0,3.0,1.0,0.0,0.0,0.0,0.0,5.79,77.01,2.55,
10.384,73.84176112770675,77.2644803709944,-1.0,0.0,-2.0,2.0,3.0,1.0,0.0,0.0,0.0,0.0,5.1,76.62,2.55,
10.398,73.88517611277068,77.37744803709944,-1.0,0.0,-2.0,2.0,3.0,1.0,0.0,0.0,0.0,0.0,4.91,75.83,2.45,
10.412,73.95251761127706,77.37074480370995,-2.0,-1.0,-1.0,1.0,3.0,1.0,0.0,0.0,0.0,0.0,4.91,75.44,2.16,
10.426,73.97725176112772,77.32507448037099,-2.0,-1.0,0.0,1.0,3.0,1.0,0.0,0.0,0.0,0.0,4.81,75.14,2.06,
10.439,74.03372517611278,77.3115074480371,-1.0,-4.0,0.0,2.0,3.0,1.0,0.0,0.0,0.0,0.0,4.91,75.05,1.96,
10.454,73.95837251761128,77.37315074480371,-1.0,-6.0,1.0,2.0,3.0,1.0,0.0,0.0,0.0,0.0,5.0,75.05,1.96,
10.467,73.86083725176113,77.45131507448036,-1.0,-6.0,1.0,2.0,3.0,1.0,0.0,0.0,0.0,0.0,5.2,74.36,2.06,
10.481,73.6890837251761,77.48613150744804,0.0,-5.0,2.0,2.0,3.0,1.0,0.0,0.0,0.0,0.0,5.49,73.77,2.16,
10.494,73.49190837251761,77.5076131507448,0.0,-4.0,2.0,2.0,3.0,1.0,0.0,0.0,0.0,0.0,5.79,73.08,2.35,
10.508,73.47219083725176,77.61776131507449,0.0,-4.0,2.0,2.0,3.0,2.0,0.0,0.0,1.0,0.0,6.67,72.3,2.55,
10.522,73.42521908372518,77.75477613150744,0.0,-2.0,1.0,2.0,3.0,2.0,0.0,0.0,1.0,0.0,7.16,70.53,2.84,
10.535,73.36652190837252,77.78647761315075,0.0,-1.0,1.0,2.0,3.0,2.0,0.0,0.0,1.0,0.0,7.65,69.65,3.43,
10.549,73.30665219083726,77.84364776131507,0.0,-2.0,1.0,2.0,3.0,2.0,0.0,0.0,1.0,0.0,8.14,68.87,3.63,
10.563,73.27366521908372,77.92136477613153,0.0,-1.0,0.0,2.0,3.0,2.0,0.0,0.0,1.0,0.0,8.73,68.28,3.83,
10.576,73.24336652190837,77.98313647761316,0.0,-1.0,0.0,2.0,3.0,2.0,0.0,0.0,1.0,0.0,9.52,66.81,4.12,
10.591,73.24933665219083,78.01631364776132,0.0,-1.0,0.0,2.0,3.0,2.0,0.0,0.0,1.0,0.0,9.91,66.12,4.51,
10.604,73.22293366521907,77.95663136477613,0.0,-2.0,0.0,3.0,3.0,2.0,0.0,0.0,1.0,0.0,10.2,65.33,4.71,
10.618,73.17529336652191,77.98666313647762,0.0,-1.0,0.0,2.0,4.0,2.0,0.0,0.0,1.0,0.0,10.59,64.35,4.91,
10.632,73.12552933665219,77.99866631364776,0.0,-1.0,-1.0,3.0,4.0,2.0,0.0,0.0,1.0,0.0,10.99,62.1,5.0,
10.646,73.08455293366522,78.01786663136478,0.0,0.0,-2.0,2.0,4.0,2.0,0.0,0.0,1.0,0.0,11.09,60.82,5.4,
10.66,73.11645529336653,78.07378666313649,0.0,0.0,-2.0,2.0,4.0,2.0,0.0,0.0,1.0,0.0,11.18,59.55,5.49,
10.674,73.12864552933664,78.12437866631365,0.0,0.0,-3.0,2.0,4.0,2.0,0.0,0.0,1.0,0.0,11.18,58.17,5.69,
10.688,73.14786455293367,78.12943786663135,0.0,0.0,-2.0,2.0,4.0,2.0,0.0,0.0,1.0,0.0,11.09,55.82,5.69,
10.701,73.15878645529335,78.18394378666312,0.0,0.0,-3.0,2.0,4.0,2.0,0.0,0.0,1.0,0.0,10.79,54.74,5.79,
10.716,73.24987864552935,78.28839437866631,0.0,0.0,-3.0,2.0,4.0,2.0,0.0,0.0,1.0,0.0,10.79,53.76,5.89,
10.729,73.11498786455293,78.12783943786664,-2.0,0.0,-4.0,2.0,4.0,2.0,0.0,0.0,1.0,0.0,10.69,52.88,5.89,
10.743,73.15549878645528,78.21078394378665,-1.0,0.0,-2.0,2.0,4.0,2.0,0.0,0.0,1.0,0.0,10.5,51.7,6.08,
10.758,73.24954987864554,78.27307839437866,-1.0,0.0,-1.0,2.0,4.0,2.0,0.0,0.0,1.0,0.0,10.2,51.31,6.18,
10.771,73.25895498786457,78.28830783943788,-1.0,-1.0,0.0,2.0,4.0,2.0,0.0,0.0,1.0,0.0,10.1,51.11,6.18,
10.785,73.29589549878645,78.27183078394378,-1.0,-3.0,0.0,2.0,4.0,2.0,0.0,0.0,0.0,0.0,10.1,50.91,6.18,
10.799,73.28158954987865,78.25218307839438,0.0,-5.0,1.0,2.0,4.0,2.0,0.0,0.0,0.0,0.0,10.1,49.74,6.28,
10.813,73.23515895498787,78.30421830783943,0.0,-6.0,1.0,2.0,4.0,2.0,0.0,0.0,0.0,0.0,10.4,48.85,6.47,
10.827,73.1585158954988,78.33642183078395,-1.0,-4.0,1.0,2.0,4.0,2.0,0.0,0.0,0.0,0.0,10.59,47.87,6.47,
10.841,73.13285158954987,78.2856421830784,0.0,-6.0,1.0,2.0,4.0,2.0,0.0,0.0,0.0,0.0,10.69,46.99,6.47,
10.855,73.09428515895499,78.33456421830783,0.0,-6.0,2.0,2.0,4.0,2.0,0.0,0.0,0.0,0.0,10.79,44.93,6.47,
10.868,73.00942851589551,78.34845642183078,0.0,-7.0,2.0,2.0,4.0,2.0,0.0,0.0,0.0,0.0,11.28,43.75,6.57,
10.883,72.88394285158957,78.40384564218309,0.0,-7.0,2.0,2.0,4.0,2.0,0.0,0.0,0.0,0.0,11.58,42.28,6.67,
10.896,72.70039428515896,78.49938456421832,0.0,-7.0,2.0,2.0,4.0,2.0,0.0,0.0,0.0,0.0,11.97,40.71,6.87,
10.91,72.5380394285159,78.54493845642182,0.0,-6.0,2.0,2.0,4.0,2.0,0.0,0.0,0.0,0.0,12.26,37.96,6.97,
10.925,72.36880394285159,78.63049384564218,-1.0,-5.0,1.0,2.0,4.0,2.0,0.0,0.0,0.0,0.0,12.65,37.08,7.06,
10.938,72.22588039428514,78.67504938456423,-1.0,-3.0,1.0,3.0,4.0,2.0,0.0,0.0,0.0,0.0,13.05,36.4,7.16,
10.952,72.15758803942852,78.74250493845642,-2.0,-2.0,0.0,3.0,4.0,2.0,0.0,0.0,0.0,0.0,13.24,35.9,7.26,
10.966,72.15075880394285,78.75825049384564,-2.0,-1.0,0.0,3.0,4.0,2.0,0.0,0.0,0.0,0.0,13.34,35.51,7.46,
10.98,72.16807588039428,78.75982504938456,-2.0,-2.0,0.0,3.0,4.0,2.0,0.0,0.0,0.0,0.0,13.34,35.41,7.46,
10.993,72.10680758803943,78.76898250493845,-2.0,0.0,0.0,3.0,4.0,2.0,0.0,0.0,0.0,0.0,13.34,35.41,7.55,
11.008,72.10968075880395,78.76989825049384,-2.0,0.0,0.0,3.0,4.0,2.0,0.0,0.0,0.0,0.0,13.34,35.61,7.55,
11.021,72.0199680758804,78.72498982504938,-1.0,0.0,-1.0,3.0,4.0,2.0,0.0,0.0,0.0,0.0,13.44,35.81,7.65,
11.035,72.05599680758803,78.73849898250494,-1.0,0.0,-1.0,3.0,4.0,2.0,0.0,0.0,0.0,0.0,13.64,35.9,7.85,
11.048,72.08659968075881,78.7488498982505,-1.0,1.0,-2.0,3.0,4.0,2.0,0.0,0.0,0.0,0.0,13.73,35.81,7.95,
11.063,72.04465996807589,78.74088498982505,-1.0,1.0,-2.0,3.0,4.0,2.0,0.0,0.0,0.0,0.0,13.93,35.81,7.95,
11.077,72.02246599680758,78.7400884989825,-1.0,1.0,-2.0,3.0,4.0,2.0,0.0,0.0,0.0,0.0,13.93,36.1,7.95,
11.09,71.98424659968077,78.63200884989826,-2.0,3.0,-3.0,3.0,4.0,2.0,0.0,0.0,0.0,0.0,14.03,36.49,7.95,
11.105,72.0344246599681,78.62120088498983,-2.0,3.0,-2.0,3.0,4.0,2.0,0.0,0.0,1.0,0.0,14.03,37.18,8.04,
11.119,72.05744246599681,78.56612008849899,-1.0,3.0,-2.0,3.0,4.0,2.0,0.0,0.0,1.0,0.0,14.13,38.95,8.04,
11.132,72.09574424659968,78.62361200884989,-2.0,2.0,-1.0,3.0,4.0,2.0,0.0,0.0,1.0,0.0,14.22,39.73,7.95,
11.147,72.17157442465997,78.62936120088499,-2.0,1.0,-1.0,3.0,4.0,2.0,0.0,0.0,1.0,0.0,14.32,40.42,8.04,
11.161,72.23315744246598,78.66593612008849,-1.0,1.0,-1.0,2.0,4.0,2.0,0.0,0.0,1.0,0.0,14.42,41.2,8.04,
11.174,72.2753157442466,78.71459361200884,-1.0,0.0,0.0,2.0,4.0,2.0,0.0,0.0,1.0,0.0,14.62,41.79,8.14,
11.189,72.27953157442467,78.72845936120088,-1.0,0.0,0.0,2.0,4.0,2.0,0.0,0.0,1.0,0.0,14.72,41.69,8.14,
11.202,72.34295315744247,78.76584593612009,-2.0,0.0,0.0,2.0,4.0,2.0,0.0,0.0,1.0,0.0,14.81,41.59,8.14,
11.216,72.30429531574424,78.76058459361201,-2.0,0.0,0.0,3.0,4.0,2.0,0.0,0.0,1.0,0.0,14.81,41.4,8.14,
11.23,72.32742953157441,78.8050584593612,-2.0,0.0,0.0,2.0,4.0,2.0,0.0,1.0,1.0,0.0,15.01,41.4,8.14,
11.244,72.38374295315744,78.79150584593611,-2.0,0.0,0.0,3.0,4.0,2.0,0.0,1.0,1.0,0.0,15.21,41.5,8.34,
11.258,72.36237429531573,78.80815058459362,-1.0,-1.0,0.0,3.0,4.0,2.0,0.0,1.0,1.0,0.0,15.3,41.5,8.44,
11.272,72.36023742953157,78.83681505845936,-1.0,0.0,0.0,3.0,4.0,2.0,0.0,1.0,1.0,0.0,15.4,41.5,8.53,
11.286,72.36002374295315,78.89368150584593,-2.0,0.0,0.0,3.0,4.0,2.0,0.0,1.0,2.0,0.0,15.79,41.3,8.53,
11.299,72.3510023742953,78.9263681505846,-2.0,0.0,0.0,3.0,4.0,2.0,0.0,1.0,2.0,0.0,15.89,41.2,8.73,
11.314,72.35010023742953,78.92063681505846,-2.0,0.0,0.0,3.0,4.0,2.0,0.0,1.0,2.0,0.0,15.89,41.2,8.83,
11.327,72.38601002374295,78.89306368150585,-2.0,0.0,0.0,3.0,4.0,2.0,0.0,1.0,2.0,0.0,15.89,41.4,8.83,
11.341,72.42560100237431,78.93530636815059,-2.0,0.0,0.0,3.0,4.0,2.0,0.0,1.0,2.0,0.0,15.89,41.89,8.73,
11.355,72.39356010023742,78.85853063681506,-2.0,0.0,0.0,3.0,4.0,2.0,0.0,1.0,2.0,0.0,15.89,42.08,8.73,
11.369,72.39935601002375,78.87785306368151,-1.0,-1.0,0.0,3.0,4.0,2.0,0.0,1.0,2.0,0.0,15.99,42.08,8.73,
11.383,72.39993560100238,78.86178530636815,-2.0,0.0,0.0,3.0,4.0,2.0,0.0,1.0,2.0,0.0,15.99,41.99,8.73,
11.397,72.40899356010023,78.86017853063682,-2.0,0.0,0.0,3.0,4.0,2.0,0.0,1.0,2.0,0.0,16.09,41.69,8.73,
11.411,72.40089935601003,78.87801785306368,-2.0,0.0,0.0,3.0,4.0,2.0,0.0,1.0,2.0,0.0,16.09,41.69,8.73,
11.424,72.445089935601,78.86180178530637,-2.0,0.0,0.0,3.0,4.0,2.0,0.0,1.0,2.0,0.0,16.09,41.79,8.63,
11.439,72.4225089935601,78.82418017853064,-2.0,0.0,0.0,3.0,4.0,2.0,0.0,1.0,2.0,0.0,16.09,42.08,8.63,
11.452,72.384250899356,78.83841801785306,-2.0,-1.0,0.0,3.0,4.0,2.0,0.0,1.0,2.0,0.0,16.09,42.48,8.63,
11.466,72.3894250899356,78.89384180178531,-1.0,-1.0,0.0,3.0,4.0,2.0,0.0,1.0,2.0,0.0,16.28,42.48,8.63,
11.481,72.34494250899357,78.87238418017853,-1.0,-1.0,0.0,3.0,4.0,2.0,0.0,1.0,2.0,0.0,16.28,42.38,8.63,
11.494,72.30449425089935,78.88823841801786,-2.0,0.0,0.0,3.0,4.0,2.0,0.0,1.0,2.0,0.0,16.28,42.08,8.63,
11.508,72.32744942508992,78.94382384180179,-2.0,0.0,0.0,3.0,4.0,2.0,0.0,1.0,2.0,0.0,16.38,41.69,8.63,
11.522,72.311744942509,78.98538238418017,-2.0,0.0,0.0,3.0,4.0,2.0,0.0,1.0,2.0,0.0,16.38,41.59,8.63,
11.536,72.27417449425089,78.98053823841802,-3.0,0.0,-1.0,3.0,4.0,2.0,0.0,1.0,2.0,0.0,16.48,41.79,8.53,
11.55,72.24341744942508,78.98005382384181,-3.0,0.0,-1.0,3.0,4.0,2.0,0.0,1.0,2.0,0.0,16.48,41.99,8.53,
11.564,72.28534174494251,78.99800538238419,-3.0,0.0,-1.0,3.0,4.0,2.0,0.0,1.0,2.0,0.0,16.38,42.67,8.34,
11.578,72.27153417449424,79.01780053823842,-3.0,0.0,-1.0,3.0,4.0,2.0,0.0,1.0,2.0,0.0,16.28,42.97,8.24,
11.591,72.27015341744942,79.01978005382384,-3.0,0.0,-1.0,3.0,4.0,2.0,0.0,1.0,2.0,0.0,16.09,43.26,8.14,
11.606,72.25201534174495,79.02897800538238,-3.0,0.0,-2.0,3.0,4.0,2.0,0.0,1.0,2.0,0.0,15.89,43.56,8.04,
11.62,72.21420153417448,78.98489780053825,-3.0,1.0,-2.0,3.0,4.0,2.0,0.0,1.0,2.0,0.0,15.7,43.95,7.65,
11.633,72.25542015341745,78.94448978005383,-4.0,1.0,-2.0,3.0,4.0,2.0,0.0,1.0,2.0,0.0,15.3,44.34,7.36,
11.648,72.38554201534176,78.79644897800539,-2.0,-1.0,0.0,3.0,4.0,2.0,0.0,1.0,2.0,0.0,14.52,44.83,7.16,
11.662,72.37155420153418,78.68264489780053,-1.0,-5.0,1.0,3.0,4.0,2.0,0.0,1.0,2.0,0.0,14.32,45.32,6.87,
11.675,72.33415542015341,78.70726448978004,0.0,-4.0,0.0,3.0,4.0,2.0,0.0,1.0,2.0,0.0,14.32,44.83,6.87,
11.689,72.31241554201534,78.745726448978,-1.0,-3.0,0.0,3.0,4.0,2.0,0.0,1.0,2.0,0.0,14.62,43.85,6.87,
11.703,72.19324155420153,78.7675726448978,-1.0,-2.0,0.0,3.0,4.0,2.0,0.0,1.0,2.0,0.0,15.3,42.77,6.97,
11.717,72.19032415542016,78.78775726448978,-2.0,-1.0,0.0,3.0,4.0,2.0,0.0,1.0,2.0,0.0,15.4,41.99,7.06,
11.731,72.10003241554202,78.82577572644898,-2.0,0.0,-1.0,3.0,4.0,2.0,0.0,1.0,2.0,0.0,15.5,40.91,7.06,
11.745,72.1180032415542,78.8925775726449,-3.0,0.0,-1.0,3.0,4.0,2.0,0.0,1.0,2.0,0.0,15.5,40.71,7.06,
11.759,72.13780032415542,78.9712577572645,-3.0,1.0,-1.0,3.0,4.0,2.0,0.0,1.0,2.0,0.0,15.6,40.71,6.97,
11.773,72.15778003241554,78.98812577572644,-3.0,1.0,-1.0,3.0,4.0,2.0,0.0,1.0,2.0,0.0,15.4,41.01,7.06,
11.787,72.14177800324155,78.97181257757265,-3.0,1.0,-1.0,3.0,4.0,2.0,0.0,1.0,2.0,0.0,15.4,42.18,7.06,
11.801,72.13117780032415,78.98818125775726,-3.0,1.0,-1.0,3.0,4.0,2.0,0.0,1.0,2.0,0.0,15.4,42.77,6.97,
11.815,72.13011778003242,78.92681812577572,-3.0,0.0,-1.0,3.0,4.0,2.0,0.0,1.0,2.0,0.0,15.3,43.26,6.87,
11.829,72.15701177800324,78.89368181257757,-3.0,1.0,-1.0,3.0,4.0,2.0,0.0,1.0,2.0,0.0,15.11,44.15,6.87,
11.843,72.14170117780033,78.92636818125776,-3.0,1.0,-1.0,3.0,4.0,2.0,0.0,1.0,2.0,0.0,15.01,44.54,6.87,
11.857,72.19417011778003,78.93863681812579,-3.0,0.0,-1.0,3.0,4.0,2.0,0.0,1.0,2.0,0.0,15.01,44.93,6.77,
11.871,72.19941701177801,78.92186368181258,-2.0,0.0,-1.0,3.0,4.0,2.0,0.0,1.0,2.0,0.0,14.91,45.42,6.77,
11.885,72.2629417011778,78.94718636818126,-2.0,0.0,-1.0,3.0,4.0,2.0,0.0,1.0,2.0,0.0,14.72,45.91,6.67,
11.898,72.25129417011779,78.95871863681812,-2.0,0.0,-1.0,3.0,4.0,2.0,0.0,1.0,2.0,0.0,14.52,45.91,6.47,
11.913,72.29512941701176,79.03187186368181,-3.0,1.0,-2.0,3.0,4.0,2.0,0.0,1.0,2.0,0.0,14.32,45.91,6.38,
11.927,72.18251294170118,79.04818718636818,-2.0,4.0,-4.0,3.0,4.0,2.0,0.0,1.0,1.0,0.0,14.13,45.91,6.28,
11.94,72.25225129417012,79.12181871863682,-4.0,1.0,-4.0,2.0,4.0,2.0,0.0,1.0,1.0,0.0,13.34,46.11,5.69,
11.955,72.322225129417,79.02118187186369,-4.0,4.0,-6.0,2.0,3.0,1.0,0.0,0.0,1.0,0.0,12.65,46.3,5.4,
11.969,72.4552225129417,78.86711818718638,-2.0,-1.0,-5.0,2.0,3.0,1.0,0.0,0.0,1.0,0.0,11.67,46.89,5.0,
11.982,72.39652225129416,78.94171181871864,-1.0,-2.0,-8.0,1.0,3.0,1.0,0.0,0.0,1.0,0.0,10.79,47.09,4.41,
11.997,72.35465222512941,79.12017118187187,-4.0,-5.0,-9.0,1.0,2.0,1.0,0.0,0.0,1.0,0.0,8.53,44.73,3.24,
12.011,72.42246522251295,78.94901711818719,-3.0,-4.0,-12.0,1.0,2.0,1.0,0.0,0.0,0.0,0.0,7.06,42.58,2.65,
12.024,72.3212465222513,78.22090171181873,0.0,-9.0,-12.0,0.0,2.0,0.0,0.0,0.0,0.0,0.0,5.59,40.12,2.16,
12.039,72.45512465222512,77.62609017118187,0.0,-14.0,-9.0,0.0,1.0,0.0,0.0,0.0,0.0,0.0,4.32,37.08,1.67,
12.052,72.46851246522252,77.17960901711818,9.0,-33.0,-7.0,0.0,1.0,0.0,0.0,0.0,0.0,0.0,2.55,28.65,0.69,
12.066,71.87585124652226,77.42296090171182,19.0,-31.0,-7.0,0.0,1.0,0.0,0.0,0.0,0.0,0.0,1.96,23.84,0.2,
12.08,71.54658512465224,77.78929609017118,15.0,-30.0,-8.0,0.0,1.0,0.0,0.0,0.0,0.0,0.0,1.57,19.42,0.0,
12.094,71.08165851246522,77.96992960901711,20.0,-33.0,0.0,0.0,1.0,0.0,0.0,0.0,0.0,0.0,1.37,15.7,0.0,
12.107,70.56716585124653,78.12299296090171,30.0,-20.0,-6.0,0.0,1.0,0.0,0.0,0.0,0.0,0.0,1.08,9.71,0.0,
12.121,70.74971658512465,78.55229929609017,29.0,-21.0,0.0,0.0,1.0,0.0,0.0,0.0,0.0,0.0,0.98,7.65,0.0,
12.135,71.77597165851247,77.48822992960902,27.0,5.0,-15.0,0.0,1.0,0.0,0.0,0.0,0.0,0.0,0.88,6.08,0.0,
12.148,73.31859716585123,76.3378229929609,20.0,20.0,-24.0,0.0,1.0,0.0,0.0,0.0,0.0,0.0,0.78,4.61,0.1,
12.162,74.88585971658512,76.50178229929608,16.0,18.0,-39.0,0.0,1.0,0.0,0.0,0.0,0.0,0.0,0.78,2.35,0.29,
12.175,74.49358597165852,78.66917822992961,12.0,-8.0,-36.0,0.0,1.0,0.0,0.0,0.0,0.0,0.0,0.78,2.06,0.49,
12.189,72.60035859716585,81.19891782299297,9.0,-19.0,-36.0,0.0,1.0,0.0,0.0,0.0,0.0,0.0,0.98,2.35,0.49,
12.203,69.40503585971658,85.28589178229929,-5.0,-28.0,-5.0,0.0,1.0,0.0,0.0,0.0,0.0,0.0,1.18,3.04,0.39,
12.217,68.03250358597165,84.83958917822993,-15.0,15.0,17.0,0.0,1.0,0.0,0.0,0.0,0.0,0.0,1.47,4.02,0.49,
12.23,68.32725035859717,84.22795891782299,-12.0,55.0,9.0,0.0,1.0,0.0,0.0,0.0,0.0,0.0,1.77,7.06,0.39,
12.244,68.77072503585971,83.7617958917823,-15.0,30.0,6.0,0.0,2.0,0.0,0.0,0.0,0.0,0.0,2.45,9.32,0.39,
12.258,69.04907250358596,83.12117958917824,-22.0,55.0,6.0,0.0,2.0,1.0,0.0,0.0,0.0,0.0,2.94,12.65,0.49,
12.272,70.2109072503586,82.12111795891784,-24.0,53.0,6.0,1.0,2.0,1.0,0.0,0.0,0.0,0.0,3.53,17.36,0.69,
12.286,71.17309072503586,81.68811179589179,-18.0,47.0,2.0,1.0,2.0,1.0,0.0,0.0,0.0,0.0,4.61,28.94,1.28,
12.3,71.94430907250359,81.23081117958918,-13.0,42.0,-1.0,1.0,3.0,1.0,0.0,0.0,0.0,0.0,7.06,35.32,1.86,
12.314,72.58843090725037,80.78008111795893,-13.0,37.0,0.0,2.0,3.0,1.0,0.0,1.0,0.0,0.0,8.14,41.2,2.65,
12.328,73.17484309072503,80.5100081117959,-11.0,40.0,2.0,2.0,3.0,2.0,0.0,1.0,1.0,0.0,9.22,52.29,3.43,
12.342,73.9624843090725,80.3840008111796,-11.0,37.0,1.0,3.0,3.0,2.0,0.0,1.0,1.0,0.0,10.4,58.08,5.59,
12.356,74.69824843090726,80.07440008111796,-13.0,30.0,2.0,3.0,4.0,2.0,0.0,1.0,1.0,0.0,11.67,63.77,6.97,
12.37,75.14082484309073,79.9804400081118,-12.0,22.0,5.0,4.0,4.0,2.0,0.0,2.0,1.0,0.0,14.32,69.55,8.34,
12.384,75.78808248430907,79.78204400081118,-11.0,24.0,3.0,4.0,4.0,2.0,0.0,2.0,1.0,0.0,15.7,81.72,11.28,
12.398,76.2398082484309,79.69920440008111,-11.0,20.0,1.0,4.0,4.0,2.0,0.0,2.0,1.0,0.0,17.17,88.39,12.75,
12.412,76.68998082484309,79.3849204400081,-11.0,16.0,0.0,4.0,5.0,2.0,0.0,2.0,1.0,0.0,18.54,95.55,14.03,
12.427,77.2389980824843,79.07449204400082,-11.0,11.0,-2.0,5.0,5.0,3.0,0.0,2.0,1.0,0.0,20.99,103.3,15.21,
12.441,77.26689980824843,78.83644920440008,-13.0,11.0,0.0,5.0,5.0,3.0,0.0,2.0,1.0,0.0,21.97,121.06,17.36,
12.455,77.63868998082485,78.50664492044001,-10.0,11.0,0.0,5.0,5.0,3.0,0.0,2.0,1.0,0.0,23.05,130.18,18.25,
12.47,78.04486899808249,78.23066449204401,-7.0,3.0,0.0,5.0,6.0,3.0,0.0,3.0,1.0,0.0,25.41,138.71,19.13,
12.483,78.34648689980826,78.1130664492044,-6.0,4.0,1.0,5.0,6.0,3.0,0.0,3.0,2.0,0.0,26.68,151.56,20.31,
12.497,78.63764868998082,78.13730664492044,-7.0,-3.0,2.0,6.0,6.0,3.0,0.0,3.0,2.0,0.0,27.86,155.39,20.6,
12.512,78.61276486899807,78.04973066449205,-7.0,-6.0,2.0,6.0,6.0,3.0,0.0,3.0,2.0,0.0,29.14,158.24,20.7,
12.526,78.6012764868998,78.00497306644921,-5.0,-12.0,2.0,6.0,7.0,3.0,0.0,3.0,2.0,0.0,31.2,160.3,20.5,
12.54,78.33912764868998,77.77549730664492,0.0,-4.0,0.0,6.0,7.0,4.0,0.0,3.0,2.0,0.0,31.88,161.18,19.72,
12.554,78.420912764869,77.77054973066448,2.0,-7.0,0.0,6.0,7.0,4.0,0.0,3.0,2.0,0.0,32.47,159.22,19.62,
12.568,78.10509127648689,77.66205497306645,0.0,-10.0,0.0,6.0,7.0,4.0,0.0,3.0,2.0,0.0,33.06,155.29,19.72,
12.582,77.91150912764869,77.75920549730664,1.0,-7.0,0.0,6.0,7.0,4.0,0.0,3.0,2.0,0.0,33.94,150.39,20.01,
12.596,77.73915091276487,77.86792054973066,1.0,-6.0,0.0,6.0,7.0,4.0,0.0,3.0,2.0,0.0,34.24,140.97,20.5,
12.61,77.54191509127648,77.94179205497306,2.0,-3.0,-1.0,6.0,7.0,4.0,0.0,3.0,2.0,0.0,34.53,136.75,20.9,
12.624,77.55819150912765,78.12017920549731,0.0,0.0,0.0,6.0,7.0,4.0,0.0,3.0,2.0,0.0,34.63,132.44,21.29,
12.639,77.52381915091277,78.23701792054973,0.0,3.0,0.0,6.0,7.0,4.0,0.0,3.0,2.0,0.0,34.53,124.39,22.56,
12.652,77.53838191509128,78.44670179205498,0.0,4.0,0.0,6.0,7.0,4.0,0.0,3.0,2.0,0.0,34.34,121.06,23.25,
12.666,77.59383819150914,78.4136701792055,-2.0,6.0,0.0,6.0,7.0,4.0,0.0,3.0,2.0,0.0,33.75,118.31,23.94,
12.681,77.58138381915091,78.27536701792056,0.0,2.0,0.0,6.0,6.0,3.0,0.0,3.0,2.0,0.0,33.06,116.25,24.62,
12.694,77.58913838191509,78.35153670179206,0.0,1.0,-2.0,6.0,6.0,3.0,0.0,3.0,2.0,0.0,32.37,114.29,25.9,
12.708,77.5539138381915,78.32315367017921,0.0,3.0,-3.0,6.0,7.0,3.0,0.0,3.0,2.0,0.0,31.78,113.31,26.68,
12.723,77.59539138381915,78.5273153670179,5.0,-1.0,-3.0,6.0,7.0,4.0,0.0,3.0,2.0,0.0,31.78,112.03,27.37,
12.737,77.10453913838191,78.18773153670179,9.0,3.0,-13.0,6.0,7.0,3.0,0.0,3.0,2.0,0.0,31.88,110.07,28.25,
12.75,77.4424539138382,78.75677315367018,-1.0,-1.0,3.0,6.0,7.0,3.0,0.0,3.0,3.0,0.0,32.18,104.97,29.72,
12.765,77.50324539138381,78.42667731536702,-2.0,-7.0,3.0,6.0,7.0,3.0,0.0,3.0,3.0,0.0,32.37,102.32,30.21,
12.779,77.45532453913837,77.92566773153672,5.0,-2.0,-6.0,6.0,7.0,3.0,0.0,3.0,3.0,0.0,32.67,99.67,30.9,
12.793,77.23453245391383,78.27156677315367,7.0,-10.0,0.0,6.0,7.0,3.0,0.0,3.0,3.0,0.0,33.16,96.43,31.69,
12.807,77.39245324539138,79.23315667731538,3.0,-4.0,1.0,6.0,7.0,3.0,0.0,3.0,3.0,0.0,33.75,88.29,33.26,
12.821,77.36324532453914,79.41931566773152,5.0,-6.0,-3.0,6.0,7.0,3.0,0.0,3.0,3.0,0.0,35.02,83.78,33.84,
12.835,77.28832453245391,79.37493156677316,5.0,-10.0,0.0,6.0,7.0,3.0,0.0,4.0,3.0,0.0,35.71,79.26,34.53,
12.85,76.99283245324538,79.61349315667732,4.0,-3.0,-1.0,6.0,7.0,4.0,0.0,4.0,3.0,0.0,36.59,71.02,36.0,
12.864,77.02628324532454,79.37634931566772,6.0,-3.0,0.0,6.0,7.0,4.0,0.0,4.0,3.0,0.0,967.56,67.49,36.89,
12.887,77.09262832453246,79.74863493156678,7.0,-8.0,1.0,6.0,7.0,4.0,0.0,4.0,3.0,0.0,39.93,60.33,38.85,
12.9,77.11726283245325,80.09186349315668,9.0,-9.0,1.0,6.0,7.0,4.0,0.0,4.0,4.0,0.0,40.81,56.21,39.93,
12.914,76.77772628324533,80.23418634931568,9.0,-8.0,0.0,6.0,7.0,4.0,0.0,4.0,4.0,0.0,41.99,51.8,41.1,
12.929,76.63577262832455,80.27541863493158,11.0,-5.0,0.0,6.0,7.0,4.0,0.0,4.0,5.0,0.0,43.36,42.38,44.15,
12.943,76.53157726283244,80.21654186349315,16.0,-10.0,0.0,5.0,7.0,4.0,0.0,4.0,5.0,0.0,46.5,37.28,46.01,
12.957,76.29615772628324,80.5886541863493,20.0,-5.0,0.0,5.0,7.0,3.0,0.0,4.0,5.0,0.0,48.07,31.78,47.97,
12.972,76.61461577262834,81.07586541863492,21.0,-13.0,0.0,4.0,7.0,3.0,0.0,5.0,6.0,0.0,49.54,20.5,51.99,
12.985,76.43946157726283,81.4125865418635,27.0,-12.0,0.0,3.0,7.0,3.0,1.0,5.0,6.0,0.0,50.82,15.89,54.15,
12.999,76.19694615772627,81.51825865418635,24.0,-13.0,2.0,3.0,7.0,3.0,1.0,5.0,6.0,0.0,53.46,12.07,56.11,
13.014,76.00169461577264,81.78082586541863,25.0,-9.0,5.0,3.0,7.0,3.0,1.0,5.0,7.0,0.0,54.54,9.03,57.98,
13.028,76.10816946157728,82.02308258654186,27.0,-13.0,3.0,2.0,7.0,3.0,1.0,6.0,7.0,0.0,55.62,5.1,61.12,
13.042,75.86681694615773,82.40730825865418,30.0,-19.0,9.0,1.0,7.0,2.0,1.0,6.0,7.0,0.0,56.8,3.34,62.49,
13.057,75.54568169461578,83.16573082586541,39.0,-18.0,2.0,1.0,7.0,2.0,1.0,6.0,8.0,0.0,58.76,1.67,63.67,
13.071,75.90056816946158,83.54757308258655,32.0,0.0,-3.0,0.0,6.0,2.0,1.0,6.0,8.0,0.0,59.45,0.39,65.33,
13.085,75.81905681694616,84.38675730825867,36.0,-9.0,0.0,0.0,6.0,2.0,1.0,7.0,8.0,0.0,59.94,0.0,65.92,
13.099,75.17190568169462,84.86667573082586,40.0,-10.0,8.0,0.0,6.0,1.0,1.0,7.0,9.0,0.0,60.23,0.0,66.32,
13.113,74.82819056816948,85.2926675730826,39.0,-9.0,0.0,0.0,5.0,1.0,1.0,7.0,10.0,0.0,59.94,0.0,66.41,
13.127,74.68581905681695,85.15526675730827,42.0,-13.0,6.0,0.0,5.0,0.0,1.0,8.0,10.0,0.0,59.64,0.0,66.41,
13.142,74.5005819056817,85.48352667573083,48.0,-15.0,6.0,0.0,4.0,0.0,1.0,8.0,11.0,0.0,59.45,0.0,66.51,
13.156,74.11305819056817,85.66935266757308,60.0,-15.0,2.0,0.0,4.0,0.0,1.0,9.0,11.0,0.0,59.25,0.0,66.61,
13.17,73.48930581905682,86.36293526675732,54.0,-19.0,7.0,0.0,4.0,0.0,1.0,9.0,11.0,0.0,58.57,0.0,66.71,
13.184,72.60793058190568,87.05329352667573,53.0,-18.0,12.0,0.0,3.0,0.0,1.0,9.0,12.0,0.0,57.98,0.0,66.51,
13.198,72.06079305819057,88.06732935266758,45.0,-13.0,10.0,0.0,3.0,0.0,1.0,10.0,12.0,1.0,57.19,0.0,66.32,
13.212,72.02407930581906,88.77173293526675,55.0,0.0,13.0,0.0,2.0,0.0,1.0,10.0,0.0,1.0,56.31,0.0,66.12,
13.227,72.5064079305819,89.32817329352667,62.0,7.0,17.0,0.0,2.0,0.0,1.0,10.0,1.0,1.0,54.05,0.0,65.43,
13.241,72.7796407930582,89.97781732935266,73.0,0.0,12.0,0.0,2.0,0.0,1.0,10.0,1.0,1.0,52.68,0.0,64.84,
13.254,72.88796407930583,90.07878173293527,75.0,2.0,8.0,0.0,1.0,0.0,1.0,10.0,2.0,1.0,51.31,0.0,63.86,
13.268,72.64679640793058,91.54687817329352,76.0,-12.0,19.0,0.0,1.0,0.0,1.0,11.0,1.0,1.0,49.83,0.0,62.88,
13.283,72.49667964079306,91.01868781732934,83.0,2.0,25.0,0.0,1.0,0.0,1.0,11.0,1.0,1.0,46.89,0.0,64.16,
13.297,73.53466796407932,90.86686878173293,116.0,18.0,0.0,0.0,1.0,0.0,1.0,11.0,2.0,1.0,45.42,0.0,66.22,
13.31,73.66546679640794,92.5886868781733,132.0,-16.0,11.0,0.0,1.0,0.0,1.0,11.0,3.0,1.0,44.54,0.0,66.02,
13.325,73.3005466796408,93.35486868781733,134.0,-36.0,25.0,0.0,1.0,0.0,0.0,11.0,2.0,1.0,43.95,0.0,60.53,
13.34,73.09305466796407,95.40248686878172,134.0,-21.0,30.0,0.0,2.0,0.0,0.0,10.0,2.0,1.0,42.87,0.0,56.9,
13.355,73.09030546679641,97.16424868687817,142.0,-35.0,26.0,0.0,2.0,0.0,0.0,10.0,0.0,1.0,42.48,0.0,52.58,
13.368,72.68503054667964,98.52842486868782,135.0,-33.0,37.0,0.0,3.0,0.0,0.0,10.0,11.0,1.0,41.89,0.0,47.87,
13.383,72.58150305466796,100.77984248686879,151.0,-30.0,28.0,0.0,3.0,0.0,0.0,10.0,10.0,1.0,39.34,0.0,38.95,
13.398,73.45315030546679,103.57898424868688,149.0,-58.0,58.0,0.0,4.0,0.0,0.0,11.0,8.0,1.0,37.18,0.0,35.32,
13.412,73.18931503054667,105.13689842486869,146.0,-76.0,64.0,0.0,4.0,0.0,0.0,11.0,7.0,1.0,34.73,0.0,32.67,
13.426,73.01893150305467,108.16368984248687,134.0,-54.0,58.0,0.0,5.0,0.0,0.0,11.0,6.0,1.0,32.08,0.0,29.14,
13.441,74.58589315030547,109.57336898424869,146.0,-68.0,61.0,0.0,6.0,0.0,0.0,11.0,5.0,1.0,26.0,0.0,27.66,
13.455,73.55458931503055,110.54233689842488,150.0,-89.0,53.0,0.0,6.0,0.0,0.0,11.0,4.0,1.0,22.86,0.0,26.09,
13.469,71.74145893150306,112.7722336898425,166.0,-65.0,30.0,0.0,6.0,0.0,0.0,12.0,3.0,1.0,19.42,0.0,23.74,
13.484,70.73214589315032,114.92122336898426,162.0,-14.0,27.0,0.0,6.0,0.0,0.0,2.0,2.0,1.0,16.58,0.0,19.23,
13.498,70.19021458931503,116.24312233689842,158.0,18.0,30.0,0.0,6.0,0.0,0.0,1.0,1.0,1.0,12.65,0.0,16.78,
13.512,69.9560214589315,117.18531223368984,147.0,43.0,11.0,0.0,4.0,0.0,0.0,12.0,1.0,0.0,10.79,0.0,13.83,
13.527,70.39160214589315,117.855531223369,126.0,79.0,1.0,0.0,3.0,0.0,0.0,10.0,0.0,0.0,8.93,0.0,7.16,
13.54,71.50616021458931,118.7145531223369,101.0,71.0,6.0,0.0,2.0,0.0,0.0,6.0,0.0,0.0,5.1,0.0,3.63,
13.554,71.83361602145894,119.70945531223369,94.0,53.0,5.0,0.0,1.0,0.0,0.0,6.0,0.0,0.0,3.34,0.0,0.49,
13.568,73.0633616021459,118.75594553122338,71.0,79.0,12.0,0.0,1.0,0.0,0.0,6.0,0.0,0.0,1.67,0.0,0.0,
13.581,73.78933616021459,121.70259455312234,20.0,51.0,-9.0,0.0,1.0,0.0,0.0,6.0,0.0,0.0,0.49,0.0,0.0,
13.594,91.41193361602146,131.06925945531225,4.0,-10.0,-19.0,0.0,1.0,0.0,0.0,6.0,0.0,0.0,0.0,0.0,0.0,
13.607,90.90619336160215,128.64892594553123,-90.0,-72.0,32.0,0.0,2.0,0.0,0.0,6.0,0.0,0.0,0.0,0.0,0.0,
13.622,86.49961933616022,123.51089259455313,-135.0,15.0,19.0,0.0,2.0,0.0,0.0,6.0,0.0,0.0,0.0,0.0,0.0,
13.635,83.08896193361602,117.4890892594553,-112.0,55.0,3.0,0.0,2.0,0.0,0.0,6.0,0.0,0.0,0.0,0.0,0.0,
13.648,86.5818961933616,106.86090892594554,-129.0,-39.0,54.0,0.0,2.0,0.0,0.0,6.0,0.0,0.0,0.0,0.0,0.0,
13.663,87.68718961933617,97.87809089259454,-111.0,-128.0,-5.0,0.0,2.0,0.0,0.0,6.0,0.0,0.0,0.0,0.0,0.0,
13.676,82.29871896193362,92.29980908925947,-116.0,-150.0,-28.0,0.0,2.0,0.0,0.0,6.0,0.0,0.0,0.0,0.0,0.0,
13.689,76.36887189619335,86.87298090892594,-122.0,-98.0,-57.0,0.0,1.0,0.0,0.0,6.0,0.0,0.0,0.0,0.0,0.0,
13.704,71.60888718961934,83.3872980908926,-133.0,-86.0,-57.0,0.0,1.0,0.0,0.0,6.0,0.0,0.0,0.0,0.0,0.0,
13.717,68.51388871896194,79.67272980908926,-141.0,-84.0,-55.0,0.0,2.0,0.0,0.0,6.0,0.0,0.0,0.0,0.0,0.0,
13.731,65.7113888718962,78.50927298090893,-142.0,-47.0,-58.0,0.0,2.0,0.0,0.0,6.0,0.0,0.0,0.0,0.0,0.0,
13.745,64.54013888718961,77.5829272980909,-151.0,-25.0,-61.0,0.0,2.0,0.0,0.0,6.0,0.0,0.0,0.0,0.0,0.0,
13.759,63.67601388871896,77.96729272980909,-161.0,-19.0,-51.0,0.0,1.0,0.0,0.0,6.0,0.0,0.0,0.0,0.0,0.0,
13.772,63.4546013888719,79.2657292729809,-164.0,-5.0,-49.0,0.0,1.0,0.0,0.0,6.0,0.0,0.0,0.0,0.0,0.0,
13.786,63.9004601388872,80.4485729272981,-168.0,-5.0,-44.0,0.0,1.0,0.0,0.0,6.0,0.0,0.0,0.0,0.0,0.0,
13.8,64.59304601388872,81.2238572927298,-171.0,-5.0,-36.0,0.0,1.0,0.0,0.0,6.0,0.0,0.0,0.0,0.0,0.0,
13.813,65.24730460138886,82.20138572927299,-171.0,0.0,-35.0,0.0,1.0,0.0,0.0,6.0,0.0,0.0,0.0,0.0,0.0,
13.827,65.78973046013888,83.4061385729273,-170.0,16.0,-39.0,0.0,1.0,0.0,0.0,6.0,0.0,0.0,0.0,0.0,0.0,
13.84,66.4379730460139,84.59761385729273,-170.0,34.0,-39.0,0.0,1.0,0.0,0.0,6.0,0.0,0.0,0.0,0.0,0.0,
13.854,67.29479730460139,85.87776138572926,-171.0,42.0,-37.0,0.0,1.0,0.0,0.0,6.0,0.0,0.0,0.0,0.0,0.0,
13.868,68.01947973046013,87.13077613857291,-172.0,35.0,-32.0,0.0,1.0,0.0,0.0,6.0,0.0,0.0,0.0,0.0,0.0,
13.881,68.56894797304601,88.0660776138573,-171.0,26.0,-31.0,0.0,1.0,0.0,0.0,6.0,0.0,0.0,0.0,0.0,0.0,
13.895,68.7588947973046,88.77160776138572,-165.0,25.0,-29.0,0.0,1.0,0.0,0.0,6.0,0.0,0.0,0.0,0.0,0.0,
13.908,68.67888947973046,89.42716077613856,-163.0,41.0,-25.0,0.0,1.0,0.0,0.0,6.0,0.0,0.0,0.0,0.0,0.0,
13.922,69.07588894797306,89.89771607761385,-162.0,46.0,-22.0,0.0,1.0,0.0,0.0,6.0,0.0,0.0,0.0,0.0,0.0,
13.936,69.39458889479731,90.3497716077614,-161.0,37.0,-26.0,0.0,1.0,0.0,0.0,6.0,0.0,0.0,0.0,0.0,0.0,
13.949,69.34545888947973,91.22297716077614,-160.0,43.0,-26.0,0.0,1.0,0.0,0.0,6.0,0.0,0.0,0.0,0.0,0.0,
13.964,69.51154588894798,92.27329771607761,-160.0,38.0,-15.0,0.0,1.0,0.0,0.0,6.0,0.0,0.0,0.0,0.0,0.0,
13.977,69.7261545888948,93.04432977160775,-152.0,21.0,-2.0,0.0,1.0,0.0,0.0,6.0,0.0,0.0,0.0,0.0,0.0,
13.99,69.86461545888947,93.70643297716077,-134.0,7.0,-5.0,0.0,1.0,0.0,0.0,6.0,0.0,0.0,0.0,0.0,0.0,
14.005,70.45446154588895,92.75564329771608,-117.0,-9.0,-6.0,0.0,1.0,0.0,0.0,6.0,0.0,0.0,0.0,0.0,0.0,
14.018,70.73844615458889,91.9765643297716,-95.0,-12.0,-19.0,0.0,1.0,0.0,0.0,6.0,0.0,0.0,0.0,0.0,0.0,
14.032,70.54184461545888,91.92565643297716,-80.0,-5.0,-29.0,0.0,1.0,0.0,0.0,6.0,0.0,0.0,0.0,0.0,0.0,
14.046,69.74818446154589,92.25356564329772,-74.0,15.0,-20.0,0.0,1.0,0.0,0.0,6.0,0.0,0.0,0.0,0.0,0.0,
14.059,69.06581844615458,93.38435656432978,-60.0,37.0,-20.0,0.0,1.0,0.0,0.0,6.0,0.0,0.0,0.0,0.0,0.0,
14.072,69.00658184461545,94.57743565643297,-54.0,47.0,-14.0,0.0,1.0,0.0,0.0,6.0,0.0,0.0,0.0,0.0,0.0,
14.087,69.13565818446155,96.3077435656433,-50.0,58.0,-8.0,0.0,1.0,0.0,0.0,6.0,0.0,0.0,0.0,0.0,0.0,
14.1,70.27356581844616,97.40777435656433,-43.0,43.0,-2.0,0.0,1.0,0.0,0.0,6.0,0.0,0.0,0.0,0.0,0.0,
14.113,71.12535658184461,98.56177743565642,-38.0,19.0,4.0,0.0,1.0,0.0,0.0,6.0,0.0,0.0,0.0,0.0,0.0,
14.127,71.61553565818446,99.11817774356565,-26.0,8.0,2.0,0.0,1.0,0.0,0.0,6.0,0.0,0.0,0.0,0.0,0.0,
14.14,71.63755356581845,99.90281777435656,-12.0,8.0,-7.0,0.0,1.0,0.0,0.0,6.0,0.0,0.0,0.0,0.0,0.0,
14.153,70.81175535658184,101.48428177743565,-2.0,13.0,0.0,0.0,0.0,0.0,0.0,6.0,0.0,0.0,0.0,0.0,0.0,
14.167,70.80117553565819,103.08242817774358,10.0,16.0,-5.0,0.0,0.0,0.0,0.0,6.0,0.0,0.0,0.0,0.0,0.0,
14.18,71.15111755356581,106.23924281777437,31.0,3.0,-24.0,0.0,0.0,0.0,0.0,6.0,0.0,0.0,0.0,0.0,0.0,
14.194,71.86111175535657,109.19192428177743,41.0,3.0,-31.0,0.0,0.0,0.0,0.0,6.0,0.0,0.0,0.0,0.0,0.0,
14.208,72.94911117553565,112.95219242817774,57.0,-1.0,-48.0,0.0,0.0,0.0,0.0,6.0,0.0,0.0,0.0,0.0,0.0,
14.221,73.51691111755356,117.16221924281777,68.0,22.0,-82.0,0.0,1.0,0.0,0.0,6.0,0.0,0.0,0.0,0.0,0.0,
14.234,69.99169111175534,112.34522192428177,-35.0,24.0,70.0,0.0,1.0,0.0,0.0,6.0,0.0,0.0,0.0,0.0,0.0,
14.248,73.69816911117553,102.55752219242818,76.0,122.0,-27.0,0.0,2.0,0.0,0.0,6.0,0.0,0.0,0.0,13.15,0.0,
14.262,74.17681691111756,104.24275221924282,31.0,-38.0,36.0,0.0,2.0,0.0,0.0,6.0,0.0,0.0,0.29,32.27,0.0,
14.276,73.34268169111175,99.97427522192427,-12.0,42.0,50.0,0.0,2.0,0.0,0.0,6.0,0.0,0.0,1.08,59.06,0.0,
14.289,72.94426816911118,96.28942752219243,0.0,50.0,16.0,0.0,2.0,1.0,0.0,6.0,0.0,0.0,2.35,84.46,0.59,
14.304,72.14842681691111,93.07694275221925,1.0,17.0,14.0,0.0,2.0,1.0,0.0,6.0,0.0,0.0,3.83,112.81,2.06,
14.317,72.66284268169112,90.19069427522193,4.0,32.0,4.0,0.0,2.0,0.0,0.0,6.0,0.0,0.0,4.91,114.48,2.75,
14.331,73.56928426816911,87.50806942752217,0.0,18.0,11.0,0.0,3.0,1.0,0.0,6.0,0.0,0.0,5.89,112.81,3.24,
14.345,74.61392842681691,85.50280694275223,0.0,13.0,7.0,1.0,3.0,1.0,0.0,6.0,0.0,0.0,6.28,111.44,4.41,
14.359,75.0963928426817,83.6642806942752,-1.0,2.0,14.0,1.0,3.0,1.0,0.0,6.0,0.0,0.0,6.77,113.01,5.2,
14.372,75.96363928426817,82.50842806942751,-3.0,6.0,8.0,1.0,3.0,1.0,0.0,6.0,0.0,0.0,7.46,116.54,6.08,
14.387,75.94236392842681,81.13284280694276,-4.0,6.0,6.0,2.0,4.0,1.0,0.0,6.0,0.0,0.0,9.42,122.23,7.06,
14.4,75.55323639284268,79.96928428069428,0.0,7.0,2.0,2.0,4.0,2.0,0.0,6.0,1.0,0.0,10.5,130.87,9.32,
14.414,75.17232363928427,78.97992842806943,0.0,13.0,0.0,2.0,4.0,2.0,0.0,6.0,1.0,0.0,11.77,153.72,10.3,
14.428,75.35023236392844,78.38599284280694,0.0,17.0,0.0,3.0,4.0,2.0,0.0,6.0,1.0,0.0,12.95,165.1,11.38,
14.442,75.78202323639285,78.0565992842807,-2.0,17.0,0.0,3.0,5.0,2.0,0.0,6.0,1.0,0.0,14.81,175.01,12.46,
14.456,76.19420232363929,77.46565992842808,-1.0,22.0,0.0,3.0,5.0,2.0,0.0,6.0,1.0,0.0,15.6,183.55,14.22,
14.47,76.61342023236392,77.02856599284281,-1.0,16.0,2.0,3.0,5.0,2.0,0.0,0.0,1.0,0.0,16.19,195.61,15.01,
14.484,76.8713420232364,76.65185659928427,-1.0,15.0,0.0,3.0,5.0,2.0,0.0,0.0,1.0,0.0,16.78,199.04,15.79,
14.498,77.20313420232362,76.27218565992843,-1.0,8.0,1.0,3.0,5.0,2.0,0.0,0.0,1.0,0.0,18.05,201.5,16.58,
14.513,77.22731342023236,75.88321856599285,0.0,6.0,0.0,4.0,5.0,2.0,0.0,0.0,1.0,0.0,18.54,202.97,17.95,
14.526,77.32873134202325,75.68232185659927,1.0,4.0,-2.0,3.0,6.0,2.0,0.0,0.0,1.0,0.0,19.13,202.38,18.54,
14.54,77.55487313420232,75.62623218565993,-2.0,0.0,-5.0,3.0,5.0,2.0,0.0,0.0,1.0,0.0,19.42,199.24,19.13,
14.554,77.51448731342023,75.47662321856599,0.0,-6.0,-2.0,3.0,5.0,2.0,0.0,0.0,1.0,0.0,19.62,194.24,19.62,
14.568,77.52844873134202,75.37166232185659,0.0,-4.0,-3.0,3.0,5.0,2.0,0.0,0.0,1.0,0.0,19.42,181.49,20.31,
14.582,77.4578448731342,75.21716623218566,1.0,-4.0,-2.0,3.0,5.0,2.0,0.0,0.0,1.0,0.0,19.33,174.62,20.5,
14.596,77.53178448731342,75.21971662321857,1.0,-3.0,0.0,3.0,5.0,2.0,0.0,0.0,1.0,0.0,19.33,167.95,20.8,
14.61,77.71917844873133,75.25597166232187,0.0,-3.0,0.0,3.0,5.0,2.0,0.0,0.0,1.0,0.0,19.33,161.28,21.19,
14.624,77.75591784487314,75.09759716623219,0.0,-3.0,0.0,3.0,5.0,2.0,0.0,0.0,1.0,0.0,19.23,149.31,22.17,
14.638,77.57959178448732,75.05475971662322,1.0,-7.0,0.0,3.0,5.0,2.0,0.0,0.0,1.0,0.0,19.23,145.29,22.76,
14.652,77.52595917844873,75.24847597166232,2.0,-2.0,-1.0,3.0,5.0,2.0,0.0,0.0,1.0,0.0,19.42,142.74,23.45,
14.666,77.44859591784487,75.20484759716624,1.0,0.0,0.0,3.0,5.0,2.0,0.0,0.0,1.0,0.0,19.72,141.26,24.23,
14.68,77.23385959178448,75.20048475971663,1.0,-1.0,0.0,3.0,5.0,2.0,0.0,0.0,2.0,0.0,20.7,138.71,25.9,
14.694,77.25738595917845,75.27204847597167,1.0,2.0,0.0,3.0,5.0,2.0,0.0,0.0,2.0,0.0,21.48,137.54,26.88,
14.707,77.37673859591784,75.24320484759716,1.0,2.0,0.0,3.0,5.0,2.0,0.0,0.0,2.0,0.0,22.17,136.46,27.76,
14.722,77.35267385959177,75.26732048475971,0.0,1.0,0.0,4.0,5.0,2.0,0.0,0.0,2.0,0.0,22.86,135.08,29.72,
14.735,77.36826738595919,75.28773204847597,0.0,1.0,0.0,4.0,5.0,2.0,0.0,0.0,2.0,0.0,24.13,132.34,30.61,
14.749,77.36982673859593,75.36177320484761,1.0,0.0,0.0,4.0,5.0,2.0,0.0,0.0,2.0,0.0,24.72,130.87,31.39,
14.763,77.35198267385958,75.25217732048475,1.0,-3.0,0.0,4.0,5.0,2.0,0.0,0.0,2.0,0.0,25.21,129.2,32.08,
14.777,77.28719826738596,75.25921773204848,2.0,-3.0,0.0,4.0,6.0,2.0,0.0,0.0,2.0,0.0,25.7,127.33,33.55,
14.791,77.2537198267386,75.29592177320484,2.0,-6.0,0.0,4.0,6.0,2.0,0.0,0.0,2.0,0.0,26.09,123.12,34.14,
14.804,77.23237198267387,75.40759217732048,3.0,-5.0,0.0,4.0,6.0,2.0,0.0,0.0,2.0,0.0,27.08,120.27,34.83,
14.819,77.23023719826739,75.46375921773205,4.0,-12.0,0.0,4.0,6.0,2.0,0.0,0.0,2.0,0.0,27.57,117.13,35.51,
14.833,76.97802371982675,75.6403759217732,2.0,-8.0,0.0,4.0,6.0,2.0,0.0,0.0,2.0,0.0,28.25,113.89,36.59,
14.846,76.87180237198268,75.82903759217731,1.0,-6.0,0.0,4.0,6.0,2.0,0.0,0.0,2.0,0.0,28.74,108.2,36.98,
14.861,76.64518023719828,75.95590375921773,0.0,-7.0,0.0,4.0,6.0,2.0,0.0,0.0,2.0,0.0,29.72,106.14,37.28,
14.875,76.64951802371984,76.11259037592177,0.0,-5.0,0.0,4.0,6.0,2.0,0.0,0.0,2.0,0.0,30.02,104.57,37.47,
14.888,76.541951802372,76.06525903759218,0.0,-5.0,0.0,4.0,6.0,2.0,0.0,0.0,2.0,0.0,30.12,103.69,37.47,
14.903,76.54919518023719,76.11452590375923,-2.0,-5.0,1.0,4.0,6.0,2.0,0.0,0.0,2.0,0.0,30.12,102.51,37.28,
14.917,76.44191951802372,76.18245259037592,-3.0,-2.0,0.0,5.0,6.0,2.0,0.0,0.0,2.0,0.0,30.21,102.02,37.08,
14.931,76.31419195180237,76.2522452590376,-3.0,-1.0,0.0,5.0,6.0,2.0,0.0,0.0,2.0,0.0,30.31,101.83,36.79,
14.946,76.26541919518024,76.30422452590376,-4.0,0.0,0.0,5.0,6.0,2.0,0.0,0.0,2.0,0.0,30.31,102.81,36.2,
14.959,76.17954191951802,76.20142245259038,-5.0,5.0,-1.0,5.0,6.0,2.0,0.0,0.0,2.0,0.0,30.31,103.89,35.71,
14.973,76.3239541919518,76.15514224525904,-5.0,5.0,0.0,5.0,6.0,2.0,0.0,0.0,2.0,0.0,29.63,105.16,35.12,
14.988,76.36539541919518,76.2945142245259,-7.0,8.0,-2.0,5.0,6.0,2.0,0.0,0.0,2.0,0.0,29.04,106.24,33.35,
15.001,76.62153954191953,76.30845142245259,-7.0,3.0,-2.0,5.0,6.0,2.0,0.0,0.0,2.0,0.0,28.25,108.2,32.27,
15.015,76.79115395419196,76.17484514224526,-6.0,0.0,0.0,4.0,6.0,2.0,0.0,0.0,2.0,0.0,27.27,108.99,30.9,
15.03,76.78111539541919,75.96348451422453,-3.0,-5.0,0.0,4.0,6.0,2.0,0.0,0.0,2.0,0.0,25.51,109.28,29.63,
15.044,76.70811153954192,75.84334845142246,-2.0,-7.0,0.0,4.0,6.0,2.0,0.0,0.0,2.0,0.0,24.72,108.5,26.88,
15.057,76.61981115395419,75.78633484514225,-2.0,-11.0,0.0,4.0,6.0,2.0,0.0,0.0,2.0,0.0,24.03,103.99,25.6,
15.072,76.52098111539543,75.71763348451422,0.0,-14.0,1.0,4.0,6.0,2.0,0.0,0.0,2.0,0.0,23.54,100.65,24.43,
15.086,76.29509811153955,75.72876334845144,0.0,-15.0,1.0,4.0,6.0,2.0,0.0,0.0,2.0,0.0,22.66,96.82,23.25,
15.1,76.06550981115396,75.83787633484515,0.0,-14.0,0.0,4.0,6.0,2.0,0.0,0.0,2.0,0.0,22.37,92.8,21.19,
15.114,75.7095509811154,75.82178763348452,0.0,-13.0,0.0,4.0,6.0,2.0,0.0,0.0,2.0,0.0,22.17,85.45,20.31,
15.128,75.49395509811154,75.85617876334845,0.0,-13.0,0.0,4.0,6.0,2.0,0.0,0.0,2.0,0.0,21.97,82.4,19.52,
15.142,75.31939550981114,75.97661787633484,0.0,-12.0,0.0,4.0,6.0,2.0,0.0,0.0,2.0,0.0,21.29,79.76,18.64,
15.156,75.06793955098111,76.04266178763348,-1.0,-9.0,-2.0,4.0,5.0,2.0,0.0,0.0,2.0,0.0,20.9,75.34,17.36,
15.17,74.8447939550981,76.05826617876335,-2.0,-11.0,-1.0,4.0,5.0,2.0,0.0,0.0,2.0,0.0,20.5,73.67,16.68,
15.184,74.8314793955098,75.97882661787634,-1.0,-10.0,-2.0,4.0,5.0,2.0,0.0,0.0,2.0,0.0,19.91,72.3,16.09,
15.199,74.74914793955097,76.01588266178763,0.0,-12.0,-1.0,4.0,5.0,2.0,0.0,0.0,2.0,0.0,18.74,71.22,14.72,
15.212,74.54291479395509,76.04658826617876,0.0,-10.0,-2.0,4.0,5.0,2.0,0.0,0.0,2.0,0.0,18.44,68.77,14.22,
15.226,74.38729147939551,76.07665882661787,0.0,-12.0,-2.0,3.0,5.0,2.0,0.0,0.0,2.0,0.0,18.15,67.39,13.93,
15.241,74.18272914793955,76.09766588266179,0.0,-11.0,-2.0,3.0,5.0,2.0,0.0,0.0,2.0,0.0,17.95,66.02,13.54,
15.254,74.00927291479395,75.97376658826617,0.0,-9.0,-2.0,3.0,5.0,2.0,0.0,0.0,2.0,0.0,17.36,64.65,12.95,
15.268,73.9019272914794,76.02437665882663,0.0,-6.0,-3.0,3.0,5.0,2.0,0.0,0.0,2.0,0.0,17.17,62.39,12.75,
15.283,73.72019272914794,76.11943766588266,0.0,-8.0,-1.0,3.0,5.0,2.0,0.0,0.0,2.0,0.0,17.07,61.02,12.65,
15.297,73.5760192729148,76.20994376658827,0.0,-7.0,-1.0,3.0,5.0,2.0,0.0,0.0,2.0,0.0,16.97,59.45,12.36,
15.31,73.42660192729149,76.29099437665883,0.0,-7.0,-1.0,3.0,5.0,2.0,0.0,0.0,2.0,0.0,16.68,57.98,12.07,
15.325,73.31266019272914,76.28109943766589,0.0,-6.0,-1.0,3.0,5.0,2.0,0.0,0.0,2.0,0.0,16.48,55.43,11.87,
15.339,73.21126601927293,76.34310994376659,0.0,-7.0,-1.0,3.0,5.0,2.0,0.0,0.0,2.0,0.0,16.38,54.35,11.67,
15.352,73.11112660192728,76.34931099437667,0.0,-4.0,-2.0,3.0,5.0,2.0,0.0,0.0,2.0,0.0,16.19,53.46,11.48,
15.367,73.03811266019272,76.40393109943767,0.0,-5.0,-2.0,3.0,5.0,2.0,0.0,0.0,2.0,0.0,15.79,51.4,11.09,
15.38,73.00381126601927,76.54439310994377,-1.0,-5.0,-2.0,3.0,5.0,2.0,0.0,0.0,2.0,0.0,15.5,50.42,10.89,
15.394,72.86538112660192,76.54943931099437,-2.0,-4.0,-3.0,3.0,5.0,2.0,0.0,0.0,2.0,0.0,15.21,49.74,10.69,
15.409,72.7615381126602,76.53194393109945,-3.0,-2.0,-3.0,2.0,5.0,2.0,0.0,0.0,2.0,0.0,14.91,49.34,10.01,
15.423,72.72415381126602,76.58419439310995,-2.0,-1.0,-3.0,2.0,5.0,2.0,0.0,0.0,2.0,0.0,14.03,49.54,9.71,
15.436,72.64841538112661,76.562419439311,-2.0,0.0,-4.0,2.0,4.0,1.0,0.0,0.0,1.0,0.0,13.64,49.74,9.42,
15.451,72.68584153811267,76.5332419439311,-2.0,0.0,-4.0,2.0,4.0,1.0,0.0,0.0,1.0,0.0,13.24,49.74,9.32,
15.464,72.69858415381127,76.51232419439312,-3.0,0.0,-6.0,2.0,4.0,1.0,0.0,0.0,1.0,0.0,12.75,49.44,8.73,
15.478,72.65485841538113,76.4922324194393,-3.0,0.0,-6.0,2.0,4.0,1.0,0.0,0.0,1.0,0.0,12.26,48.85,8.53,
15.492,72.72248584153812,76.46322324194392,-4.0,0.0,-6.0,2.0,4.0,1.0,0.0,0.0,1.0,0.0,11.28,48.76,8.14,
15.506,72.71124858415381,76.42432232419439,-4.0,-1.0,-6.0,1.0,4.0,1.0,0.0,0.0,1.0,0.0,10.89,48.66,7.95,
15.519,72.76412485841537,76.28543223241944,-4.0,0.0,-6.0,1.0,4.0,1.0,0.0,0.0,1.0,0.0,10.4,48.76,7.46,
15.534,72.69741248584154,76.21754322324195,-5.0,-2.0,-5.0,1.0,4.0,1.0,0.0,0.0,1.0,0.0,9.91,49.34,7.26,
15.547,72.70874124858415,76.1567543223242,-5.0,-1.0,-5.0,1.0,4.0,1.0,0.0,0.0,1.0,0.0,9.12,49.74,6.97,
15.561,72.66487412485841,76.05167543223243,-4.0,0.0,-4.0,1.0,4.0,1.0,0.0,0.0,1.0,0.0,8.83,50.03,6.87,
15.575,72.69648741248585,75.94216754322325,-4.0,0.0,-2.0,1.0,4.0,1.0,0.0,0.0,1.0,0.0,8.63,50.42,6.57,
15.589,72.73564874124858,75.83221675432232,-4.0,2.0,-3.0,1.0,4.0,1.0,0.0,0.0,1.0,0.0,8.44,51.21,6.47,
15.602,72.80256487412487,75.79422167543224,-4.0,-1.0,-1.0,1.0,4.0,1.0,0.0,0.0,1.0,0.0,8.34,51.6,6.38,
15.617,72.89925648741249,75.77242216754323,-4.0,1.0,-2.0,1.0,4.0,1.0,0.0,0.0,1.0,0.0,8.04,51.89,6.38,
15.63,72.89092564874124,75.74324221675431,-4.0,0.0,-1.0,1.0,4.0,1.0,0.0,0.0,1.0,0.0,7.95,52.29,6.28,
15.644,72.94409256487413,75.70432422167544,-4.0,0.0,-2.0,1.0,4.0,1.0,0.0,0.0,1.0,0.0,7.95,53.56,6.18,
15.657,73.00340925648742,75.69143242216754,-5.0,-1.0,-2.0,1.0,4.0,1.0,0.0,0.0,1.0,0.0,7.95,54.15,5.98,
15.672,73.00934092564874,75.69014324221675,-5.0,-1.0,-2.0,1.0,3.0,1.0,0.0,0.0,1.0,0.0,7.65,54.74,5.79,
15.685,73.01893409256488,75.63601432422166,-4.0,-1.0,-2.0,1.0,3.0,1.0,0.0,0.0,1.0,0.0,7.46,55.33,5.4,
15.699,72.9658934092565,75.57660143242215,-4.0,-1.0,-2.0,1.0,3.0,1.0,0.0,0.0,1.0,0.0,7.26,56.31,5.2,
15.713,72.95158934092565,75.59766014324221,-4.0,1.0,-2.0,1.0,3.0,1.0,0.0,0.0,1.0,0.0,7.16,56.8,5.1,
15.727,72.90515893409258,75.61776601432423,-4.0,1.0,-2.0,1.0,3.0,1.0,0.0,0.0,1.0,0.0,6.87,57.09,4.91,
15.74,72.90951589340926,75.63777660143244,-5.0,2.0,-2.0,1.0,3.0,1.0,0.0,0.0,1.0,0.0,6.67,57.39,4.51,
15.755,72.99095158934092,75.61277766014325,-6.0,1.0,-1.0,1.0,3.0,1.0,0.0,0.0,1.0,0.0,6.57,57.78,4.32,
15.768,73.06209515893408,75.43027776601433,-6.0,2.0,-2.0,1.0,3.0,1.0,0.0,0.0,1.0,0.0,6.38,59.15,4.02,
15.781,73.0962095158934,75.33102777660143,-6.0,0.0,-1.0,1.0,3.0,1.0,0.0,0.0,1.0,0.0,6.18,60.23,3.73,
15.796,73.07262095158933,75.20410277766015,-5.0,0.0,-1.0,0.0,3.0,1.0,0.0,0.0,1.0,0.0,5.79,61.21,3.43,
15.809,73.11526209515894,75.06541027776602,-5.0,-1.0,-1.0,0.0,3.0,1.0,0.0,0.0,1.0,0.0,5.59,62.1,2.75,
15.823,73.0295262095159,74.94354102777662,-4.0,-1.0,-1.0,0.0,3.0,1.0,0.0,0.0,1.0,0.0,5.3,63.47,2.55,
15.837,72.96695262095159,74.85035410277767,-4.0,-2.0,-1.0,0.0,3.0,1.0,0.0,0.0,1.0,0.0,5.2,63.77,2.35,
15.851,72.95169526209516,74.81403541027777,-4.0,-3.0,0.0,0.0,3.0,1.0,0.0,0.0,1.0,0.0,5.0,63.86,2.06,
15.864,72.96816952620952,74.76540354102778,-4.0,-2.0,-1.0,0.0,3.0,1.0,0.0,0.0,1.0,0.0,4.91,63.86,1.77,
15.879,72.93381695262096,74.76054035410279,-3.0,-4.0,0.0,0.0,3.0,1.0,0.0,0.0,1.0,0.0,4.71,63.37,1.67,
15.892,72.9213816952621,74.77805403541028,-3.0,-2.0,0.0,0.0,3.0,1.0,0.0,0.0,1.0,0.0,4.61,63.08,1.57,
15.906,72.90213816952622,74.70780540354103,-2.0,-2.0,0.0,0.0,3.0,1.0,0.0,0.0,1.0,0.0,4.61,62.69,1.37,
15.92,72.84621381695263,74.7277805403541,-2.0,-3.0,0.0,0.0,3.0,1.0,0.0,0.0,1.0,0.0,4.61,62.29,1.18,
15.934,72.76862138169527,74.72977805403542,-2.0,-3.0,0.0,0.0,3.0,1.0,0.0,0.0,1.0,0.0,4.61,61.21,1.18,
15.947,72.69786213816953,74.77497780540355,-2.0,-3.0,0.0,0.0,3.0,1.0,0.0,0.0,1.0,0.0,4.51,60.53,1.08,
15.962,72.64578621381696,74.81549778054034,-2.0,-2.0,0.0,0.0,3.0,1.0,0.0,0.0,1.0,0.0,4.51,59.74,0.98,
15.975,72.59557862138169,74.80154977805402,-2.0,-3.0,0.0,0.0,3.0,1.0,0.0,0.0,1.0,0.0,4.41,59.15,0.98,
15.988,72.56355786213817,74.77315497780539,-2.0,-2.0,0.0,0.0,3.0,1.0,0.0,0.0,1.0,0.0,4.41,58.27,0.98,
16.003,72.52435578621382,74.81531549778053,-1.0,-3.0,-1.0,0.0,3.0,1.0,0.0,0.0,1.0,0.0,4.41,57.88,0.88,
16.016,72.47543557862139,74.80153154977805,-1.0,-2.0,-1.0,0.0,3.0,1.0,0.0,0.0,1.0,0.0,4.41,57.39,0.88,
16.03,72.45254355786213,74.80015315497779,-1.0,-3.0,-1.0,0.0,3.0,1.0,0.0,0.0,1.0,0.0,4.41,56.7,1.08,
16.044,72.42325435578621,74.82701531549777,-1.0,-3.0,-1.0,0.0,3.0,1.0,0.0,0.0,1.0,0.0,4.51,55.52,1.08,
16.058,72.41132543557862,74.84770153154977,-2.0,-2.0,-1.0,0.0,3.0,1.0,0.0,0.0,1.0,0.0,4.51,54.84,1.08,
16.071,72.34713254355788,74.87677015315498,-1.0,-2.0,-1.0,0.0,3.0,1.0,0.0,0.0,1.0,0.0,4.41,54.45,1.08,
16.086,72.30471325435578,74.8886770153155,-2.0,-2.0,0.0,0.0,3.0,1.0,0.0,0.0,1.0,0.0,4.41,54.15,1.08,
16.099,72.21047132543558,74.89886770153156,-1.0,-2.0,-1.0,0.0,3.0,1.0,0.0,0.0,1.0,0.0,4.41,53.56,0.98,
16.113,72.21004713254355,74.88188677015314,-1.0,-3.0,0.0,0.0,3.0,1.0,0.0,0.0,1.0,0.0,4.41,53.17,0.98,
16.126,72.12900471325436,74.88018867701531,-1.0,-2.0,0.0,0.0,3.0,1.0,0.0,0.0,1.0,0.0,4.41,52.68,0.98,
16.141,72.06690047132544,74.93401886770152,-1.0,-2.0,0.0,0.0,3.0,1.0,0.0,0.0,1.0,0.0,4.41,52.19,1.08,
16.154,71.99769004713254,74.97540188677016,-1.0,-1.0,0.0,0.0,3.0,1.0,0.0,0.0,1.0,0.0,4.51,51.5,1.08,
16.168,72.03576900471326,74.988540188677,-2.0,-1.0,0.0,0.0,3.0,1.0,0.0,0.0,1.0,0.0,4.51,51.21,1.08,
16.182,71.94957690047131,75.0438540188677,-2.0,0.0,0.0,0.0,3.0,1.0,0.0,0.0,1.0,0.0,4.51,51.11,1.18,
16.196,71.98595769004713,75.06738540188677,-2.0,0.0,0.0,0.0,3.0,1.0,0.0,0.0,1.0,0.0,4.61,51.21,1.18,
16.209,71.96259576900471,75.08773854018868,-2.0,0.0,0.0,0.0,3.0,1.0,0.0,0.0,1.0,0.0,4.61,51.5,1.18,
16.223,71.95125957690048,75.08077385401887,-2.0,0.0,0.0,0.0,3.0,1.0,0.0,0.0,1.0,0.0,4.61,51.6,1.28,
16.237,71.92312595769006,75.03507738540189,-2.0,0.0,-1.0,0.0,3.0,1.0,0.0,0.0,1.0,0.0,4.71,51.7,1.37,
16.25,71.938312595769,75.0485077385402,-2.0,0.0,0.0,0.0,3.0,1.0,0.0,0.0,1.0,0.0,4.71,51.89,1.47,
16.264,71.91283125957689,75.01385077385402,-2.0,0.0,0.0,0.0,3.0,1.0,0.0,0.0,1.0,0.0,4.71,51.99,1.47,
16.278,71.90128312595769,74.99238507738539,-3.0,0.0,0.0,0.0,3.0,1.0,0.0,0.0,1.0,0.0,4.71,52.58,1.57,
16.291,71.89112831259578,74.97223850773854,-3.0,0.0,-1.0,0.0,3.0,1.0,0.0,0.0,1.0,0.0,4.71,52.97,1.57,
16.306,71.89911283125959,74.99722385077385,-2.0,0.0,-1.0,0.0,3.0,1.0,0.0,0.0,1.0,0.0,4.71,53.37,1.57,
16.319,71.90891128312595,74.97272238507739,-2.0,0.0,-1.0,1.0,3.0,1.0,0.0,0.0,1.0,0.0,4.71,53.86,1.67,
16.332,71.92789112831261,74.96127223850773,-2.0,0.0,0.0,1.0,3.0,1.0,0.0,0.0,1.0,0.0,4.71,54.94,1.67,
16.347,71.94778911283127,74.97812722385078,-2.0,1.0,0.0,1.0,3.0,1.0,0.0,0.0,1.0,0.0,4.81,55.33,1.67,
16.36,71.94077891128312,74.96181272238508,-2.0,0.0,0.0,1.0,3.0,1.0,0.0,0.0,1.0,0.0,4.81,55.72,1.77,
16.374,71.95807789112831,75.0321812722385,-2.0,0.0,0.0,1.0,3.0,1.0,0.0,0.0,1.0,0.0,4.71,56.02,1.86,
16.388,71.98680778911283,74.94921812722384,-2.0,0.0,0.0,1.0,3.0,1.0,0.0,0.0,1.0,0.0,4.71,56.7,1.86,
16.401,72.0076807789113,74.96792181272238,-2.0,0.0,0.0,1.0,3.0,1.0,0.0,0.0,1.0,0.0,4.81,57.0,1.86,
16.415,72.00976807789114,74.99679218127224,-2.0,0.0,0.0,1.0,3.0,1.0,0.0,0.0,1.0,0.0,4.81,57.09,1.86,
16.429,71.99197680778911,75.01767921812723,-2.0,0.0,0.0,1.0,3.0,1.0,0.0,0.0,1.0,0.0,4.81,57.09,1.86,
16.442,71.9721976807789,75.04676792181272,-2.0,0.0,0.0,1.0,3.0,1.0,0.0,0.0,1.0,0.0,4.81,57.19,1.86,
16.456,72.01521976807788,75.01367679218127,-2.0,0.0,-1.0,1.0,3.0,1.0,0.0,0.0,1.0,0.0,4.81,57.58,1.86,
16.47,71.94752197680778,75.01936767921812,-2.0,0.0,-1.0,1.0,3.0,1.0,0.0,0.0,1.0,0.0,4.81,57.98,1.86,
16.484,71.91375219768076,74.9839367679218,-2.0,0.0,0.0,1.0,3.0,1.0,0.0,0.0,1.0,0.0,4.81,58.27,1.86,
16.497,71.91037521976807,74.96239367679217,-2.0,0.0,-1.0,1.0,3.0,1.0,0.0,0.0,1.0,0.0,4.91,58.47,1.96,
16.51,71.91903752197682,74.9422393676792,-2.0,0.0,0.0,1.0,3.0,1.0,0.0,0.0,1.0,0.0,4.91,58.96,1.96,
16.525,71.95590375219767,74.92222393676792,-2.0,0.0,0.0,1.0,3.0,1.0,0.0,0.0,1.0,0.0,4.81,59.06,1.96,
16.538,71.99559037521976,74.9202223936768,-2.0,0.0,-1.0,1.0,3.0,1.0,0.0,0.0,1.0,0.0,4.81,59.25,1.96,
16.552,71.96355903752197,74.88402223936768,-2.0,0.0,0.0,1.0,3.0,1.0,0.0,0.0,1.0,0.0,4.81,59.35,2.06,
16.566,71.96935590375219,74.89840222393678,-2.0,0.0,0.0,1.0,3.0,1.0,0.0,0.0,1.0,0.0,4.81,59.45,1.96,
16.579,71.96993559037521,74.9268402223937,-2.0,0.0,0.0,1.0,3.0,1.0,0.0,0.0,1.0,0.0,4.81,59.55,1.96,
16.593,71.98799355903752,74.91168402223937,-2.0,0.0,0.0,1.0,3.0,1.0,0.0,0.0,1.0,0.0,4.81,59.64,1.96,
