time,pitch,roll,gyrx,gyry,gyrz,f1,f2,f3,f4,f5,f6,f7,g1,g2,g3
0.385,30.91,14.65,0.0,0.0,0.0,0.0,0.0,0.0,0.0,0.0,0.0,0.0,0.1,0.0,0.0,
0.398,33.241,15.793,-1.0,0.0,0.0,0.0,0.0,0.0,0.0,0.0,0.0,0.0,0.1,0.0,0.0,
0.41,35.5441,16.9153,-2.0,0.0,0.0,0.0,0.0,0.0,0.0,0.0,0.0,0.0,0.1,0.0,0.0,
0.423,37.66441,17.93653,-2.0,0.0,1.0,0.0,0.0,0.0,0.0,0.0,0.0,0.0,0.1,0.0,0.0,
0.437,39.460440999999996,18.695653,-3.0,0.0,0.0,0.0,0.0,0.0,0.0,0.0,0.0,0.0,0.1,0.0,0.0,
0.45,41.0710441,19.4015653,-2.0,0.0,0.0,0.0,0.0,0.0,0.0,0.0,0.0,0.0,0.0,0.0,0.0,
0.463,42.17710441,19.87715653,-2.0,0.0,0.0,0.0,0.0,0.0,0.0,0.0,0.0,0.0,0.1,0.0,0.0,
0.477,43.241710441,20.365715653000002,-2.0,0.0,-1.0,0.0,0.0,0.0,0.0,0.0,0.0,0.0,0.2,0.1,0.0,
0.49,44.1491710441,20.7745715653,-2.0,0.0,-1.0,0.0,0.0,0.0,0.0,0.0,0.0,0.0,0.29,0.1,0.0,
0.503,44.815917104410005,21.10345715653,-3.0,0.0,0.0,0.0,0.0,0.0,0.0,0.0,0.0,0.0,0.2,0.0,0.0,
0.516,45.386591710441,21.325345715653004,-5.0,0.0,0.0,0.0,0.0,0.0,0.0,0.0,0.0,0.0,0.2,0.0,0.0,
0.529,45.965659171044095,21.5365345715653,-4.0,0.0,0.0,0.0,0.0,0.0,0.0,0.0,0.0,0.0,0.2,0.0,0.0,
0.542,46.716565917104404,21.76465345715653,-4.0,-1.0,-1.0,0.0,0.0,0.0,0.0,0.0,0.0,0.0,0.1,0.0,0.0,
0.556,47.367656591710436,22.021465345715654,-4.0,0.0,0.0,0.0,0.0,0.0,0.0,0.0,0.0,0.0,0.1,0.0,0.1,
0.569,47.84676565917104,22.272146534571565,-4.0,0.0,-1.0,0.0,0.0,0.0,0.0,0.0,0.0,0.0,0.1,0.0,0.0,
0.582,48.23667656591711,22.405214653457158,-4.0,0.0,0.0,0.0,0.0,0.0,0.0,0.0,0.0,0.0,0.1,0.0,0.1,
0.595,48.51866765659171,22.562521465345714,-4.0,0.0,0.0,0.0,0.0,0.0,0.0,0.0,0.0,0.0,0.2,0.0,0.0,
0.608,48.72686676565917,22.61425214653457,-4.0,0.0,0.0,0.0,0.0,0.0,0.0,0.0,0.0,0.0,0.2,0.1,0.0,
0.621,49.15268667656592,22.754425214653455,-4.0,-1.0,0.0,0.0,0.0,0.0,0.0,0.0,0.0,0.0,0.2,0.0,0.0,
0.634,49.47426866765659,22.876442521465346,-5.0,0.0,0.0,0.0,0.0,0.0,0.0,0.0,0.0,0.0,0.1,0.1,0.0,
0.648,49.76742686676566,23.032644252146536,-5.0,0.0,0.0,0.0,0.0,0.0,0.0,0.0,0.0,0.0,0.1,0.1,0.0,
0.661,49.84174268667657,23.021264425214653,-4.0,0.0,-1.0,0.0,0.0,0.0,0.0,0.0,0.0,0.0,0.2,0.0,0.0,
0.674,49.85817426866766,23.074126442521464,-3.0,-1.0,-2.0,0.0,0.0,0.0,0.0,0.0,0.0,0.0,0.2,0.0,0.0,
0.688,49.88681742686677,23.169412644252148,-3.0,-1.0,-1.0,0.0,0.0,0.0,0.0,0.0,0.0,0.0,0.1,0.0,0.0,
0.701,49.98868174268668,23.322941264425214,-3.0,0.0,0.0,0.0,0.0,0.0,0.0,0.0,0.0,0.0,0.1,0.0,0.0,
0.714,50.196868174268666,23.50029412644252,-3.0,0.0,0.0,0.0,0.0,0.0,0.0,0.0,0.0,0.0,0.2,0.0,0.0,
0.728,50.379686817426865,23.53602941264425,-3.0,0.0,0.0,0.0,0.0,0.0,0.0,0.0,0.0,0.0,0.2,0.0,0.0,
0.74,50.649968681742685,23.638602941264423,-2.0,0.0,-1.0,0.0,0.0,0.0,0.0,0.0,0.0,0.0,0.2,0.0,0.0,
0.753,50.766996868174274,23.711860294126442,-1.0,0.0,0.0,0.0,0.0,0.0,0.0,0.0,0.0,0.0,0.2,0.0,0.0,
0.766,50.71569968681743,23.728186029412644,-1.0,0.0,0.0,0.0,0.0,0.0,0.0,0.0,0.0,0.0,0.2,0.0,0.0,
0.78,50.692569968681745,23.765818602941266,-1.0,1.0,0.0,0.0,0.0,0.0,0.0,0.0,0.0,0.0,0.2,0.0,0.0,
0.793,50.753256996868174,23.79658186029413,-1.0,0.0,1.0,0.0,0.0,0.0,0.0,0.0,0.0,0.0,0.1,0.0,0.0,
0.806,50.678325699686816,23.673658186029414,-2.0,0.0,0.0,0.0,0.0,0.0,0.0,0.0,0.0,0.0,0.0,0.0,0.0,
0.819,50.760832569968684,23.679365818602943,-1.0,0.0,0.0,0.0,0.0,0.0,0.0,0.0,0.0,0.0,0.1,0.0,0.0,
0.832,50.985083256996866,23.751936581860292,-1.0,0.0,0.0,0.0,0.0,0.0,0.0,0.0,0.0,0.0,0.1,0.0,0.0,
0.845,51.13350832569968,23.78619365818603,-1.0,0.0,0.0,0.0,0.0,0.0,0.0,0.0,0.0,0.0,0.1,0.1,0.0,
0.859,51.36435083256997,23.807619365818603,0.0,0.0,-1.0,0.0,0.0,0.0,0.0,0.0,0.0,0.0,0.2,0.1,0.0,
0.872,51.279435083257,23.728761936581858,0.0,0.0,-2.0,0.0,0.0,0.0,0.0,0.0,0.0,0.0,0.2,0.0,0.0,
0.885,50.8749435083257,23.585876193658187,0.0,1.0,-1.0,0.0,0.0,0.0,0.0,0.0,0.0,0.0,0.2,0.1,0.0,
0.899,50.29449435083257,23.400587619365815,0.0,0.0,0.0,0.0,0.0,0.0,0.0,0.0,0.0,0.0,0.2,0.1,0.0,
0.911,49.786449435083256,23.283058761936584,-1.0,0.0,0.0,0.0,0.0,0.0,0.0,0.0,0.0,0.0,0.2,0.0,0.0,
0.924,49.56464494350833,23.21730587619366,-2.0,0.0,1.0,0.0,0.0,0.0,0.0,0.0,0.0,0.0,0.2,0.0,0.0,
0.937,49.479464494350836,23.165730587619365,-2.0,0.0,0.0,0.0,0.0,0.0,0.0,0.0,0.0,0.0,0.2,0.0,0.0,
0.951,49.740946449435086,23.259573058761937,-2.0,0.0,0.0,0.0,0.0,0.0,0.0,0.0,0.0,0.0,0.2,0.1,0.0,
0.964,49.965094644943505,23.331957305876195,-2.0,0.0,0.0,0.0,0.0,0.0,0.0,0.0,0.0,0.0,0.2,0.1,0.0,
0.976,49.98750946449435,23.294195730587617,-2.0,0.0,-1.0,0.0,0.0,0.0,0.0,0.0,0.0,0.0,0.2,0.1,0.0,
0.99,49.92675094644944,23.218419573058764,-2.0,0.0,0.0,0.0,0.0,0.0,0.0,0.0,0.0,0.0,0.2,0.1,0.0,
1.003,49.75867509464495,23.174841957305876,-2.0,0.0,0.0,0.0,0.0,0.0,0.0,0.0,0.0,0.0,0.2,0.0,0.0,
1.016,49.633867509464494,23.080484195730588,-3.0,0.0,0.0,0.0,0.0,0.0,0.0,0.0,0.0,0.0,0.1,0.0,0.0,
1.03,49.67538675094645,23.062048419573056,-4.0,0.0,0.0,0.0,0.0,0.0,0.0,0.0,0.0,0.0,0.1,0.0,0.0,
1.043,49.787538675094645,23.105204841957303,-4.0,0.0,0.0,0.0,0.0,0.0,0.0,0.0,0.0,0.0,0.2,0.1,0.0,
1.055,49.84375386750946,23.20852048419573,-3.0,0.0,0.0,0.0,0.0,0.0,0.0,0.0,0.0,0.0,0.2,0.0,0.0,
1.069,49.76837538675095,23.22785204841957,-2.0,0.0,-2.0,0.0,0.0,0.0,0.0,0.0,0.0,0.0,0.2,0.1,0.0,
1.082,49.57183753867509,23.238785204841957,-2.0,0.0,-1.0,0.0,0.0,0.0,0.0,0.0,0.0,0.0,0.2,0.0,0.0,
1.095,49.426183753867505,23.221878520484196,-3.0,0.0,0.0,0.0,0.0,0.0,0.0,0.0,0.0,0.0,0.1,0.1,0.0,
1.108,49.27661837538675,23.22918785204842,-4.0,0.0,0.0,0.0,0.0,0.0,0.0,0.0,0.0,0.0,0.2,0.1,0.0,
1.122,49.270661837538675,23.22091878520484,-5.0,0.0,1.0,0.0,0.0,0.0,0.0,0.0,0.0,0.0,0.2,0.1,0.0,
1.135,49.49506618375387,23.31009187852048,-5.0,-1.0,0.0,0.0,0.0,0.0,0.0,0.0,0.0,0.0,0.2,0.1,0.0,
1.148,49.78750661837539,23.40900918785205,-4.0,-1.0,0.0,0.0,0.0,0.0,0.0,0.0,0.0,0.0,0.29,0.0,0.0,
1.162,50.09575066183754,23.562900918785203,-4.0,-1.0,-1.0,0.0,0.0,0.0,0.0,0.0,0.0,0.0,0.29,0.0,0.0,
1.175,50.27057506618375,23.65929009187852,-2.0,0.0,-1.0,0.0,0.0,0.0,0.0,0.0,0.0,0.0,0.2,0.0,0.0,
1.188,50.20705750661838,23.596929009187853,-2.0,0.0,-1.0,0.0,0.0,0.0,0.0,0.0,0.0,0.0,0.2,0.0,0.0,
1.201,50.12870575066184,23.554692900918784,-1.0,0.0,-1.0,0.0,0.0,0.0,0.0,0.0,0.0,0.0,0.2,0.0,0.0,
1.214,50.06687057506618,23.523469290091878,-2.0,0.0,0.0,0.0,0.0,0.0,0.0,0.0,0.0,0.0,0.1,0.0,0.0,
1.227,50.00668705750662,23.484346929009188,-2.0,0.0,0.0,0.0,0.0,0.0,0.0,0.0,0.0,0.0,0.1,0.1,0.0,
1.241,50.02766870575066,23.489434692900915,-3.0,0.0,0.0,0.0,0.0,0.0,0.0,0.0,0.0,0.0,0.2,0.1,0.0,
1.254,49.993766870575065,23.39094346929009,-3.0,0.0,0.0,0.0,0.0,0.0,0.0,0.0,0.0,0.0,0.2,0.1,0.0,
1.267,50.09837668705751,23.381094346929007,-3.0,0.0,0.0,0.0,0.0,0.0,0.0,0.0,0.0,0.0,0.2,0.0,0.0,
1.28,50.04583766870575,23.3441094346929,-3.0,0.0,-1.0,0.0,0.0,0.0,0.0,0.0,0.0,0.0,0.2,0.0,0.0,
1.293,50.013583766870575,23.32241094346929,-2.0,0.0,-2.0,0.0,0.0,0.0,0.0,0.0,0.0,0.0,0.1,0.0,0.0,
1.306,50.04635837668706,23.365241094346928,-2.0,-1.0,-2.0,0.0,0.0,0.0,0.0,0.0,0.0,0.0,0.2,0.1,0.0,
1.319,49.90563583766871,23.414524109434694,-2.0,0.0,0.0,0.0,0.0,0.0,0.0,0.0,0.0,0.0,0.1,0.1,0.0,
1.333,49.52256358376687,23.302452410943467,-1.0,0.0,0.0,0.0,0.0,0.0,0.0,0.0,0.0,0.0,0.2,0.1,0.0,
1.346,49.313256358376684,23.237245241094346,-1.0,0.0,0.0,0.0,0.0,0.0,0.0,0.0,0.0,0.0,0.2,0.1,0.0,
1.359,48.950325635837665,23.005724524109436,-2.0,0.0,1.0,0.0,0.0,0.0,0.0,0.0,0.0,0.0,0.1,0.0,0.0,
1.373,48.76103256358377,22.919572452410943,-2.0,0.0,1.0,0.0,0.0,0.0,0.0,0.0,0.0,0.0,0.2,0.1,0.0,
1.385,48.85010325635838,22.865957245241095,-2.0,0.0,0.0,0.0,0.0,0.0,0.0,0.0,0.0,0.0,0.2,0.1,0.0,
1.398,49.28201032563584,22.99559572452411,-2.0,-1.0,-1.0,0.0,0.0,0.0,0.0,0.0,0.0,0.0,0.2,0.1,0.0,
1.412,49.577201032563586,23.089559572452412,-2.0,0.0,0.0,0.0,0.0,0.0,0.0,0.0,0.0,0.0,0.2,0.0,0.0,
1.425,50.20072010325636,23.224955957245243,-1.0,0.0,-2.0,0.0,0.0,0.0,0.0,0.0,0.0,0.0,0.2,0.0,0.0,
1.438,50.803072010325636,23.418495595724522,-1.0,-2.0,-2.0,0.0,0.0,0.0,0.0,0.0,0.0,0.0,0.2,0.0,0.0,
1.452,50.69230720103256,23.455849559572453,0.0,-1.0,-1.0,0.0,0.0,0.0,0.0,0.0,0.0,0.0,0.2,0.0,0.0,
1.465,50.789230720103255,23.50458495595725,0.0,0.0,0.0,0.0,0.0,0.0,0.0,0.0,0.0,0.0,0.2,0.0,0.0,
1.478,50.87992307201033,23.563458495595725,0.0,1.0,0.0,0.0,0.0,0.0,0.0,0.0,0.0,0.0,0.2,0.0,0.0,
1.49,50.95199230720104,23.578345849559568,-1.0,0.0,0.0,0.0,0.0,0.0,0.0,0.0,0.0,0.0,0.1,0.1,0.1,
1.504,51.06719923072011,23.597834584955958,0.0,0.0,0.0,0.0,0.0,0.0,0.0,0.0,0.0,0.0,0.1,0.1,0.0,
1.517,51.34871992307201,23.707783458495594,0.0,1.0,-1.0,0.0,0.0,0.0,0.0,0.0,0.0,0.0,0.1,0.1,0.0,
1.53,51.6558719923072,23.835778345849562,0.0,1.0,-2.0,0.0,0.0,0.0,0.0,0.0,0.0,0.0,0.2,0.1,0.0,
1.544,51.94758719923072,23.956577834584955,0.0,0.0,-2.0,0.0,0.0,0.0,0.0,0.0,0.0,0.0,0.2,0.1,0.0,
1.556,52.147758719923075,24.157657783458497,0.0,1.0,-2.0,0.0,0.0,0.0,0.0,0.0,0.0,0.0,0.2,0.1,0.1,
1.569,52.08677587199231,24.141765778345853,0.0,2.0,-1.0,0.0,0.0,0.0,0.0,0.0,0.0,0.0,0.2,0.0,0.1,
1.583,52.00867758719923,24.041176577834587,1.0,1.0,-2.0,0.0,0.0,0.0,0.0,0.0,0.0,0.0,0.2,0.0,0.1,
1.596,52.01886775871993,24.00411765778346,1.0,0.0,-4.0,0.0,0.0,0.0,0.0,0.0,0.0,0.0,0.29,0.1,0.0,
1.609,52.163886775871994,24.054411765778347,1.0,0.0,-5.0,0.0,0.0,0.0,0.0,0.0,0.0,0.0,0.29,0.1,0.0,
1.623,52.610388677587196,24.320441176577837,1.0,0.0,-8.0,0.0,0.0,0.0,0.0,0.0,0.0,0.0,0.29,0.0,0.0,
1.636,53.77103886775872,24.788044117657783,3.0,-1.0,-13.0,0.0,0.0,0.0,0.0,0.0,0.0,0.0,0.29,0.1,0.0,
1.649,55.44410388677587,25.42880441176578,6.0,-4.0,-21.0,0.0,0.0,0.0,0.0,0.0,0.0,0.0,0.29,0.1,0.0,
1.662,57.78941038867758,26.33888044117658,10.0,-10.0,-31.0,0.0,0.0,0.0,0.0,0.0,0.0,0.0,0.29,0.1,0.0,
1.676,60.50794103886776,27.73488804411766,17.0,-17.0,-44.0,0.0,0.0,0.0,0.0,0.0,0.0,0.0,0.39,0.1,0.0,
1.689,63.299794103886775,29.206488804411766,26.0,-17.0,-54.0,0.0,0.0,0.0,0.0,0.0,0.0,0.0,0.59,0.1,0.0,
1.702,65.48697941038868,30.550648880441173,33.0,-13.0,-63.0,0.0,0.0,0.0,0.0,0.0,0.0,0.0,0.78,0.1,0.0,
1.716,65.84969794103887,31.135064888044116,41.0,0.0,-57.0,0.0,0.0,0.0,0.0,0.0,0.0,0.0,0.98,0.0,0.0,
1.729,63.33896979410389,30.257506488804413,44.0,15.0,-35.0,0.0,0.0,0.0,0.0,0.0,0.0,0.0,1.28,0.29,0.0,
1.742,58.98389697941039,28.45075064888044,41.0,16.0,-13.0,0.0,0.0,0.0,0.0,0.0,0.0,0.0,1.57,0.69,0.0,
1.757,54.56138969794104,26.416075064888044,28.0,7.0,-9.0,0.0,0.0,0.0,0.0,0.0,0.0,0.0,1.77,1.18,0.0,
1.77,51.770138969794104,25.132607506488803,13.0,-4.0,-7.0,0.0,0.0,0.0,0.0,0.0,0.0,0.0,1.67,1.47,0.0,
1.783,51.041013896979415,24.79726075064888,2.0,-11.0,4.0,0.0,0.0,0.0,0.0,0.0,0.0,0.0,1.67,1.67,0.0,
1.797,51.742101389697936,25.29472607506489,-5.0,-9.0,8.0,0.0,0.0,0.0,0.0,0.0,0.0,0.0,1.77,1.57,0.0,
1.809,53.477210138969795,26.109472607506486,-5.0,-6.0,1.0,0.0,0.0,0.0,0.0,0.0,0.0,0.0,1.86,1.37,0.0,
1.822,55.540721013896984,27.26194726075065,2.0,-15.0,-19.0,0.0,0.0,0.0,0.0,0.0,0.0,0.0,2.06,1.18,0.0,
1.836,57.9250721013897,29.222194726075067,12.0,-24.0,-37.0,0.0,0.0,0.0,0.0,0.0,0.0,0.0,2.16,0.98,0.0,
1.85,60.242507210138974,31.767219472607504,23.0,-29.0,-43.0,0.0,0.0,0.0,0.0,0.0,0.0,0.0,2.26,0.88,0.0,
1.863,62.6792507210139,34.50572194726075,35.0,-23.0,-41.0,0.0,0.0,0.0,0.0,0.0,0.0,0.0,2.26,0.69,0.0,
1.876,65.05592507210139,37.119572194726075,44.0,-24.0,-44.0,0.0,0.0,0.0,0.0,0.0,0.0,0.0,2.26,0.59,0.0,
1.89,66.75159250721013,39.270957219472606,54.0,-15.0,-45.0,0.0,0.0,0.0,0.0,0.0,0.0,0.0,2.45,0.59,0.0,
1.903,67.85715925072101,41.169095721947265,62.0,-11.0,-42.0,0.0,0.0,0.0,0.0,0.0,0.0,0.0,2.55,0.59,0.0,
1.916,69.0117159250721,43.08690957219473,68.0,-15.0,-38.0,0.0,0.0,0.0,0.0,0.0,0.0,0.0,2.55,0.88,0.0,
1.931,70.64817159250721,45.45669095721948,72.0,-17.0,-33.0,0.0,0.0,0.0,0.0,0.0,0.0,0.0,2.55,0.98,0.0,
1.944,72.89081715925073,48.72666909572195,80.0,-27.0,-42.0,0.0,0.0,0.0,0.0,0.0,0.0,0.0,2.55,0.88,0.0,
1.957,75.41008171592506,52.500666909572196,91.0,-24.0,-53.0,0.0,0.0,0.0,0.0,0.0,0.0,0.0,2.65,0.88,0.0,
1.971,74.8340081715925,51.17706669095722,124.0,-6.0,-48.0,0.0,0.0,0.0,0.0,0.0,0.0,0.0,3.04,0.88,0.0,
1.984,76.71140081715926,54.248706669095725,114.0,42.0,20.0,0.0,0.0,0.0,0.0,0.0,0.0,0.0,3.24,0.59,0.0,
1.997,78.75314008171593,56.004870666909575,125.0,38.0,-21.0,0.0,0.0,0.0,0.0,0.0,0.0,0.0,3.43,0.78,0.0,
2.011,79.83031400817158,58.17848706669096,124.0,27.0,-35.0,0.0,0.0,0.0,0.0,0.0,0.0,0.0,3.63,0.98,0.0,
2.025,80.44203140081716,59.5838487066691,118.0,34.0,-14.0,0.0,0.0,0.0,0.0,0.0,0.0,0.0,3.63,1.18,0.0,
2.038,80.21520314008173,59.823384870666914,113.0,32.0,-18.0,0.0,0.0,0.0,0.0,0.0,0.0,0.0,3.92,1.37,0.0,
2.052,79.67952031400817,60.00933848706669,108.0,24.0,-16.0,0.0,0.0,0.0,0.0,0.0,0.0,0.0,4.12,1.96,0.0,
2.065,79.22095203140081,60.12693384870667,100.0,18.0,-4.0,0.0,0.0,0.0,0.0,0.0,0.0,0.0,4.22,2.06,0.0,
2.078,79.04909520314008,60.22869338487067,94.0,19.0,-1.0,0.0,0.0,0.0,0.0,0.0,0.0,0.0,4.22,2.06,0.0,
2.092,78.95090952031401,60.16686933848706,94.0,24.0,7.0,0.0,0.0,0.0,0.0,0.0,0.0,0.0,4.32,2.06,0.0,
2.105,79.2740909520314,59.872686933848705,93.0,33.0,5.0,0.0,0.0,0.0,0.0,0.0,0.0,0.0,4.32,1.86,0.0,
2.118,79.80140909520313,59.69926869338487,90.0,26.0,-6.0,0.0,0.0,0.0,0.0,0.0,0.0,0.0,4.22,1.77,0.0,
2.131,80.16014090952032,59.57392686933849,85.0,13.0,-12.0,0.0,0.0,0.0,0.0,0.0,0.0,0.0,4.12,1.77,0.0,
2.145,80.25901409095202,59.39939268693385,79.0,10.0,-12.0,0.0,0.0,0.0,0.0,0.0,0.0,0.0,4.12,1.86,0.0,
2.158,80.26890140909519,59.12093926869339,72.0,14.0,-28.0,0.0,0.0,0.0,0.0,0.0,0.0,0.0,4.12,1.86,0.0,
2.171,80.01789014090951,59.06609392686934,66.0,3.0,-41.0,0.0,0.0,0.0,0.0,0.0,0.0,0.0,4.02,1.96,0.0,
2.185,79.55178901409094,59.402609392686934,62.0,-12.0,-39.0,0.0,0.0,0.0,0.0,0.0,0.0,0.0,3.92,2.06,0.0,
2.199,79.04617890140909,59.62526093926869,61.0,-14.0,-42.0,0.0,0.0,0.0,0.0,0.0,0.0,0.0,4.02,2.06,0.0,
2.212,78.6446178901409,59.81852609392687,67.0,-5.0,-39.0,0.0,0.0,0.0,0.0,0.0,0.0,0.0,4.12,2.06,0.0,
2.226,78.14546178901409,60.08985260939268,73.0,10.0,-16.0,0.0,0.0,0.0,0.0,0.0,0.0,0.0,4.12,2.06,0.0,
2.239,77.4565461789014,59.90998526093927,76.0,38.0,5.0,0.0,0.0,0.0,0.0,0.0,0.0,0.0,3.92,1.77,0.0,
2.252,77.21665461789014,59.13599852609392,70.0,54.0,15.0,0.0,0.0,0.0,0.0,0.0,0.0,0.0,3.63,1.57,0.0,
2.266,77.210665461789,57.8435998526094,58.0,29.0,4.0,0.0,0.0,0.0,0.0,0.0,0.0,0.0,3.43,1.67,0.0,
2.278,77.3450665461789,56.86835998526094,48.0,7.0,-4.0,0.0,0.0,0.0,0.0,0.0,0.0,0.0,3.24,1.67,0.0,
2.291,78.12350665461788,56.25783599852609,37.0,7.0,-7.0,0.0,0.0,0.0,0.0,0.0,0.0,0.0,3.04,1.67,0.0,
2.305,78.7413506654618,55.48578359985261,39.0,19.0,0.0,0.0,0.0,0.0,0.0,0.0,0.0,0.0,2.94,1.67,0.0,
2.318,79.37913506654618,54.40057835998526,43.0,25.0,11.0,0.0,0.0,0.0,0.0,0.0,0.0,0.0,2.94,1.37,0.0,
2.331,79.55091350665461,53.311057835998525,44.0,21.0,7.0,0.0,0.0,0.0,0.0,0.0,0.0,0.0,2.84,1.28,0.0,
2.343,79.75709135066546,52.31110578359986,43.0,25.0,14.0,0.0,0.0,0.0,0.0,0.0,0.0,0.0,2.55,1.18,0.0,
2.357,79.52570913506653,50.708110578359985,35.0,39.0,28.0,0.0,0.0,0.0,0.0,0.0,0.0,0.0,2.26,1.08,0.0,
2.37,88.53857091350666,45.552811057835996,147.0,55.0,77.0,0.0,0.0,0.0,0.0,0.0,0.0,0.0,1.96,1.08,0.0,
2.383,84.17485709135066,41.4102811057836,44.0,-5.0,0.0,0.0,0.0,0.0,0.0,0.0,0.0,0.0,1.86,1.08,0.0,
2.397,89.40848570913506,47.10702811057836,16.0,-31.0,-74.0,0.0,0.0,0.0,0.0,0.0,0.0,0.0,1.67,1.18,0.0,
2.41,87.46584857091351,48.09970281105784,4.0,-49.0,-30.0,0.0,0.0,0.0,0.0,0.0,0.0,0.0,1.28,0.98,0.0,
2.423,85.21058485709135,48.03697028110579,10.0,-27.0,-3.0,0.0,0.0,0.0,0.0,0.0,0.0,0.0,1.28,0.78,0.0,
2.437,61.91805848570913,37.950697028110575,-18.0,-151.0,250.0,0.0,0.0,0.0,0.0,0.0,0.0,0.0,1.28,0.69,0.0,
2.45,66.5368058485709,38.77806970281105,7.0,-15.0,17.0,0.0,0.0,0.0,0.0,0.0,0.0,0.0,1.18,0.49,0.0,
2.463,67.71868058485708,41.362806970281106,3.0,-2.0,8.0,0.0,0.0,0.0,0.0,0.0,0.0,0.0,0.98,0.49,0.0,
2.477,69.3128680584857,41.873280697028115,0.0,-10.0,31.0,0.0,0.0,0.0,0.0,0.0,0.0,0.0,0.78,0.39,0.0,
2.49,70.95728680584857,42.50032806970281,0.0,-1.0,8.0,0.0,0.0,0.0,0.0,0.0,0.0,0.0,0.78,0.39,0.0,
2.502,71.11272868058485,41.429032806970284,-14.0,-18.0,12.0,0.0,0.0,0.0,0.0,0.0,0.0,0.0,0.78,0.39,0.0,
2.515,73.19827286805848,42.905903280697025,-7.0,-8.0,-8.0,0.0,0.0,0.0,0.0,0.0,0.0,0.0,0.78,0.29,0.0,
2.529,74.98182728680585,45.942590328069706,-6.0,-18.0,-1.0,0.0,0.0,0.0,0.0,0.0,0.0,0.0,0.78,0.39,0.0,
2.542,78.38218272868059,50.503259032806966,-1.0,-39.0,82.0,0.0,0.0,0.0,0.0,0.0,0.0,0.0,0.88,0.29,0.0,
2.556,76.98521827286807,55.180325903280696,25.0,-18.0,-44.0,0.0,0.0,0.0,0.0,0.0,0.0,0.0,0.78,0.88,0.0,
2.57,78.96952182728681,58.07803259032807,58.0,-9.0,-27.0,0.0,0.0,0.0,0.0,0.0,0.0,0.0,0.69,2.16,0.0,
2.583,78.60995218272868,61.1038032590328,22.0,21.0,8.0,0.0,0.0,0.0,0.0,0.0,0.0,0.0,0.78,18.84,0.2,
2.596,78.53799521827287,62.57638032590328,8.0,29.0,-3.0,0.0,0.0,0.0,0.0,0.0,0.0,0.0,1.28,22.17,0.78,
2.61,77.5407995218273,63.97463803259033,21.0,-8.0,25.0,0.0,0.0,0.0,0.0,0.0,0.0,0.0,1.47,16.09,0.98,
2.624,77.01807995218272,65.37446380325903,15.0,29.0,2.0,0.0,0.0,0.0,0.0,0.0,0.0,0.0,1.37,7.95,0.98,
2.637,78.97280799521828,67.41344638032591,15.0,-17.0,23.0,0.0,0.0,0.0,0.0,0.0,0.0,0.0,1.37,3.14,1.08,
2.651,83.48828079952182,65.74534463803259,10.0,29.0,-17.0,0.0,1.0,0.0,0.0,0.0,0.0,0.0,1.37,1.77,1.08,
2.664,84.52482807995219,67.54053446380325,5.0,-2.0,-13.0,0.0,1.0,0.0,0.0,0.0,0.0,0.0,1.47,3.24,1.18,
2.678,84.18748280799522,68.57505344638032,-1.0,-11.0,-6.0,0.0,1.0,0.0,0.0,0.0,0.0,0.0,1.57,5.79,1.47,
2.692,83.53274828079951,69.20950534463803,-2.0,0.0,-1.0,0.0,1.0,0.0,0.0,0.0,0.0,0.0,1.47,8.53,2.06,
2.705,83.01727482807995,69.44395053446381,0.0,7.0,4.0,0.0,1.0,0.0,0.0,0.0,0.0,0.0,1.47,11.18,2.16,
2.719,83.001727482808,69.47639505344638,2.0,11.0,0.0,0.0,1.0,0.0,0.0,0.0,0.0,0.0,1.37,10.79,2.26,
2.733,83.3061727482808,69.94763950534464,4.0,10.0,1.0,0.0,1.0,0.0,0.0,0.0,0.0,0.0,1.28,9.52,2.16,
2.746,83.72361727482809,70.84076395053447,4.0,4.0,0.0,0.0,1.0,0.0,0.0,0.0,0.0,0.0,0.98,8.24,2.16,
2.759,84.3413617274828,71.48807639505345,1.0,-2.0,4.0,0.0,1.0,0.0,0.0,0.0,0.0,0.0,0.29,7.46,2.26,
2.772,84.4931361727483,71.59780763950535,1.0,-5.0,11.0,0.0,1.0,0.0,0.0,0.0,0.0,0.0,0.1,7.95,2.35,
2.787,84.32831361727483,71.63578076395054,0.0,-5.0,8.0,0.0,1.0,0.0,0.0,0.0,0.0,0.0,0.0,8.04,2.35,
2.8,84.22183136172748,71.76557807639506,-1.0,-4.0,7.0,0.0,1.0,0.0,0.0,0.0,0.0,0.0,0.0,7.75,2.45,
2.813,84.10318313617276,71.96755780763951,-1.0,-7.0,7.0,0.0,1.0,0.0,0.0,0.0,0.0,0.0,0.0,6.97,2.16,
2.827,83.92931831361727,72.03275578076396,-1.0,-9.0,7.0,0.0,1.0,0.0,0.0,0.0,0.0,0.0,0.0,4.81,1.96,
2.84,83.75893183136172,72.0482755780764,-2.0,-11.0,7.0,0.0,1.0,0.0,0.0,0.0,0.0,0.0,0.0,4.02,1.67,
2.853,83.45389318313617,71.93282755780764,-2.0,-12.0,12.0,0.0,0.0,0.0,0.0,0.0,0.0,0.0,0.0,3.34,1.47,
2.868,83.18938931831362,71.30928275578076,-6.0,-9.0,16.0,0.0,0.0,0.0,0.0,0.0,0.0,0.0,0.0,2.94,1.08,
2.881,82.62293893183136,70.05892827557808,-13.0,-2.0,16.0,0.0,0.0,0.0,0.0,0.0,0.0,0.0,0.0,2.55,0.78,
2.894,82.10729389318314,68.67389282755781,-15.0,0.0,8.0,0.0,0.0,0.0,0.0,0.0,0.0,0.0,0.0,2.26,0.59,
2.908,81.96572938931833,67.95038928275578,-12.0,8.0,3.0,0.0,0.0,0.0,0.0,0.0,0.0,0.0,0.0,2.06,0.39,
2.921,82.44657293893184,68.65203892827559,-7.0,10.0,0.0,0.0,0.0,0.0,0.0,0.0,0.0,0.0,0.0,1.96,0.2,
2.934,83.08865729389318,70.74720389282756,-2.0,7.0,-9.0,0.0,0.0,0.0,0.0,0.0,0.0,0.0,0.0,2.16,0.2,
2.948,84.00786572938931,74.03472038928277,4.0,-3.0,-18.0,0.0,0.0,0.0,0.0,0.0,0.0,0.0,0.0,2.65,0.29,
2.961,84.87378657293893,75.64147203892827,2.0,-3.0,1.0,0.0,1.0,0.0,0.0,0.0,0.0,0.0,0.0,5.4,0.49,
2.974,84.60037865729389,75.11814720389283,-2.0,-5.0,1.0,0.0,1.0,0.0,0.0,0.0,0.0,0.0,0.0,6.87,0.78,
2.988,84.0060378657294,74.05781472038929,2.0,3.0,11.0,0.0,1.0,0.0,0.0,0.0,0.0,0.0,0.0,8.14,1.08,
3.002,83.57760378657295,73.41178147203892,5.0,7.0,6.0,0.0,1.0,0.0,0.0,0.0,0.0,0.0,0.2,9.22,1.86,
3.015,83.42676037865729,73.23017814720389,5.0,6.0,3.0,0.0,1.0,0.0,0.0,0.0,0.0,0.0,0.29,10.01,2.26,
3.028,83.39367603786573,73.41901781472039,5.0,3.0,2.0,0.0,1.0,0.0,0.0,0.0,0.0,0.0,0.1,9.12,2.45,
3.042,83.48036760378656,73.80690178147204,2.0,3.0,1.0,0.0,1.0,0.0,0.0,0.0,0.0,0.0,0.1,7.65,2.65,
3.055,83.57003676037866,73.84569017814721,-1.0,3.0,0.0,0.0,1.0,0.0,0.0,0.0,0.0,0.0,0.0,6.38,2.65,
3.068,83.66000367603786,73.75956901781473,-2.0,2.0,-2.0,0.0,1.0,0.0,0.0,0.0,0.0,0.0,0.0,5.69,2.65,
3.083,83.9390003676038,73.59795690178146,-2.0,-1.0,-3.0,0.0,1.0,0.0,0.0,0.0,0.0,0.0,0.0,6.18,2.75,
3.096,84.01190003676038,73.46479569017815,-3.0,-2.0,-3.0,0.0,1.0,1.0,0.0,0.0,0.0,0.0,0.1,7.26,2.84,
3.109,83.84819000367604,73.33447956901782,-2.0,-2.0,-1.0,0.0,1.0,1.0,0.0,0.0,0.0,0.0,0.1,8.24,2.84,
3.124,83.6248190003676,73.21344795690179,-1.0,0.0,-1.0,0.0,1.0,1.0,0.0,0.0,0.0,0.0,0.1,8.83,3.04,
3.137,83.52148190003676,73.24634479569018,-1.0,0.0,0.0,0.0,1.0,1.0,0.0,0.0,0.0,0.0,0.0,8.93,2.94,
3.15,83.57414819000367,73.30363447956901,-1.0,-1.0,0.0,0.0,1.0,1.0,0.0,0.0,0.0,0.0,0.0,8.63,3.04,
3.164,83.60641481900036,73.3093634479569,-2.0,-3.0,0.0,0.0,1.0,1.0,0.0,0.0,0.0,0.0,0.0,8.44,2.94,
3.178,83.51064148190004,73.2379363447957,-3.0,-3.0,-1.0,0.0,1.0,1.0,0.0,0.0,0.0,0.0,0.0,8.34,2.84,
3.191,83.43806414819001,73.12279363447958,-3.0,-2.0,0.0,0.0,1.0,1.0,0.0,0.0,0.0,0.0,0.1,8.44,2.84,
3.205,83.376806414819,73.03027936344796,-3.0,-2.0,0.0,0.0,1.0,1.0,0.0,0.0,0.0,0.0,0.2,8.83,2.84,
3.219,83.3166806414819,73.0480279363448,-3.0,-1.0,0.0,0.0,1.0,1.0,0.0,0.0,0.0,0.0,0.29,8.83,2.84,
3.232,83.33766806414819,73.03180279363448,-3.0,-1.0,-1.0,0.0,1.0,1.0,0.0,0.0,0.0,0.0,0.29,8.73,2.75,
3.246,83.26776680641483,73.03918027936345,-3.0,-1.0,-1.0,0.0,1.0,1.0,0.0,0.0,0.0,0.0,0.29,8.63,2.75,
3.26,83.32377668064149,73.05791802793635,-3.0,0.0,-1.0,0.0,1.0,1.0,0.0,0.0,0.0,0.0,0.29,8.44,2.65,
3.273,83.30237766806414,73.01479180279364,-3.0,0.0,-1.0,0.0,1.0,1.0,0.0,0.0,0.0,0.0,0.39,8.53,2.65,
3.287,83.3272377668064,72.97447918027936,-3.0,0.0,0.0,0.0,1.0,1.0,0.0,0.0,0.0,0.0,0.49,8.63,2.65,
3.3,83.32072377668064,72.98844791802793,-3.0,0.0,0.0,0.0,1.0,1.0,0.0,0.0,0.0,0.0,0.59,8.73,2.55,
3.313,83.30207237766805,72.9718447918028,-3.0,-1.0,0.0,0.0,1.0,0.0,0.0,0.0,0.0,0.0,0.59,8.93,2.55,
3.328,83.2822072377668,72.96118447918028,-3.0,0.0,0.0,0.0,1.0,0.0,0.0,0.0,0.0,0.0,0.59,8.53,2.45,
3.341,83.32522072377668,72.95111844791802,-2.0,0.0,0.0,0.0,1.0,0.0,0.0,0.0,0.0,0.0,0.59,8.24,2.45,
3.354,83.32952207237767,72.9231118447918,-2.0,0.0,0.0,0.0,1.0,0.0,0.0,0.0,0.0,0.0,0.69,8.14,2.45,
3.367,83.33895220723777,72.88431118447917,-2.0,0.0,0.0,0.0,1.0,0.0,0.0,0.0,0.0,0.0,0.69,8.04,2.55,
3.381,83.32189522072377,72.92543111844793,-2.0,0.0,0.0,0.0,1.0,0.0,0.0,0.0,0.0,0.0,0.69,8.04,2.55,
3.395,83.35618952207238,72.9025431118448,-2.0,0.0,0.0,0.0,1.0,0.0,0.0,0.0,0.0,0.0,0.69,8.14,2.55,
3.408,83.33261895220724,72.85525431118448,-2.0,0.0,0.0,0.0,1.0,1.0,0.0,0.0,0.0,0.0,0.69,8.14,2.55,
3.422,83.27626189522073,72.87752543111844,-2.0,0.0,0.0,0.0,1.0,1.0,0.0,0.0,0.0,0.0,0.69,8.14,2.55,
3.435,83.26162618952208,72.92475254311185,-1.0,0.0,0.0,0.0,1.0,1.0,0.0,0.0,0.0,0.0,0.59,8.14,2.65,
3.448,83.26016261895222,72.89347525431118,-2.0,0.0,0.0,0.0,1.0,1.0,0.0,0.0,0.0,0.0,0.69,8.04,2.65,
3.463,83.26001626189523,72.94434752543111,-2.0,0.0,0.0,0.0,1.0,1.0,0.0,0.0,0.0,0.0,0.69,8.04,2.65,
3.476,83.26900162618952,72.97643475254311,-2.0,0.0,0.0,0.0,1.0,1.0,0.0,0.0,0.0,0.0,0.59,7.95,2.65,
3.489,83.23390016261897,72.9706434752543,-2.0,1.0,0.0,0.0,1.0,1.0,0.0,0.0,0.0,0.0,0.49,7.95,2.65,
3.503,83.2483900162619,72.98806434752544,-2.0,1.0,0.0,0.0,1.0,1.0,0.0,0.0,0.0,0.0,0.69,7.95,2.75,
3.516,83.31283900162619,72.99880643475254,-2.0,1.0,0.0,0.0,1.0,1.0,0.0,0.0,0.0,0.0,0.69,8.14,2.75,
3.529,83.37328390016262,73.02688064347525,-2.0,0.0,0.0,0.0,1.0,1.0,0.0,0.0,0.0,0.0,0.78,8.34,2.84,
3.544,83.40632839001626,73.02068806434752,-2.0,0.0,0.0,0.0,1.0,1.0,0.0,0.0,0.0,0.0,0.69,8.63,2.84,
3.557,83.41863283900163,73.01106880643475,-2.0,0.0,0.0,0.0,1.0,1.0,0.0,0.0,0.0,0.0,0.69,9.03,2.84,
3.57,83.41986328390017,72.94710688064347,-1.0,0.0,0.0,0.0,1.0,1.0,0.0,0.0,0.0,0.0,0.69,9.71,2.84,
3.584,83.43798632839002,72.94971068806434,-1.0,0.0,0.0,0.0,1.0,1.0,0.0,0.0,0.0,0.0,0.69,10.01,2.94,
3.598,83.45779863283899,72.96797106880643,-1.0,0.0,0.0,0.0,1.0,1.0,0.0,0.0,0.0,0.0,0.69,10.2,3.04,
3.611,83.4687798632839,72.99679710688065,-1.0,0.0,-1.0,0.0,1.0,1.0,0.0,0.0,0.0,0.0,0.69,10.4,3.14,
3.624,83.4788779863284,73.02667971068807,-1.0,0.0,-1.0,0.0,1.0,1.0,0.0,0.0,0.0,0.0,0.69,10.69,3.14,
3.638,83.49788779863285,73.0476679710688,-1.0,0.0,0.0,0.0,1.0,1.0,0.0,0.0,0.0,0.0,0.59,10.79,3.14,
3.652,83.46378877986328,73.06776679710687,-1.0,0.0,0.0,0.0,2.0,1.0,0.0,0.0,0.0,0.0,0.69,10.99,3.14,
3.665,83.38837887798633,73.12377667971067,-1.0,0.0,0.0,0.0,2.0,1.0,0.0,0.0,0.0,0.0,0.69,11.18,3.24,
3.679,83.43483788779864,73.12037766797107,-1.0,0.0,0.0,0.0,2.0,1.0,0.0,0.0,0.0,0.0,0.69,11.28,3.24,
3.693,83.51148378877986,73.11103776679711,-1.0,0.0,0.0,0.0,2.0,1.0,0.0,0.0,0.0,0.0,0.78,11.28,3.24,
3.706,83.47414837887798,73.17310377667972,-2.0,0.0,0.0,0.0,2.0,1.0,0.0,0.0,0.0,0.0,0.69,11.28,3.34,
3.72,83.4794148378878,73.20631037766796,-2.0,-1.0,0.0,0.0,2.0,1.0,0.0,0.0,0.0,0.0,0.78,11.38,3.34,
3.733,83.38094148378877,73.20063103776681,-1.0,-1.0,-1.0,1.0,2.0,1.0,0.0,0.0,0.0,0.0,0.78,11.58,3.34,
3.747,83.33509414837887,73.16406310377667,-2.0,-1.0,-1.0,0.0,2.0,1.0,0.0,0.0,0.0,0.0,0.69,11.87,3.34,
3.761,83.2945094148379,73.16040631037765,-2.0,-1.0,0.0,1.0,2.0,1.0,0.0,0.0,0.0,0.0,0.78,12.16,3.34,
3.775,83.35345094148379,73.16004063103776,-2.0,-1.0,-1.0,1.0,2.0,1.0,0.0,0.0,0.0,0.0,0.78,12.46,3.43,
3.788,83.32334509414838,73.12400406310378,-2.0,0.0,-1.0,1.0,2.0,1.0,0.0,0.0,0.0,0.0,0.69,12.65,3.53,
3.803,83.32933450941483,73.09340040631038,-2.0,0.0,-1.0,1.0,2.0,1.0,0.0,0.0,0.0,0.0,0.78,12.85,3.43,
3.816,83.32093345094148,73.07234004063103,-2.0,0.0,-1.0,1.0,2.0,1.0,0.0,0.0,0.0,0.0,0.78,12.95,3.43,
3.829,83.32909334509415,73.1242340040631,-2.0,0.0,-1.0,1.0,2.0,1.0,0.0,0.0,0.0,0.0,0.78,12.95,3.43,
3.844,83.32990933450941,73.11142340040631,-2.0,0.0,-1.0,1.0,2.0,1.0,0.0,0.0,0.0,0.0,0.78,13.05,3.53,
3.857,83.28499093345094,73.11014234004064,-2.0,0.0,-1.0,1.0,2.0,1.0,0.0,0.0,0.0,0.0,0.78,13.15,3.43,
3.87,83.31649909334509,73.09201423400407,-2.0,0.0,0.0,1.0,2.0,1.0,0.0,0.0,0.0,0.0,0.78,13.34,3.34,
3.885,83.3466499093345,73.10820142340042,-2.0,0.0,0.0,1.0,2.0,1.0,0.0,0.0,0.0,0.0,0.88,13.34,3.34,
3.898,83.34966499093345,73.15482014234003,-2.0,0.0,0.0,1.0,2.0,1.0,0.0,0.0,0.0,0.0,0.88,13.34,3.34,
3.911,83.41296649909334,73.17748201423402,-2.0,0.0,0.0,1.0,2.0,1.0,0.0,0.0,0.0,0.0,0.88,13.34,3.34,
3.924,83.38329664990934,73.1887482014234,-2.0,0.0,-1.0,1.0,2.0,1.0,0.0,0.0,0.0,0.0,0.88,13.44,3.34,
3.939,83.38932966499094,73.18087482014235,-2.0,0.0,0.0,1.0,2.0,1.0,0.0,0.0,0.0,0.0,0.98,13.44,3.34,
3.952,83.34493296649909,73.19808748201424,-2.0,0.0,0.0,1.0,2.0,1.0,0.0,0.0,0.0,0.0,0.98,13.54,3.34,
3.965,83.36749329664991,73.18180874820143,-2.0,0.0,0.0,1.0,2.0,1.0,0.0,0.0,0.0,0.0,0.98,13.54,3.34,
3.98,83.432749329665,73.18018087482015,-2.0,0.0,0.0,1.0,2.0,1.0,0.0,0.0,0.0,0.0,0.98,13.54,3.34,
3.993,83.4392749329665,73.10801808748201,-2.0,0.0,0.0,1.0,2.0,1.0,0.0,0.0,0.0,0.0,0.98,13.44,3.24,
4.006,83.42192749329665,73.07380180874819,-2.0,0.0,0.0,1.0,2.0,1.0,0.0,0.0,0.0,0.0,0.88,13.34,3.34,
4.02,83.38419274932967,73.01638018087482,-2.0,-1.0,0.0,1.0,2.0,1.0,0.0,0.0,0.0,0.0,0.88,13.34,3.24,
4.034,83.29941927493297,72.97463801808749,-2.0,0.0,0.0,1.0,2.0,1.0,0.0,0.0,0.0,0.0,0.98,13.44,3.24,
4.047,83.2999419274933,72.95246380180875,-2.0,0.0,0.0,1.0,2.0,1.0,0.0,0.0,0.0,0.0,1.08,13.44,3.34,
4.061,83.33599419274933,72.98624638018087,-2.0,-1.0,0.0,1.0,2.0,1.0,0.0,0.0,0.0,0.0,1.08,13.34,3.34,
4.075,83.34859941927493,73.04362463801809,-2.0,0.0,0.0,1.0,2.0,1.0,0.0,0.0,0.0,0.0,1.08,13.44,3.24,
4.088,83.32285994192749,73.0673624638018,-2.0,0.0,0.0,1.0,2.0,1.0,0.0,0.0,0.0,0.0,1.08,13.24,3.24,
4.102,83.31128599419274,73.06973624638017,-2.0,0.0,0.0,1.0,2.0,1.0,0.0,0.0,0.0,0.0,1.08,13.15,3.34,
4.115,83.33712859941927,73.11497362463803,-2.0,0.0,0.0,1.0,2.0,1.0,0.0,0.0,0.0,0.0,1.08,13.05,3.34,
4.129,83.34871285994193,73.1374973624638,-2.0,0.0,0.0,1.0,2.0,1.0,0.0,0.0,0.0,0.0,1.08,12.95,3.24,
4.143,83.3408712859942,73.19374973624639,-2.0,0.0,0.0,1.0,2.0,1.0,0.0,0.0,0.0,0.0,1.08,12.85,3.14,
4.156,83.34008712859942,73.21737497362463,-2.0,0.0,0.0,1.0,2.0,1.0,0.0,0.0,0.0,0.0,1.28,12.75,3.24,
4.169,83.33100871285994,73.24673749736246,-2.0,0.0,0.0,1.0,2.0,1.0,0.0,0.0,0.0,0.0,1.28,12.65,3.24,
4.184,83.31210087128599,73.24067374973625,-2.0,0.0,0.0,1.0,2.0,1.0,0.0,0.0,0.0,0.0,1.18,12.56,3.24,
4.197,83.2742100871286,73.24906737497362,-2.0,0.0,0.0,1.0,2.0,1.0,0.0,0.0,0.0,0.0,1.28,12.56,3.14,
4.21,83.26142100871287,73.26790673749736,-2.0,0.0,0.0,1.0,2.0,1.0,0.0,0.0,0.0,0.0,1.28,12.46,3.14,
4.224,83.26914210087128,73.24279067374974,-2.0,0.0,0.0,1.0,2.0,1.0,0.0,0.0,0.0,0.0,1.28,12.46,3.14,
4.238,83.26091421008714,73.21327906737497,-2.0,0.0,0.0,1.0,2.0,1.0,0.0,0.0,0.0,0.0,1.28,12.46,3.14,
4.251,83.26009142100872,73.23732790673749,-2.0,0.0,0.0,1.0,2.0,1.0,0.0,0.0,0.0,0.0,1.28,12.46,3.14,
4.264,83.27800914210087,73.19473279067374,-2.0,0.0,0.0,1.0,2.0,1.0,0.0,0.0,0.0,0.0,1.28,12.56,3.14,
4.279,83.2618009142101,73.22647327906738,-2.0,0.0,0.0,1.0,2.0,1.0,0.0,0.0,0.0,0.0,1.37,12.56,3.14,
4.292,83.26018009142102,73.20264732790675,-2.0,0.0,0.0,1.0,2.0,1.0,0.0,0.0,0.0,0.0,1.28,12.36,3.14,
4.305,83.2690180091421,73.19126473279067,-2.0,0.0,-1.0,1.0,2.0,1.0,0.0,0.0,0.0,0.0,1.37,12.26,3.14,
4.319,83.24290180091421,73.19012647327907,-2.0,0.0,0.0,1.0,2.0,1.0,0.0,0.0,0.0,0.0,1.28,12.26,3.14,
4.333,83.24029018009142,73.19901264732792,-2.0,0.0,0.0,1.0,2.0,1.0,0.0,0.0,0.0,0.0,1.37,12.26,3.14,
4.346,83.28502901800915,73.20890126473279,-2.0,0.0,0.0,1.0,2.0,1.0,0.0,0.0,0.0,0.0,1.37,12.26,3.14,
4.36,83.29850290180092,73.23689012647327,-2.0,0.0,0.0,1.0,2.0,1.0,0.0,0.0,0.0,0.0,1.37,12.36,3.14,
4.374,83.28185029018009,73.24868901264732,-2.0,0.0,0.0,1.0,2.0,1.0,0.0,0.0,0.0,0.0,1.37,12.26,3.14,
4.387,83.271185029018,73.15986890126474,-2.0,0.0,0.0,1.0,2.0,1.0,0.0,0.0,0.0,0.0,1.28,12.16,3.14,
4.401,83.2701185029018,73.15998689012646,-2.0,0.0,0.0,1.0,2.0,1.0,0.0,0.0,0.0,0.0,1.37,12.16,3.14,
4.414,83.20701185029019,73.15099868901265,-2.0,0.0,-1.0,1.0,2.0,1.0,0.0,0.0,0.0,0.0,1.47,12.26,3.14,
4.428,83.18270118502903,73.15909986890125,-2.0,0.0,0.0,1.0,2.0,1.0,0.0,0.0,0.0,0.0,1.37,12.36,3.14,
4.442,83.17127011850292,73.21390998689012,-2.0,0.0,0.0,1.0,2.0,1.0,0.0,0.0,0.0,0.0,1.37,12.36,3.14,
4.455,83.13412701185028,73.17439099868902,-2.0,0.0,-1.0,1.0,2.0,1.0,0.0,0.0,0.0,0.0,1.47,12.46,3.14,
4.469,83.09441270118504,73.17943909986892,-2.0,0.0,-1.0,1.0,2.0,1.0,0.0,0.0,0.0,0.0,1.47,12.46,3.14,
4.483,83.1444412701185,73.16194390998689,-2.0,0.0,0.0,1.0,2.0,1.0,0.0,0.0,0.0,0.0,1.37,12.46,3.14,
4.496,83.19444412701186,73.1961943909987,-2.0,0.0,-1.0,1.0,2.0,1.0,0.0,0.0,0.0,0.0,1.47,12.46,3.24,
4.51,83.20844441270118,73.18161943909988,-2.0,0.0,0.0,1.0,2.0,1.0,0.0,0.0,0.0,0.0,1.47,12.56,3.14,
4.524,83.23684444127011,73.14416194390999,-2.0,0.0,0.0,1.0,2.0,1.0,0.0,0.0,0.0,0.0,1.47,12.56,3.14,
4.537,83.24868444412701,73.17641619439101,-2.0,0.0,0.0,1.0,2.0,1.0,0.0,0.0,0.0,0.0,1.47,12.56,3.24,
4.55,83.2768684444127,73.2156416194391,-2.0,0.0,0.0,1.0,2.0,1.0,0.0,0.0,0.0,0.0,1.37,12.56,3.24,
4.564,83.27968684444127,73.1925641619439,-2.0,-1.0,0.0,1.0,2.0,1.0,0.0,0.0,0.0,0.0,1.37,12.46,3.14,
4.578,83.29796868444413,73.21725641619439,-2.0,0.0,0.0,1.0,2.0,1.0,0.0,0.0,0.0,0.0,1.37,12.36,3.14,
4.591,83.26379686844442,73.21072564161943,-2.0,-1.0,0.0,1.0,2.0,1.0,0.0,0.0,0.0,0.0,1.47,12.46,3.14,
4.605,83.22437968684443,73.19207256416193,-2.0,0.0,0.0,1.0,2.0,1.0,0.0,0.0,0.0,0.0,1.37,12.46,3.24,
4.619,83.21143796868444,73.1992072564162,-2.0,0.0,0.0,1.0,2.0,1.0,0.0,0.0,0.0,0.0,1.37,12.26,3.14,
4.632,83.20114379686845,73.16392072564162,-2.0,0.0,0.0,1.0,2.0,1.0,0.0,0.0,0.0,0.0,1.37,12.26,3.14,
4.645,83.18211437968685,73.13339207256415,-2.0,0.0,0.0,1.0,2.0,1.0,0.0,0.0,0.0,0.0,1.37,12.16,3.14,
4.66,83.1712114379687,73.13933920725643,-2.0,0.0,0.0,1.0,2.0,1.0,0.0,0.0,0.0,0.0,1.37,12.16,3.14,
4.673,83.15212114379688,73.13093392072564,-2.0,0.0,0.0,1.0,2.0,1.0,0.0,0.0,0.0,0.0,1.37,12.16,3.14,
4.686,83.1412121143797,73.11209339207257,-2.0,0.0,0.0,1.0,2.0,1.0,0.0,0.0,0.0,0.0,1.37,12.16,3.24,
4.7,83.16712121143797,73.09220933920726,-2.0,0.0,0.0,1.0,2.0,1.0,0.0,0.0,0.0,0.0,1.47,12.16,3.24,
4.714,83.13371212114379,73.13522093392073,-2.0,0.0,0.0,1.0,2.0,1.0,0.0,0.0,0.0,0.0,1.47,12.16,3.14,
4.727,83.08537121211438,73.13052209339206,-2.0,0.0,0.0,1.0,2.0,1.0,0.0,0.0,0.0,0.0,1.47,12.16,3.14,
4.741,83.08053712121145,73.16605220933921,-2.0,0.0,0.0,1.0,2.0,1.0,0.0,0.0,0.0,0.0,1.47,12.16,3.14,
4.755,83.11605371212116,73.16960522093393,-2.0,0.0,0.0,1.0,2.0,1.0,0.0,0.0,0.0,0.0,1.47,12.07,3.14,
4.768,83.13760537121212,73.18796052209339,-2.0,0.0,0.0,1.0,2.0,1.0,0.0,0.0,0.0,0.0,1.47,12.07,3.14,
4.782,83.11276053712122,73.18079605220935,-2.0,0.0,0.0,1.0,2.0,1.0,0.0,0.0,0.0,0.0,1.47,12.07,3.14,
4.795,83.09227605371213,73.18907960522093,-2.0,0.0,-1.0,1.0,2.0,1.0,0.0,0.0,0.0,0.0,1.47,12.16,3.24,
4.809,83.14422760537121,73.1719079605221,-2.0,0.0,0.0,1.0,2.0,1.0,0.0,0.0,0.0,0.0,1.57,12.07,3.14,
4.823,83.10442276053712,73.19719079605221,-2.0,0.0,0.0,1.0,2.0,1.0,0.0,0.0,0.0,0.0,1.47,12.07,3.14,
4.836,83.1544422760537,73.22671907960523,-2.0,0.0,0.0,1.0,2.0,1.0,0.0,0.0,0.0,0.0,1.57,11.97,3.14,
4.85,83.17744422760538,73.17567190796053,-2.0,0.0,0.0,1.0,2.0,1.0,0.0,0.0,0.0,0.0,1.57,11.87,3.14,
4.864,83.15274442276055,73.18856719079605,-2.0,0.0,0.0,1.0,2.0,1.0,0.0,0.0,0.0,0.0,1.47,11.97,3.24,
4.877,83.13227444227604,73.1628567190796,-2.0,0.0,-1.0,1.0,2.0,1.0,0.0,0.0,0.0,0.0,1.47,12.07,3.14,
4.89,83.13922744422761,73.12428567190797,-2.0,0.0,0.0,1.0,2.0,1.0,0.0,0.0,0.0,0.0,1.47,12.16,3.14,
4.904,83.11292274442276,73.1744285671908,-2.0,0.0,0.0,1.0,2.0,1.0,0.0,0.0,0.0,0.0,1.47,12.16,3.14,
4.918,83.10129227444227,73.16144285671908,-2.0,0.0,0.0,1.0,2.0,1.0,0.0,0.0,0.0,0.0,1.47,12.07,3.14,
4.931,83.10012922744421,73.1601442856719,-2.0,0.0,-1.0,1.0,2.0,1.0,0.0,0.0,0.0,0.0,1.47,12.07,3.14,
4.945,83.12701292274441,73.1420144285672,-2.0,0.0,0.0,1.0,2.0,1.0,0.0,0.0,0.0,0.0,1.57,11.97,3.14,
4.959,83.11170129227445,73.1312014428567,-2.0,0.0,0.0,1.0,2.0,1.0,0.0,0.0,0.0,0.0,1.57,11.87,3.14,
4.972,83.12817012922744,73.10312014428567,-2.0,0.0,0.0,1.0,2.0,1.0,0.0,0.0,0.0,0.0,1.47,11.87,3.04,
4.985,83.17481701292274,73.08231201442857,-2.0,0.0,-1.0,1.0,2.0,1.0,0.0,0.0,0.0,0.0,1.57,11.87,3.14,
5.0,83.17948170129227,73.03523120144285,-2.0,0.0,0.0,1.0,2.0,1.0,0.0,0.0,0.0,0.0,1.57,11.87,3.14,
5.013,83.23394817012922,73.00352312014428,-2.0,0.0,0.0,1.0,2.0,1.0,0.0,0.0,0.0,0.0,1.57,11.97,3.14,
5.026,83.22139481701292,73.05435231201443,-2.0,0.0,0.0,1.0,2.0,1.0,0.0,0.0,0.0,0.0,1.57,11.97,3.14,
5.041,83.2021394817013,73.05043523120145,-2.0,0.0,-1.0,1.0,2.0,1.0,0.0,0.0,0.0,0.0,1.57,11.97,3.04,
5.054,83.18221394817013,73.05904352312015,-2.0,0.0,0.0,1.0,2.0,1.0,0.0,0.0,0.0,0.0,1.57,12.07,3.14,
5.067,83.20722139481701,73.05990435231202,-2.0,0.0,0.0,1.0,2.0,1.0,0.0,0.0,0.0,0.0,1.57,11.87,3.04,
5.082,83.22772213948171,73.1319904352312,-2.0,0.0,0.0,1.0,2.0,1.0,0.0,0.0,0.0,0.0,1.57,11.87,3.14,
5.095,83.21177221394817,73.13919904352312,-2.0,0.0,-1.0,1.0,2.0,1.0,0.0,0.0,0.0,0.0,1.57,11.87,3.14,
5.108,83.21017722139482,73.09491990435231,-2.0,0.0,-1.0,1.0,2.0,1.0,0.0,0.0,0.0,0.0,1.57,11.87,3.04,
5.122,83.21901772213948,73.09049199043524,-2.0,0.0,0.0,1.0,2.0,1.0,0.0,0.0,0.0,0.0,1.57,11.87,3.14,
5.136,83.16590177221394,73.08104919904353,-2.0,0.0,0.0,1.0,2.0,1.0,0.0,0.0,0.0,0.0,1.57,11.87,3.14,
5.149,83.15159017722141,73.08010491990436,-2.0,0.0,0.0,1.0,2.0,1.0,0.0,0.0,0.0,0.0,1.57,11.87,3.24,
5.163,83.17715901772215,73.08001049199044,-2.0,0.0,0.0,1.0,2.0,1.0,0.0,0.0,0.0,0.0,1.57,11.97,3.14,
5.177,83.21571590177221,73.07100104919903,-2.0,0.0,0.0,1.0,2.0,1.0,0.0,0.0,0.0,0.0,1.57,11.87,3.14,
5.19,83.22857159017722,73.0431001049199,-2.0,0.0,0.0,1.0,2.0,1.0,0.0,0.0,0.0,0.0,1.57,11.97,3.14,
5.203,83.19385715901771,73.06731001049198,-2.0,0.0,0.0,1.0,2.0,1.0,0.0,0.0,0.0,0.0,1.57,11.87,3.24,
5.217,83.20838571590177,73.06973100104919,-2.0,0.0,0.0,1.0,2.0,1.0,0.0,0.0,0.0,0.0,1.67,11.97,3.14,
5.231,83.29983857159017,73.06097310010492,-2.0,0.0,0.0,1.0,2.0,1.0,0.0,0.0,0.0,0.0,1.57,11.87,3.14,
5.244,83.22798385715902,73.08709731001049,-2.0,0.0,0.0,1.0,2.0,1.0,0.0,0.0,0.0,0.0,1.67,11.87,3.14,
5.258,83.2207983857159,73.07170973100104,-2.0,0.0,0.0,1.0,2.0,1.0,0.0,0.0,0.0,0.0,1.57,11.87,3.14,
5.271,83.19307983857158,73.07017097310009,-2.0,0.0,0.0,1.0,2.0,1.0,0.0,0.0,0.0,0.0,1.57,11.97,3.14,
5.285,83.19930798385717,73.09701709731,-2.0,0.0,0.0,1.0,2.0,1.0,0.0,0.0,0.0,0.0,1.57,11.87,3.14,
5.299,83.21793079838571,73.09070170973101,-2.0,0.0,0.0,1.0,2.0,1.0,0.0,0.0,0.0,0.0,1.57,11.77,3.04,
5.312,83.20179307983858,73.0900701709731,-2.0,0.0,0.0,1.0,2.0,1.0,0.0,0.0,0.0,0.0,1.57,11.87,3.14,
5.326,83.14617930798386,73.08100701709732,-2.0,0.0,0.0,1.0,2.0,1.0,0.0,0.0,0.0,0.0,1.67,11.87,3.14,
5.34,83.15861793079839,73.07110070170972,-2.0,0.0,0.0,1.0,2.0,1.0,0.0,0.0,0.0,0.0,1.57,11.97,3.14,
5.353,83.10586179307982,73.02511007017097,-2.0,0.0,0.0,1.0,2.0,1.0,0.0,0.0,0.0,0.0,1.57,12.07,3.14,
5.366,83.13658617930798,73.0475110070171,-2.0,0.0,0.0,1.0,2.0,1.0,0.0,0.0,0.0,0.0,1.57,11.87,3.04,
5.381,83.2386586179308,73.05875110070171,-2.0,0.0,-1.0,1.0,2.0,1.0,0.0,0.0,0.0,0.0,1.57,11.77,3.14,
5.394,83.24886586179308,73.06887511007017,-2.0,0.0,-1.0,1.0,2.0,1.0,0.0,0.0,0.0,0.0,1.57,11.77,3.14,
5.407,83.18688658617931,73.07888751100703,-2.0,0.0,0.0,1.0,2.0,1.0,0.0,0.0,0.0,0.0,1.67,11.87,3.04,
5.422,83.18068865861794,73.0708887511007,-2.0,0.0,0.0,1.0,2.0,1.0,0.0,0.0,0.0,0.0,1.57,11.97,3.04,
5.435,83.16206886586178,73.07008887511006,-2.0,0.0,0.0,1.0,2.0,1.0,0.0,0.0,0.0,0.0,1.57,12.07,3.04,
5.448,83.10620688658616,73.10600888751101,-2.0,0.0,0.0,1.0,2.0,1.0,0.0,0.0,0.0,0.0,1.57,11.97,3.14,
5.462,83.09162068865862,73.15460088875109,-2.0,0.0,0.0,1.0,2.0,1.0,0.0,0.0,0.0,0.0,1.57,11.87,3.04,
5.476,83.17116206886587,73.17746008887512,-2.0,0.0,0.0,1.0,2.0,1.0,0.0,0.0,0.0,0.0,1.57,11.87,3.04,
5.489,83.13411620688657,73.1617460088875,-2.0,0.0,0.0,1.0,2.0,1.0,0.0,0.0,0.0,0.0,1.57,12.07,3.14,
5.502,83.18441162068865,73.17817460088875,-2.0,0.0,-1.0,1.0,2.0,1.0,0.0,0.0,0.0,0.0,1.57,12.07,3.14,
5.517,83.22544116206888,73.14381746008888,-2.0,0.0,0.0,1.0,2.0,1.0,0.0,0.0,0.0,0.0,1.57,12.07,3.04,
5.53,83.22054411620688,73.1673817460089,-2.0,0.0,0.0,1.0,2.0,1.0,0.0,0.0,0.0,0.0,1.57,12.16,3.14,
5.543,83.26505441162068,73.1697381746009,-2.0,0.0,-1.0,1.0,2.0,1.0,0.0,0.0,0.0,0.0,1.67,12.16,3.14,
5.557,83.23350544116208,73.15197381746009,-2.0,0.0,0.0,1.0,2.0,1.0,0.0,0.0,0.0,0.0,1.57,12.07,3.04,
5.571,83.26635054411621,73.11419738174601,-2.0,0.0,0.0,1.0,2.0,1.0,0.0,0.0,0.0,0.0,1.57,12.16,3.14,
5.584,83.27863505441162,73.1014197381746,-2.0,0.0,0.0,1.0,2.0,1.0,0.0,0.0,0.0,0.0,1.57,12.16,3.14,
5.598,83.29786350544116,73.10914197381746,-2.0,0.0,0.0,1.0,2.0,1.0,0.0,0.0,0.0,0.0,1.57,12.16,3.04,
5.611,83.24578635054411,73.08291419738175,-2.0,0.0,0.0,1.0,2.0,1.0,0.0,0.0,0.0,0.0,1.57,12.26,3.04,
5.625,83.2135786350544,73.07129141973816,-2.0,0.0,-1.0,1.0,2.0,1.0,0.0,0.0,0.0,0.0,1.57,12.16,3.04,
5.639,83.21035786350544,73.07012914197381,-2.0,0.0,-1.0,1.0,2.0,1.0,0.0,0.0,0.0,0.0,1.57,12.16,3.14,
5.652,83.25503578635056,73.10601291419738,-2.0,0.0,0.0,1.0,2.0,1.0,0.0,0.0,0.0,0.0,1.57,12.26,3.04,
5.666,83.19650357863505,73.09160129141975,-2.0,0.0,-1.0,1.0,2.0,1.0,0.0,0.0,0.0,0.0,1.57,12.36,3.14,
5.68,83.19965035786352,73.10816012914198,-2.0,0.0,0.0,1.0,2.0,1.0,0.0,0.0,0.0,0.0,1.47,12.36,3.14,
5.693,83.14596503578636,73.14581601291421,-2.0,0.0,0.0,1.0,2.0,1.0,0.0,0.0,0.0,0.0,1.47,12.46,3.04,
5.707,83.14959650357864,73.13158160129142,-2.0,0.0,0.0,1.0,2.0,1.0,0.0,0.0,0.0,0.0,1.47,12.36,3.04,
5.721,83.14995965035787,73.04915816012914,-2.0,0.0,0.0,1.0,2.0,1.0,0.0,0.0,0.0,0.0,1.47,12.36,3.04,
5.734,83.13199596503578,73.07691581601291,-2.0,0.0,0.0,1.0,2.0,1.0,0.0,0.0,0.0,0.0,1.57,12.26,3.14,
5.747,83.13019959650357,73.0886915816013,-2.0,0.0,-1.0,1.0,2.0,1.0,0.0,0.0,0.0,0.0,1.57,12.36,3.24,
5.762,83.14801995965037,73.12586915816013,-2.0,0.0,0.0,1.0,2.0,1.0,0.0,0.0,0.0,0.0,1.57,12.26,3.14,
5.775,83.18580199596504,73.16558691581602,-2.0,0.0,0.0,1.0,2.0,1.0,0.0,0.0,0.0,0.0,1.57,12.26,3.14,
5.788,83.21658019959649,73.16955869158161,-2.0,-1.0,0.0,1.0,2.0,1.0,0.0,0.0,0.0,0.0,1.57,12.26,3.14,
5.803,83.19265801995964,73.15195586915817,-2.0,0.0,0.0,1.0,2.0,1.0,0.0,0.0,0.0,0.0,1.47,12.36,3.14,
5.816,83.15426580199598,73.16819558691583,-2.0,0.0,-1.0,1.0,2.0,1.0,0.0,0.0,0.0,0.0,1.47,12.36,3.14,
5.829,83.17742658019961,73.22381955869159,-2.0,0.0,-1.0,1.0,2.0,1.0,0.0,0.0,0.0,0.0,1.47,12.36,3.14,
5.843,83.10774265801996,73.22938195586917,-2.0,0.0,-1.0,1.0,2.0,1.0,0.0,0.0,0.0,0.0,1.57,12.16,3.04,
5.857,83.145774265802,73.17593819558692,-2.0,1.0,-1.0,1.0,2.0,1.0,0.0,0.0,0.0,0.0,1.47,12.07,3.14,
5.87,83.1315774265802,73.1705938195587,-2.0,1.0,-1.0,1.0,2.0,1.0,0.0,0.0,0.0,0.0,1.57,11.97,3.14,
5.884,83.19315774265803,73.15205938195588,-2.0,1.0,0.0,1.0,2.0,1.0,0.0,0.0,0.0,0.0,1.47,11.87,3.24,
5.898,83.19931577426581,73.10520593819558,-2.0,0.0,0.0,1.0,2.0,1.0,0.0,0.0,0.0,0.0,1.47,11.67,3.14,
5.911,83.19993157742658,73.13652059381957,-2.0,0.0,-1.0,1.0,2.0,1.0,0.0,0.0,0.0,0.0,1.67,11.48,3.14,
5.925,83.22699315774267,73.14865205938196,-2.0,0.0,-1.0,1.0,2.0,1.0,0.0,0.0,0.0,0.0,1.67,11.28,3.14,
5.939,83.33769931577427,73.13186520593818,-2.0,1.0,-1.0,1.0,2.0,1.0,0.0,0.0,0.0,0.0,1.57,11.28,3.14,
5.952,83.36676993157742,73.12118652059382,-2.0,0.0,-1.0,1.0,2.0,1.0,0.0,0.0,0.0,0.0,1.57,11.38,3.14,
5.966,83.38767699315774,73.13811865205939,-2.0,1.0,-1.0,1.0,2.0,1.0,0.0,0.0,0.0,0.0,1.67,11.48,3.04,
5.98,83.35376769931577,73.14881186520594,-2.0,0.0,-1.0,1.0,2.0,1.0,0.0,0.0,0.0,0.0,1.67,11.48,3.04,
5.993,83.37737676993157,73.0958811865206,-2.0,0.0,0.0,1.0,2.0,1.0,0.0,0.0,0.0,0.0,1.57,11.48,3.04,
6.007,83.33473767699316,73.04558811865206,-2.0,0.0,0.0,1.0,2.0,1.0,0.0,0.0,0.0,0.0,1.57,11.38,3.04,
6.021,83.33947376769932,73.07655881186521,-2.0,0.0,0.0,1.0,2.0,1.0,0.0,0.0,0.0,0.0,1.57,11.18,3.04,
6.034,83.33094737676993,73.06165588118652,-1.0,0.0,0.0,1.0,2.0,1.0,0.0,0.0,0.0,0.0,1.57,11.09,3.04,
6.047,83.35709473767699,73.07816558811865,-2.0,0.0,0.0,1.0,2.0,1.0,0.0,0.0,0.0,0.0,1.57,10.99,3.14,
6.062,83.4407094737677,73.04381655881187,-2.0,-1.0,0.0,1.0,2.0,1.0,0.0,0.0,0.0,0.0,1.57,10.79,3.14,
6.075,83.35907094737676,73.07638165588119,-1.0,-2.0,0.0,1.0,2.0,1.0,0.0,0.0,0.0,0.0,1.57,10.69,3.04,
6.088,83.34190709473768,73.12463816558811,-1.0,-2.0,0.0,1.0,2.0,1.0,0.0,0.0,0.0,0.0,1.47,10.69,3.04,
6.103,83.31319070947376,73.19246381655881,-1.0,-2.0,0.0,1.0,2.0,1.0,0.0,0.0,0.0,0.0,1.47,10.59,3.04,
6.116,83.30131907094737,73.21724638165588,-1.0,-2.0,0.0,1.0,2.0,1.0,0.0,0.0,0.0,0.0,1.37,10.5,3.14,
6.129,83.23713190709475,73.2287246381656,-1.0,-2.0,0.0,1.0,2.0,1.0,0.0,0.0,0.0,0.0,1.37,10.3,3.04,
6.144,83.19471319070946,73.22987246381658,-1.0,-2.0,0.0,1.0,2.0,1.0,0.0,0.0,0.0,0.0,1.47,10.01,3.04,
6.157,83.19047131907094,73.26598724638166,-1.0,-2.0,0.0,1.0,2.0,1.0,0.0,0.0,0.0,0.0,1.37,9.91,3.04,
6.17,83.1810471319071,73.25159872463816,-2.0,-2.0,0.0,1.0,2.0,1.0,0.0,0.0,0.0,0.0,1.47,9.91,2.94,
6.184,83.11710471319071,73.26815987246381,-2.0,-2.0,0.0,1.0,2.0,1.0,0.0,0.0,0.0,0.0,1.37,9.91,2.94,
6.198,83.04771047131908,73.26981598724637,-2.0,-1.0,0.0,1.0,2.0,1.0,0.0,0.0,0.0,0.0,1.37,9.91,3.04,
6.211,83.02277104713191,73.28798159872466,-2.0,-1.0,0.0,1.0,2.0,1.0,0.0,0.0,0.0,0.0,1.37,9.91,3.04,
6.225,83.05627710471319,73.27179815987246,-2.0,-1.0,0.0,1.0,2.0,1.0,0.0,0.0,0.0,0.0,1.37,9.91,2.94,
6.239,83.05062771047132,73.30617981598725,-2.0,0.0,0.0,1.0,2.0,1.0,0.0,0.0,0.0,0.0,1.37,9.91,2.84,
6.252,83.08606277104714,73.34561798159872,-2.0,0.0,0.0,1.0,2.0,1.0,0.0,0.0,0.0,0.0,1.28,9.81,2.94,
6.265,83.09860627710471,73.30456179815987,-2.0,0.0,-1.0,1.0,2.0,1.0,0.0,0.0,0.0,0.0,1.37,9.71,2.94,
6.28,83.06386062771047,73.30945617981598,-2.0,0.0,-1.0,1.0,2.0,1.0,0.0,0.0,0.0,0.0,1.37,9.61,2.94,
6.293,83.08738606277105,73.2829456179816,-2.0,0.0,-1.0,1.0,2.0,1.0,0.0,0.0,0.0,0.0,1.37,9.61,2.94,
6.306,83.06273860627711,73.20829456179817,-3.0,0.0,-1.0,1.0,2.0,1.0,0.0,0.0,0.0,0.0,1.37,9.81,2.94,
6.32,83.10527386062772,73.2368294561798,-2.0,0.0,-1.0,1.0,2.0,1.0,0.0,0.0,0.0,0.0,1.37,10.1,2.94,
6.334,83.12752738606277,73.22168294561797,-2.0,0.0,0.0,1.0,2.0,1.0,0.0,0.0,0.0,0.0,1.47,10.2,2.94,
6.347,83.14775273860629,73.27416829456179,-2.0,1.0,-1.0,1.0,2.0,1.0,0.0,0.0,0.0,0.0,1.57,10.2,2.94,
6.361,83.16777527386064,73.30641682945618,-3.0,0.0,-1.0,1.0,2.0,1.0,0.0,0.0,0.0,0.0,1.47,10.2,2.94,
6.375,83.20577752738606,73.26464168294562,-3.0,0.0,-1.0,1.0,2.0,1.0,0.0,0.0,0.0,0.0,1.47,10.2,2.94,
6.388,83.2635777527386,73.24246416829456,-2.0,0.0,-1.0,1.0,2.0,1.0,0.0,0.0,0.0,0.0,1.47,10.59,2.94,
6.402,83.25135777527386,73.27624641682945,-2.0,0.0,-1.0,1.0,2.0,1.0,0.0,0.0,0.0,0.0,1.47,10.89,3.04,
6.416,83.20513577752739,73.25262464168294,-2.0,0.0,-1.0,1.0,2.0,1.0,0.0,0.0,0.0,0.0,1.47,11.09,2.94,
6.429,83.22751357775275,73.21426246416829,-2.0,0.0,0.0,1.0,2.0,1.0,0.0,0.0,0.0,0.0,1.47,11.18,3.04,
6.443,83.27475135777527,73.18342624641684,-2.0,0.0,-1.0,1.0,2.0,1.0,0.0,0.0,0.0,0.0,1.37,11.38,3.04,
6.457,83.25247513577753,73.20734262464168,-2.0,0.0,0.0,1.0,2.0,1.0,0.0,0.0,0.0,0.0,1.47,11.48,2.94,
6.47,83.18724751357776,73.19173426246417,-2.0,0.0,-1.0,1.0,2.0,1.0,0.0,0.0,0.0,0.0,1.47,11.58,3.04,
6.483,83.19872475135779,73.17217342624642,-2.0,0.0,-1.0,1.0,2.0,1.0,0.0,0.0,0.0,0.0,1.37,11.67,3.04,
6.498,83.17287247513579,73.15221734262465,-2.0,0.0,-1.0,1.0,2.0,1.0,0.0,0.0,0.0,0.0,1.47,11.77,3.04,
6.511,83.20628724751357,73.13222173426246,-2.0,0.0,-1.0,1.0,2.0,1.0,0.0,0.0,0.0,0.0,1.37,11.77,2.94,
6.524,83.24562872475136,73.11222217342625,-2.0,0.0,-1.0,1.0,2.0,1.0,0.0,0.0,0.0,0.0,1.47,11.87,3.04,
6.539,83.25856287247515,73.09222221734262,-2.0,0.0,-1.0,1.0,2.0,1.0,0.0,0.0,0.0,0.0,1.47,11.97,3.04,
6.552,83.24185628724751,73.06322222173426,-2.0,0.0,-1.0,1.0,2.0,1.0,0.0,0.0,0.0,0.0,1.57,11.97,2.94,
6.565,83.25818562872476,73.02432222217342,-2.0,0.0,-1.0,1.0,2.0,1.0,0.0,0.0,0.0,0.0,1.57,12.16,3.04,
6.58,83.27781856287247,73.04743222221734,-2.0,1.0,-1.0,1.0,2.0,1.0,0.0,0.0,0.0,0.0,1.57,12.26,3.14,
6.593,83.36978185628725,73.06774322222172,-3.0,3.0,-3.0,1.0,2.0,1.0,0.0,0.0,0.0,0.0,1.57,12.26,3.04,
6.607,83.63097818562872,73.16877432222218,-4.0,9.0,-7.0,1.0,2.0,1.0,0.0,0.0,0.0,0.0,1.47,12.26,3.04,
6.621,84.46709781856288,73.14287743222222,-5.0,6.0,-9.0,1.0,2.0,1.0,0.0,0.0,0.0,0.0,1.47,13.93,3.14,
6.634,83.97470978185629,73.15828774322222,-3.0,-5.0,-3.0,1.0,2.0,1.0,0.0,0.0,0.0,0.0,1.37,16.58,3.34,
6.648,83.34047097818562,73.0788287743222,-2.0,0.0,-1.0,1.0,2.0,1.0,0.0,0.0,0.0,0.0,1.47,19.03,3.43,
6.662,83.43904709781856,73.19688287743222,-2.0,3.0,0.0,1.0,2.0,1.0,0.0,0.0,0.0,0.0,1.57,19.72,3.34,
6.675,83.84490470978186,73.10068828774322,-2.0,1.0,4.0,1.0,2.0,1.0,0.0,0.0,0.0,0.0,1.57,15.79,3.14,
6.689,84.18249047097818,73.10906882877433,-1.0,1.0,5.0,0.0,2.0,1.0,0.0,0.0,0.0,0.0,1.57,13.34,3.04,
6.703,84.25224904709782,73.10990688287744,-1.0,-2.0,0.0,0.0,2.0,1.0,0.0,0.0,0.0,0.0,1.57,11.58,2.75,
6.716,84.30422490470978,73.05599068828775,-1.0,-2.0,-4.0,1.0,2.0,1.0,0.0,0.0,0.0,0.0,1.47,10.89,2.84,
6.73,84.26442249047098,73.06859906882876,-1.0,-5.0,-5.0,1.0,2.0,1.0,0.0,0.0,0.0,0.0,1.47,11.18,2.84,
6.744,83.9004422490471,73.00685990688288,-1.0,-3.0,-1.0,1.0,2.0,1.0,0.0,0.0,0.0,0.0,1.37,14.03,2.94,
6.758,83.64804422490472,73.0456859906883,-1.0,-1.0,0.0,1.0,2.0,1.0,0.0,0.0,0.0,0.0,1.37,15.21,3.14,
6.771,83.41580442249047,73.13056859906884,-1.0,0.0,0.0,1.0,2.0,1.0,0.0,0.0,0.0,0.0,1.18,15.5,3.14,
6.785,83.36558044224904,73.15705685990687,-2.0,0.0,0.0,1.0,2.0,1.0,0.0,0.0,0.0,0.0,1.18,15.11,3.04,
6.798,83.5495580442249,73.15970568599067,-2.0,0.0,0.0,1.0,2.0,1.0,0.0,0.0,0.0,0.0,1.08,12.95,3.04,
6.812,83.67595580442249,73.16897056859908,-3.0,0.0,0.0,1.0,2.0,1.0,0.0,0.0,0.0,0.0,1.08,12.26,2.84,
6.825,83.68859558044224,73.12489705685991,-3.0,0.0,-1.0,1.0,2.0,1.0,0.0,0.0,0.0,0.0,1.08,12.26,2.84,
6.839,83.58185955804421,73.066489705686,-3.0,0.0,-1.0,1.0,2.0,1.0,0.0,0.0,0.0,0.0,1.18,12.75,2.94,
6.853,83.52618595580441,73.0336489705686,-2.0,0.0,-1.0,1.0,2.0,1.0,0.0,0.0,0.0,0.0,1.18,13.83,3.04,
6.866,83.52061859558043,73.04836489705687,-2.0,0.0,0.0,1.0,2.0,1.0,0.0,0.0,0.0,0.0,1.18,13.83,2.94,
6.88,83.61006185955804,73.09483648970567,-2.0,0.0,0.0,1.0,2.0,1.0,0.0,0.0,0.0,0.0,1.18,13.64,2.94,
6.894,83.6100061859558,73.05448364897057,-2.0,0.0,0.0,1.0,2.0,1.0,0.0,0.0,0.0,0.0,1.08,13.15,2.84,
6.907,83.47500061859557,73.03244836489706,-2.0,-1.0,0.0,1.0,2.0,1.0,0.0,0.0,0.0,0.0,1.08,12.75,2.84,
6.921,83.30850006185958,73.03024483648971,-1.0,-1.0,1.0,1.0,2.0,1.0,0.0,0.0,0.0,0.0,1.08,12.46,2.84,
6.935,83.23785000618597,73.08402448364897,-1.0,-2.0,3.0,0.0,2.0,1.0,0.0,0.0,0.0,0.0,1.08,11.97,2.65,
6.948,83.28478500061861,73.0444024483649,-1.0,-2.0,4.0,0.0,2.0,1.0,0.0,0.0,0.0,0.0,1.18,10.99,2.55,
6.962,83.28047850006186,73.10344024483649,-1.0,-3.0,5.0,0.0,2.0,1.0,0.0,0.0,0.0,0.0,1.08,9.71,2.45,
6.976,83.30704785000619,73.05534402448365,-1.0,-3.0,4.0,0.0,1.0,0.0,0.0,0.0,0.0,0.0,0.98,6.87,2.35,
6.989,83.23770478500063,73.06853440244835,-1.0,-4.0,4.0,0.0,1.0,0.0,0.0,0.0,0.0,0.0,0.98,5.79,2.06,
7.003,83.20377047850008,73.08785344024484,-1.0,-3.0,3.0,0.0,1.0,0.0,0.0,0.0,0.0,0.0,0.98,4.91,2.06,
7.016,83.14637704785001,73.08978534402449,-2.0,-4.0,3.0,0.0,1.0,0.0,0.0,0.0,0.0,0.0,0.98,4.32,1.86,
7.03,83.122637704785,73.06297853440245,-2.0,-5.0,3.0,0.0,1.0,0.0,0.0,0.0,0.0,0.0,0.98,3.53,1.77,
7.044,83.0032637704785,73.05129785344025,-1.0,-6.0,5.0,0.0,1.0,0.0,0.0,0.0,0.0,0.0,0.98,3.24,1.77,
7.057,82.88332637704787,73.01412978534402,-1.0,-5.0,5.0,0.0,1.0,0.0,0.0,0.0,0.0,0.0,0.98,2.84,1.67,
7.07,82.73633263770479,72.9744129785344,0.0,-5.0,7.0,0.0,1.0,0.0,0.0,0.0,0.0,0.0,0.98,2.26,1.57,
7.084,82.72163326377049,72.92544129785344,1.0,-7.0,7.0,0.0,1.0,0.0,0.0,0.0,0.0,0.0,0.88,1.77,1.47,
7.098,82.65716332637706,72.95654412978534,1.0,-9.0,7.0,0.0,1.0,0.0,0.0,0.0,0.0,0.0,0.88,0.88,1.28,
7.111,82.67771633263771,72.70765441297854,2.0,-7.0,8.0,0.0,1.0,0.0,0.0,0.0,0.0,0.0,0.78,0.78,0.98,
7.124,82.65277163326377,72.74576544129786,1.0,-5.0,3.0,0.0,1.0,0.0,0.0,0.0,0.0,0.0,0.78,0.78,0.88,
7.138,82.75827716332637,72.8035765441298,0.0,-3.0,3.0,0.0,1.0,0.0,0.0,0.0,0.0,0.0,0.78,1.37,0.88,
7.151,82.58882771633264,73.22335765441298,-1.0,-4.0,-2.0,0.0,1.0,0.0,0.0,0.0,0.0,0.0,0.69,1.57,0.69,
7.164,82.40088277163326,73.54433576544129,-4.0,-3.0,-2.0,0.0,1.0,0.0,0.0,0.0,0.0,0.0,0.59,1.57,0.59,
7.178,82.18408827716333,73.81943357654413,-5.0,-4.0,-3.0,0.0,1.0,0.0,0.0,0.0,0.0,0.0,0.49,1.57,0.39,
7.191,82.02740882771634,73.87394335765441,-7.0,-2.0,-5.0,0.0,0.0,0.0,0.0,0.0,0.0,0.0,0.39,1.57,0.29,
7.204,82.03874088277165,73.84339433576544,-9.0,0.0,-8.0,0.0,0.0,0.0,0.0,0.0,0.0,0.0,0.39,1.47,0.39,
7.219,82.05787408827716,73.70533943357654,-9.0,0.0,-11.0,0.0,0.0,0.0,0.0,0.0,0.0,0.0,0.29,1.67,0.39,
7.232,82.01478740882773,73.48453394335765,-8.0,1.0,-10.0,0.0,0.0,0.0,0.0,0.0,0.0,0.0,0.29,1.86,0.39,
7.245,81.99247874088277,73.26445339433576,-8.0,4.0,-11.0,0.0,0.0,0.0,0.0,0.0,0.0,0.0,0.29,1.96,0.39,
7.259,81.99024787408827,73.17044533943357,-10.0,6.0,-14.0,0.0,0.0,0.0,0.0,0.0,0.0,0.0,0.2,2.16,0.39,
7.272,82.10702478740883,73.17904453394337,-10.0,7.0,-14.0,0.0,0.0,0.0,0.0,0.0,0.0,0.0,0.2,2.26,0.39,
7.285,82.22670247874088,73.17990445339434,-12.0,7.0,-17.0,0.0,0.0,0.0,0.0,0.0,0.0,0.0,0.2,2.94,0.29,
7.3,82.5086702478741,73.02699044533944,-13.0,10.0,-19.0,0.0,0.0,0.0,0.0,0.0,0.0,0.0,0.2,3.73,0.29,
7.313,82.76186702478742,72.84069904453393,-12.0,12.0,-19.0,0.0,0.0,0.0,0.0,0.0,0.0,0.0,0.2,4.91,0.2,
7.326,83.00318670247874,72.52506990445339,-14.0,15.0,-24.0,0.0,0.0,0.0,0.0,0.0,0.0,0.0,0.2,6.87,0.2,
7.341,83.34231867024788,72.27750699044535,-11.0,20.0,-21.0,0.0,0.0,0.0,0.0,0.0,0.0,0.0,0.2,12.56,0.2,
7.354,83.70023186702478,71.85675069904454,-11.0,18.0,-24.0,0.0,0.0,0.0,0.0,0.0,0.0,0.0,0.1,17.07,0.1,
7.368,83.98802318670248,71.63467506990445,-12.0,19.0,-26.0,0.0,0.0,0.0,0.0,0.0,0.0,0.0,0.1,23.25,0.0,
7.382,84.19680231867025,71.27946750699044,-13.0,19.0,-28.0,0.0,0.0,0.0,0.0,0.0,0.0,0.0,0.2,30.71,0.0,
7.396,84.30768023186701,70.86594675069904,-12.0,26.0,-25.0,0.0,0.0,0.0,0.0,0.0,0.0,0.0,0.2,48.36,0.0,
7.409,84.51676802318671,70.4465946750699,-8.0,24.0,-23.0,0.0,0.0,0.0,0.0,0.0,0.0,0.0,0.1,58.66,0.0,
7.424,84.73567680231868,70.33265946750699,-5.0,19.0,-27.0,0.0,0.0,0.0,0.0,0.0,0.0,0.0,0.1,69.75,0.0,
7.437,85.20756768023188,70.4562659467507,1.0,32.0,-13.0,1.0,0.0,0.0,0.0,0.0,0.0,0.0,0.0,82.6,0.0,
7.451,85.58775676802318,70.51362659467506,1.0,15.0,-22.0,1.0,1.0,1.0,0.0,0.0,0.0,0.0,0.0,112.72,0.0,
7.464,85.86877567680231,70.83436265946752,4.0,15.0,-11.0,2.0,1.0,1.0,0.0,0.0,1.0,0.0,0.0,127.33,0.2,
7.479,86.19387756768023,71.34343626594675,2.0,14.0,-9.0,3.0,1.0,1.0,0.0,0.0,1.0,0.0,0.0,140.28,0.49,
7.492,86.52338775676803,71.52034362659468,1.0,9.0,-11.0,3.0,1.0,1.0,0.0,0.0,1.0,0.0,0.0,151.17,0.59,
7.506,86.79033877567679,71.69103436265947,-1.0,13.0,-6.0,3.0,1.0,1.0,0.0,0.0,1.0,0.0,0.0,160.2,0.78,
7.52,87.07803387756768,71.67210343626594,-3.0,8.0,-6.0,3.0,1.0,1.0,0.0,0.0,1.0,0.0,0.0,174.62,0.98,
7.534,87.43980338775677,71.58921034362659,-3.0,5.0,-7.0,3.0,1.0,1.0,0.0,0.0,1.0,0.0,0.0,180.7,1.08,
7.547,87.69198033877568,71.58992103436267,-2.0,9.0,-4.0,3.0,1.0,1.0,0.0,0.0,1.0,0.0,0.0,185.41,1.18,
7.562,88.00519803387758,71.49999210343626,0.0,8.0,-4.0,4.0,1.0,1.0,0.0,0.0,1.0,0.0,0.0,188.84,1.18,
7.575,88.23451980338777,71.55399921034363,1.0,3.0,-2.0,4.0,1.0,1.0,0.0,0.0,1.0,0.0,0.0,191.88,1.18,
7.588,88.41945198033878,71.57739992103436,2.0,0.0,-1.0,4.0,2.0,1.0,0.0,0.0,1.0,0.0,0.0,191.79,1.28,
7.603,88.49194519803387,71.65173999210343,2.0,-2.0,0.0,4.0,2.0,1.0,0.0,0.0,1.0,0.0,0.0,190.9,1.37,
7.616,88.5531945198034,71.70417399921034,2.0,-5.0,0.0,3.0,2.0,1.0,0.0,0.0,1.0,0.0,0.0,189.04,1.47,
7.629,88.56831945198033,71.71841739992104,1.0,-6.0,0.0,3.0,2.0,2.0,0.0,0.0,1.0,0.0,0.0,183.64,1.57,
7.644,88.46183194519804,71.88184173999211,0.0,-8.0,0.0,4.0,2.0,1.0,0.0,0.0,1.0,0.0,0.0,180.5,1.67,
7.657,88.4241831945198,71.9071841739992,0.0,-9.0,0.0,4.0,2.0,1.0,0.0,0.0,1.0,0.0,0.0,177.36,1.57,
7.67,88.24041831945198,71.97271841739993,-1.0,-10.0,0.0,4.0,2.0,1.0,0.0,0.0,1.0,0.0,0.0,174.52,1.57,
7.685,88.14104183194519,71.90727184174,-1.0,-9.0,0.0,3.0,2.0,1.0,0.0,0.0,1.0,0.0,0.0,170.6,1.47,
7.698,88.06810418319452,71.82872718417399,0.0,-8.0,2.0,3.0,2.0,1.0,0.0,0.0,1.0,0.0,0.0,168.44,1.47,
7.712,88.00681041831945,71.7668727184174,0.0,-9.0,3.0,3.0,2.0,1.0,0.0,0.0,1.0,0.0,0.0,166.28,1.37,
7.726,87.82968104183195,71.72468727184174,1.0,-8.0,4.0,3.0,2.0,1.0,0.0,0.0,1.0,0.0,0.0,164.22,1.47,
7.74,87.7039681041832,71.76546872718417,1.0,-6.0,4.0,3.0,2.0,2.0,0.0,0.0,1.0,0.0,0.0,160.0,1.47,
7.753,87.57439681041832,71.85054687271843,0.0,-6.0,3.0,3.0,2.0,2.0,0.0,0.0,1.0,0.0,0.0,158.04,1.77,
7.767,87.48943968104183,71.86805468727185,0.0,-5.0,3.0,3.0,2.0,2.0,0.0,0.0,1.0,0.0,0.0,156.27,1.86,
7.781,87.39994396810418,71.8608054687272,0.0,-3.0,3.0,3.0,2.0,2.0,0.0,0.0,1.0,0.0,0.0,154.51,1.96,
7.794,87.29199439681042,71.82408054687271,0.0,-2.0,3.0,3.0,2.0,2.0,0.0,0.0,1.0,0.0,0.0,152.84,2.06,
7.808,87.20019943968104,71.79340805468728,0.0,-1.0,3.0,3.0,2.0,2.0,0.0,0.0,1.0,0.0,0.0,149.31,2.06,
7.822,87.1370199439681,71.78134080546873,0.0,-2.0,3.0,3.0,2.0,2.0,0.0,0.0,1.0,0.0,0.0,147.54,2.26,
7.835,87.08570199439681,71.77113408054687,0.0,-2.0,4.0,2.0,2.0,2.0,0.0,0.0,1.0,0.0,0.0,145.58,2.35,
7.848,87.08957019943968,71.86911340805467,1.0,-2.0,5.0,2.0,2.0,2.0,0.0,0.0,1.0,0.0,0.0,143.52,2.45,
7.863,87.11695701994397,71.84291134080547,1.0,-5.0,9.0,2.0,2.0,2.0,0.0,0.0,1.0,0.0,0.0,138.81,2.55,
7.876,86.93969570199441,72.00229113408054,0.0,-4.0,5.0,2.0,2.0,2.0,0.0,0.0,1.0,0.0,0.0,136.46,2.84,
7.889,86.84996957019945,72.18022911340806,-2.0,-2.0,1.0,2.0,3.0,2.0,0.0,0.0,1.0,0.0,0.0,134.3,2.94,
7.904,86.85899695701995,72.18902291134081,-3.0,-3.0,2.0,2.0,3.0,2.0,0.0,0.0,1.0,0.0,0.0,132.53,2.94,
7.917,86.787899695702,72.11790229113409,-3.0,-5.0,3.0,2.0,3.0,2.0,0.0,0.0,1.0,0.0,0.0,130.18,2.94,
7.931,86.7267899695702,72.1107902291134,-3.0,-2.0,1.0,3.0,2.0,2.0,0.0,0.0,1.0,0.0,0.0,128.9,2.84,
7.945,86.77467899695702,72.04707902291135,-1.0,-2.0,3.0,4.0,3.0,2.0,0.0,0.0,1.0,0.0,0.29,127.33,2.75,
7.959,86.7884678996957,71.95070790229113,0.0,-3.0,6.0,4.0,3.0,2.0,0.0,0.0,1.0,0.0,0.2,125.27,2.84,
7.972,87.30284678996956,72.3100707902291,3.0,0.0,7.0,3.0,3.0,2.0,0.0,0.0,2.0,0.0,0.2,119.49,3.04,
7.986,86.95828467899696,72.39100707902293,5.0,1.0,4.0,3.0,3.0,2.0,0.0,0.0,2.0,0.0,0.29,116.35,3.73,
8.0,86.86982846789971,72.7681007079023,3.0,5.0,4.0,3.0,3.0,2.0,0.0,0.0,2.0,0.0,0.49,113.21,4.22,
8.013,87.05898284678997,73.06681007079023,2.0,2.0,4.0,3.0,3.0,2.0,0.0,0.0,2.0,0.0,0.59,110.46,4.71,
8.027,86.915898284679,73.20468100707902,0.0,-2.0,5.0,3.0,4.0,2.0,0.0,0.0,2.0,0.0,0.88,107.91,5.1,
8.04,86.3525898284679,73.2184681007079,2.0,-3.0,1.0,3.0,4.0,2.0,0.0,0.0,2.0,0.0,0.98,101.63,5.49,
8.054,86.3412589828468,73.30984681007078,0.0,-5.0,6.0,3.0,4.0,2.0,0.0,0.0,2.0,0.0,1.18,98.1,6.08,
8.068,86.47512589828467,73.32798468100708,-1.0,0.0,4.0,3.0,4.0,2.0,0.0,0.0,2.0,0.0,1.37,94.37,6.38,
8.081,86.42551258982847,73.26679846810072,0.0,-1.0,3.0,3.0,4.0,2.0,0.0,0.0,2.0,0.0,1.57,90.64,6.57,
8.095,86.34855125898285,73.26967984681006,0.0,0.0,4.0,3.0,4.0,2.0,0.0,0.0,2.0,0.0,1.67,83.68,6.87,
8.109,86.42185512589829,73.377967984681,0.0,1.0,4.0,3.0,4.0,2.0,0.0,0.0,2.0,0.0,1.77,81.03,7.46,
8.122,86.56418551258983,73.3077967984681,0.0,-1.0,3.0,3.0,4.0,2.0,0.0,0.0,3.0,0.0,1.96,79.26,7.95,
8.135,86.47941855125899,73.30077967984681,0.0,-5.0,2.0,3.0,4.0,2.0,0.0,0.0,3.0,0.0,2.26,77.4,8.24,
8.148,86.3359418551259,73.02107796798468,2.0,1.0,0.0,3.0,4.0,2.0,0.0,0.0,3.0,0.0,2.45,75.05,8.53,
8.163,86.4925941855126,73.83910779679847,8.0,10.0,-8.0,3.0,4.0,2.0,0.0,0.0,3.0,0.0,2.75,69.75,8.73,
8.176,86.57125941855125,73.18291077967986,3.0,13.0,0.0,4.0,5.0,2.0,0.0,0.0,3.0,0.0,3.04,67.59,9.22,
8.189,87.06512594185513,72.91929107796798,7.0,-4.0,-5.0,4.0,5.0,2.0,0.0,0.0,3.0,0.0,3.34,66.02,9.42,
8.204,86.38551259418551,73.06392910779681,3.0,3.0,1.0,4.0,5.0,2.0,0.0,0.0,3.0,0.0,4.02,65.04,9.71,
8.217,86.46155125941856,73.27639291077968,3.0,8.0,0.0,4.0,5.0,2.0,0.0,0.0,3.0,0.0,4.51,64.26,10.2,
8.23,86.72115512594186,73.64863929107797,4.0,7.0,-3.0,4.0,5.0,2.0,0.0,0.0,4.0,0.0,5.2,63.77,11.28,
8.245,86.9811155125942,73.9378639291078,4.0,5.0,-3.0,4.0,5.0,2.0,0.0,0.0,4.0,0.0,5.89,63.27,11.77,
8.258,86.78211155125942,74.0297863929108,1.0,7.0,-3.0,4.0,6.0,2.0,0.0,0.0,4.0,0.0,7.16,62.98,12.36,
8.272,86.69021115512595,73.83197863929108,1.0,12.0,-7.0,4.0,6.0,2.0,0.0,0.0,4.0,0.0,7.75,62.49,12.85,
8.286,86.8970211155126,73.83919786392912,1.0,9.0,-6.0,4.0,6.0,2.0,0.0,0.0,4.0,0.0,8.44,61.7,14.03,
8.3,87.12470211155126,73.86691978639291,1.0,4.0,-4.0,4.0,6.0,3.0,0.0,0.0,4.0,0.0,9.12,60.72,14.72,
8.313,87.36347021115512,73.79769197863929,1.0,7.0,-3.0,4.0,6.0,3.0,0.0,0.0,5.0,0.0,9.71,59.84,15.21,
8.328,87.4323470211155,74.01576919786393,1.0,4.0,-2.0,4.0,6.0,3.0,0.0,0.0,5.0,0.0,10.89,58.27,15.7,
8.341,87.40323470211156,74.01957691978639,1.0,6.0,-3.0,4.0,6.0,3.0,0.0,0.0,5.0,0.0,11.38,57.58,16.38,
8.355,87.43632347021115,74.18195769197864,0.0,4.0,-2.0,4.0,6.0,3.0,0.0,0.0,5.0,0.0,11.87,56.8,16.78,
8.369,87.34963234702113,74.26119576919787,0.0,2.0,-2.0,4.0,6.0,3.0,0.0,0.0,5.0,0.0,12.26,55.72,17.07,
8.383,87.56596323470211,74.3591195769198,0.0,4.0,-3.0,4.0,7.0,3.0,0.0,0.0,5.0,0.0,13.15,53.37,17.46,
8.396,87.60559632347021,74.467911957692,0.0,1.0,-2.0,4.0,6.0,3.0,0.0,0.0,5.0,0.0,13.54,52.19,18.34,
8.411,87.70855963234703,74.5597911957692,-1.0,2.0,-2.0,4.0,7.0,3.0,0.0,0.0,5.0,0.0,13.83,51.6,18.74,
8.424,87.80885596323469,74.57797911957692,-2.0,1.0,-1.0,4.0,7.0,3.0,0.0,0.0,5.0,0.0,14.03,51.4,18.93,
8.438,87.87288559632347,74.6067979119577,-3.0,2.0,-2.0,4.0,7.0,3.0,0.0,0.0,5.0,0.0,14.22,51.89,19.23,
8.452,87.85228855963234,74.60967979119577,-3.0,0.0,-1.0,5.0,7.0,3.0,0.0,0.0,5.0,0.0,14.22,53.46,19.62,
8.466,87.85022885596322,74.65496797911958,-4.0,1.0,-2.0,5.0,7.0,3.0,0.0,0.0,5.0,0.0,14.32,54.45,19.62,
8.479,87.90402288559632,74.60549679791195,-4.0,0.0,-2.0,5.0,7.0,3.0,0.0,0.0,5.0,0.0,14.13,55.43,19.62,
8.494,87.96340228855964,74.6185496797912,-5.0,0.0,-2.0,5.0,7.0,3.0,0.0,0.0,5.0,0.0,14.03,56.41,19.42,
8.507,87.98734022885597,74.55685496797912,-5.0,0.0,-2.0,5.0,7.0,3.0,0.0,0.0,4.0,0.0,13.54,58.76,19.23,
8.521,88.0437340228856,74.52368549679791,-5.0,0.0,-2.0,5.0,7.0,3.0,0.0,0.0,4.0,0.0,13.24,60.04,18.93,
8.535,88.04937340228857,74.39436854967978,-3.0,0.0,-1.0,5.0,7.0,3.0,0.0,0.0,4.0,0.0,12.95,61.41,18.84,
8.549,88.09493734022885,74.36343685496799,-2.0,1.0,-2.0,5.0,7.0,3.0,0.0,0.0,4.0,0.0,12.56,62.59,18.64,
8.562,88.10849373402289,74.2793436854968,-1.0,0.0,-1.0,5.0,7.0,3.0,0.0,0.0,4.0,0.0,12.46,63.18,18.44,
8.577,88.1098493734023,74.31593436854968,-1.0,0.0,-2.0,5.0,7.0,3.0,0.0,0.0,4.0,0.0,12.56,62.49,18.54,
8.591,88.10998493734023,74.35559343685497,-1.0,0.0,-1.0,5.0,7.0,3.0,0.0,0.0,4.0,0.0,12.56,61.31,18.54,
8.604,88.16399849373403,74.3685593436855,-1.0,0.0,-1.0,5.0,6.0,3.0,0.0,0.0,4.0,0.0,12.65,59.74,18.44,
8.619,88.1423998493734,74.37885593436854,0.0,0.0,-1.0,5.0,6.0,3.0,0.0,0.0,4.0,0.0,12.65,56.6,18.64,
8.632,88.13123998493734,74.43388559343686,0.0,0.0,-1.0,5.0,6.0,3.0,0.0,0.0,4.0,0.0,12.65,55.23,18.64,
8.645,88.12112399849374,74.46638855934368,0.0,0.0,-1.0,5.0,6.0,3.0,0.0,0.0,4.0,0.0,12.65,54.05,18.64,
8.659,88.17411239984938,74.46063885593436,0.0,0.0,-1.0,5.0,6.0,3.0,0.0,0.0,4.0,0.0,12.65,52.78,18.64,
8.673,88.17041123998494,74.48706388559343,0.0,0.0,-1.0,5.0,6.0,3.0,0.0,0.0,4.0,0.0,12.75,50.23,18.74,
8.687,88.24204112399849,74.48970638855934,0.0,0.0,0.0,5.0,6.0,3.0,0.0,0.0,4.0,0.0,12.85,49.05,18.74,
8.7,88.24020411239985,74.56197063885594,0.0,0.0,0.0,5.0,6.0,3.0,0.0,0.0,4.0,0.0,12.95,47.77,18.74,
8.714,88.24902041123998,74.6051970638856,0.0,0.0,0.0,5.0,6.0,3.0,0.0,0.0,4.0,0.0,12.95,46.7,18.64,
8.728,88.231902041124,74.60951970638855,0.0,-1.0,0.0,5.0,6.0,3.0,0.0,0.0,4.0,0.0,12.95,44.83,18.54,
8.741,88.22119020411239,74.61895197063886,0.0,0.0,0.0,5.0,6.0,3.0,0.0,0.0,4.0,0.0,12.95,44.05,18.44,
8.755,88.16611902041123,74.64689519706388,0.0,0.0,0.0,5.0,6.0,3.0,0.0,0.0,4.0,0.0,13.05,43.16,18.54,
8.769,88.22361190204113,74.60468951970638,0.0,0.0,0.0,5.0,6.0,3.0,0.0,0.0,4.0,0.0,13.05,42.38,18.54,
8.782,88.2113611902041,74.68146895197064,0.0,0.0,0.0,5.0,6.0,3.0,0.0,0.0,5.0,0.0,13.15,40.91,18.64,
8.797,88.1651361190204,74.68014689519707,0.0,0.0,0.0,5.0,6.0,3.0,0.0,0.0,5.0,0.0,13.24,40.61,18.84,
8.81,88.14251361190205,74.68001468951971,-1.0,0.0,0.0,5.0,6.0,3.0,0.0,0.0,5.0,0.0,13.24,40.42,18.93,
8.823,88.1312513611902,74.68000146895197,-1.0,0.0,0.0,4.0,6.0,3.0,0.0,0.0,5.0,0.0,13.34,40.22,19.13,
8.838,88.18412513611901,74.6800001468952,-1.0,0.0,0.0,5.0,6.0,3.0,0.0,0.0,5.0,0.0,13.24,40.02,19.13,
8.851,88.2074125136119,74.70700001468951,-1.0,0.0,0.0,5.0,6.0,3.0,0.0,0.0,5.0,0.0,13.24,39.73,19.42,
8.865,88.11074125136118,74.72770000146896,-1.0,0.0,0.0,5.0,6.0,3.0,0.0,0.0,5.0,0.0,13.15,39.73,19.42,
8.879,88.11007412513612,74.7747700001469,-2.0,0.0,0.0,5.0,6.0,3.0,0.0,0.0,5.0,0.0,13.15,39.73,19.52,
8.893,88.1280074125136,74.7614770000147,-2.0,0.0,0.0,4.0,6.0,3.0,0.0,0.0,5.0,0.0,13.24,39.73,19.62,
8.906,88.07580074125136,74.76014770000147,-1.0,0.0,0.0,4.0,6.0,3.0,0.0,0.0,5.0,0.0,13.15,39.83,19.72,
8.921,88.05258007412513,74.77801477000015,-1.0,0.0,0.0,4.0,6.0,3.0,0.0,0.0,5.0,0.0,13.05,39.73,19.91,
8.934,88.07725800741252,74.78880147700002,-1.0,0.0,0.0,4.0,6.0,3.0,0.0,0.0,5.0,0.0,13.05,39.63,19.91,
8.948,88.07072580074124,74.7898801477,-1.0,0.0,0.0,4.0,6.0,3.0,0.0,0.0,5.0,0.0,13.15,39.34,20.01,
8.962,88.10607258007413,74.82598801476999,-1.0,0.0,0.0,4.0,6.0,3.0,0.0,0.0,5.0,0.0,13.15,38.85,20.21,
8.976,88.1276072580074,74.838598801477,-1.0,0.0,0.0,4.0,6.0,3.0,0.0,0.0,5.0,0.0,13.15,38.46,20.21,
8.989,88.12976072580074,74.8488598801477,-1.0,0.0,0.0,4.0,6.0,3.0,0.0,0.0,5.0,0.0,13.34,38.06,20.4,
9.004,88.12097607258008,74.98488598801477,-1.0,0.0,0.0,4.0,6.0,3.0,0.0,0.0,5.0,0.0,13.24,37.67,20.4,
9.017,88.075097607258,74.98948859880147,-1.0,0.0,0.0,4.0,6.0,3.0,0.0,0.0,5.0,0.0,13.34,37.18,20.5,
9.031,88.1335097607258,74.96294885988014,-1.0,0.0,0.0,4.0,6.0,3.0,0.0,0.0,6.0,0.0,13.34,36.89,20.6,
9.046,88.15735097607256,74.978294885988,-1.0,0.0,0.0,4.0,6.0,3.0,0.0,0.0,6.0,0.0,13.44,36.59,20.7,
9.059,88.15973509760725,74.93482948859881,-1.0,0.0,0.0,4.0,6.0,3.0,0.0,0.0,6.0,0.0,13.54,36.3,20.8,
9.073,88.16897350976073,74.93948294885988,-1.0,0.0,0.0,4.0,6.0,3.0,0.0,0.0,6.0,0.0,13.64,35.71,20.99,
9.086,88.16089735097606,74.930948294886,-1.0,0.0,0.0,4.0,6.0,3.0,0.0,0.0,6.0,0.0,13.64,35.61,20.99,
9.101,88.1600897350976,74.9840948294886,-1.0,0.0,0.0,4.0,6.0,3.0,0.0,0.0,6.0,0.0,13.73,35.41,21.09,
9.114,88.19600897350976,74.95340948294886,-1.0,0.0,0.0,4.0,6.0,3.0,0.0,0.0,6.0,0.0,13.83,35.12,21.09,
9.128,88.23560089735096,74.95934094829488,-1.0,0.0,-1.0,4.0,6.0,3.0,0.0,0.0,6.0,0.0,13.93,34.63,21.19,
9.143,88.2305600897351,75.0139340948295,-1.0,0.0,0.0,4.0,6.0,3.0,0.0,0.0,6.0,0.0,14.13,34.24,21.29,
9.156,88.1940560089735,75.04639340948295,-1.0,0.0,0.0,4.0,6.0,3.0,0.0,0.0,6.0,0.0,14.13,33.84,21.39,
9.17,88.23540560089734,75.09463934094829,-1.0,0.0,-1.0,4.0,6.0,3.0,0.0,0.0,6.0,0.0,14.13,33.35,21.39,
9.184,88.21254056008974,75.12646393409483,-1.0,0.0,-1.0,4.0,6.0,3.0,0.0,0.0,6.0,0.0,14.42,32.37,21.58,
9.198,88.24625405600896,75.15664639340949,-1.0,0.0,-1.0,4.0,6.0,3.0,0.0,0.0,6.0,0.0,14.42,31.98,21.58,
9.212,88.2766254056009,75.18666463934096,-1.0,0.0,0.0,4.0,6.0,3.0,0.0,0.0,6.0,0.0,14.42,31.59,21.68,
9.226,88.27066254056008,75.2256664639341,-1.0,0.0,-1.0,4.0,6.0,3.0,0.0,0.0,6.0,0.0,14.62,30.9,21.78,
9.24,88.26106625405602,75.21156664639341,-1.0,0.0,0.0,4.0,6.0,3.0,0.0,0.0,6.0,0.0,14.62,30.51,21.78,
9.253,88.2691066254056,75.21015666463933,-1.0,0.0,0.0,4.0,6.0,3.0,0.0,0.0,6.0,0.0,14.62,30.31,21.68,
9.268,88.26991066254055,75.23701566646392,-2.0,0.0,0.0,4.0,6.0,3.0,0.0,0.0,6.0,0.0,14.62,30.31,21.68,
9.281,88.27899106625405,75.23970156664639,-2.0,0.0,0.0,4.0,6.0,3.0,0.0,0.0,6.0,0.0,14.62,30.41,21.68,
9.295,88.2618991066254,75.26697015666463,-2.0,0.0,0.0,4.0,6.0,3.0,0.0,0.0,6.0,0.0,14.62,30.61,21.78,
9.309,88.26018991066255,75.25169701566647,-2.0,0.0,0.0,4.0,6.0,3.0,0.0,0.0,6.0,0.0,14.62,30.8,21.78,
9.323,88.26001899106626,75.23216970156665,-2.0,0.0,0.0,4.0,6.0,3.0,0.0,0.0,6.0,0.0,14.52,31.0,21.78,
9.337,88.24200189910663,75.29321697015666,-2.0,0.0,0.0,4.0,6.0,3.0,0.0,0.0,6.0,0.0,14.62,31.29,21.78,
9.351,88.20420018991067,75.30832169701567,-2.0,0.0,0.0,4.0,6.0,3.0,0.0,0.0,6.0,0.0,14.62,31.49,21.78,
9.365,88.18242001899108,75.31883216970157,-2.0,0.0,0.0,4.0,6.0,3.0,0.0,0.0,6.0,0.0,14.42,31.59,21.78,
9.378,88.19824200189912,75.28388321697017,-2.0,0.0,0.0,5.0,6.0,3.0,0.0,0.0,6.0,0.0,14.52,31.88,21.88,
9.393,88.17282420018992,75.28938832169703,-2.0,0.0,0.0,4.0,6.0,3.0,0.0,0.0,6.0,0.0,14.42,32.37,21.78,
9.406,88.16128242001898,75.3529388321697,-2.0,0.0,0.0,5.0,6.0,3.0,0.0,0.0,6.0,0.0,14.32,32.57,21.78,
9.42,88.1961282420019,75.30529388321696,-2.0,0.0,0.0,4.0,6.0,3.0,0.0,0.0,6.0,0.0,14.32,32.77,21.78,
9.434,88.1996128242002,75.31852938832169,-2.0,0.0,0.0,4.0,6.0,3.0,0.0,0.0,6.0,0.0,14.32,32.86,21.68,
9.448,88.23596128242002,75.31085293883218,-2.0,0.0,0.0,4.0,6.0,3.0,0.0,0.0,6.0,0.0,14.32,33.16,21.68,
9.461,88.23059612824201,75.35508529388322,-2.0,0.0,-1.0,4.0,6.0,3.0,0.0,0.0,6.0,0.0,14.22,33.35,21.68,
9.476,88.21205961282419,75.34150852938834,-2.0,0.0,0.0,4.0,6.0,3.0,0.0,0.0,6.0,0.0,14.03,33.55,21.58,
9.49,88.25520596128243,75.36715085293885,-2.0,0.0,-1.0,4.0,6.0,3.0,0.0,0.0,6.0,0.0,13.93,33.84,21.58,
9.503,88.26852059612824,75.31571508529389,-2.0,0.0,0.0,4.0,6.0,3.0,0.0,0.0,6.0,0.0,13.83,34.24,21.48,
9.518,88.26085205961283,75.3375715085294,-3.0,0.0,0.0,4.0,6.0,3.0,0.0,0.0,6.0,0.0,13.83,34.73,21.48,
9.531,88.20608520596129,75.33075715085293,-2.0,0.0,0.0,4.0,6.0,3.0,0.0,0.0,6.0,0.0,13.83,35.32,21.39,
9.545,88.17360852059613,75.30307571508528,-2.0,-1.0,0.0,4.0,6.0,3.0,0.0,0.0,6.0,0.0,13.64,35.71,21.29,
9.56,88.22436085205962,75.25530757150854,-3.0,0.0,0.0,4.0,6.0,3.0,0.0,0.0,6.0,0.0,13.54,36.69,21.19,
9.573,88.22043608520596,75.25053075715086,-3.0,0.0,0.0,4.0,6.0,3.0,0.0,0.0,6.0,0.0,13.44,37.18,21.19,
9.587,88.2200436085206,75.25905307571509,-2.0,0.0,0.0,4.0,6.0,3.0,0.0,0.0,6.0,0.0,13.34,37.47,21.09,
9.601,88.25600436085207,75.17890530757151,-2.0,0.0,0.0,4.0,6.0,3.0,0.0,0.0,6.0,0.0,13.05,37.96,20.99,
9.615,88.25060043608521,75.19789053075715,-2.0,0.0,0.0,4.0,6.0,3.0,0.0,0.0,6.0,0.0,12.95,38.65,20.9,
9.628,88.26806004360851,75.19078905307572,-2.0,0.0,0.0,4.0,6.0,3.0,0.0,0.0,6.0,0.0,13.05,38.95,20.8,
9.643,88.26980600436085,75.23507890530756,-2.0,0.0,0.0,4.0,6.0,3.0,0.0,0.0,6.0,0.0,12.85,39.04,20.7,
9.656,88.31498060043609,75.22150789053076,-2.0,0.0,0.0,4.0,6.0,3.0,0.0,0.0,6.0,0.0,12.75,39.24,20.6,
9.67,88.29249806004361,75.18415078905308,-2.0,0.0,0.0,4.0,6.0,3.0,0.0,0.0,6.0,0.0,12.65,39.63,20.5,
9.684,88.27224980600435,75.16241507890531,-2.0,0.0,0.0,4.0,6.0,3.0,0.0,0.0,6.0,0.0,12.56,39.83,20.5,
9.698,88.26122498060045,75.23224150789052,-2.0,0.0,0.0,4.0,6.0,3.0,0.0,0.0,6.0,0.0,12.56,39.93,20.4,
9.712,88.22412249806004,75.25722415078906,-2.0,0.0,0.0,4.0,6.0,3.0,0.0,0.0,6.0,0.0,12.56,39.83,20.31,
9.725,88.193412249806,75.25972241507891,-2.0,0.0,-1.0,4.0,6.0,3.0,0.0,0.0,6.0,0.0,12.36,39.83,20.21,
9.74,88.17234122498061,75.2509722415079,-2.0,0.0,0.0,4.0,6.0,3.0,0.0,0.0,6.0,0.0,12.36,39.93,20.11,
9.753,88.20623412249806,75.25009722415079,-2.0,0.0,0.0,4.0,6.0,3.0,0.0,0.0,6.0,0.0,12.26,39.93,20.01,
9.767,88.17362341224981,75.27700972241509,-2.0,-1.0,0.0,4.0,6.0,3.0,0.0,0.0,6.0,0.0,12.26,40.02,20.01,
9.782,88.17936234122499,75.2437009722415,-2.0,0.0,0.0,4.0,6.0,3.0,0.0,0.0,6.0,0.0,12.16,40.42,19.91,
9.795,88.1529362341225,75.24037009722414,-2.0,0.0,0.0,4.0,6.0,3.0,0.0,0.0,6.0,0.0,12.16,40.61,19.82,
9.809,88.12329362341225,75.24003700972241,-2.0,0.0,0.0,4.0,6.0,3.0,0.0,0.0,6.0,0.0,11.97,40.91,19.82,
9.823,88.12932936234122,75.28500370097225,-2.0,0.0,0.0,4.0,6.0,3.0,0.0,0.0,6.0,0.0,11.97,41.2,19.82,
9.837,88.08493293623413,75.27150037009721,-2.0,0.0,0.0,4.0,6.0,3.0,0.0,0.0,6.0,0.0,11.97,41.79,19.72,
9.85,88.08949329362342,75.26115003700973,-2.0,0.0,0.0,4.0,6.0,3.0,0.0,0.0,6.0,0.0,11.87,42.08,19.62,
9.865,88.13494932936234,75.22411500370097,-2.0,0.0,0.0,4.0,6.0,3.0,0.0,0.0,6.0,0.0,11.77,42.38,19.62,
9.878,88.12149493293624,75.26541150037009,-2.0,0.0,0.0,4.0,6.0,3.0,0.0,0.0,6.0,0.0,11.77,42.67,19.62,
9.892,88.07514949329361,75.242541150037,-2.0,0.0,0.0,4.0,6.0,3.0,0.0,0.0,6.0,0.0,11.77,43.16,19.52,
9.907,88.09751494932935,75.25825411500371,-2.0,0.0,0.0,4.0,6.0,3.0,0.0,0.0,6.0,0.0,11.67,43.26,19.52,
9.92,88.10875149493293,75.22382541150037,-2.0,0.0,0.0,4.0,6.0,3.0,0.0,0.0,6.0,0.0,11.67,43.36,19.52,
9.934,88.15487514949328,75.21138254115003,-2.0,0.0,0.0,4.0,6.0,3.0,0.0,0.0,6.0,0.0,11.67,43.46,19.42,
9.948,88.15048751494933,75.18313825411501,-2.0,0.0,0.0,4.0,6.0,3.0,0.0,0.0,6.0,0.0,11.67,43.85,19.42,
9.962,88.09604875149493,75.1353138254115,-2.0,0.0,0.0,4.0,6.0,3.0,0.0,0.0,6.0,0.0,11.58,43.95,19.52,
9.975,88.07260487514948,75.16653138254115,-2.0,0.0,0.0,4.0,6.0,3.0,0.0,0.0,6.0,0.0,11.58,44.15,19.42,
9.99,88.07026048751493,75.17865313825412,-2.0,0.0,0.0,4.0,6.0,3.0,0.0,0.0,6.0,0.0,11.58,44.34,19.42,
10.003,88.12402604875149,75.15286531382542,-2.0,0.0,0.0,4.0,6.0,3.0,0.0,0.0,6.0,0.0,11.58,44.83,19.42,
10.017,88.12040260487515,75.14128653138255,-2.0,0.0,0.0,5.0,6.0,3.0,0.0,0.0,6.0,0.0,11.48,44.93,19.42,
10.032,88.05704026048753,75.09512865313826,-2.0,0.0,0.0,4.0,6.0,3.0,0.0,0.0,6.0,0.0,11.48,45.22,19.42,
10.045,88.03270402604875,75.12651286531383,-2.0,0.0,0.0,5.0,6.0,3.0,0.0,0.0,6.0,0.0,11.58,45.42,19.52,
10.059,88.06627040260486,75.17465128653139,-2.0,0.0,-1.0,4.0,6.0,3.0,0.0,0.0,6.0,0.0,11.58,45.42,19.52,
10.074,88.02462704026048,75.17046512865315,-2.0,0.0,0.0,4.0,6.0,3.0,0.0,0.0,6.0,0.0,11.58,45.42,19.42,
10.087,88.03846270402605,75.17004651286533,-2.0,0.0,0.0,4.0,6.0,3.0,0.0,0.0,6.0,0.0,11.48,45.42,19.42,
10.101,87.9948462704026,75.13400465128653,-2.0,0.0,0.0,4.0,6.0,3.0,0.0,0.0,6.0,0.0,11.58,45.62,19.52,
10.116,88.00848462704026,75.16640046512866,-2.0,0.0,0.0,4.0,6.0,3.0,0.0,0.0,6.0,0.0,11.58,46.01,19.52,
10.129,88.02784846270403,75.13364004651287,-2.0,0.0,0.0,4.0,6.0,3.0,0.0,0.0,6.0,0.0,11.58,46.21,19.52,
10.143,88.0207848462704,75.10336400465128,-2.0,0.0,0.0,4.0,6.0,3.0,0.0,0.0,6.0,0.0,11.58,46.4,19.52,
10.157,88.02007848462705,75.04633640046512,-2.0,0.0,0.0,4.0,6.0,3.0,0.0,0.0,6.0,0.0,11.58,46.6,19.72,
10.171,87.97500784846271,75.05863364004651,-2.0,0.0,0.0,4.0,6.0,3.0,0.0,0.0,6.0,0.0,11.58,46.7,19.62,
10.185,87.97950078484627,75.07786336400466,-2.0,0.0,-1.0,4.0,6.0,3.0,0.0,0.0,6.0,0.0,11.58,46.6,19.62,
10.199,88.00695007848464,75.07078633640046,-2.0,0.0,-1.0,4.0,6.0,3.0,0.0,0.0,6.0,0.0,11.77,46.4,19.72,
10.213,88.01869500784846,75.07907863364005,-2.0,0.0,-1.0,4.0,6.0,3.0,0.0,0.0,6.0,0.0,11.77,45.71,19.82,
10.227,88.05586950078485,75.052907863364,-2.0,0.0,-1.0,4.0,6.0,3.0,0.0,0.0,6.0,0.0,11.87,45.42,20.01,
10.242,88.08658695007848,75.12229078633641,-2.0,0.0,-1.0,4.0,6.0,3.0,0.0,0.0,6.0,0.0,11.97,45.32,20.11,
10.255,88.08965869500786,75.17422907863364,-2.0,0.0,-1.0,4.0,6.0,3.0,0.0,0.0,6.0,0.0,12.07,45.22,20.21,
10.269,88.11696586950079,75.10742290786337,-2.0,0.0,-1.0,4.0,6.0,3.0,0.0,0.0,6.0,0.0,12.16,45.03,20.31,
10.284,88.11069658695008,75.05574229078634,-2.0,0.0,-1.0,5.0,6.0,3.0,0.0,0.0,6.0,0.0,12.16,44.93,20.4,
10.297,88.155069658695,75.09557422907864,-2.0,0.0,-1.0,4.0,6.0,3.0,0.0,0.0,6.0,0.0,12.07,44.93,20.5,
10.311,88.15050696586951,75.09955742290786,-2.0,0.0,-1.0,5.0,6.0,3.0,0.0,0.0,6.0,0.0,12.26,44.73,20.7,
10.326,88.11405069658696,75.15395574229079,-2.0,0.0,-1.0,4.0,6.0,3.0,0.0,0.0,6.0,0.0,12.26,44.44,20.7,
10.34,88.12840506965868,75.16839557422908,-2.0,0.0,-1.0,4.0,6.0,3.0,0.0,0.0,6.0,0.0,12.16,44.34,20.7,
10.353,88.18384050696586,75.16983955742292,-2.0,0.0,0.0,4.0,6.0,3.0,0.0,0.0,6.0,0.0,12.16,44.24,20.7,
10.368,88.17138405069659,75.1519839557423,-2.0,0.0,-1.0,4.0,6.0,3.0,0.0,0.0,6.0,0.0,12.26,44.15,20.6,
10.382,88.17913840506966,75.21319839557424,-2.0,0.0,0.0,4.0,6.0,3.0,0.0,0.0,6.0,0.0,12.16,44.05,20.6,
10.395,88.12591384050697,75.20131983955743,-2.0,0.0,-1.0,4.0,6.0,3.0,0.0,0.0,6.0,0.0,12.07,44.05,20.5,
10.409,88.15659138405069,75.15513198395574,-2.0,0.0,0.0,4.0,6.0,3.0,0.0,0.0,6.0,0.0,11.97,44.05,20.4,
10.424,88.18665913840506,75.15951319839557,-2.0,0.0,-1.0,4.0,6.0,3.0,0.0,0.0,6.0,0.0,11.97,44.05,20.4,
10.438,88.1626659138405,75.13295131983956,-2.0,-1.0,0.0,4.0,6.0,3.0,0.0,0.0,6.0,0.0,11.87,43.95,20.31,
10.451,88.16926659138406,75.15729513198396,-2.0,0.0,0.0,4.0,6.0,3.0,0.0,0.0,6.0,0.0,11.87,43.95,20.21,
10.466,88.1879266591384,75.1417295131984,-2.0,0.0,-1.0,4.0,6.0,3.0,0.0,0.0,6.0,0.0,11.77,44.05,20.11,
10.48,88.16279266591383,75.10417295131984,-2.0,0.0,0.0,4.0,6.0,3.0,0.0,0.0,6.0,0.0,11.67,44.15,19.91,
10.493,88.15127926659139,75.04641729513199,-2.0,0.0,0.0,4.0,6.0,3.0,0.0,0.0,6.0,0.0,11.58,44.34,19.91,
10.508,88.13212792665914,75.0766417295132,-2.0,0.0,0.0,4.0,6.0,3.0,0.0,0.0,6.0,0.0,11.48,44.34,19.82,
10.522,88.1032127926659,75.07966417295133,-2.0,0.0,-1.0,4.0,6.0,3.0,0.0,0.0,6.0,0.0,11.48,44.24,19.72,
10.535,88.0643212792666,75.07996641729514,-2.0,0.0,-1.0,4.0,6.0,3.0,0.0,0.0,6.0,0.0,11.28,44.15,19.52,
10.55,88.08743212792666,75.07999664172951,-2.0,0.0,-1.0,4.0,6.0,3.0,0.0,0.0,6.0,0.0,11.18,44.15,19.42,
10.564,88.09874321279266,75.06199966417296,-2.0,0.0,0.0,4.0,6.0,3.0,0.0,0.0,6.0,0.0,11.09,44.15,19.42,
10.577,88.08187432127927,75.0241999664173,-2.0,-1.0,0.0,4.0,6.0,3.0,0.0,0.0,6.0,0.0,11.09,44.24,19.23,
10.592,88.05318743212793,75.04741999664174,-2.0,-1.0,0.0,4.0,6.0,3.0,0.0,0.0,6.0,0.0,10.99,44.83,19.13,
10.606,88.0503187432128,75.05874199966418,-2.0,0.0,0.0,6.0,6.0,3.0,0.0,0.0,6.0,0.0,10.89,45.22,19.03,
10.619,87.99603187432128,75.00587419996641,-2.0,0.0,0.0,6.0,6.0,3.0,0.0,0.0,6.0,0.0,10.79,45.52,18.93,
10.634,87.93660318743214,75.00058741999663,-2.0,0.0,-1.0,6.0,6.0,3.0,0.0,0.0,6.0,0.0,10.69,45.71,18.74,
10.648,87.95766031874321,75.02705874199967,-2.0,0.0,-1.0,6.0,6.0,3.0,0.0,0.0,6.0,0.0,10.59,45.81,18.84,
10.661,87.98676603187432,75.02970587419996,-2.0,0.0,-1.0,6.0,6.0,3.0,0.0,0.0,6.0,0.0,10.5,45.71,18.74,
10.676,87.99867660318743,75.04797058742,-2.0,0.0,-1.0,6.0,6.0,3.0,0.0,0.0,6.0,0.0,10.5,45.62,18.64,
10.69,88.01786766031874,75.058797058742,-2.0,0.0,0.0,6.0,6.0,3.0,0.0,0.0,6.0,0.0,10.4,45.52,18.54,
10.704,88.04678676603187,75.0778797058742,-2.0,0.0,0.0,6.0,6.0,3.0,0.0,0.0,6.0,0.0,10.4,45.52,18.54,
10.718,87.98667867660319,75.07078797058742,-2.0,0.0,0.0,6.0,6.0,3.0,0.0,0.0,6.0,0.0,10.3,45.62,18.54,
10.732,87.98966786766032,75.03407879705874,-2.0,0.0,-1.0,6.0,6.0,3.0,0.0,0.0,6.0,0.0,10.4,45.52,18.44,
10.746,87.96296678676603,75.00340787970588,-2.0,0.0,0.0,6.0,6.0,3.0,0.0,0.0,6.0,0.0,10.4,45.62,18.44,
10.76,87.9512966786766,75.00034078797059,-2.0,0.0,0.0,6.0,6.0,3.0,0.0,0.0,6.0,0.0,10.4,45.71,18.54,
10.774,87.93212966786767,75.00003407879706,-2.0,0.0,0.0,6.0,6.0,3.0,0.0,0.0,6.0,0.0,10.3,45.91,18.54,
10.787,87.94821296678677,74.9820034078797,-2.0,0.0,0.0,6.0,6.0,3.0,0.0,0.0,6.0,0.0,10.3,46.01,18.54,
10.802,87.92282129667868,74.97120034078797,-2.0,0.0,-1.0,6.0,6.0,3.0,0.0,0.0,6.0,0.0,10.2,46.01,18.44,
10.816,87.90228212966788,74.97012003407879,-2.0,0.0,0.0,6.0,6.0,3.0,0.0,0.0,6.0,0.0,10.2,45.91,18.44,
10.829,87.89122821296678,74.99701200340787,-2.0,0.0,0.0,6.0,6.0,3.0,0.0,0.0,6.0,0.0,10.1,45.91,18.34,
10.844,87.89012282129667,75.02670120034078,-2.0,0.0,-2.0,6.0,6.0,3.0,0.0,0.0,6.0,0.0,10.1,45.81,18.25,
10.858,87.93501228212966,74.98467012003408,-2.0,0.0,0.0,6.0,6.0,3.0,0.0,0.0,6.0,0.0,10.01,45.91,18.25,
10.871,88.02050122821296,74.9984670120034,-2.0,0.0,0.0,6.0,6.0,3.0,0.0,0.0,6.0,0.0,10.1,46.01,18.25,
10.886,88.06505012282129,74.99084670120034,-2.0,0.0,0.0,6.0,6.0,3.0,0.0,0.0,6.0,0.0,10.01,46.11,18.25,
10.9,88.04250501228213,74.99008467012003,-2.0,0.0,0.0,6.0,6.0,3.0,0.0,0.0,6.0,0.0,10.1,46.21,18.05,
10.913,87.99525050122821,75.017008467012,-2.0,0.0,-1.0,6.0,6.0,3.0,0.0,0.0,6.0,0.0,10.1,46.6,18.05,
10.928,87.96352505012283,75.0017008467012,-2.0,0.0,0.0,6.0,6.0,3.0,0.0,0.0,6.0,0.0,10.01,46.6,18.05,
10.942,87.99635250501228,75.00917008467012,-2.0,0.0,0.0,6.0,6.0,3.0,0.0,0.0,6.0,0.0,9.91,46.6,18.15,
10.955,87.99063525050123,75.08191700846702,-2.0,0.0,-1.0,5.0,6.0,3.0,0.0,0.0,6.0,0.0,10.01,46.6,18.15,
10.97,87.95406352505012,75.1251917008467,-2.0,0.0,0.0,6.0,6.0,3.0,0.0,0.0,6.0,0.0,10.01,46.4,18.15,
10.984,87.91440635250501,75.08451917008468,-2.0,0.0,0.0,6.0,6.0,3.0,0.0,0.0,6.0,0.0,10.01,46.21,18.15,
10.997,87.9464406352505,75.11645191700848,-2.0,0.0,0.0,6.0,6.0,3.0,0.0,0.0,6.0,0.0,10.1,46.01,18.15,
11.012,87.94964406352506,75.09264519170085,-2.0,0.0,0.0,6.0,6.0,3.0,0.0,0.0,6.0,0.0,10.01,46.01,18.05,
11.025,87.97696440635251,75.04526451917009,-2.0,0.0,0.0,6.0,6.0,3.0,0.0,0.0,6.0,0.0,10.01,45.91,18.15,
11.039,87.97069644063525,75.067526451917,-2.0,0.0,0.0,6.0,6.0,3.0,0.0,0.0,6.0,0.0,10.1,46.01,18.05,
11.054,87.96106964406353,75.0427526451917,-2.0,0.0,0.0,6.0,6.0,3.0,0.0,0.0,6.0,0.0,10.01,46.3,18.05,
11.067,87.97810696440635,75.07627526451917,-2.0,0.0,0.0,6.0,6.0,3.0,0.0,0.0,6.0,0.0,10.01,46.7,17.95,
11.081,87.93481069644065,75.11562752645192,-2.0,0.0,0.0,6.0,6.0,3.0,0.0,0.0,6.0,0.0,10.01,46.7,17.85,
11.096,87.93048106964407,75.1015627526452,-2.0,0.0,-1.0,6.0,6.0,3.0,0.0,0.0,6.0,0.0,9.91,46.6,17.85,
11.109,87.90304810696442,75.13615627526453,-2.0,0.0,0.0,6.0,6.0,3.0,0.0,0.0,6.0,0.0,9.91,46.6,17.85,
11.123,87.91830481069644,75.09461562752645,-2.0,0.0,-1.0,6.0,6.0,3.0,0.0,0.0,6.0,0.0,9.91,46.21,17.85,
11.137,87.89283048106964,75.08146156275265,-2.0,0.0,-1.0,6.0,6.0,3.0,0.0,0.0,6.0,0.0,9.81,46.01,17.76,
11.151,87.94428304810697,75.01714615627526,-2.0,0.0,0.0,6.0,6.0,3.0,0.0,0.0,6.0,0.0,9.81,45.91,17.66,
11.165,87.9494283048107,74.99271461562752,-2.0,-1.0,0.0,6.0,6.0,3.0,0.0,0.0,6.0,0.0,9.71,45.91,17.56,
11.179,87.90494283048108,74.99027146156276,-2.0,-1.0,0.0,6.0,6.0,3.0,0.0,0.0,5.0,0.0,9.52,45.81,17.36,
11.193,87.9094942830481,74.94502714615628,-2.0,-1.0,-2.0,6.0,6.0,3.0,0.0,0.0,5.0,0.0,9.42,45.52,17.07,
11.207,87.99994942830482,74.91350271461562,-2.0,-2.0,-2.0,5.0,6.0,3.0,0.0,0.0,5.0,0.0,9.32,44.73,16.87,
11.22,88.08999494283047,75.12635027146156,-5.0,-3.0,-4.0,5.0,6.0,3.0,0.0,0.0,5.0,0.0,9.12,43.07,15.6,
11.235,88.22499949428304,75.17463502714617,-3.0,-6.0,-1.0,5.0,6.0,3.0,0.0,0.0,4.0,0.0,8.04,37.18,14.52,
11.249,88.37349994942831,75.01746350271462,-4.0,-10.0,-6.0,5.0,5.0,3.0,0.0,0.0,3.0,0.0,7.26,33.65,13.15,
11.264,88.23534999494282,74.93874635027147,-3.0,-12.0,-1.0,4.0,5.0,2.0,0.0,0.0,3.0,0.0,6.18,30.31,11.48,
11.277,87.96953499949429,74.63387463502714,-1.0,-17.0,0.0,3.0,5.0,2.0,0.0,0.0,2.0,0.0,5.1,26.49,8.24,
11.291,87.65495349994943,74.39638746350272,0.0,-19.0,0.0,3.0,4.0,2.0,0.0,0.0,2.0,0.0,3.24,17.27,7.06,
11.305,87.32649534999494,74.28263874635027,4.0,-16.0,0.0,2.0,4.0,2.0,0.0,0.0,2.0,0.0,2.26,12.16,5.69,
11.319,87.2396495349995,74.33426387463503,4.0,-18.0,0.0,1.0,3.0,1.0,0.0,0.0,1.0,0.0,1.57,7.36,4.61,
11.332,86.68196495349996,74.46542638746351,6.0,-23.0,6.0,1.0,3.0,1.0,0.0,0.0,1.0,0.0,1.08,3.63,2.94,
11.346,86.58119649534999,74.55054263874635,5.0,-21.0,4.0,0.0,2.0,1.0,0.0,0.0,1.0,0.0,0.69,0.78,2.55,
11.36,86.445119649535,74.41505426387464,7.0,-26.0,14.0,0.0,2.0,1.0,0.0,0.0,1.0,0.0,0.49,0.98,2.06,
11.373,86.83651196495349,73.70850542638746,8.0,-19.0,9.0,0.0,2.0,0.0,0.0,0.0,1.0,0.0,0.39,1.57,1.47,
11.387,87.69465119649536,73.70085054263875,15.0,-21.0,8.0,0.0,1.0,0.0,0.0,0.0,0.0,0.0,0.2,2.06,0.69,
11.401,88.07746511964955,72.80008505426387,11.0,0.0,-18.0,0.0,1.0,0.0,0.0,0.0,0.0,0.0,0.0,2.06,0.49,
11.414,89.08774651196495,72.48500850542638,-1.0,8.0,-31.0,0.0,1.0,0.0,0.0,0.0,0.0,0.0,0.0,2.06,0.39,
11.428,90.0077746511965,72.76850085054264,-2.0,1.0,-42.0,0.0,1.0,0.0,0.0,0.0,0.0,0.0,0.0,2.16,0.49,
11.442,89.26277746511965,73.57985008505426,-4.0,-3.0,-40.0,0.0,1.0,0.0,0.0,0.0,0.0,0.0,0.0,2.26,0.78,
11.455,87.45127774651198,75.33498500850543,-4.0,1.0,-25.0,0.0,1.0,0.0,0.0,0.0,0.0,0.0,0.0,2.16,0.98,
11.469,86.4511277746512,76.95049850085054,-10.0,-13.0,-26.0,0.0,1.0,0.0,0.0,0.0,0.0,0.0,0.0,2.26,0.98,
11.483,82.40911277746511,79.21804985008505,-5.0,-5.0,-12.0,0.0,1.0,0.0,0.0,0.0,0.0,0.0,0.0,2.84,1.08,
11.497,80.06991127774651,79.5348049850085,-1.0,43.0,8.0,0.0,1.0,1.0,0.0,0.0,0.0,0.0,0.0,4.12,1.18,
11.51,79.14299112777466,79.38648049850086,-10.0,86.0,-17.0,1.0,2.0,1.0,0.0,0.0,0.0,0.0,0.0,6.57,1.77,
11.525,83.85629911277746,80.37964804985009,-24.0,64.0,-30.0,2.0,2.0,2.0,0.0,0.0,0.0,0.0,0.0,19.23,2.26,
11.538,86.55062991127774,80.12796480498501,-24.0,-10.0,-8.0,3.0,3.0,2.0,0.0,0.0,1.0,0.0,0.0,34.83,2.94,
11.552,87.89106299112778,79.2207964804985,-31.0,15.0,1.0,4.0,4.0,2.0,0.0,0.0,1.0,0.0,0.0,57.98,3.73,
11.567,88.30410629911277,78.70707964804986,-49.0,16.0,15.0,4.0,4.0,3.0,0.0,0.0,1.0,0.0,0.0,117.72,5.3,
11.581,88.36341062991127,77.02670796480498,-44.0,14.0,-9.0,5.0,5.0,2.0,0.0,0.0,1.0,0.0,0.49,147.44,6.08,
11.594,87.64934106299113,76.84067079648048,-43.0,34.0,-33.0,5.0,5.0,2.0,0.0,0.0,2.0,0.0,1.96,178.74,7.26,
11.609,87.4339341062991,77.30806707964804,-33.0,13.0,-19.0,5.0,6.0,2.0,0.0,0.0,2.0,0.0,2.75,213.07,11.09,
11.623,87.62839341062991,76.2748067079648,-20.0,25.0,-12.0,5.0,6.0,2.0,0.0,0.0,2.0,0.0,3.34,275.17,13.34,
11.637,88.223839341063,75.15448067079647,-15.0,8.0,-9.0,5.0,6.0,2.0,0.0,0.0,2.0,0.0,3.92,298.13,15.6,
11.652,88.7783839341063,74.15144806707966,-13.0,-4.0,-9.0,6.0,6.0,2.0,0.0,0.0,2.0,0.0,5.3,314.12,17.76,
11.665,88.73483839341063,73.61014480670795,-4.0,-2.0,-12.0,6.0,6.0,2.0,0.0,0.0,2.0,0.0,6.08,322.26,21.88,
11.679,88.80248383934106,73.31301448067079,6.0,-10.0,-16.0,6.0,6.0,2.0,0.0,0.0,2.0,0.0,6.77,317.06,23.84,
11.694,89.65524838393411,72.9413014480671,0.0,-5.0,-10.0,6.0,6.0,2.0,0.0,0.0,2.0,0.0,7.46,306.66,25.7,
11.708,89.8575248383934,73.25513014480671,-1.0,-7.0,-7.0,6.0,6.0,3.0,0.0,0.0,2.0,0.0,8.44,292.63,28.45,
11.721,89.99475248383933,73.10651301448067,-1.0,0.0,1.0,5.0,5.0,3.0,0.0,0.0,2.0,0.0,8.73,260.26,29.63,
11.736,89.90947524838394,73.01065130144806,-5.0,0.0,-1.0,5.0,5.0,3.0,0.0,0.0,2.0,0.0,9.03,244.96,30.61,
11.749,90.0809475248384,72.65906513014481,-8.0,5.0,1.0,5.0,5.0,3.0,0.0,0.0,2.0,0.0,9.32,231.32,31.49,
11.763,89.83709475248385,72.56990651301449,-4.0,1.0,0.0,5.0,5.0,3.0,0.0,0.0,2.0,0.0,9.42,219.74,32.86,
11.778,89.85770947524838,72.28199065130146,-7.0,8.0,-2.0,4.0,5.0,3.0,0.0,0.0,1.0,0.0,9.81,200.42,33.45,
11.791,90.06677094752484,71.86619906513013,-6.0,12.0,-4.0,4.0,4.0,2.0,0.0,0.0,1.0,0.0,9.81,192.37,33.84,
11.805,90.52867709475248,71.47361990651302,-3.0,14.0,-7.0,4.0,4.0,2.0,0.0,0.0,1.0,0.0,9.91,185.31,34.24,
11.82,90.90786770947525,71.38936199065131,-1.0,12.0,-6.0,4.0,4.0,2.0,0.0,0.0,2.0,0.0,9.91,178.84,35.02,
11.833,91.03578677094751,71.16493619906512,1.0,9.0,-5.0,4.0,4.0,3.0,0.0,0.0,2.0,0.0,10.01,168.63,35.81,
11.847,91.03957867709475,71.2234936199065,2.0,-3.0,-1.0,4.0,5.0,3.0,0.0,0.0,2.0,0.0,10.3,164.51,36.98,
11.862,90.89595786770947,71.30134936199065,2.0,1.0,-2.0,4.0,5.0,3.0,0.0,0.0,2.0,0.0,10.79,160.59,38.46,
11.875,90.95359578677093,71.29113493619906,5.0,3.0,-4.0,5.0,5.0,3.0,0.0,0.0,2.0,0.0,11.28,156.76,42.08,
11.889,91.3463595786771,71.4611134936199,8.0,8.0,-3.0,5.0,5.0,3.0,0.0,0.0,2.0,0.0,12.56,148.52,44.15,
11.902,91.6016359578677,71.631111349362,10.0,5.0,-3.0,5.0,5.0,3.0,0.0,0.0,2.0,0.0,13.34,144.99,46.11,
11.917,91.68116359578677,71.7201111349362,11.0,8.0,-4.0,5.0,6.0,3.0,0.0,0.0,3.0,0.0,13.93,142.15,47.77,
11.931,91.52711635957868,71.91801111349362,16.0,15.0,1.0,6.0,6.0,3.0,0.0,0.0,3.0,0.0,14.62,139.69,50.82,
11.945,92.60971163595788,71.85680111134936,22.0,21.0,-1.0,6.0,6.0,4.0,0.0,0.0,4.0,0.0,16.28,133.91,52.09,
11.959,93.41997116359579,71.76068011113493,28.0,26.0,-1.0,7.0,6.0,4.0,0.0,0.0,4.0,0.0,17.56,130.47,53.07,
11.973,93.45599711635957,73.02006801111348,19.0,-9.0,23.0,7.0,7.0,4.0,0.0,0.0,5.0,0.0,18.44,127.33,53.56,
11.987,93.80159971163596,72.94800680111135,24.0,-31.0,37.0,6.0,8.0,3.0,0.0,0.0,6.0,0.0,19.62,123.41,54.15,
12.002,93.0621599711636,73.38180068011114,24.0,5.0,3.0,7.0,9.0,4.0,0.0,0.0,7.0,0.0,24.23,120.86,55.52,
12.016,92.43021599711635,73.5601800680111,21.0,7.0,1.0,6.0,9.0,4.0,0.0,0.0,8.0,1.0,27.37,116.74,58.08,
12.029,92.42102159971162,73.96501800680112,22.0,3.0,-3.0,5.0,10.0,4.0,0.0,0.0,9.0,1.0,30.9,110.36,66.51,
12.044,92.42010215997115,74.50050180068011,21.0,3.0,-11.0,6.0,10.0,4.0,0.0,0.0,10.0,1.0,34.83,91.13,72.01,
12.058,92.26701021599712,74.743050180068,26.0,-5.0,-14.0,6.0,10.0,4.0,0.0,0.0,11.0,2.0,44.34,80.05,78.09,
12.072,92.22470102159971,75.0643050180068,30.0,-14.0,-15.0,6.0,11.0,4.0,0.0,0.0,1.0,2.0,49.93,68.18,84.66,
12.087,92.05847010215999,74.93443050180068,36.0,-15.0,-39.0,5.0,11.0,4.0,0.0,0.0,4.0,3.0,55.92,55.03,98.1,
12.102,92.023847010216,76.55044305018006,32.0,-21.0,-33.0,5.0,11.0,4.0,0.0,0.0,8.0,3.0,66.81,26.68,104.57,
12.116,91.55238470102161,77.16204430501801,54.0,-34.0,-13.0,5.0,11.0,4.0,0.0,0.0,11.0,3.0,71.32,13.64,110.56,
12.131,89.89423847010215,78.29420443050181,70.0,-41.0,13.0,4.0,10.0,4.0,0.0,0.0,14.0,4.0,74.95,2.84,118.9,
12.145,89.17042384701023,78.65042044305018,73.0,-1.0,14.0,3.0,9.0,4.0,0.0,0.0,16.0,4.0,77.99,0.0,120.37,
12.16,90.29504238470102,78.08304204430502,87.0,3.0,-34.0,1.0,8.0,3.0,0.0,0.0,19.0,4.0,83.19,0.0,119.58,
12.174,90.0745042384701,78.4583042044305,107.0,6.0,-26.0,1.0,7.0,2.0,0.0,0.0,21.0,4.0,85.45,1.77,108.6,
12.188,89.683450423847,78.57683042044306,131.0,24.0,-45.0,1.0,6.0,0.0,0.0,0.0,22.0,4.0,87.41,1.47,98.98,
12.201,90.0313450423847,78.4446830420443,177.0,41.0,-91.0,1.0,5.0,0.0,0.0,0.0,22.0,4.0,88.88,0.88,86.52,
12.216,90.51613450423847,78.96246830420442,215.0,26.0,-58.0,1.0,4.0,0.0,0.0,0.0,21.0,4.0,89.96,0.49,70.73,
12.23,90.74461345042384,79.86024683042044,221.0,19.0,-37.0,1.0,4.0,0.0,0.0,0.0,17.0,4.0,89.66,0.1,37.67,
12.244,91.81146134504239,81.06602468304204,218.0,9.0,-23.0,1.0,4.0,0.0,0.0,0.0,9.0,2.0,87.7,0.0,25.7,
12.258,94.07814613450424,83.4996024683042,218.0,-30.0,-12.0,1.0,4.0,0.0,0.0,0.0,3.0,2.0,82.21,0.0,15.5,
12.272,95.62781461345043,86.50596024683043,196.0,-36.0,18.0,1.0,4.0,0.0,0.0,0.0,11.0,2.0,47.77,0.0,7.85,
12.286,96.56578146134504,87.84159602468304,179.0,-72.0,115.0,1.0,2.0,0.0,0.0,0.0,7.0,3.0,25.8,0.0,2.26,
12.3,96.44357814613451,86.7331596024683,139.0,-96.0,55.0,1.0,0.0,0.0,0.0,0.0,2.0,2.0,12.46,0.0,1.96,
12.314,95.43235781461345,83.61631596024682,57.0,-63.0,-10.0,1.0,0.0,0.0,0.0,0.0,2.0,2.0,5.2,0.0,1.77,
12.327,89.85923578146135,76.37463159602467,0.0,-28.0,-14.0,1.0,0.0,0.0,0.0,0.0,2.0,2.0,0.0,0.0,1.37,
12.341,89.48192357814612,83.57946315960245,16.0,-69.0,-78.0,1.0,0.0,0.0,0.0,0.0,2.0,2.0,0.0,0.0,1.08,
12.354,86.65419235781461,81.46494631596025,26.0,-163.0,70.0,1.0,0.0,0.0,0.0,0.0,2.0,2.0,0.0,0.0,1.37,
12.368,80.76441923578146,82.04549463159603,-59.0,-14.0,-86.0,1.0,0.0,0.0,0.0,0.0,2.0,2.0,0.0,0.0,1.57,
12.382,78.84344192357814,79.6285494631596,22.0,-49.0,-106.0,1.0,0.0,0.0,0.0,0.0,2.0,2.0,0.0,0.0,1.77,
12.395,74.36734419235782,78.79285494631596,14.0,-33.0,-139.0,1.0,0.0,0.0,0.0,0.0,2.0,2.0,0.0,0.0,1.77,
12.408,72.18273441923577,75.62228549463158,1.0,-10.0,-83.0,1.0,0.0,0.0,0.0,0.0,2.0,2.0,0.0,0.0,1.67,
12.423,71.57727344192358,74.18922854946317,-4.0,79.0,-101.0,1.0,0.0,0.0,0.0,0.0,2.0,2.0,0.0,0.0,1.37,
12.436,69.98672734419236,73.73992285494631,-10.0,104.0,-17.0,1.0,0.0,0.0,0.0,0.0,2.0,2.0,0.0,0.0,1.18,
12.449,71.49267273441923,69.20399228549464,-21.0,62.0,-24.0,1.0,0.0,0.0,0.0,0.0,2.0,2.0,0.0,0.0,0.98,
12.464,70.28426727344193,65.29439922854947,-33.0,-44.0,-13.0,1.0,0.0,0.0,0.0,0.0,2.0,2.0,0.0,0.0,0.88,
12.477,66.6714267273442,63.121439922854954,-49.0,-88.0,-6.0,1.0,0.0,0.0,0.0,0.0,2.0,2.0,0.0,0.0,1.08,
12.49,63.07914267273442,60.402143992285495,-67.0,-66.0,0.0,1.0,0.0,0.0,0.0,0.0,2.0,2.0,0.0,0.0,1.18,
12.504,59.92991426727344,57.35821439922855,-87.0,-20.0,0.0,1.0,0.0,0.0,0.0,0.0,2.0,2.0,0.0,0.0,1.28,
12.517,57.93199142672734,54.91182143992285,-114.0,41.0,-1.0,1.0,0.0,0.0,0.0,0.0,2.0,2.0,0.0,0.0,1.08,
12.531,57.543199142672734,51.130182143992286,-137.0,66.0,0.0,1.0,0.0,0.0,0.0,0.0,2.0,2.0,0.0,0.0,1.08,
12.545,61.25731991426727,46.09901821439922,-151.0,23.0,7.0,1.0,0.0,0.0,0.0,0.0,2.0,2.0,0.0,0.0,1.08,
12.558,64.72473199142672,42.17590182143992,-161.0,-31.0,8.0,1.0,0.0,0.0,0.0,0.0,2.0,2.0,0.0,0.0,1.08,
12.571,66.58347319914267,40.12759018214399,-173.0,-55.0,2.0,1.0,0.0,0.0,0.0,0.0,2.0,2.0,0.0,0.0,1.08,
12.585,68.47934731991427,39.18475901821439,-185.0,-50.0,0.0,1.0,0.0,0.0,0.0,0.0,2.0,2.0,0.0,0.0,0.98,
12.599,70.27993473199143,38.49647590182144,-186.0,-34.0,30.0,1.0,0.0,0.0,0.0,0.0,2.0,2.0,0.0,0.0,0.98,
12.612,72.96199347319916,38.931647590182145,-210.0,-21.0,1.0,1.0,0.0,0.0,0.0,0.0,2.0,2.0,0.0,0.0,0.98,
12.625,75.03919934731991,40.06416475901821,-221.0,-31.0,-16.0,1.0,0.0,0.0,0.0,0.0,2.0,2.0,0.0,0.0,0.98,
12.64,76.83091993473198,41.87841647590182,-230.0,-13.0,-6.0,1.0,0.0,0.0,0.0,0.0,2.0,2.0,0.0,0.0,0.98,
12.653,78.0990919934732,43.88684164759018,-233.0,0.0,-14.0,1.0,0.0,0.0,0.0,0.0,2.0,2.0,0.0,0.0,0.88,
12.666,78.78390919934732,46.490684164759024,-234.0,14.0,-11.0,1.0,0.0,0.0,0.0,0.0,2.0,2.0,0.29,0.0,0.78,
12.68,80.13039091993474,49.4780684164759,-229.0,19.0,-7.0,1.0,0.0,0.0,0.0,0.0,2.0,2.0,0.59,0.0,0.69,
12.694,80.62503909199349,51.9908068416476,-220.0,10.0,5.0,1.0,0.0,0.0,0.0,0.0,2.0,2.0,0.78,0.0,0.2,
12.707,81.20550390919935,54.681080684164755,-207.0,13.0,7.0,1.0,0.0,0.0,0.0,0.0,2.0,2.0,1.18,0.0,0.1,
12.721,82.08255039091993,57.41610806841648,-192.0,8.0,17.0,1.0,0.0,0.0,0.0,0.0,2.0,2.0,1.47,0.0,0.1,
12.734,82.79125503909201,60.200610806841645,-179.0,-3.0,24.0,1.0,0.0,0.0,0.0,0.0,2.0,2.0,1.96,0.0,0.1,
12.747,83.3571255039092,62.13506108068417,-163.0,-20.0,34.0,1.0,0.0,0.0,0.0,0.0,2.0,2.0,2.16,0.0,0.2,
12.761,83.61171255039092,64.21850610806842,-141.0,-24.0,32.0,1.0,0.0,0.0,0.0,0.0,2.0,2.0,2.35,0.0,0.0,
12.774,83.6821712550391,65.84885061080683,-119.0,-15.0,44.0,1.0,0.0,0.0,0.0,0.0,2.0,2.0,2.84,0.0,0.0,
12.787,84.1482171255039,67.53288506108068,-97.0,-6.0,41.0,1.0,0.0,0.0,0.0,0.0,2.0,2.0,3.14,0.0,0.0,
12.802,84.5908217125504,69.85228850610807,-74.0,7.0,27.0,1.0,0.0,0.0,0.0,0.0,2.0,2.0,3.73,0.0,0.0,
12.814,85.33708217125503,72.31622885061081,-61.0,24.0,-1.0,1.0,0.0,0.0,0.0,0.0,2.0,2.0,3.92,0.0,0.0,
12.828,87.35570821712551,75.77562288506108,-52.0,30.0,-12.0,1.0,0.0,0.0,0.0,0.0,2.0,2.0,4.12,0.0,0.0,
12.841,89.15957082171255,79.83856228850611,-50.0,-16.0,-2.0,1.0,0.0,0.0,0.0,0.0,2.0,2.0,4.12,0.0,0.0,
12.855,90.53695708217126,84.31285622885062,-60.0,-34.0,-14.0,1.0,0.0,0.0,0.0,0.0,2.0,2.0,4.02,0.0,0.1,
12.868,91.36769570821711,88.84628562288505,-69.0,-14.0,-33.0,1.0,0.0,0.0,0.0,0.0,2.0,2.0,4.22,0.0,0.2,
12.881,92.82776957082172,93.2776285622885,-66.0,28.0,-60.0,1.0,0.0,0.0,0.0,0.0,2.0,2.0,4.41,0.0,0.29,
12.895,93.55877695708216,97.10476285622885,-27.0,95.0,-120.0,1.0,0.0,0.0,0.0,0.0,2.0,2.0,4.41,0.0,0.59,
12.909,84.82087769570822,106.98247628562288,2.0,152.0,-205.0,1.0,0.0,0.0,0.0,0.0,2.0,2.0,4.12,0.0,0.59,
12.922,83.97408776957083,99.4292476285623,95.0,-7.0,61.0,1.0,0.0,0.0,0.0,0.0,2.0,2.0,3.43,0.0,0.59,
12.936,78.63340877695708,91.74392476285622,207.0,76.0,170.0,1.0,0.0,0.0,0.0,0.0,2.0,2.0,2.06,9.52,0.98,
12.949,79.8723408776957,86.90739247628562,250.0,-29.0,105.0,1.0,0.0,0.0,0.0,0.0,2.0,2.0,1.28,50.13,2.06,
12.963,80.52723408776956,89.36673924762856,234.0,-88.0,119.0,1.0,0.0,0.0,0.0,0.0,2.0,2.0,0.49,98.3,1.77,
12.977,76.56972340877695,89.82867392476285,131.0,-17.0,8.0,1.0,0.0,0.0,0.0,0.0,2.0,2.0,0.0,131.94,1.77,
12.991,79.9539723408777,90.58586739247629,113.0,26.0,-32.0,1.0,0.0,0.0,0.0,0.0,2.0,2.0,0.0,145.38,2.16,
13.004,77.29539723408777,88.92458673924763,107.0,25.0,-16.0,1.0,0.0,0.0,0.0,0.0,2.0,2.0,0.0,165.1,2.84,
13.018,102.67953972340878,69.85845867392476,96.0,250.0,-9.0,1.0,0.0,0.0,0.0,0.0,2.0,2.0,0.0,185.11,2.94,
13.032,101.93295397234087,73.00984586739247,104.0,92.0,-57.0,1.0,0.0,0.0,0.0,0.0,2.0,2.0,0.0,223.18,3.24,
13.045,106.00729539723407,75.24198458673925,79.0,76.0,-100.0,2.0,1.0,1.0,0.0,0.0,2.0,2.0,0.0,243.09,3.43,
13.06,106.6847295397234,77.67919845867392,45.0,42.0,-56.0,3.0,2.0,1.0,0.0,0.0,2.0,0.0,0.0,266.15,6.67,
13.074,103.49447295397235,78.8229198458674,47.0,33.0,16.0,4.0,3.0,2.0,0.0,0.0,2.0,0.0,0.0,289.4,10.5,
13.088,100.34944729539723,79.77429198458674,21.0,23.0,25.0,3.0,4.0,2.0,0.0,0.0,2.0,0.0,0.0,319.41,15.6,
13.102,99.07194472953972,78.93342919845867,21.0,41.0,-12.0,3.0,4.0,2.0,0.0,0.0,2.0,0.0,0.59,324.51,20.11,
13.116,98.57519447295397,78.03934291984586,18.0,33.0,-13.0,4.0,4.0,2.0,0.0,0.0,0.0,0.0,1.86,323.24,25.11,
13.13,97.68851944729539,77.93193429198459,10.0,30.0,-20.0,4.0,5.0,2.0,0.0,0.0,0.0,0.0,4.02,307.64,27.17,
13.145,97.37485194472954,77.30019342919846,9.0,21.0,-12.0,4.0,5.0,2.0,0.0,0.0,0.0,0.0,5.0,295.77,29.23,
13.158,97.26248519447296,76.34601934291985,11.0,18.0,-7.0,4.0,5.0,2.0,0.0,0.0,0.0,0.0,5.98,282.43,31.0,
13.172,97.7912485194473,75.43160193429198,18.0,5.0,-1.0,4.0,6.0,2.0,0.0,0.0,1.0,0.0,6.97,268.4,34.14,
13.187,98.72612485194473,75.24116019342921,8.0,15.0,-10.0,4.0,6.0,2.0,0.0,0.0,1.0,0.0,9.61,241.91,35.61,
13.2,96.31761248519446,74.04311601934293,22.0,-15.0,11.0,4.0,6.0,2.0,0.0,0.0,1.0,0.0,11.38,229.75,37.28,
13.214,95.64476124851943,74.7873116019343,24.0,25.0,-13.0,4.0,6.0,2.0,0.0,0.0,2.0,0.0,13.15,218.17,41.5,
13.229,96.44147612485195,74.53773116019345,13.0,4.0,6.0,4.0,7.0,2.0,0.0,0.0,2.0,0.0,14.81,207.29,43.65,
13.243,95.7561476124852,74.01777311601934,11.0,8.0,-9.0,4.0,7.0,2.0,0.0,0.0,2.0,0.0,17.46,188.74,45.62,
13.256,95.12961476124852,73.69577731160193,10.0,3.0,0.0,4.0,7.0,3.0,0.0,0.0,2.0,0.0,18.54,181.19,47.38,
13.271,94.80596147612485,74.9865777311602,11.0,7.0,-1.0,4.0,8.0,3.0,0.0,0.0,3.0,0.0,19.42,174.81,50.42,
13.285,95.09759614761249,75.43065777311602,11.0,4.0,-11.0,4.0,8.0,3.0,0.0,0.0,3.0,0.0,20.4,169.42,51.8,
13.298,95.06375961476125,75.6460657773116,9.0,-4.0,1.0,4.0,8.0,2.0,0.0,0.0,3.0,0.0,21.97,161.28,52.97,
13.313,94.98837596147612,76.27060657773116,10.0,-2.0,6.0,5.0,9.0,3.0,0.0,0.0,3.0,0.0,22.76,158.14,54.15,
13.327,94.71083759614761,75.69406065777311,10.0,-6.0,5.0,5.0,9.0,3.0,0.0,0.0,3.0,0.0,23.45,155.19,56.02,
13.34,94.62008375961476,75.66340606577731,5.0,-1.0,-1.0,5.0,9.0,3.0,0.0,0.0,3.0,0.0,23.84,152.45,56.7,
13.355,94.88100837596147,75.43534060657772,6.0,-3.0,-3.0,5.0,9.0,3.0,0.0,0.0,4.0,0.0,24.82,148.03,57.29,
13.369,94.51110083759615,75.53853406065778,8.0,-3.0,2.0,5.0,9.0,3.0,0.0,0.0,4.0,0.0,25.41,146.46,57.78,
13.382,94.30311008375962,75.52185340606579,3.0,0.0,-3.0,5.0,9.0,3.0,0.0,0.0,4.0,0.0,25.8,145.68,58.66,
13.396,94.13831100837598,75.61018534060659,1.0,8.0,0.0,5.0,9.0,3.0,0.0,0.0,4.0,0.0,26.19,146.56,59.25,
13.41,94.06783110083761,75.52001853406065,0.0,5.0,-6.0,5.0,9.0,3.0,0.0,0.0,4.0,0.0,26.39,147.84,59.74,
13.424,93.82678311008377,75.64600185340606,0.0,6.0,-4.0,5.0,9.0,3.0,0.0,0.0,4.0,0.0,26.29,149.31,60.14,
13.438,94.23467831100838,75.42460018534062,0.0,9.0,-7.0,5.0,10.0,3.0,0.0,0.0,4.0,0.0,26.29,150.98,60.63,
13.453,93.91546783110084,75.62746001853407,2.0,2.0,-6.0,5.0,10.0,3.0,0.0,0.0,4.0,0.0,26.19,155.39,60.63,
13.466,94.1535467831101,75.26074600185342,2.0,1.0,-8.0,5.0,10.0,3.0,0.0,0.0,4.0,0.0,26.0,158.04,60.63,
13.48,94.078354678311,75.61107460018535,3.0,2.0,-3.0,5.0,10.0,3.0,0.0,0.0,4.0,0.0,26.0,160.59,60.92,
13.495,93.8098354678311,75.79010746001853,2.0,2.0,-3.0,5.0,10.0,3.0,0.0,0.0,4.0,0.0,26.0,162.65,61.02,
13.509,93.71098354678311,75.91601074600186,0.0,3.0,-3.0,5.0,10.0,3.0,0.0,0.0,4.0,0.0,26.09,165.4,61.12,
13.523,93.55709835467832,75.5866010746002,-3.0,5.0,-16.0,5.0,10.0,3.0,0.0,0.0,4.0,0.0,26.39,165.89,61.12,
13.538,94.05470983546783,76.00366010746001,-3.0,1.0,-2.0,5.0,10.0,3.0,0.0,0.0,4.0,0.0,26.29,165.99,60.82,
13.552,94.37447098354677,75.982366010746,-7.0,7.0,-10.0,5.0,10.0,3.0,0.0,0.0,4.0,0.0,26.09,165.99,60.33,
13.566,94.56844709835468,76.0612366010746,-9.0,5.0,-10.0,5.0,10.0,3.0,0.0,0.0,4.0,0.0,25.6,167.26,59.45,
13.58,94.50684470983546,76.02412366010745,-7.0,5.0,-8.0,5.0,10.0,3.0,0.0,0.0,4.0,0.0,23.84,169.71,56.21,
13.594,94.06868447098354,75.89441236601074,-2.0,0.0,-3.0,5.0,10.0,3.0,0.0,0.0,3.0,0.0,22.66,173.15,54.15,
13.608,94.05186844709834,75.71944123660109,-1.0,1.0,0.0,5.0,10.0,3.0,0.0,0.0,3.0,0.0,21.58,174.52,51.99,
13.623,94.04118684470984,75.62994412366011,-4.0,1.0,0.0,5.0,10.0,2.0,0.0,0.0,3.0,0.0,20.7,168.73,50.13,
13.637,93.80611868447099,76.754994412366,27.0,-23.0,31.0,5.0,9.0,2.0,0.0,0.0,3.0,0.0,19.52,158.53,46.3,
13.651,93.77361186844709,76.4804994412366,3.0,-30.0,19.0,5.0,9.0,2.0,0.0,0.0,3.0,0.0,18.64,144.01,43.65,
13.665,92.26736118684471,77.09204994412366,1.0,-49.0,11.0,5.0,9.0,3.0,0.0,0.0,3.0,0.0,17.36,107.52,40.52,
13.679,91.16273611868448,77.61220499441237,0.0,-40.0,7.0,5.0,8.0,3.0,0.0,0.0,2.0,0.0,15.89,90.94,37.18,
13.693,90.80027361186846,77.78122049944123,-6.0,-25.0,5.0,4.0,8.0,2.0,0.0,0.0,2.0,0.0,12.95,77.89,31.78,
13.707,90.73702736118685,77.62712204994412,-5.0,-23.0,5.0,4.0,8.0,2.0,0.0,0.0,2.0,0.0,11.67,61.61,29.72,
13.721,90.66770273611868,77.38671220499441,-5.0,-17.0,4.0,4.0,7.0,2.0,0.0,0.0,2.0,0.0,10.4,57.29,27.96,
13.735,90.59777027361187,77.04767122049945,-4.0,-8.0,-1.0,5.0,7.0,2.0,0.0,0.0,2.0,0.0,9.32,53.86,25.02,
13.749,90.68077702736119,76.94176712204995,-3.0,-10.0,0.0,5.0,7.0,2.0,0.0,0.0,2.0,0.0,7.85,50.62,23.84,
13.763,90.69807770273613,76.88617671220499,-2.0,-8.0,-1.0,5.0,7.0,2.0,0.0,0.0,1.0,0.0,7.36,43.26,22.66,
13.777,90.72680777027362,76.8896176712205,-2.0,-8.0,-1.0,5.0,7.0,2.0,0.0,0.0,1.0,0.0,6.97,39.63,21.58,
13.791,90.78368077702737,76.51196176712206,-2.0,-8.0,-4.0,5.0,7.0,2.0,0.0,0.0,1.0,0.0,6.57,36.49,19.82,
13.805,90.83436807770273,76.37519617671221,-2.0,-5.0,-1.0,5.0,7.0,2.0,0.0,0.0,1.0,0.0,5.98,33.94,19.13,
13.819,90.68643680777028,76.36151961767122,-2.0,-4.0,-2.0,5.0,7.0,2.0,0.0,0.0,1.0,0.0,5.79,31.0,18.54,
13.833,90.65364368077704,76.31515196176713,-3.0,-4.0,-3.0,5.0,7.0,2.0,0.0,0.0,1.0,0.0,5.69,30.21,18.15,
13.847,90.62336436807772,76.1215151961767,-3.0,-4.0,-1.0,5.0,6.0,2.0,0.0,0.0,1.0,0.0,5.59,29.33,17.76,
13.86,90.56633643680777,76.21915151961767,-4.0,-5.0,0.0,5.0,6.0,2.0,0.0,0.0,1.0,0.0,5.4,28.35,17.56,
13.875,90.38063364368077,76.10291515196178,-4.0,-4.0,-3.0,5.0,6.0,2.0,0.0,0.0,1.0,0.0,5.3,25.41,17.36,
13.889,90.29906336436808,75.85729151519618,-2.0,-3.0,-5.0,5.0,6.0,2.0,0.0,0.0,1.0,0.0,5.2,23.84,17.17,
13.902,90.44390633643681,75.95872915151962,-2.0,-1.0,-1.0,4.0,6.0,2.0,0.0,0.0,1.0,0.0,5.1,22.37,16.97,
13.917,90.40439063364369,75.86087291515196,-2.0,0.0,-3.0,5.0,6.0,2.0,0.0,0.0,1.0,0.0,5.3,21.39,17.07,
13.93,90.48143906336438,75.8330872915152,-2.0,0.0,-2.0,5.0,6.0,2.0,0.0,0.0,1.0,0.0,5.4,21.19,17.27,
13.944,90.53414390633644,75.78530872915152,-1.0,0.0,0.0,5.0,6.0,2.0,0.0,0.0,1.0,0.0,5.49,21.78,17.56,
13.958,90.52141439063365,75.79853087291515,0.0,0.0,0.0,5.0,6.0,2.0,0.0,0.0,1.0,0.0,5.59,22.76,18.25,
13.972,90.44814143906336,75.77285308729151,0.0,0.0,0.0,5.0,7.0,3.0,0.0,0.0,1.0,0.0,5.79,23.84,18.54,
13.985,90.45881414390634,75.80628530872914,0.0,0.0,0.0,5.0,7.0,3.0,0.0,0.0,1.0,0.0,6.28,25.21,18.93,
13.999,90.47788141439064,75.89062853087292,0.0,0.0,0.0,5.0,7.0,3.0,0.0,0.0,2.0,0.0,6.57,25.51,19.33,
14.013,90.42578814143906,75.94406285308729,0.0,0.0,0.0,5.0,7.0,3.0,0.0,0.0,2.0,0.0,6.87,25.7,20.11,
14.026,90.44757881414391,76.00340628530873,0.0,0.0,0.0,5.0,7.0,3.0,0.0,0.0,2.0,0.0,7.06,25.51,20.31,
14.04,90.3777578814144,75.99134062853086,0.0,0.0,0.0,5.0,7.0,3.0,0.0,0.0,2.0,0.0,7.26,25.11,20.6,
14.054,90.37977578814144,76.04413406285308,0.0,0.0,0.0,5.0,7.0,3.0,0.0,0.0,2.0,0.0,7.75,25.11,20.9,
14.067,90.43397757881414,76.0944134062853,0.0,0.0,-1.0,5.0,7.0,3.0,0.0,0.0,2.0,0.0,7.95,25.11,21.58,
14.081,90.47539775788141,76.09944134062852,-1.0,0.0,0.0,5.0,7.0,3.0,0.0,0.0,2.0,0.0,8.14,24.92,21.88,
14.095,90.50653977578814,76.16294413406285,-1.0,0.0,0.0,5.0,7.0,3.0,0.0,0.0,2.0,0.0,8.34,24.92,22.17,
14.108,90.52765397757881,76.19629441340628,-1.0,0.0,0.0,5.0,7.0,3.0,0.0,0.0,2.0,0.0,8.63,24.92,22.56,
14.123,90.53876539775789,76.22662944134062,-1.0,0.0,0.0,5.0,7.0,3.0,0.0,0.0,2.0,0.0,8.83,25.02,22.86,
14.136,90.54887653977579,76.26566294413406,-1.0,0.0,0.0,5.0,7.0,3.0,0.0,0.0,2.0,0.0,8.83,25.31,23.45,
14.15,90.54088765397758,76.30556629441341,-1.0,0.0,-1.0,5.0,7.0,3.0,0.0,0.0,2.0,0.0,9.03,25.7,23.64,
14.163,90.54908876539776,76.28255662944134,-1.0,0.0,0.0,5.0,7.0,3.0,0.0,0.0,2.0,0.0,9.12,26.29,23.94,
14.178,90.54990887653977,76.28925566294413,-1.0,0.0,0.0,5.0,7.0,3.0,0.0,0.0,2.0,0.0,9.52,26.68,24.13,
14.191,90.50499088765397,76.36192556629442,-1.0,0.0,0.0,5.0,7.0,3.0,0.0,0.0,2.0,0.0,9.61,27.27,24.82,
14.204,90.4554990887654,76.36019255662944,-1.0,0.0,0.0,5.0,7.0,3.0,0.0,0.0,2.0,0.0,9.71,27.96,25.11,
14.219,90.49554990887654,76.32401925566295,-1.0,0.0,0.0,5.0,7.0,3.0,0.0,0.0,2.0,0.0,9.91,28.55,25.41,
14.232,90.47255499088766,76.3024019255663,-1.0,0.0,0.0,5.0,7.0,3.0,0.0,0.0,2.0,0.0,10.1,28.55,25.51,
14.246,90.50625549908877,76.30924019255663,-1.0,0.0,0.0,5.0,7.0,3.0,0.0,0.0,2.0,0.0,10.2,28.55,25.8,
14.261,90.55462554990888,76.37292401925566,-1.0,0.0,-1.0,5.0,7.0,3.0,0.0,0.0,2.0,0.0,10.4,28.65,26.19,
14.274,90.62246255499088,76.37929240192557,-1.0,1.0,0.0,5.0,7.0,3.0,0.0,0.0,2.0,0.0,10.59,29.33,26.49,
14.288,90.65624625549908,76.35292924019257,-1.0,0.0,0.0,5.0,7.0,3.0,0.0,0.0,2.0,0.0,10.99,29.92,26.78,
14.303,90.72262462554991,76.33229292401926,-1.0,0.0,0.0,5.0,7.0,3.0,0.0,0.0,2.0,0.0,11.18,30.51,27.47,
14.316,90.702262462555,76.33922929240192,0.0,0.0,0.0,5.0,7.0,3.0,0.0,0.0,2.0,0.0,11.28,31.2,27.76,
14.33,90.7182262462555,76.33992292924019,0.0,0.0,0.0,5.0,8.0,3.0,0.0,0.0,2.0,0.0,11.48,32.57,27.96,
14.344,90.70182262462555,76.39399229292403,0.0,0.0,0.0,6.0,8.0,3.0,0.0,0.0,2.0,0.0,11.67,32.96,28.65,
14.358,90.73618226246255,76.4983992292924,0.0,0.0,0.0,6.0,8.0,3.0,0.0,0.0,2.0,0.0,12.26,33.26,28.94,
14.372,90.73061822624626,76.54483992292924,0.0,0.0,0.0,6.0,8.0,3.0,0.0,0.0,2.0,0.0,12.56,33.26,29.33,
14.386,90.75706182262464,76.57648399229292,-1.0,0.0,0.0,6.0,8.0,3.0,0.0,0.0,2.0,0.0,12.75,32.86,29.72,
14.4,90.73270618226248,76.5616483992293,0.0,0.0,0.0,6.0,8.0,3.0,0.0,0.0,3.0,0.0,13.05,32.77,30.41,
14.413,90.73927061822624,76.55116483992292,0.0,0.0,0.0,6.0,8.0,3.0,0.0,0.0,3.0,0.0,13.64,32.77,30.71,
14.428,90.75792706182264,76.55011648399228,0.0,0.0,0.0,6.0,8.0,3.0,0.0,0.0,3.0,0.0,13.83,32.77,31.1,
14.441,90.79579270618225,76.64901164839922,0.0,0.0,0.0,6.0,8.0,3.0,0.0,0.0,3.0,0.0,14.03,32.96,31.49,
14.455,90.78157927061822,76.68590116483992,0.0,0.0,0.0,6.0,8.0,3.0,0.0,0.0,3.0,0.0,14.32,32.96,32.27,
14.469,90.77115792706182,76.725590116484,0.0,0.0,0.0,6.0,8.0,3.0,0.0,0.0,3.0,0.0,14.91,32.96,32.57,
14.483,90.7881157927062,76.6935590116484,-1.0,0.0,0.0,6.0,8.0,3.0,0.0,0.0,3.0,0.0,15.11,32.96,32.96,
14.497,90.79881157927062,76.68135590116485,0.0,0.0,0.0,6.0,8.0,3.0,0.0,0.0,3.0,0.0,15.3,32.86,33.35,
14.511,90.79988115792706,76.72513559011648,-1.0,0.0,0.0,6.0,8.0,3.0,0.0,0.0,3.0,0.0,15.6,32.77,34.14,
14.525,90.7999881157927,76.73851355901165,-1.0,0.0,0.0,6.0,8.0,3.0,0.0,0.0,3.0,0.0,15.79,32.57,34.43,
14.538,90.83599881157927,76.73085135590117,-1.0,0.0,0.0,6.0,8.0,3.0,0.0,0.0,3.0,0.0,16.38,32.18,34.83,
14.553,90.81259988115792,76.78408513559012,-1.0,0.0,0.0,6.0,8.0,3.0,0.0,0.0,3.0,0.0,16.48,31.98,35.22,
14.567,90.80125998811579,76.82540851355901,-1.0,0.0,0.0,6.0,8.0,3.0,0.0,0.0,3.0,0.0,16.68,31.88,35.81,
14.58,90.78212599881158,76.8295408513559,-1.0,0.0,0.0,6.0,8.0,3.0,0.0,0.0,3.0,0.0,16.87,31.69,36.1,
14.595,90.78921259988117,76.8839540851356,-1.0,0.0,0.0,6.0,8.0,3.0,0.0,0.0,3.0,0.0,17.17,31.39,36.3,
14.609,90.7449212599881,76.92539540851357,-1.0,0.0,0.0,6.0,8.0,3.0,0.0,0.0,3.0,0.0,17.36,31.39,36.69,
14.622,90.80349212599882,76.90253954085136,-1.0,0.0,0.0,6.0,8.0,3.0,0.0,0.0,3.0,0.0,17.56,31.29,37.08,
14.637,90.82734921259988,76.93625395408513,-1.0,-1.0,0.0,6.0,8.0,3.0,0.0,0.0,3.0,0.0,17.66,31.2,37.38,
14.651,90.80273492125998,76.95762539540851,-1.0,-1.0,0.0,6.0,8.0,3.0,0.0,0.0,3.0,0.0,17.95,30.9,37.67,
14.664,90.755273492126,77.00476253954086,-1.0,0.0,0.0,6.0,8.0,3.0,0.0,0.0,3.0,0.0,18.15,30.61,37.87,
14.679,90.74152734921259,77.00947625395409,-1.0,0.0,0.0,6.0,8.0,3.0,0.0,0.0,3.0,0.0,18.25,30.21,38.06,
14.693,90.77615273492125,77.0459476253954,0.0,0.0,0.0,6.0,9.0,3.0,0.0,0.0,3.0,0.0,18.34,29.92,38.16,
14.706,90.77061527349213,77.04959476253954,-1.0,0.0,0.0,6.0,8.0,3.0,0.0,0.0,3.0,0.0,18.54,29.14,38.36,
14.721,90.77906152734921,77.08595947625395,-1.0,0.0,0.0,6.0,9.0,3.0,0.0,0.0,3.0,0.0,18.74,28.94,38.46,
14.734,90.73490615273494,77.0805959476254,-1.0,0.0,0.0,6.0,9.0,3.0,0.0,0.0,3.0,0.0,18.84,28.65,38.95,
14.748,90.73049061527351,77.10705959476255,-1.0,-1.0,0.0,6.0,9.0,3.0,0.0,0.0,3.0,0.0,18.93,28.45,39.04,
14.763,90.71204906152735,77.13670595947626,-1.0,-1.0,0.0,6.0,9.0,3.0,0.0,0.0,3.0,0.0,18.93,28.15,39.14,
14.776,90.69220490615272,77.09467059594762,-1.0,-1.0,0.0,6.0,9.0,3.0,0.0,0.0,3.0,0.0,18.93,28.25,39.14,
14.79,90.65422049061527,77.09046705959476,-1.0,0.0,0.0,6.0,9.0,3.0,0.0,0.0,3.0,0.0,19.03,28.45,39.24,
14.804,90.62342204906153,77.04504670595949,-1.0,0.0,0.0,6.0,9.0,3.0,0.0,0.0,3.0,0.0,18.93,28.65,39.24,
14.818,90.62934220490615,77.04050467059596,-1.0,0.0,0.0,6.0,9.0,3.0,0.0,0.0,3.0,0.0,19.03,29.04,39.34,
14.832,90.60293422049061,77.04005046705961,-1.0,0.0,0.0,6.0,9.0,4.0,0.0,0.0,3.0,0.0,19.03,29.04,39.44,
14.846,90.63629342204906,77.11200504670596,-1.0,0.0,0.0,6.0,9.0,4.0,0.0,0.0,3.0,0.0,19.13,29.04,39.53,
14.86,90.5766293422049,77.1642005046706,-1.0,0.0,0.0,6.0,9.0,4.0,0.0,0.0,3.0,0.0,19.23,28.94,39.53,
14.874,90.49866293422049,77.16042005046707,-2.0,0.0,0.0,6.0,9.0,4.0,0.0,0.0,4.0,0.0,19.33,28.94,39.44,
14.888,90.46386629342204,77.1510420050467,-2.0,0.0,-1.0,6.0,9.0,4.0,0.0,0.0,3.0,0.0,19.33,28.74,39.53,
14.902,90.50538662934221,77.14110420050467,-2.0,0.0,-1.0,6.0,9.0,4.0,0.0,0.0,4.0,0.0,19.42,28.45,39.44,
14.916,90.51853866293422,77.16711042005046,-2.0,0.0,-1.0,6.0,9.0,4.0,0.0,0.0,4.0,0.0,19.42,27.76,39.44,
14.93,90.61885386629342,77.26871104200505,-2.0,1.0,-1.0,6.0,9.0,4.0,0.0,0.0,4.0,0.0,19.52,27.47,39.44,
14.945,90.61988538662935,77.2788711042005,-2.0,0.0,-1.0,6.0,9.0,4.0,0.0,0.0,4.0,0.0,19.42,27.27,39.44,
14.958,90.67398853866294,77.28888711042006,-2.0,0.0,-1.0,6.0,9.0,4.0,0.0,0.0,4.0,0.0,19.42,27.17,39.44,
14.972,90.6973988538663,77.26288871104201,-2.0,0.0,-1.0,6.0,9.0,4.0,0.0,0.0,4.0,0.0,19.42,26.98,39.34,
14.987,90.74473988538662,77.2962888711042,-2.0,0.0,-1.0,6.0,9.0,4.0,0.0,0.0,4.0,0.0,19.42,26.88,39.24,
15.0,90.76747398853865,77.28162888711043,-2.0,0.0,0.0,6.0,9.0,4.0,0.0,0.0,4.0,0.0,19.33,26.78,39.14,
15.014,90.82374739885387,77.32516288871103,-1.0,0.0,0.0,6.0,9.0,4.0,0.0,0.0,4.0,0.0,19.33,26.49,39.04,
15.029,90.80237473988538,77.32051628887109,-2.0,-1.0,0.0,6.0,9.0,4.0,0.0,0.0,4.0,0.0,19.42,26.49,38.95,
15.042,90.79123747398855,77.3290516288871,-2.0,0.0,0.0,6.0,9.0,4.0,0.0,0.0,4.0,0.0,19.33,26.59,38.85,
15.056,90.79012374739887,77.33890516288872,-2.0,0.0,0.0,6.0,9.0,4.0,0.0,0.0,4.0,0.0,19.33,26.78,38.85,
15.071,90.81701237473989,77.33989051628888,-2.0,-1.0,0.0,6.0,9.0,4.0,0.0,0.0,4.0,0.0,19.23,26.88,38.75,
15.084,90.80170123747399,77.30398905162888,-1.0,-1.0,0.0,6.0,9.0,4.0,0.0,0.0,4.0,0.0,19.23,27.27,38.75,
15.098,90.74617012374739,77.32739890516288,-2.0,-1.0,0.0,6.0,9.0,4.0,0.0,0.0,4.0,0.0,19.23,27.37,38.65,
15.113,90.74061701237474,77.32973989051628,-1.0,-1.0,0.0,6.0,9.0,4.0,0.0,0.0,4.0,0.0,19.23,27.57,38.75,
15.127,90.65906170123748,77.31197398905164,-1.0,-1.0,0.0,6.0,9.0,4.0,0.0,0.0,4.0,0.0,19.23,27.86,38.65,
15.14,90.65990617012375,77.28319739890517,-1.0,-1.0,0.0,6.0,9.0,4.0,0.0,0.0,4.0,0.0,19.23,27.86,38.55,
15.155,90.64199061701238,77.28031973989053,-1.0,-1.0,0.0,6.0,9.0,4.0,0.0,0.0,4.0,0.0,19.23,27.76,38.36,
15.169,90.63119906170122,77.28903197398905,-1.0,-1.0,0.0,6.0,9.0,4.0,0.0,0.0,4.0,0.0,19.33,27.66,38.36,
15.183,90.60311990617011,77.25390319739891,-1.0,-1.0,0.0,6.0,9.0,4.0,0.0,0.0,4.0,0.0,19.33,26.98,38.46,
15.197,90.60931199061702,77.26839031973988,-1.0,-1.0,0.0,6.0,9.0,4.0,0.0,0.0,4.0,0.0,19.42,26.78,38.55,
15.211,90.5919311990617,77.24283903197397,-1.0,-1.0,0.0,6.0,9.0,4.0,0.0,0.0,4.0,0.0,19.42,26.49,38.55,
15.225,90.58119311990617,77.2402839031974,-2.0,-1.0,0.0,6.0,9.0,4.0,0.0,0.0,4.0,0.0,19.33,26.09,38.65,
15.239,90.61611931199062,77.27602839031974,-2.0,-1.0,0.0,6.0,9.0,4.0,0.0,0.0,4.0,0.0,19.23,25.9,38.75,
15.253,90.61961193119907,77.31560283903197,-2.0,-2.0,0.0,6.0,9.0,4.0,0.0,0.0,4.0,0.0,19.23,26.09,38.85,
15.267,90.62896119311989,77.3375602839032,-2.0,-2.0,0.0,6.0,9.0,4.0,0.0,0.0,4.0,0.0,19.23,26.49,38.95,
15.282,90.55789611931199,77.33975602839033,-2.0,-2.0,0.0,6.0,9.0,4.0,0.0,0.0,4.0,0.0,19.13,26.88,38.95,
15.295,90.48778961193119,77.37597560283902,-2.0,-1.0,0.0,6.0,9.0,4.0,0.0,0.0,4.0,0.0,19.13,27.76,38.95,
15.309,90.46277896119312,77.3885975602839,-2.0,-1.0,0.0,6.0,9.0,4.0,0.0,0.0,4.0,0.0,19.03,28.25,38.95,
15.324,90.40627789611932,77.38085975602839,-2.0,-1.0,0.0,6.0,9.0,4.0,0.0,0.0,4.0,0.0,18.93,28.55,38.95,
15.338,90.31062778961193,77.36208597560284,-2.0,0.0,0.0,6.0,9.0,4.0,0.0,0.0,4.0,0.0,18.84,28.84,38.95,
15.351,90.2380627789612,77.35120859756027,-2.0,0.0,0.0,6.0,9.0,4.0,0.0,0.0,4.0,0.0,18.84,28.94,38.95,
15.366,90.24880627789612,77.34112085975603,-2.0,0.0,0.0,6.0,9.0,4.0,0.0,0.0,4.0,0.0,18.84,29.04,39.04,
15.379,90.19588062778962,77.34911208597559,-2.0,0.0,0.0,6.0,9.0,4.0,0.0,0.0,4.0,0.0,18.84,29.14,39.14,
15.393,90.20858806277896,77.38591120859755,-2.0,0.0,0.0,6.0,9.0,4.0,0.0,0.0,4.0,0.0,19.03,29.04,39.14,
15.408,90.22785880627791,77.38959112085975,-2.0,0.0,0.0,6.0,9.0,4.0,0.0,0.0,4.0,0.0,19.03,29.04,39.24,
15.421,90.2747858806278,77.34495911208599,-2.0,0.0,0.0,6.0,9.0,4.0,0.0,0.0,4.0,0.0,19.03,28.94,39.34,
15.435,90.29747858806277,77.30449591120859,-2.0,0.0,0.0,6.0,9.0,4.0,0.0,0.0,4.0,0.0,18.93,28.94,39.34,
15.45,90.29974785880627,77.30044959112085,-2.0,0.0,0.0,6.0,9.0,4.0,0.0,0.0,4.0,0.0,19.03,28.94,39.44,
15.463,90.32697478588062,77.32704495911207,-2.0,0.0,0.0,6.0,9.0,4.0,0.0,0.0,4.0,0.0,19.13,28.94,39.34,
15.477,90.29369747858807,77.3747044959112,-2.0,0.0,0.0,6.0,9.0,4.0,0.0,0.0,4.0,0.0,19.13,29.04,39.34,
15.492,90.29036974785882,77.40647044959111,-2.0,0.0,0.0,6.0,9.0,4.0,0.0,0.0,4.0,0.0,19.13,29.23,39.34,
15.505,90.31703697478588,77.3826470449591,-2.0,0.0,0.0,6.0,9.0,4.0,0.0,0.0,4.0,0.0,19.13,29.43,39.34,
15.519,90.3107036974786,77.3082647044959,-2.0,0.0,0.0,6.0,9.0,4.0,0.0,0.0,4.0,0.0,19.03,29.53,39.34,
15.533,90.26507036974786,77.28282647044959,-2.0,0.0,0.0,6.0,9.0,4.0,0.0,0.0,4.0,0.0,19.03,29.72,39.24,
15.547,90.2515070369748,77.31628264704496,-2.0,0.0,0.0,6.0,9.0,4.0,0.0,0.0,4.0,0.0,19.03,29.72,39.34,
15.561,90.24115070369747,77.32862826470449,-2.0,0.0,-1.0,6.0,9.0,4.0,0.0,0.0,4.0,0.0,19.13,29.63,39.44,
15.575,90.26711507036974,77.32986282647045,-2.0,0.0,0.0,6.0,9.0,4.0,0.0,0.0,4.0,0.0,19.13,29.43,39.34,
15.589,90.32371150703696,77.28498628264705,-2.0,0.0,0.0,6.0,9.0,4.0,0.0,0.0,4.0,0.0,19.13,29.23,39.44,
15.603,90.3473711507037,77.23549862826471,-2.0,0.0,0.0,6.0,9.0,4.0,0.0,0.0,4.0,0.0,19.13,29.14,39.34,
15.617,90.35873711507037,77.27554986282648,-2.0,0.0,0.0,6.0,9.0,4.0,0.0,0.0,4.0,0.0,19.13,28.94,39.44,
15.631,90.34187371150705,77.33355498628265,-1.0,0.0,0.0,6.0,9.0,4.0,0.0,0.0,4.0,0.0,19.23,28.74,39.53,
15.645,90.3311873711507,77.37535549862827,-1.0,0.0,0.0,6.0,9.0,4.0,0.0,0.0,4.0,0.0,19.42,28.55,39.63,
15.659,90.39311873711509,77.37953554986282,-1.0,0.0,0.0,6.0,9.0,4.0,0.0,0.0,4.0,0.0,19.42,28.35,39.73,
15.673,90.41731187371151,77.41595355498627,-2.0,0.0,0.0,6.0,9.0,4.0,0.0,0.0,4.0,0.0,19.52,28.15,39.83,
15.687,90.39273118737114,77.40159535549864,-2.0,0.0,0.0,6.0,9.0,4.0,0.0,0.0,4.0,0.0,19.72,27.96,39.83,
15.7,90.44427311873712,77.42715953554988,-2.0,0.0,0.0,5.0,9.0,4.0,0.0,0.0,4.0,0.0,19.82,27.86,39.93,
15.715,90.4224273118737,77.47471595355499,-2.0,0.0,0.0,6.0,9.0,4.0,0.0,0.0,4.0,0.0,19.72,27.66,39.93,
15.729,90.37524273118738,77.47947159535549,-2.0,0.0,0.0,6.0,9.0,4.0,0.0,0.0,4.0,0.0,19.72,27.57,40.02,
15.742,90.35252427311873,77.46194715953554,-2.0,0.0,0.0,6.0,9.0,4.0,0.0,0.0,4.0,0.0,19.72,27.57,39.83,
15.757,90.38625242731187,77.51419471595355,-2.0,0.0,0.0,6.0,9.0,4.0,0.0,0.0,4.0,0.0,19.72,27.57,39.93,
15.77,90.35362524273118,77.51041947159536,-2.0,0.0,0.0,6.0,9.0,4.0,0.0,0.0,4.0,0.0,19.62,27.57,39.93,
15.784,90.34136252427312,77.51904194715954,-2.0,0.0,0.0,6.0,9.0,4.0,0.0,0.0,4.0,0.0,19.62,27.57,39.83,
15.799,90.33113625242731,77.55590419471595,-2.0,0.0,0.0,6.0,9.0,4.0,0.0,0.0,4.0,0.0,19.62,27.66,39.73,
15.812,90.33911362524275,77.51459041947159,-2.0,0.0,0.0,6.0,9.0,4.0,0.0,0.0,4.0,0.0,19.62,27.86,39.73,
15.826,90.31291136252429,77.49245904194716,-2.0,0.0,0.0,6.0,9.0,4.0,0.0,0.0,4.0,0.0,19.52,28.25,39.73,
15.841,90.29229113625243,77.52624590419471,-2.0,0.0,0.0,6.0,9.0,4.0,0.0,0.0,4.0,0.0,19.52,28.65,39.63,
15.854,90.32622911362523,77.50262459041947,-2.0,0.0,0.0,6.0,9.0,4.0,0.0,0.0,4.0,0.0,19.52,28.94,39.63,
15.868,90.30262291136252,77.50026245904195,-2.0,0.0,0.0,6.0,9.0,4.0,0.0,0.0,4.0,0.0,19.33,29.23,39.73,
15.882,90.27326229113625,77.5090262459042,-2.0,0.0,0.0,6.0,9.0,4.0,0.0,0.0,4.0,0.0,19.33,29.82,39.63,
15.896,90.19832622911363,77.50990262459042,-2.0,0.0,0.0,6.0,9.0,4.0,0.0,0.0,4.0,0.0,19.33,30.12,39.53,
15.91,90.18183262291137,77.53699026245904,-2.0,0.0,0.0,6.0,9.0,4.0,0.0,0.0,4.0,0.0,19.23,30.41,39.53,
15.924,90.16218326229114,77.5576990262459,-2.0,0.0,0.0,6.0,9.0,4.0,0.0,0.0,4.0,0.0,19.13,30.61,39.44,
15.938,90.12421832622911,77.5597699026246,-2.0,0.0,0.0,6.0,9.0,4.0,0.0,0.0,4.0,0.0,19.13,30.9,39.34,
15.952,90.12042183262291,77.55997699026246,-2.0,0.0,0.0,6.0,9.0,4.0,0.0,0.0,4.0,0.0,19.13,30.8,39.34,
15.966,90.1110421832623,77.53299769902624,-2.0,0.0,-1.0,6.0,9.0,4.0,0.0,0.0,4.0,0.0,19.13,31.0,39.34,
15.98,90.10110421832623,77.53929976990263,-2.0,0.0,-1.0,6.0,9.0,4.0,0.0,0.0,4.0,0.0,19.03,31.2,39.24,
15.994,90.10911042183263,77.53092997699027,-2.0,0.0,-1.0,6.0,9.0,4.0,0.0,0.0,4.0,0.0,19.03,31.59,39.24,
16.008,90.11891104218327,77.49409299769903,-2.0,0.0,-1.0,6.0,9.0,4.0,0.0,0.0,4.0,0.0,18.93,31.88,39.04,
16.022,90.11989110421833,77.49040929976991,-2.0,0.0,-1.0,6.0,9.0,4.0,0.0,0.0,4.0,0.0,19.03,32.08,39.04,
16.036,90.17398911042184,77.49004092997698,-2.0,0.0,-1.0,6.0,9.0,4.0,0.0,0.0,4.0,0.0,19.03,32.18,38.95,
16.051,90.23339891104217,77.4900040929977,-2.0,0.0,0.0,6.0,9.0,4.0,0.0,0.0,4.0,0.0,19.03,32.27,38.95,
16.064,90.24833989110422,77.51700040929977,-2.0,0.0,-1.0,6.0,9.0,4.0,0.0,0.0,4.0,0.0,18.93,32.27,38.95,
16.078,90.28583398911043,77.49270004092998,-2.0,0.0,0.0,6.0,9.0,4.0,0.0,0.0,4.0,0.0,18.84,32.37,38.95,
16.093,90.29858339891103,77.49927000409299,-2.0,0.0,-1.0,6.0,9.0,4.0,0.0,0.0,4.0,0.0,18.93,32.27,38.85,
16.106,90.2728583398911,77.4909270004093,-2.0,0.0,0.0,6.0,9.0,4.0,0.0,0.0,4.0,0.0,19.03,32.27,38.85,
16.12,90.26128583398912,77.47209270004093,-2.0,0.0,-1.0,6.0,9.0,4.0,0.0,0.0,4.0,0.0,19.03,32.27,38.85,
16.135,90.26012858339892,77.46120927000409,-2.0,0.0,0.0,6.0,9.0,4.0,0.0,0.0,4.0,0.0,18.93,32.27,38.95,
16.148,90.2060128583399,77.4511209270004,-2.0,0.0,0.0,6.0,9.0,4.0,0.0,0.0,4.0,0.0,18.93,32.57,38.95,
16.162,90.23660128583398,77.43211209270005,-2.0,0.0,0.0,6.0,9.0,4.0,0.0,0.0,4.0,0.0,19.03,32.57,38.95,
16.176,90.24866012858341,77.38521120927,-2.0,0.0,0.0,6.0,9.0,4.0,0.0,0.0,4.0,0.0,19.13,32.57,38.95,
16.19,90.22286601285835,77.407521120927,-2.0,0.0,0.0,6.0,9.0,4.0,0.0,0.0,4.0,0.0,19.03,32.47,38.85,
16.204,90.22028660128584,77.4277521120927,-2.0,0.0,0.0,6.0,9.0,4.0,0.0,0.0,4.0,0.0,19.03,32.67,38.85,
16.218,90.22902866012859,77.50177521120926,-2.0,0.0,0.0,6.0,9.0,4.0,0.0,0.0,4.0,0.0,19.03,32.77,38.95,
16.232,90.17590286601286,77.51817752112092,-2.0,0.0,0.0,6.0,9.0,4.0,0.0,0.0,4.0,0.0,19.13,32.77,38.85,
16.245,90.15259028660128,77.55581775211209,-2.0,0.0,0.0,6.0,9.0,4.0,0.0,0.0,4.0,0.0,19.03,32.67,38.85,
16.26,90.16825902866013,77.55058177521121,-2.0,0.0,0.0,6.0,9.0,4.0,0.0,0.0,4.0,0.0,18.93,32.77,38.85,
16.274,90.17882590286601,77.54105817752112,-2.0,0.0,0.0,6.0,9.0,4.0,0.0,0.0,4.0,0.0,18.93,32.86,38.75,
16.287,90.17088259028661,77.5311058177521,-2.0,0.0,-1.0,6.0,9.0,4.0,0.0,0.0,4.0,0.0,19.03,32.96,38.85,
16.302,90.17908825902866,77.5481105817752,-2.0,0.0,0.0,6.0,9.0,4.0,0.0,0.0,4.0,0.0,19.03,33.06,38.85,
16.316,90.21590882590287,77.53181105817752,-2.0,0.0,0.0,6.0,9.0,4.0,0.0,0.0,4.0,0.0,19.03,32.67,38.75,
16.329,90.1745908825903,77.53018110581775,-2.0,0.0,0.0,6.0,9.0,4.0,0.0,0.0,4.0,0.0,19.03,32.47,38.75,
16.344,90.17945908825904,77.53001811058178,-2.0,0.0,0.0,6.0,9.0,4.0,0.0,0.0,4.0,0.0,19.03,32.27,38.75,
16.358,90.2429459088259,77.54800181105819,-2.0,0.0,0.0,6.0,9.0,4.0,0.0,0.0,4.0,0.0,19.03,32.27,38.85,
16.371,90.32129459088259,77.54080018110582,-2.0,0.0,0.0,6.0,9.0,4.0,0.0,0.0,4.0,0.0,19.03,32.37,38.95,
16.386,90.34712945908825,77.54908001811059,-2.0,0.0,0.0,6.0,9.0,4.0,0.0,0.0,4.0,0.0,19.13,32.47,39.04,
16.4,90.34971294590882,77.57690800181106,-2.0,0.0,0.0,6.0,9.0,4.0,0.0,0.0,4.0,0.0,19.23,32.57,39.04,
16.413,90.38597129459087,77.53469080018111,-2.0,0.0,0.0,6.0,9.0,4.0,0.0,0.0,4.0,0.0,19.13,32.27,39.04,
16.428,90.33559712945907,77.4944690800181,-2.0,0.0,0.0,6.0,9.0,4.0,0.0,0.0,4.0,0.0,19.13,32.37,39.14,
16.441,90.33955971294591,77.49944690800181,-2.0,0.0,0.0,6.0,9.0,4.0,0.0,0.0,4.0,0.0,19.13,32.37,39.04,
16.455,90.3129559712946,77.49094469080018,-2.0,0.0,0.0,6.0,9.0,4.0,0.0,0.0,4.0,0.0,18.93,32.37,39.04,
16.47,90.33729559712947,77.52609446908002,-2.0,0.0,0.0,6.0,9.0,4.0,0.0,0.0,4.0,0.0,18.93,32.18,39.04,
16.483,90.30372955971293,77.511609446908,-2.0,0.0,0.0,6.0,9.0,4.0,0.0,0.0,4.0,0.0,18.93,32.08,39.04,
16.497,90.3093729559713,77.5101609446908,-2.0,0.0,-1.0,6.0,9.0,4.0,0.0,0.0,4.0,0.0,18.93,32.08,38.85,
16.512,90.30093729559712,77.50101609446908,-2.0,0.0,0.0,6.0,9.0,4.0,0.0,0.0,4.0,0.0,18.84,32.18,38.95,
16.525,90.3180937295597,77.4461016094469,-2.0,0.0,0.0,6.0,9.0,4.0,0.0,0.0,4.0,0.0,18.84,32.67,38.95,
16.539,90.33780937295597,77.45861016094469,-2.0,0.0,0.0,6.0,9.0,4.0,0.0,0.0,4.0,0.0,18.84,32.86,38.85,
16.553,90.2947809372956,77.48686101609447,-2.0,0.0,0.0,6.0,9.0,4.0,0.0,0.0,4.0,0.0,18.84,33.06,38.85,
16.567,90.25447809372957,77.48068610160945,-2.0,0.0,0.0,6.0,9.0,4.0,0.0,0.0,4.0,0.0,18.74,33.16,38.85,
16.581,90.30444780937296,77.42606861016094,-2.0,0.0,0.0,6.0,9.0,4.0,0.0,0.0,4.0,0.0,18.74,33.35,38.95,
16.595,90.30044478093728,77.42960686101611,-2.0,0.0,-1.0,6.0,9.0,4.0,0.0,0.0,4.0,0.0,18.64,33.45,38.85,
16.609,90.29104447809374,77.40296068610162,-2.0,0.0,0.0,6.0,9.0,4.0,0.0,0.0,4.0,0.0,18.64,33.65,38.85,
16.623,90.27210444780937,77.41829606861016,-2.0,0.0,0.0,6.0,9.0,4.0,0.0,0.0,4.0,0.0,18.44,33.94,38.85,
16.637,90.30621044478094,77.40182960686103,-2.0,0.0,-1.0,6.0,9.0,4.0,0.0,0.0,4.0,0.0,18.44,34.24,38.75,
16.651,90.33662104447811,77.4451829606861,-2.0,0.0,0.0,6.0,9.0,4.0,0.0,0.0,4.0,0.0,18.44,34.24,38.65,
16.665,90.33066210444781,77.4585182960686,-2.0,0.0,0.0,6.0,9.0,4.0,0.0,0.0,4.0,0.0,18.44,34.14,38.65,
