time,t1:pitch,t1:roll,t1:gyrx,t1:gyry,t1:gyrz,t2:pitch,t2:roll,t2:gyrx,t2:gyry,t2:gyrz,k1:pitch,k1:roll,k1:gyrx,k1:gyry,k1:gyrz,k2:pitch,k2:roll,k2:gyrx,k2:gyry,k2:gyrz,W:pitch,W:roll,W:gyrx,W:gyry,W:gyrz,B:pitch,B:roll,B:gyrx,B:gyry,B:gyrz
0.288,-3.1663867233097673,1.6861084883119355,0.022900763358778626,0.007633587786259542,0.0,28.79641988410921,21.832801356092194,0.0,-0.0,0.007633587786259542,-5.3911383033544,24.532890572771958,0.0,-0.0,0.0,26.99902673298325,19.498767182428516,-0.1450381679389313,-0.11450381679389313,0.0,0.0,0.0,0.0,0.0,0.0,50.82,68.22,-4.0,-1.0,-2.0,
0.327,-5.857815438123069,3.119300703377081,0.022900763358778626,0.007633587786259542,0.0,53.19127594725771,40.26692179863982,0.0,0.007633587786259542,0.0,-9.973605861205641,45.38584755962812,0.0,-0.0,0.0,49.94819945601901,36.07271928749276,-0.1450381679389313,-0.11450381679389313,0.0,0.0,0.0,0.0,0.0,0.0,55.56,74.51,-4.0,0.0,0.0,
0.365,-8.145529845714377,4.337514086182454,0.022900763358778626,0.007633587786259542,0.0,73.92690360093394,55.93592417480531,0.0,0.007633587786259542,0.0,-13.827631326276897,63.085868458052886,0.0,-0.007633587786259542,0.0,69.4549962705994,50.16057857679736,-0.1450381679389313,-0.11450381679389313,0.0,0.0,0.0,0.0,0.0,0.0,59.55,79.79,-3.0,-1.0,0.0,
0.403,-10.049574725947267,5.330529580999074,0.022900763358778626,-0.007633587786259542,0.007633587786259542,91.55218710655873,69.25457619454596,0.0,0.007633587786259542,0.0,-17.103552971587465,78.13088622171394,0.0,-0.007633587786259542,0.0,86.03577356299274,62.135258972706275,-0.1450381679389313,-0.11450381679389313,0.0,0.0,0.0,0.0,0.0,0.0,62.81,84.25,-3.0,-1.0,-1.0,
0.441,-11.668012874145225,6.174592751593201,0.022900763358778626,-0.007633587786259542,0.007633587786259542,106.5336780863398,80.57543041132553,0.0,0.007633587786259542,0.0,-19.92302749346105,90.92931833766616,0.0,-0.0,0.0,100.12943426152708,72.31373730922886,-0.1450381679389313,-0.11450381679389313,0.0,0.0,0.0,0.0,0.0,0.0,65.61,88.12,-3.0,0.0,-1.0,
0.479,-13.043685300113488,6.892046446598208,0.022900763358778626,-0.007633587786259542,0.007633587786259542,119.2679454191537,90.19815649558815,0.0,0.007633587786259542,0.0,-22.368953960649378,101.81251985757228,0.0,-0.007633587786259542,0.0,112.10904585528127,80.96544389527304,-0.1450381679389313,-0.11450381679389313,0.0,0.0,0.0,0.0,0.0,0.0,68.02,91.37,-4.0,0.0,-1.0,
0.517,-14.213006862186512,7.501882087352464,0.022900763358778626,-0.007633587786259542,0.007633587786259542,130.09207265204554,98.37747366721138,0.0,0.007633587786259542,0.0,-24.447991457759457,111.06324114949248,0.0,-0.007633587786259542,0.0,122.31857301922386,88.35319643084354,-0.1450381679389313,-0.11450381679389313,0.0,120.0,106.0,-2.0,-7.0,0.0,70.08,94.17,-4.0,0.0,0.0,
0.556,-15.206930189948583,8.020242381993583,0.022900763358778626,-0.007633587786259542,0.007633587786259542,139.29258080000358,105.32989326309112,0.0,0.007633587786259542,0.0,-26.215173330303024,118.92635424762466,0.0,-0.007633587786259542,0.0,130.99667110857507,94.63278608607847,-0.1450381679389313,-0.11450381679389313,0.0,120.0,106.0,-2.0,-7.0,0.0,71.86,96.56,-4.0,0.0,0.0,
0.595,-16.05176501854634,8.460848632438532,0.022900763358778626,-0.007633587786259542,0.007633587786259542,147.1130127257679,111.2394499195889,0.0,0.007633587786259542,0.0,-27.717277921965056,125.610000381037,0.0,-0.007633587786259542,0.0,138.3730544845236,99.97043729302816,-0.1450381679389313,-0.11450381679389313,0.0,120.0,106.0,-2.0,-6.0,0.0,73.4,98.53,-3.0,0.0,-1.0,
0.633,-16.769874622854438,8.83536394531674,0.022900763358778626,-0.007633587786259542,0.007633587786259542,153.79424820279198,116.3593627627684,0.0,-0.0,0.0,-28.994066824877784,131.2910995944375,0.0,-0.007633587786259542,0.0,144.64298035407984,104.5074408189354,-0.1450381679389313,-0.11450381679389313,0.0,120.0,106.0,-2.0,-6.0,0.0,74.59,100.27,-4.0,-1.0,-1.0,
0.6719999999999999,-17.41636093551424,9.10845369251657,0.022900763358778626,-0.0,0.0,159.47329835826244,120.71128867947095,0.0,-0.0,0.0,-30.079337392353608,136.12003392582793,0.0,-0.007633587786259542,0.0,149.97241734320264,108.36389381595654,-0.1450381679389313,-0.11450381679389313,0.0,120.0,106.0,-2.0,-6.0,0.0,75.64,101.66,-3.0,0.0,-1.0,
0.7110000000000001,-17.965874301275075,9.340579977636423,0.022900763358778626,-0.0,0.0,164.30049099041233,124.41042570866813,0.0,-0.0,0.0,-31.001817374708054,140.22462810750977,0.0,-0.007633587786259542,0.0,154.50243878395702,111.64187886342452,-0.1450381679389313,-0.11450381679389313,0.0,120.0,106.0,-2.0,-6.0,0.0,76.54,102.94,-4.0,-1.0,-1.0,
0.75,-18.420238343852194,9.570663011683411,0.030534351145038167,0.007633587786259542,0.007633587786259542,168.40360472773972,127.55469218348574,0.0,-0.0,0.0,-31.78592535970933,143.71353316193935,0.0,-0.007633587786259542,0.0,158.35295700859825,114.4281661537723,-0.1450381679389313,-0.11450381679389313,0.0,120.0,106.0,-2.0,-6.0,0.0,77.24,103.99,-4.0,-1.0,0.0,
0.789,-18.806447780042745,9.76623359062335,0.030534351145038167,0.007633587786259542,0.007633587786259542,171.89125140446802,130.2273186870807,0.0,-0.0,0.0,-32.40917485910733,146.67064130135034,0.0,-0.0,0.0,161.6258974995433,116.7965103505679,-0.1450381679389313,-0.11450381679389313,0.0,120.0,106.0,-2.0,-6.0,0.0,77.88,104.92,-4.0,-1.0,-1.0,
0.827,-19.134725800804713,9.932468582722299,0.030534351145038167,0.007633587786259542,0.007633587786259542,174.85575107968708,132.4990512151364,0.0,-0.0,0.0,-32.93645760019253,149.1969400837149,0.0,-0.0,0.0,164.40789691684657,118.80960291784417,-0.1450381679389313,-0.11450381679389313,0.0,120.0,106.0,-2.0,-6.0,0.0,78.42,105.61,-4.0,-1.0,0.0,
0.865,-19.413762118452386,10.073768326006405,0.030534351145038167,0.007633587786259542,0.007633587786259542,177.3874218829527,134.4450237752349,0.0,-0.007633587786259542,0.0,-33.38464793011495,151.34429404872478,0.0,-0.0,0.0,166.77259642155437,120.52073160002901,-0.1450381679389313,-0.11450381679389313,0.0,120.0,106.0,-2.0,-6.0,0.0,78.97,106.19,-4.0,0.0,-1.0,
0.904,-19.650942988452908,10.193873107797897,0.030534351145038167,0.007633587786259542,0.007633587786259542,179.53934206572848,136.09910045131858,0.0,-0.007633587786259542,0.0,-33.76560971054901,153.16954491898318,0.0,-0.0,0.0,168.78259100055598,121.97519097988611,-0.1450381679389313,-0.11450381679389313,0.0,120.0,107.0,-2.0,-6.0,0.0,79.35,106.68,-4.0,0.0,0.0,
0.943,-19.852546727953353,10.295962172320664,0.030534351145038167,0.007633587786259542,0.007633587786259542,181.3684742210879,137.50506562598974,0.0,-0.007633587786259542,0.0,-34.08942722391795,154.7210081587028,0.0,-0.0,0.0,170.49058418066386,123.21097376979311,-0.15267175572519084,-0.1297709923664122,0.0,120.0,107.0,-2.0,-6.0,0.0,79.7,107.16,-4.0,0.0,-1.0,
0.982,-20.02390990652873,10.382737877165015,0.030534351145038167,0.007633587786259542,0.007633587786259542,182.94464276595022,138.72498668015746,0.0,-0.0,0.0,-34.36467211028156,156.03975191246448,0.0,-0.0,0.0,171.94237838375557,124.26138914121407,-0.15267175572519084,-0.1297709923664122,0.0,120.0,107.0,-2.0,-6.0,0.0,80.01,107.6,-4.0,0.0,-1.0,
1.021,-20.1695686083178,10.456497226282714,0.030534351145038167,0.007633587786259542,0.007633587786259542,184.28997466118534,139.7362833877267,0.0,-0.0,-0.007633587786259542,-34.59863026369062,157.1606841031619,0.0,-0.0,0.0,173.17640345638353,125.15424220692188,-0.15267175572519084,-0.1297709923664122,0.0,120.0,107.0,-2.0,-6.0,0.0,80.28,107.92,-5.0,0.0,0.0,
1.06,-20.29337850483851,10.519192673032759,0.030534351145038167,0.007633587786259542,0.007633587786259542,185.4335067721352,140.59588558916056,0.0,-0.0,-0.007633587786259542,-34.79749469408833,158.11347646525473,0.0,-0.0,0.0,174.23856704502137,125.92984529263072,-0.15267175572519084,-0.1297709923664122,0.0,120.0,107.0,-3.0,-6.0,0.0,80.56,108.14,-4.0,0.0,0.0,
1.0979999999999999,-20.398616916881114,10.572483802770297,0.030534351145038167,0.007633587786259542,0.007633587786259542,186.40550906644256,141.32654746037935,0.0,-0.0,-0.007633587786259542,-34.96652945992638,158.92334997303362,0.0,-0.0,0.0,175.14142228920497,126.58902015850614,-0.13740458015267176,-0.09923664122137404,0.0,120.0,107.0,-3.0,-6.0,0.0,80.67,108.41,-4.0,0.0,0.0,
1.137,-20.48806956711733,10.617781263047204,0.030534351145038167,0.007633587786259542,0.007633587786259542,187.2411025905854,142.0463478172665,0.0,-0.0,0.0,-35.11020901088872,159.61174245464568,0.0,-0.0,0.0,175.90884924676104,127.14931879450026,-0.13740458015267176,-0.09923664122137404,0.0,120.0,107.0,-3.0,-6.0,0.0,80.86,108.64,-4.0,0.0,0.0,
1.1760000000000002,-20.56410431981811,10.656284104282575,0.030534351145038167,0.007633587786259542,0.007633587786259542,187.92346977929202,142.51573882394172,0.0,-0.0,-0.007633587786259542,-35.232336629206706,160.19687606401592,0.0,-0.0,0.0,176.5611621606837,127.62557263509525,-0.13740458015267176,-0.09923664122137404,0.0,120.0,107.0,-3.0,-6.0,0.0,81.0,108.8,-3.0,-1.0,0.0,
1.2149999999999999,-20.628733859613774,10.68901151933264,0.030534351145038167,0.007633587786259542,0.007633587786259542,188.50348188969264,142.91472117961564,0.0,-0.0,-0.007633587786259542,-35.336145104776996,160.69423963198065,0.0,-0.0,0.0,177.11562813751794,128.03038839960098,-0.13740458015267176,-0.09923664122137404,0.0,120.0,106.0,-3.0,-6.0,0.0,81.06,109.0,-3.0,-1.0,0.0,
1.253,-20.683668968440088,10.716829822125195,0.030534351145038167,0.007633587786259542,0.007633587786259542,188.99649218353315,143.25385618193846,0.0,-0.0,-0.007633587786259542,-35.42438230901175,161.11699866475067,0.0,-0.0,0.0,177.5737630550567,128.35787631513105,-0.13740458015267176,-0.09923664122137404,0.0,120.0,106.0,-2.0,-6.0,0.0,81.19,109.12,-3.0,-2.0,0.0,
1.292,-20.730363810942457,10.740475379498868,0.030534351145038167,0.007633587786259542,0.007633587786259542,189.4155509332976,143.54212093391286,0.0,-0.0,-0.007633587786259542,-35.49614275966766,161.44084825488792,0.0,0.007633587786259542,-0.007633587786259542,177.96317773496466,128.6362410433316,-0.13740458015267176,-0.09923664122137404,0.0,120.0,106.0,-2.0,-6.0,0.0,81.08,109.3,-3.0,-2.0,0.0,
1.331,-20.770054427069468,10.760574103266489,0.030534351145038167,0.007633587786259542,0.007633587786259542,189.77175087059737,143.7871459730911,0.0,-0.0,-0.007633587786259542,-35.55713914272519,161.71612040650461,0.0,0.007633587786259542,-0.007633587786259542,178.30734137565676,128.8894565466019,-0.13740458015267176,-0.09923664122137404,0.0,120.0,106.0,-3.0,-6.0,0.0,81.23,109.47,-4.0,-1.0,-2.0,
1.37,-20.803791450777428,10.777658018468967,0.030534351145038167,0.007633587786259542,0.007633587786259542,190.0745208173022,143.9954172563926,0.0,-0.0,-0.007633587786259542,-35.608986068324086,161.9377744883646,0.0,0.007633587786259542,-0.007633587786259542,178.59988047024507,129.10468972438164,-0.13740458015267176,-0.09923664122137404,0.0,120.0,106.0,-3.0,-6.0,0.0,81.26,109.6,-3.0,-2.0,-1.0,
1.409,-20.832467920929194,10.792179346391073,0.030534351145038167,0.007633587786259542,0.007633587786259542,190.30036343700192,144.14210917908812,0.0,-0.0,0.0,-35.65305595508315,162.12618045794562,0.0,0.007633587786259542,-0.007633587786259542,178.84853870064512,129.2876379254944,-0.13740458015267176,-0.09923664122137404,0.0,120.0,106.0,-3.0,-6.0,0.0,81.16,109.67,-3.0,-2.0,-1.0,
1.448,-20.896020174763542,10.846007435736938,0.015267175572519083,0.007633587786259542,0.0,190.4923296637467,144.26679731337933,0.0,-0.0,0.0,-35.69051535882835,162.2863255320895,0.0,0.007633587786259542,-0.007633587786259542,179.05989819648516,129.44314389644026,-0.13740458015267176,-0.09923664122137404,0.0,120.0,106.0,-3.0,-6.0,0.0,81.25,109.67,-2.0,-2.0,0.0,
1.487,-20.89485926783119,10.863164326794505,0.022900763358778626,0.007633587786259542,0.007633587786259542,190.65550095647976,144.37278222752684,0.0,-0.0,0.0,-35.72235585201177,162.42244884511177,0.0,0.007633587786259542,-0.007633587786259542,179.2395537679492,129.57532397174424,-0.13740458015267176,-0.09923664122137404,0.0,120.0,106.0,-3.0,-6.0,0.0,81.16,109.83,-3.0,-1.0,0.0,
1.526,-20.89387249693869,10.877747684193437,0.022900763358778626,0.007633587786259542,0.007633587786259542,190.79419655530288,144.46286940455224,0.0,-0.0,0.0,-35.74942027121768,162.53815366118073,0.0,0.007633587786259542,-0.007633587786259542,179.39226100369362,129.68767703575264,-0.13740458015267176,-0.09923664122137404,0.0,120.0,106.0,-3.0,-6.0,0.0,81.29,109.92,-3.0,0.0,0.0,
1.565,-20.893033741680064,10.89014353798253,0.022900763358778626,0.007633587786259542,0.007633587786259542,190.9120878143025,144.53944350502383,0.0,-0.0,0.0,-35.722737282456166,162.63470457361333,0.0,0.007633587786259542,-0.015267175572519083,179.5220621540764,129.78317714015978,-0.13740458015267176,-0.09923664122137404,0.0,120.0,106.0,-3.0,-6.0,0.0,81.37,110.02,-4.0,1.0,0.0,
1.604,-20.892320799710234,10.900680013703258,0.022900763358778626,0.007633587786259542,0.007633587786259542,191.01229538445222,144.60453149042468,0.0,-0.0,0.0,-35.747101978889184,162.74289136037314,0.007633587786259542,-0.0,-0.030534351145038167,179.63239313190175,129.86435222890583,-0.13740458015267176,-0.09923664122137404,0.0,120.0,106.0,-3.0,-6.0,0.0,81.26,110.11,-6.0,3.0,-1.0,
1.643,-20.891714799035878,10.909636018065877,0.022900763358778626,0.007633587786259542,0.007633587786259542,191.10996964371017,144.7126887238042,0.0,0.007633587786259542,-0.030534351145038167,-35.767811970857245,162.83485012911896,0.007633587786259542,-0.0,-0.030534351145038167,179.7261744630533,129.93335105434,-0.13740458015267176,-0.09923664122137404,0.0,120.0,106.0,-3.0,-6.0,0.0,81.19,110.27,-8.0,3.0,-2.0,
1.682,-20.891199698462675,10.917248621774103,0.022900763358778626,0.007633587786259542,0.007633587786259542,191.19299276407943,144.8046223721768,0.0,0.007633587786259542,-0.030534351145038167,-35.899290596075375,162.92253374049128,0.007633587786259542,-0.007633587786259542,-0.022900763358778626,179.80588859453212,129.992000055959,-0.13740458015267176,-0.09923664122137404,0.0,120.0,106.0,-3.0,-6.0,0.0,81.31,110.18,-11.0,8.0,-4.0,
1.721,-20.890761862975452,10.923719334926096,0.022900763358778626,0.007633587786259542,0.007633587786259542,191.32775540013404,144.97665345792186,0.0,0.015267175572519083,-0.007633587786259542,-36.01104742751079,162.99706481015775,0.007633587786259542,-0.007633587786259542,-0.022900763358778626,179.8736456062891,130.04185170733518,-0.13740458015267176,-0.09923664122137404,0.0,120.0,106.0,-3.0,-6.0,0.0,81.29,110.19,-10.0,6.0,-4.0,
1.76,-20.890389702811312,10.929219441105289,0.022900763358778626,0.007633587786259542,0.007633587786259542,191.44230364078044,145.12287988080516,0.0,0.015267175572519083,-0.007633587786259542,-36.10604073423089,163.06041621937425,0.007633587786259542,-0.007633587786259542,-0.022900763358778626,179.93123906628256,130.08422561100494,-0.13740458015267176,-0.09923664122137404,0.0,121.0,106.0,-3.0,-8.0,0.0,81.14,110.43,-12.0,19.0,-3.0,
1.799,-20.890073366671793,10.933894531357604,0.022900763358778626,0.007633587786259542,0.007633587786259542,191.53966964532987,145.247172340256,0.0,0.015267175572519083,-0.007633587786259542,-36.18678504494297,163.11426491720826,0.007633587786259542,-0.007633587786259542,-0.022900763358778626,179.99335448486218,130.13684703045513,-0.13740458015267176,-0.09923664122137404,0.0,121.0,106.0,-4.0,-9.0,0.0,81.38,110.11,-21.0,15.0,-3.0,
1.838,-20.889804480953202,10.937868358072071,0.022900763358778626,0.007633587786259542,0.007633587786259542,191.6224307491969,145.35282093078916,0.0,0.015267175572519083,-0.007633587786259542,-36.255417709048245,163.1600363103672,0.007633587786259542,-0.007633587786259542,-0.022900763358778626,180.05931332133457,130.19817632835765,-0.13740458015267176,-0.09923664122137404,0.0,121.0,106.0,-5.0,-9.0,2.0,82.83,109.46,-9.0,-15.0,3.0,
1.877,-20.8895759280924,10.941246110779367,0.022900763358778626,0.007633587786259542,0.007633587786259542,191.65570199905315,145.37753271402235,0.0,0.03816793893129771,0.16030534351145037,-36.313755473537725,163.19894199455229,0.007633587786259542,-0.007633587786259542,-0.022900763358778626,180.1153783323361,130.2503062315748,-0.13740458015267176,-0.09923664122137404,0.0,121.0,106.0,-5.0,-9.0,2.0,82.88,108.91,-9.0,-6.0,6.0,
1.917,-20.889381658160715,10.94411720058057,0.022900763358778626,0.007633587786259542,0.007633587786259542,191.68398256143098,145.39853772977054,0.0,0.03816793893129771,0.16030534351145037,-36.417605555835216,163.24785579000869,0.0,-0.09923664122137404,0.03816793893129771,180.1630335916874,130.29461664930938,-0.13740458015267176,-0.09923664122137404,0.0,121.0,106.0,-5.0,-9.0,2.0,82.93,109.01,-2.0,-4.0,-5.0,
1.956,-20.889216528718787,10.946557626911591,0.022900763358778626,0.007633587786259542,0.007633587786259542,191.70802103945212,145.4163919931565,0.0,0.03816793893129771,0.16030534351145037,-36.76180135463278,163.41531853479876,0.0,-0.26717557251908397,0.3969465648854962,180.203540562136,130.33228050438376,-0.13740458015267176,-0.09923664122137404,0.0,121.0,106.0,-5.0,-9.0,2.0,83.16,108.88,-2.0,3.0,11.0,
1.995,-21.689813099817997,34.421036108734135,0.030534351145038167,-0.015267175572519083,0.24427480916030533,191.7284537457701,145.43156811703457,0.0,0.03816793893129771,0.16030534351145037,-37.054367783610715,163.5576618678703,0.0,-0.26717557251908397,0.3969465648854962,180.23797148701732,130.36429478119697,-0.13740458015267176,-0.09923664122137404,0.0,121.0,106.0,-5.0,-9.0,2.0,83.58,108.54,-5.0,-6.0,9.0,
2.034,-22.370320185252325,54.374342818283296,0.030534351145038167,-0.015267175572519083,0.24427480916030533,191.74582154614038,145.44446782233092,0.0,0.03816793893129771,0.16030534351145037,-37.38087162229192,163.5506235636116,0.07633587786259542,-0.22900763358778625,-0.030534351145038167,180.26723777316644,130.39150691648823,-0.13740458015267176,-0.09923664122137404,0.0,121.0,106.0,-5.0,-9.0,2.0,83.68,108.19,0.0,0.0,-1.0,
2.073,-22.948751207871503,71.33465352140009,0.030534351145038167,-0.015267175572519083,0.24427480916030533,192.10694852596677,146.04899690596255,-0.03816793893129771,-0.030534351145038167,0.2900763358778626,-37.658399885170944,163.5446410049917,0.07633587786259542,-0.22900763358778625,-0.030534351145038167,180.29211411639318,130.41463723148578,-0.13740458015267176,-0.09923664122137404,0.0,121.0,106.0,-5.0,-9.0,2.0,83.31,107.93,-4.0,0.0,-5.0,
2.112,-22.716599308392517,85.18408804749987,0.05343511450381679,-0.0,-0.0916030534351145,192.41390645881918,146.56284662704945,-0.03816793893129771,-0.030534351145038167,0.2900763358778626,-37.89429890861811,163.53955583016474,0.07633587786259542,-0.22900763358778625,-0.030534351145038167,180.31325900813593,130.4342979992337,-0.13740458015267176,-0.09923664122137404,0.0,121.0,106.0,-5.0,-9.0,2.0,82.67,108.46,-2.0,4.0,7.0,
2.151,-22.519270193835382,96.95610739468466,0.05343511450381679,-0.0,-0.0916030534351145,192.69929332406676,147.12792732158206,-0.09923664122137404,-0.24427480916030533,0.366412213740458,-38.094813078548206,163.53523343156186,0.07633587786259542,-0.22900763358778625,-0.030534351145038167,180.33123216611725,130.45100965181945,-0.13740458015267176,-0.09923664122137404,0.0,121.0,106.0,-5.0,-9.0,2.0,82.68,108.43,-3.0,-2.0,-4.0,
2.19,-22.290068952965292,84.07684562474877,0.09923664122137404,0.2595419847328244,-0.4961832061068702,192.94187215952718,147.60824591193477,-0.09923664122137404,-0.24427480916030533,0.366412213740458,-38.26525012298879,163.53155939274941,0.07633587786259542,-0.22900763358778625,-0.030534351145038167,180.34650935040136,130.4652145565173,-0.13740458015267176,-0.09923664122137404,0.0,121.0,106.0,-5.0,-9.0,2.0,81.95,108.73,-16.0,8.0,-8.0,
2.23,-22.117598716229395,73.62923743221673,0.08396946564885496,0.31297709923664124,-0.48091603053435117,193.14806416966854,148.01651671373457,-0.09923664122137404,-0.24427480916030533,0.366412213740458,-38.410121610763284,163.52843645975884,0.07633587786259542,-0.22900763358778625,-0.030534351145038167,180.35949495704287,130.4772887255105,-0.13740458015267176,-0.09923664122137404,0.0,121.0,106.0,-5.0,-9.0,2.0,82.91,108.92,-15.0,12.0,8.0,
2.27,-21.970999015003883,64.74877046856449,0.08396946564885496,0.31297709923664124,-0.48091603053435117,193.3233273782887,148.36354689526442,-0.09923664122137404,-0.24427480916030533,0.366412213740458,-38.5332623753716,163.52578196671683,0.07633587786259542,-0.22900763358778625,-0.030534351145038167,180.4922327519245,130.66657222447083,0.37404580152671757,1.4122137404580153,0.015267175572519083,121.0,106.0,-5.0,-9.0,2.0,82.81,107.79,-11.0,10.0,-9.0,
2.31,-21.8463892689622,57.200373549460096,0.08396946564885496,0.31297709923664124,-0.48091603053435117,193.47230110561583,148.6585225495648,-0.09923664122137404,-0.24427480916030533,0.366412213740458,-38.63793202528867,163.52352564763112,0.07633587786259542,-0.22900763358778625,-0.030534351145038167,180.58011417303794,130.73634649352098,0.2748091603053435,1.4122137404580153,-0.2595419847328244,121.0,106.0,-5.0,-9.0,2.0,83.04,108.24,-10.0,14.0,-11.0,
2.35,-21.635344534560314,52.150992271078366,0.1297709923664122,0.24427480916030533,-0.44274809160305345,193.59892877384388,148.9092518557201,-0.09923664122137404,-0.24427480916030533,0.366412213740458,-38.72690122771818,163.52160777640827,0.07633587786259542,-0.22900763358778625,-0.030534351145038167,180.65481338098436,130.79565462221362,0.2748091603053435,1.4122137404580153,-0.2595419847328244,121.0,106.0,-5.0,-9.0,2.0,83.46,108.13,-15.0,0.0,3.0,
2.39,-21.252327082205174,48.08947029423183,0.25190839694656486,0.16030534351145037,-0.31297709923664124,193.70656229183774,149.12237176595212,-0.09923664122137404,-0.24427480916030533,0.366412213740458,-38.80252504978326,163.51997758586884,0.07633587786259542,-0.22900763358778625,-0.030534351145038167,180.7183077077388,130.84606653160236,0.2748091603053435,1.4122137404580153,-0.2595419847328244,121.0,106.0,-5.0,-9.0,2.0,83.51,107.61,-1.0,-11.0,-14.0,
2.43,-20.9267622477033,44.637176613912274,0.25190839694656486,0.16030534351145037,-0.31297709923664124,191.63323248687294,146.2130351887253,-0.015267175572519083,0.12213740458015267,0.04580152671755725,-38.86680529853859,163.51859192391035,0.07633587786259542,-0.22900763358778625,-0.030534351145038167,180.7722778854801,130.88891665458277,0.2748091603053435,1.4122137404580153,-0.2595419847328244,121.0,106.0,-5.0,-9.0,2.0,83.38,107.56,-8.0,20.0,0.0,
2.47,-20.650032138376712,41.70272698564065,0.25190839694656486,0.16030534351145037,-0.31297709923664124,190.44863899408895,146.21094680886614,-0.022900763358778626,0.16793893129770993,-0.030534351145038167,-38.92144350998061,163.5174141112456,0.07633587786259542,-0.22900763358778625,-0.030534351145038167,180.8181525365602,130.92533925911613,0.2748091603053435,1.4122137404580153,-0.2595419847328244,121.0,106.0,-5.0,-9.0,2.0,83.68,107.54,-7.0,4.0,13.0,
2.51,-20.414811545449112,39.20844480160977,0.25190839694656486,0.16030534351145037,-0.31297709923664124,189.44173452522259,146.20917168598584,-0.022900763358778626,0.16793893129770993,-0.030534351145038167,-44.34310403219051,163.88732895938227,0.10687022900763359,-1.9694656488549618,0.3816793893129771,180.85714598997828,130.95629847296948,0.2748091603053435,1.4122137404580153,-0.2595419847328244,121.0,106.0,-5.0,-9.0,2.0,83.96,106.89,-1.0,-8.0,8.0,
2.549,-20.21487404146065,37.08830494518353,0.25190839694656486,0.16030534351145037,-0.31297709923664124,188.58751477952134,145.8531463727371,0.061068702290076333,0.25190839694656486,-0.15267175572519084,-48.95151547606892,164.20175658029842,0.10687022900763359,-1.9694656488549618,0.3816793893129771,180.89029042538363,130.98261380474483,0.2748091603053435,1.4122137404580153,-0.2595419847328244,121.0,106.0,-5.0,-9.0,2.0,83.85,106.92,0.0,3.0,-8.0,
2.589,-20.044927163070458,35.28618606722122,0.25190839694656486,0.16030534351145037,-0.31297709923664124,187.86142799567529,145.55052485647565,0.061068702290076333,0.25190839694656486,-0.15267175572519084,-52.74025545929187,164.41536371952571,0.04580152671755725,-1.4580152671755726,0.45038167938931295,180.91846319547818,131.00498183675387,0.2748091603053435,1.4122137404580153,-0.2595419847328244,121.0,106.0,-5.0,-9.0,2.0,83.96,107.3,-6.0,10.0,7.0,
2.629,-19.900472316438794,33.75438502095326,0.25190839694656486,0.16030534351145037,-0.31297709923664124,187.24425422940612,145.2932965676534,0.061068702290076333,0.25190839694656486,-0.15267175572519084,-56.95108742599967,164.65054727384552,0.20610687022900764,-0.9847328244274809,0.3969465648854962,180.94241005005858,131.02399466396156,0.2748091603053435,1.4122137404580153,-0.2595419847328244,121.0,106.0,-5.0,-9.0,2.0,83.87,106.49,-2.0,0.0,5.0,
2.669,-19.777685696801882,32.45235413162549,0.25190839694656486,0.16030534351145037,-0.31297709923664124,186.71965652807734,145.0746525221545,0.061068702290076333,0.25190839694656486,-0.15267175572519084,-60.53029459770129,164.85045329501736,0.20610687022900764,-0.9847328244274809,0.3969465648854962,180.9627648764519,131.0401555670881,0.2748091603053435,1.4122137404580153,-0.2595419847328244,122.0,103.0,-5.0,-13.0,4.0,84.1,106.8,-2.0,13.0,-5.0,
2.709,-19.673317070110507,31.345627875696884,0.25190839694656486,0.16030534351145037,-0.31297709923664124,186.27374848194788,144.88880508348043,0.061068702290076333,0.25190839694656486,-0.15267175572519084,-63.57262069364767,165.02037341301343,0.20610687022900764,-0.9847328244274809,0.3969465648854962,180.98006647888622,131.05389233474568,0.2748091603053435,1.4122137404580153,-0.2595419847328244,122.0,102.0,-5.0,-13.0,3.0,84.8,106.31,-5.0,9.0,15.0,
2.749,-19.584603737422835,30.40491055815757,0.25190839694656486,0.16030534351145037,-0.31297709923664124,186.734387146764,144.5408807962864,0.03816793893129771,0.2748091603053435,-0.11450381679389313,-66.1585978752021,165.16480551331009,0.20610687022900764,-0.9847328244274809,0.3969465648854962,180.99477284095536,131.0655685872546,0.2748091603053435,1.4122137404580153,-0.2595419847328244,122.0,102.0,-5.0,-13.0,3.0,85.59,106.89,-1.0,3.0,-5.0,
2.788,-19.509197404638314,29.605300838249153,0.25190839694656486,0.16030534351145037,-0.31297709923664124,187.48764536138552,144.70271820707876,0.11450381679389313,0.32061068702290074,0.022900763358778626,-68.35667847952337,165.28757279856225,0.20610687022900764,-0.9847328244274809,0.3969465648854962,181.00727324871417,131.0754934018872,0.2748091603053435,1.4122137404580153,-0.2595419847328244,122.0,102.0,-5.0,-13.0,3.0,86.45,106.89,-8.0,14.0,3.0,
2.828,-19.445102021771472,28.925632576326997,0.25190839694656486,0.16030534351145037,-0.31297709923664124,188.1279148438138,144.84028000625227,0.11450381679389313,0.32061068702290074,0.022900763358778626,-71.48794281775042,165.49005389073676,-0.16030534351145037,0.26717557251908397,-0.2748091603053435,181.01789859530913,131.0839294943249,0.2748091603053435,1.4122137404580153,-0.2595419847328244,122.0,102.0,-5.0,-13.0,3.0,86.96,106.42,-5.0,13.0,-6.0,
2.868,-20.54052944604159,27.6295344035415,0.08396946564885496,-0.022900763358778626,0.030534351145038167,188.67214390387787,144.95720753554974,0.11450381679389313,0.32061068702290074,0.022900763358778626,-74.14951750524341,165.66216281908504,-0.16030534351145037,0.26717557251908397,-0.2748091603053435,181.0269301399149,131.09110017289694,0.2748091603053435,1.4122137404580153,-0.2595419847328244,122.0,102.0,-5.0,-13.0,3.0,87.79,106.61,-7.0,17.0,-2.0,
2.908,-21.471642756671187,26.527850956673824,0.08396946564885496,-0.022900763358778626,0.030534351145038167,189.13473860493232,145.0565959354526,0.11450381679389313,0.32061068702290074,0.022900763358778626,-76.41139430333506,165.46062512389472,-0.22137404580152673,-0.22137404580152673,-0.2366412213740458,181.0346069528298,131.09719524968318,0.2748091603053435,1.4122137404580153,-0.2595419847328244,122.0,102.0,-5.0,-13.0,3.0,88.43,106.51,-7.0,12.0,-9.0,
2.948,-22.263089070706346,25.5914200268363,0.08396946564885496,-0.022900763358778626,0.030534351145038167,189.5279441008286,145.14107607537005,0.11450381679389313,0.32061068702290074,0.022900763358778626,-78.33398958171296,165.28931808298293,-0.22137404580152673,-0.22137404580152673,-0.2366412213740458,181.1608412153074,131.2358844111599,0.2748091603053435,1.4122137404580153,-0.2595419847328244,121.0,99.0,-9.0,-5.0,2.0,88.61,105.85,-10.0,10.0,2.0,
2.988,-22.935818437636232,24.795453736474407,0.08396946564885496,-0.022900763358778626,0.030534351145038167,189.86216877234042,145.21288419429987,0.11450381679389313,0.32061068702290074,0.022900763358778626,-79.96819556833418,165.1437070982079,-0.22137404580152673,-0.22137404580152673,-0.2366412213740458,153.68140915588944,118.7480768120071,-0.17557251908396945,-0.10687022900763359,0.0,121.0,99.0,-9.0,-5.0,2.0,88.96,105.84,-7.0,8.0,-10.0,
3.028,-23.507638399526634,24.118882389666798,0.08396946564885496,-0.022900763358778626,0.030534351145038167,190.14625974312548,145.27392109539022,0.11450381679389313,0.32061068702290074,0.022900763358778626,-81.35727065696221,165.01993776114912,-0.22137404580152673,-0.22137404580152673,-0.2366412213740458,130.40594102325412,107.91682495277695,-0.16030534351145037,-0.12213740458015267,-0.12213740458015267,121.0,99.0,-9.0,-5.0,2.0,89.13,106.13,-16.0,18.0,-2.0,
3.067,-23.993685367133477,23.54379674488033,0.08396946564885496,-0.022900763358778626,0.030534351145038167,190.72517509371565,145.77724367126035,0.007633587786259542,-0.03816793893129771,0.007633587786259542,-82.53798448229604,164.91473382464918,-0.22137404580152673,-0.22137404580152673,-0.2366412213740458,110.62179311051409,98.71026087243132,-0.16030534351145037,-0.12213740458015267,-0.12213740458015267,121.0,99.0,-9.0,-5.0,2.0,89.16,106.76,-2.0,2.0,-2.0,
3.107,-24.328972619383237,22.56720076548426,0.13740458015267176,-0.0,0.0,191.2172531417173,146.20506786074998,0.007633587786259542,-0.03816793893129771,0.007633587786259542,-83.54159123382979,164.82531047862423,-0.22137404580152673,-0.22137404580152673,-0.2366412213740458,93.80526738468507,90.88468140413754,-0.16030534351145037,-0.12213740458015267,-0.12213740458015267,121.0,99.0,-9.0,-5.0,2.0,89.14,106.62,2.0,-13.0,7.0,
3.146,-24.613966783795533,21.7370941829976,0.13740458015267176,-0.0,0.0,191.6355194825187,146.56871842181616,0.007633587786259542,-0.03816793893129771,0.007633587786259542,-84.39465697263348,164.74930063450302,-0.22137404580152673,-0.22137404580152673,-0.2366412213740458,79.60996530597693,84.46179565869846,-0.16030534351145037,-0.12213740458015267,-0.12213740458015267,122.0,97.0,-5.0,-13.0,0.0,89.57,106.28,0.0,-8.0,7.0,
3.185,-24.35574257832476,21.533958352197892,-0.022900763358778626,0.030534351145038167,0.022900763358778626,191.9910458721999,146.8778213987224,0.007633587786259542,-0.03816793893129771,0.007633587786259542,-85.11976285061662,164.68469226699997,-0.22137404580152673,-0.22137404580152673,-0.2366412213740458,67.543958539075,79.00234277507525,-0.16030534351145037,-0.12213740458015267,-0.12213740458015267,122.0,97.0,-5.0,-13.0,0.0,89.74,105.7,-4.0,0.0,-3.0,
3.225,-24.136252003674606,21.361292896018142,-0.022900763358778626,0.030534351145038167,0.022900763358778626,192.2932433034289,147.14055892909272,0.007633587786259542,-0.03816793893129771,0.007633587786259542,-32.277076139917156,165.03749659749514,0.022900763358778626,0.030534351145038167,-0.015267175572519083,57.28785278720838,74.36180782399552,-0.16030534351145037,-0.12213740458015267,-0.12213740458015267,122.0,97.0,-5.0,-13.0,0.0,90.03,105.76,-6.0,0.0,-6.0,
3.264,-23.949685015221974,21.214527258265353,-0.022900763358778626,0.030534351145038167,0.022900763358778626,192.17168208936042,147.32808441958315,0.030534351145038167,-0.0,0.11450381679389313,12.639207564177383,165.33738027841602,0.022900763358778626,0.030534351145038167,-0.015267175572519083,48.570162898121744,70.41735311557774,-0.16030534351145037,-0.12213740458015267,-0.12213740458015267,122.0,97.0,-5.0,-13.0,0.0,90.3,105.89,-7.0,5.0,5.0,
3.303,-23.791103075037235,21.089776466175483,-0.022900763358778626,0.030534351145038167,0.022900763358778626,192.0683550574022,147.48748108650003,0.030534351145038167,-0.0,0.11450381679389313,50.81804871265774,165.59228140719878,0.022900763358778626,0.030534351145038167,-0.015267175572519083,41.283600280038556,67.35338754596522,-0.16030534351145037,-0.12213740458015267,-0.12213740458015267,121.0,98.0,0.0,-2.0,0.0,90.24,105.91,-2.0,-7.0,1.0,
3.341,-23.65630842588021,20.983738292899094,-0.022900763358778626,0.030534351145038167,0.022900763358778626,191.9805270802377,147.62296825337936,0.030534351145038167,-0.0,0.11450381679389313,83.27006368886605,165.8089473666641,0.022900763358778626,0.030534351145038167,-0.015267175572519083,35.09002205466785,64.74901681179458,-0.16030534351145037,-0.12213740458015267,-0.12213740458015267,121.0,98.0,0.0,-3.0,0.0,90.5,105.99,-3.0,1.0,0.0,
3.38,-24.100369975872695,20.350930154815895,0.0,0.030534351145038167,-0.022900763358778626,191.90587329964788,147.7381323452268,0.030534351145038167,-0.0,0.11450381679389313,110.85427641864311,165.99311343220967,0.022900763358778626,0.030534351145038167,-0.015267175572519083,29.82548056310274,62.53530168774954,-0.16030534351145037,-0.12213740458015267,-0.12213740458015267,121.0,98.0,0.0,-3.0,0.0,90.42,105.83,-5.0,0.0,0.0,
3.42,-24.229611042985514,20.09089720547424,0.0,0.030534351145038167,-0.04580152671755725,191.84241758614655,147.83602182329713,0.030534351145038167,-0.0,0.11450381679389313,134.3008572389536,166.14965458792338,0.022900763358778626,0.030534351145038167,-0.015267175572519083,25.350620295272396,60.65364383231126,-0.16030534351145037,-0.12213740458015267,-0.12213740458015267,121.0,98.0,0.0,-3.0,0.0,90.08,105.82,-3.0,0.0,-6.0,
3.459,-24.33946595003141,19.86986919853383,0.0,0.030534351145038167,-0.04580152671755725,191.87958122239036,147.80190690090555,-0.007633587786259542,-0.007633587786259542,0.0,154.23045093621752,166.28271457028004,0.022900763358778626,0.030534351145038167,-0.015267175572519083,21.546989067616604,59.05423465518873,-0.16030534351145037,-0.12213740458015267,-0.12213740458015267,121.0,98.0,0.0,-3.0,0.0,89.83,105.85,-5.0,0.0,-3.0,
3.498,-24.432842621020423,19.681995392634484,0.0,0.030534351145038167,-0.04580152671755725,191.71195225213722,147.62819631993537,-0.015267175572519083,-0.0,0.03816793893129771,171.17060557889187,166.39581555528318,0.022900763358778626,0.030534351145038167,-0.015267175572519083,18.31390252410918,57.69473685463458,-0.16030534351145037,-0.12213740458015267,-0.12213740458015267,121.0,98.0,0.0,-3.0,0.0,89.72,105.9,-4.0,2.0,-2.0,
3.537,-24.512212791361083,19.52230265762004,0.0,0.030534351145038167,-0.04580152671755725,191.56946762742206,147.4805423261107,-0.015267175572519083,-0.0,0.03816793893129771,185.60949404661034,166.5188502088125,0.007633587786259542,0.022900763358778626,-0.030534351145038167,15.565778962127874,56.539163724163544,-0.16030534351145037,-0.12213740458015267,-0.12213740458015267,121.0,98.0,0.0,-3.0,0.0,89.94,106.07,-5.0,2.0,-2.0,
3.576,-24.579677436150643,19.38656383285776,0.0,0.030534351145038167,-0.04580152671755725,191.3104858299407,147.4469862096804,-0.015267175572519083,-0.0,0.03816793893129771,197.882549244171,166.62342966431243,0.007633587786259542,0.022900763358778626,-0.030534351145038167,13.229873934443763,55.55692656326317,-0.16030534351145037,-0.12213740458015267,-0.12213740458015267,121.0,98.0,0.0,-3.0,0.0,89.91,106.01,-4.0,-4.0,-1.0,
3.615,-24.63702238422177,19.271185831809824,0.0,0.030534351145038167,-0.04580152671755725,191.09035130208153,147.41846351071462,-0.015267175572519083,-0.0,0.03816793893129771,208.31464616209757,166.71232220148735,0.007633587786259542,0.022900763358778626,-0.030534351145038167,11.244289775416085,54.72228451848258,-0.1297709923664122,-0.1297709923664122,0.015267175572519083,121.0,98.0,0.0,-3.0,0.0,90.0,105.91,-3.0,0.0,0.0,
3.654,-24.685765590082227,19.17311453091908,0.0,0.030534351145038167,-0.04580152671755725,190.90323695340123,147.3942192165937,-0.015267175572519083,-0.0,0.03816793893129771,216.9436577438488,166.76972500419095,-0.015267175572519083,-0.0,-0.015267175572519083,9.55654324024256,54.01283878041908,-0.1297709923664122,-0.1297709923664122,0.015267175572519083,121.0,98.0,0.0,-3.0,0.0,90.0,105.94,-4.0,1.0,0.0,
3.693,-24.727197315063616,19.089753925161947,0.0,0.030534351145038167,-0.04580152671755725,190.74418975702298,147.37361156659097,-0.015267175572519083,-0.0,0.03816793893129771,224.30028343919062,166.77449040634835,-0.007633587786259542,-0.0,-0.007633587786259542,8.121958685345064,53.4098099030651,-0.1297709923664122,-0.1297709923664122,0.015267175572519083,121.0,98.0,0.0,-3.0,0.0,90.16,106.18,-2.0,-1.0,1.0,
3.732,-24.762414281297797,19.018897410268384,0.0,0.030534351145038167,-0.04580152671755725,190.83770264563128,147.49126159216362,0.0,-0.0,0.022900763358778626,230.55341528023118,166.77854099818214,-0.007633587786259542,-0.0,-0.007633587786259542,6.902561813682191,52.89723535731422,-0.1297709923664122,-0.1297709923664122,0.015267175572519083,121.0,98.0,0.0,-3.0,0.0,90.1,106.12,-2.0,-1.0,1.0,
3.77,-24.659725298366013,19.116314898719995,0.022900763358778626,-0.0,0.0,190.91718860094832,147.5912641139004,0.0,-0.0,0.022900763358778626,235.86857734511565,166.78198400124086,-0.007633587786259542,-0.0,-0.007633587786259542,5.86607447276875,52.461546993425976,-0.1297709923664122,-0.1297709923664122,0.015267175572519083,121.0,98.0,0.0,-3.0,0.0,90.16,105.92,-4.0,4.0,0.0,
3.808,-24.572439662873997,19.199119763903866,0.022900763358778626,-0.0,0.0,190.98475166296782,147.67626625737665,0.0,-0.0,0.022900763358778626,240.38646510026746,166.78491055384077,-0.007633587786259542,-0.0,-0.007633587786259542,4.909005873768204,51.93214894857995,-0.1297709923664122,-0.1297709923664122,0.015267175572519083,123.0,100.0,-2.0,-6.0,0.0,90.31,105.86,-4.0,3.0,0.0,
3.847,-24.49824687270578,19.269503899310156,0.022900763358778626,-0.0,0.0,191.04218026568438,147.74851807933146,0.0,-0.0,0.022900763358778626,244.2266696921465,166.7873981235507,-0.007633587786259542,-0.0,-0.007633587786259542,4.095354219496491,51.4883215531629,-0.15267175572519084,-0.10687022900763359,0.0,123.0,100.0,-2.0,-6.0,0.0,90.55,106.07,-4.0,2.0,-2.0,
3.885,-24.43586679068223,19.090880962939252,0.022900763358778626,-0.0,-0.007633587786259542,191.09099457799346,147.80993212799305,0.0,-0.0,0.022900763358778626,247.49084359524366,166.78951255780413,-0.007633587786259542,-0.0,-0.007633587786259542,3.403750313365535,51.1110682670584,-0.15267175572519084,-0.10687022900763359,0.0,123.0,100.0,-2.0,-6.0,0.0,90.52,106.14,-3.0,2.0,1.0,
3.924,-24.430402180314225,19.1105154812342,0.022900763358778626,-0.0,-0.015267175572519083,191.13248674345618,147.8621340693554,0.0,-0.0,0.022900763358778626,250.26539141287626,166.79130982691956,-0.007633587786259542,-0.0,-0.007633587786259542,2.815886993154222,50.790402973869575,-0.15267175572519084,-0.10687022900763359,0.0,123.0,100.0,-2.0,-6.0,0.0,90.57,106.18,-2.0,1.0,-2.0,
3.963,-24.44266125689511,19.118743563766085,0.030534351145038167,-0.0,-0.022900763358778626,191.1677550840995,147.9065057195134,0.0,-0.0,0.022900763358778626,252.62375705786397,166.79283750566768,-0.007633587786259542,-0.0,-0.007633587786259542,2.316203170974606,50.517837474659075,-0.15267175572519084,-0.10687022900763359,0.0,123.0,100.0,-2.0,-6.0,0.0,90.73,106.15,-4.0,1.0,-2.0,
4.002,-24.453081471988863,19.125737433918186,0.030534351145038167,-0.0,-0.022900763358778626,191.19773317364633,147.9442216221477,0.0,-0.0,0.022900763358778626,254.62836785610352,166.79413603260357,-0.007633587786259542,-0.0,-0.007633587786259542,1.8971303497636016,50.243087687865994,-0.16030534351145037,-0.10687022900763359,0.0,123.0,100.0,-2.0,-6.0,0.0,90.77,106.02,-3.0,4.0,-2.0,
4.041,-24.41474312747671,19.160220157288094,0.022900763358778626,0.007633587786259542,0.0,191.2232145497611,147.97628013938686,0.0,-0.0,0.022900763358778626,256.33228703460713,166.7952397804991,-0.007633587786259542,-0.0,-0.007633587786259542,1.540918451734248,50.00955036909187,-0.16030534351145037,-0.10687022900763359,0.0,123.0,100.0,-2.0,-6.0,0.0,90.92,106.24,-4.0,0.0,0.0,
4.08,-24.382155534641385,19.189530472152516,0.022900763358778626,0.007633587786259542,0.0,191.2448737194587,148.00352987904014,0.0,-0.0,0.022900763358778626,257.81089980742547,166.89756824212196,0.007633587786259542,-0.0,0.0,1.2381383384092974,49.81104364813386,-0.16030534351145037,-0.10687022900763359,0.0,123.0,100.0,-2.0,-6.0,0.0,91.02,106.14,-3.0,1.0,0.0,
4.118,-24.354456080731353,19.214444239787273,0.022900763358778626,0.007633587786259542,0.0,191.31214824152943,148.04029937354267,0.0,-0.0,0.0,259.06772066432103,166.98454743450142,0.007633587786259542,-0.0,0.0,0.9807752420830895,49.64231293531955,-0.16030534351145037,-0.10687022900763359,0.0,123.0,100.0,-2.0,-6.0,0.0,91.07,106.13,-3.0,-1.0,-1.0,
4.157,-24.356113851982748,19.14697064180658,0.022900763358778626,-0.0,-0.007633587786259542,191.36933158528956,148.07155344386982,0.0,-0.0,0.0,260.1360183926823,167.05847974802396,0.007633587786259542,-0.0,0.0,0.7620166102058128,49.49889182942739,-0.16030534351145037,-0.10687022900763359,0.0,123.0,100.0,-2.0,-6.0,0.0,91.15,106.1,-4.0,2.0,-2.0,
4.195,-24.35752295754643,19.08961808352299,0.022900763358778626,-0.0,-0.007633587786259542,191.38826891898597,148.14624562993487,0.0,-0.0,-0.007633587786259542,261.0440714617893,167.1213222145181,0.007633587786259542,-0.0,0.0,0.5760717731101276,49.376983889419066,-0.16030534351145037,-0.10687022900763359,0.0,123.0,100.0,-2.0,-6.0,0.0,91.26,106.04,-3.0,0.0,0.0,
4.234,-24.358720697275558,19.04086840898194,0.022900763358778626,-0.0,-0.007633587786259542,191.40436565262792,148.2097339880902,0.0,-0.0,-0.007633587786259542,261.8159165705303,167.17473831103814,0.007633587786259542,-0.0,0.0,0.41824365624091914,49.29954984920799,-0.1450381679389313,-0.11450381679389313,0.0,123.0,100.0,-2.0,-6.0,0.0,91.33,106.07,-4.0,1.0,0.0,
4.272,-24.35242031748717,19.100182141413715,0.015267175572519083,-0.0,-0.015267175572519083,191.41804787622357,148.2636990925222,0.0,-0.0,-0.007633587786259542,262.4719849129602,167.22014199308018,0.007633587786259542,-0.0,0.0,0.284089756902092,49.23373091502858,-0.1450381679389313,-0.11450381679389313,0.0,123.0,100.0,-2.0,-6.0,0.0,91.45,106.2,-3.0,0.0,-2.0,
4.311,-24.34706499466704,19.150598813980725,0.015267175572519083,-0.0,-0.015267175572519083,191.4296777662799,148.3095694312894,0.0,-0.0,-0.007633587786259542,263.0364697169331,167.26508880486983,0.0,-0.0,-0.015267175572519083,0.17005894246408892,49.17778482097608,-0.1450381679389313,-0.11450381679389313,0.0,123.0,100.0,-2.0,-6.0,0.0,91.51,106.27,-4.0,0.0,-2.0,
4.35,-24.34251297026993,19.193452985662685,0.015267175572519083,-0.0,-0.015267175572519083,191.43956317282777,148.3485592192415,0.0,-0.0,-0.007633587786259542,263.5162818003101,167.30329359489104,0.0,-0.0,-0.015267175572519083,0.10835418511643369,49.215015598445426,-0.1450381679389313,-0.11450381679389313,0.0,123.0,99.0,-1.0,-6.0,-1.0,91.57,106.38,-4.0,-1.0,0.0,
4.389,-24.338643749532384,19.22987903159235,0.015267175572519083,-0.0,-0.015267175572519083,191.44796576839346,148.3817005390008,0.0,-0.0,-0.007633587786259542,263.9070608850236,167.3018474860124,0.0,-0.0,0.0,0.05590514137092672,49.24666175929437,-0.1450381679389313,-0.11450381679389313,0.0,123.0,99.0,-1.0,-6.0,-1.0,91.5,106.3,-3.0,-1.0,0.0,
4.428,-24.335354911905473,19.260841170632563,0.015267175572519083,-0.0,-0.015267175572519083,191.4551079746243,148.40987066079623,0.0,-0.0,-0.007633587786259542,264.2664705641509,167.2980657615338,0.0,-0.0,-0.007633587786259542,0.011323454187245799,49.27356099601597,-0.1450381679389313,-0.11450381679389313,0.0,123.0,99.0,-1.0,-6.0,-1.0,91.45,106.2,-4.0,0.0,-2.0,
4.467,-24.332559399922598,19.287158988816746,0.015267175572519083,-0.0,-0.015267175572519083,191.46117884992051,148.43381526432233,0.0,-0.0,-0.007633587786259542,264.57196879140906,167.29485129572697,0.0,-0.0,-0.007633587786259542,-0.027074316240470336,49.29043039861551,-0.13740458015267176,-0.12213740458015267,0.0,123.0,99.0,-1.0,-6.0,-1.0,91.49,106.25,-4.0,0.0,-1.0,
4.506,-24.35729438526496,19.286492256639647,0.015267175572519083,0.007633587786259542,0.007633587786259542,191.4663390939223,148.4541681773195,0.0,-0.0,-0.007633587786259542,264.8316422845785,167.29211899979117,0.0,-0.0,-0.007633587786259542,-0.05971242110402905,49.30476939082512,-0.13740458015267176,-0.12213740458015267,0.0,123.0,99.0,-1.0,-6.0,-1.0,91.46,106.35,-4.0,0.0,0.0,
4.545,-24.337862044746977,19.29356277931617,0.015267175572519083,-0.0,0.0,191.4707253013238,148.4714681533671,0.0,-0.0,-0.007633587786259542,265.0523647537725,167.28979654824576,0.0,-0.0,-0.007633587786259542,-0.08745481023805396,49.31695753420329,-0.13740458015267176,-0.12213740458015267,0.0,123.0,99.0,-1.0,-6.0,-1.0,91.54,106.38,-4.0,0.0,-1.0,
4.583,-24.32134455530669,19.316423373956326,0.022900763358778626,-0.0,0.0,191.47445357761507,148.48617313300758,0.0,-0.0,-0.007633587786259542,265.23997885258746,167.28782246443217,0.0,-0.0,-0.007633587786259542,-0.11103584100197512,49.32731745607473,-0.13740458015267176,-0.12213740458015267,0.0,123.0,99.0,-1.0,-6.0,-1.0,91.68,106.31,-3.0,0.0,0.0,
4.621,-24.334566343173574,19.34603336912279,0.022900763358778626,-0.0,0.0,191.47762261246265,148.49867236570196,0.0,-0.0,-0.007633587786259542,265.3994508365802,167.2861444931906,0.0,-0.0,-0.007633587786259542,-0.13107971715130812,49.33612338966546,-0.13740458015267176,-0.12213740458015267,0.0,123.0,99.0,-1.0,-6.0,-1.0,91.7,106.22,-3.0,0.0,-1.0,
4.66,-24.345804862860426,19.371201865014285,0.022900763358778626,-0.0,0.0,191.4803162920831,148.5092967134922,0.0,-0.0,-0.007633587786259542,265.53500202297397,167.28471821763526,0.0,-0.0,-0.007633587786259542,-0.1473273159753584,49.33397633256566,-0.1450381679389313,-0.11450381679389313,0.0,123.0,99.0,-1.0,-6.0,-1.0,91.77,106.23,-4.0,-1.0,0.0,
4.699,-24.35535760459425,19.392595086522054,0.022900763358778626,-0.0,0.0,191.4826059197605,148.5183274091139,0.0,-0.0,-0.007633587786259542,265.61385691922254,167.28188760628095,0.0,-0.0,-0.007633587786259542,-0.16113777497580112,49.33215133403083,-0.1450381679389313,-0.11450381679389313,0.0,123.0,99.0,-1.0,-6.0,-1.0,91.78,106.19,-4.0,1.0,-1.0,
4.738,-24.363477435068,19.41077932480366,0.022900763358778626,-0.0,0.0,191.48455210328626,148.52600350039236,0.0,-0.0,-0.007633587786259542,265.6808835810338,167.27948158662977,0.0,-0.0,-0.007633587786259542,-0.17360147553287703,49.34807151809663,-0.1450381679389313,-0.11450381679389313,0.0,123.0,99.0,-1.0,-6.0,-1.0,91.79,106.3,-4.0,0.0,-2.0,
4.777,-24.370379290970686,19.426235927343022,0.022900763358778626,-0.0,0.0,191.4862063592832,148.53252817797903,0.0,-0.0,-0.007633587786259542,265.7401983727729,167.29031930420282,0.0,-0.0,0.0,-0.18419562100639153,49.36160367455256,-0.1450381679389313,-0.11450381679389313,0.0,123.0,99.0,-1.0,-6.0,-1.0,91.78,106.39,-4.0,0.0,0.0,
4.815,-24.360766774281835,19.442641942465333,0.022900763358778626,-0.0,0.0,191.48761247688057,148.5380741539277,0.0,-0.0,-0.007633587786259542,265.79061594575114,167.29953136413994,0.0,-0.0,0.0,-0.19320064465887887,49.3731060075401,-0.1450381679389313,-0.11450381679389313,0.0,123.0,99.0,-1.0,-6.0,-1.0,91.81,106.34,-4.0,-1.0,0.0,
4.854,-24.364390911133427,19.419929240526333,0.022900763358778626,-0.0,0.0,191.48880767683835,148.5427882334841,0.0,-0.0,-0.007633587786259542,265.83347088278265,167.30736161508648,0.0,-0.0,0.0,-0.2008549147634931,49.38288299057951,-0.1450381679389313,-0.11450381679389313,0.0,123.0,99.0,-1.0,-6.0,-1.0,91.76,106.28,-5.0,-1.0,-1.0,
4.893,-24.367471427457282,19.400623443878185,0.022900763358778626,-0.0,0.0,191.48982359680244,148.54679520110702,0.0,-0.0,-0.007633587786259542,265.86989757925943,167.31401732839103,0.0,-0.0,0.0,-0.24302088536639477,49.308247515719515,-0.1450381679389313,-0.11450381679389313,0.0,123.0,99.0,-2.0,-6.0,0.0,91.74,106.36,-4.0,0.0,-2.0,
4.932,-24.370089866332556,19.384213516727257,0.022900763358778626,-0.0,0.0,191.49068712877192,148.5502011235865,0.0,-0.0,-0.007633587786259542,265.9008602712647,167.31967468469992,0.0,-0.0,0.0,-0.2762945192088091,49.19872399668207,-0.15267175572519084,-0.11450381679389313,0.0,123.0,99.0,-2.0,-6.0,0.0,91.76,106.37,-4.0,0.0,-1.0,
4.97,-24.372315539376537,19.37026507864897,0.022900763358778626,-0.0,0.0,191.49142113094598,148.55309615769409,0.0,-0.0,-0.007633587786259542,265.9271785594692,167.32448343756246,0.0,-0.0,0.0,-0.3049180999681001,49.111412028399435,-0.1450381679389313,-0.12213740458015267,0.0,123.0,99.0,-2.0,-6.0,0.0,91.76,106.29,-3.0,-2.0,0.0,
5.008,-24.337953894206805,19.40489165449486,0.015267175572519083,0.007633587786259542,0.015267175572519083,191.49204503279392,148.5555569366855,0.0,-0.0,-0.007633587786259542,265.949549104443,167.32857087749562,0.0,-0.0,0.0,-0.32924814361349747,49.0371968553592,-0.1450381679389313,-0.12213740458015267,0.0,123.0,99.0,-2.0,-6.0,0.0,91.78,106.2,-4.0,-1.0,-1.0,
5.047,-24.30874649581253,19.434324243963868,0.015267175572519083,0.007633587786259542,0.015267175572519083,191.4925753493647,148.55764859882822,0.0,-0.0,-0.007633587786259542,265.96856406767074,167.3320452014388,0.0,-0.0,0.0,-0.3528168153380668,48.98962236597585,-0.13740458015267176,-0.12213740458015267,0.0,123.0,99.0,-2.0,-6.0,0.0,91.74,106.13,-5.0,0.0,0.0,
5.085,-24.2839202071774,19.459341945012525,0.015267175572519083,0.007633587786259542,0.015267175572519083,191.4878553127172,148.5148073482696,0.0,-0.0,0.007633587786259542,265.98472678641434,167.3349983767905,0.0,-0.0,0.0,-0.3728501863039507,48.94918405,-0.13740458015267176,-0.12213740458015267,0.0,123.0,99.0,-2.0,-6.0,0.0,91.66,106.17,-4.0,-1.0,-1.0,
5.124,-24.262817861837537,19.480606990903883,0.015267175572519083,0.007633587786259542,0.015267175572519083,191.4838432815668,148.4783922852948,0.0,-0.0,0.007633587786259542,265.99846509734635,167.33750857583945,0.0,-0.0,0.0,-0.38783220421787684,48.91474659592435,-0.1450381679389313,-0.12213740458015267,0.0,123.0,99.0,-2.0,-6.0,0.0,91.57,106.21,-4.0,0.0,0.0,
5.163,-24.244880868298655,19.498682279911538,0.015267175572519083,0.007633587786259542,0.015267175572519083,191.48043305508898,148.4474394817662,0.0,-0.0,0.007633587786259542,266.0089739188705,167.3200497826802,0.0,-0.0,0.0,-0.40056691944471406,48.88547475996004,-0.1450381679389313,-0.12213740458015267,0.0,123.0,99.0,-2.0,-6.0,0.0,91.58,106.11,-4.0,-2.0,0.0,
5.202,-24.229634423790603,19.514046275568045,0.015267175572519083,0.007633587786259542,0.015267175572519083,191.47753436258282,148.4211295987669,0.0,-0.0,0.007633587786259542,265.99723335863797,167.31028833684044,0.0,-0.0,0.0,-0.4113914273875257,48.86059369939038,-0.1450381679389313,-0.12213740458015267,0.0,123.0,99.0,-2.0,-6.0,0.0,91.6,106.17,-5.0,0.0,-2.0,
5.24,-24.21667494595876,19.527105671876075,0.015267175572519083,0.007633587786259542,0.015267175572519083,191.4750704739526,148.3987661982175,0.0,-0.0,0.007633587786259542,266.025537159897,167.31987268765874,0.0,-0.0,0.0,-0.42059225913891557,48.83944479790617,-0.1450381679389313,-0.12213740458015267,0.0,123.0,99.0,-2.0,-6.0,0.0,91.57,106.25,-4.0,0.0,0.0,
5.279,-24.205659389801696,19.5382061587379,0.015267175572519083,0.007633587786259542,0.015267175572519083,191.4729761686169,148.37975730775048,0.0,-0.0,0.007633587786259542,266.04959539096717,167.3280193858543,0.0,-0.0,0.0,-0.4298625135816871,48.84632505194717,-0.1450381679389313,-0.12213740458015267,0.0,123.0,99.0,-2.0,-6.0,0.0,91.63,106.23,-4.0,-1.0,0.0,
5.317,-24.19629616706819,19.547641572570452,0.015267175572519083,0.007633587786259542,0.015267175572519083,191.4485196317919,148.30140931629848,0.0,-0.0,0.0,266.0700448873768,167.33494407932054,0.0,-0.0,0.0,-0.43774222985804284,48.85217326788202,-0.1450381679389313,-0.12213740458015267,0.0,123.0,99.0,-2.0,-6.0,0.0,91.63,106.18,-5.0,0.0,0.0,
5.356,-24.18917835570368,19.4594658218038,0.015267175572519083,0.007633587786259542,0.007633587786259542,191.42773157549064,148.2348135235643,0.0,-0.0,0.0,266.087426959325,167.34083006876685,0.0,-0.0,0.0,-0.44443998869294526,48.85714425142665,-0.1450381679389313,-0.12213740458015267,0.0,123.0,99.0,-2.0,-6.0,0.0,91.68,106.25,-5.0,0.0,-1.0,
5.395,-24.185167878129363,19.433397358232245,0.015267175572519083,-0.0,0.0,191.41006172763457,148.17820709974023,0.0,-0.0,0.0,266.10220172048093,167.3458331597962,0.0,-0.0,0.0,-0.4501330837026123,48.861369587439576,-0.1450381679389313,-0.12213740458015267,0.0,123.0,99.0,-2.0,-6.0,0.0,91.65,106.3,-5.0,0.0,-1.0,
5.432,-24.19674933801651,19.403688684531414,0.022900763358778626,0.007633587786259542,0.0,191.3950423569569,148.13009163948976,0.0,-0.0,0.0,266.1147602674635,167.35008578717114,0.0,-0.0,0.0,-0.4549722144608293,48.86496112305057,-0.1450381679389313,-0.12213740458015267,0.0,123.0,99.0,-2.0,-6.0,0.0,91.59,106.3,-5.0,-1.0,-1.0,
5.471,-24.206593578920586,19.378436311885707,0.022900763358778626,0.007633587786259542,0.0,191.3822758918809,148.08919349827687,0.0,-0.0,0.0,266.1254350323987,167.35370052043984,0.0,-0.0,0.0,-0.49474286103151544,48.78522432308122,-0.1450381679389313,-0.12213740458015267,0.0,123.0,99.0,-3.0,-5.0,0.0,91.66,106.3,-5.0,0.0,-1.0,
5.51,-24.262754913161668,19.39085231156343,0.022900763358778626,-0.0,0.0,191.3714243965663,148.05443007824593,0.0,-0.0,0.0,266.1345085825936,167.35677304371825,0.0,-0.0,0.0,-0.5285479106165987,48.71744804310728,-0.1450381679389313,-0.12213740458015267,0.0,123.0,99.0,-3.0,-5.0,0.0,91.66,106.27,-6.0,0.0,0.0,
5.548,-24.31049204726659,19.401405911289498,0.022900763358778626,-0.0,0.0,191.3622006255489,148.02488117121962,0.0,-0.0,0.0,266.14222110025923,167.3593846885049,0.0,-0.0,0.0,-0.55772789933235,48.581991841398654,-0.1450381679389313,-0.12213740458015267,0.0,123.0,99.0,-3.0,-5.0,0.0,91.55,106.26,-6.0,1.0,-2.0,
5.587,-24.35106861125577,19.410376471056654,0.022900763358778626,-0.0,0.0,191.3543604201841,147.99976460024726,0.0,-0.0,0.0,266.2249518303566,167.3649795572499,0.0,-0.0,0.0,-0.5825308897407386,48.466854069946315,-0.1450381679389313,-0.12213740458015267,0.0,123.0,99.0,-3.0,-5.0,0.0,91.56,106.19,-4.0,-1.0,0.0,
5.625,-24.385558690646572,19.41800144685874,0.022900763358778626,-0.0,0.0,191.347696245624,147.97841551492075,0.0,-0.0,0.0,266.2952729509393,167.36973519568318,0.0,-0.0,0.0,-0.5993168929582635,48.42953225463821,-0.1450381679389313,-0.12213740458015267,0.0,123.0,99.0,-3.0,-5.0,0.0,91.58,106.05,-5.0,0.0,0.0,
5.664,-24.414875258128756,19.42448267629051,0.022900763358778626,-0.0,0.0,191.34203169724793,147.9602687923932,0.0,-0.0,0.0,266.35504590343464,167.37377748835144,0.0,-0.0,0.0,-0.6178815343227652,48.36293702094838,-0.1450381679389313,-0.12213740458015267,0.0,123.0,99.0,-3.0,-5.0,0.0,91.59,105.99,-5.0,0.0,-1.0,
5.703,-24.363816728507924,19.45621836209848,0.03816793893129771,0.03816793893129771,0.007633587786259542,191.33721683112827,147.9448440782448,0.0,-0.0,0.0,266.4058529130557,167.37721343711945,0.0,-0.0,0.0,-0.6336614794825915,48.30633107231202,-0.1450381679389313,-0.12213740458015267,0.0,123.0,99.0,-3.0,-5.0,0.0,91.57,105.96,-5.0,-1.0,-1.0,
5.741,-24.32041697833022,19.483193695035254,0.03816793893129771,0.03816793893129771,0.007633587786259542,191.33138620365872,147.97412306813206,0.0,-0.0,0.007633587786259542,266.4490388712336,167.3801339935723,0.0,-0.0,0.0,-0.6470744328684439,48.258216015971115,-0.1450381679389313,-0.12213740458015267,0.0,123.0,99.0,-3.0,-5.0,0.0,91.49,105.81,-4.0,0.0,0.0,
5.78,-24.283527190679166,19.506122728031514,0.03816793893129771,0.03816793893129771,0.007633587786259542,191.3264301703096,147.9990102095362,0.0,-0.0,0.007633587786259542,266.4857469356848,167.38261646655718,0.0,-0.0,0.0,-0.657522847487753,48.23925637363194,-0.1450381679389313,-0.11450381679389313,0.0,123.0,99.0,-3.0,-5.0,0.0,91.51,105.7,-3.0,1.0,0.0,
5.818,-24.252170871175775,19.525612406078334,0.03816793893129771,0.03816793893129771,0.007633587786259542,191.32221754196286,148.02016427972973,0.0,-0.0,0.007633587786259542,266.5169487904683,167.38472656859435,0.0,-0.0,0.0,-0.668651363216528,48.229760633994104,-0.1450381679389313,-0.11450381679389313,0.0,123.0,99.0,-3.0,-5.0,0.0,91.42,105.52,-4.0,0.0,-2.0,
5.856,-24.13121744237998,19.377340807192,0.0,-0.007633587786259542,0.0,191.31863680786813,148.03814523939423,0.0,-0.0,0.007633587786259542,266.5434703670343,167.38652015532594,0.0,-0.0,0.0,-0.6781106015859867,48.221689255301946,-0.1450381679389313,-0.11450381679389313,0.0,123.0,99.0,-3.0,-5.0,0.0,91.39,105.52,-4.0,5.0,-6.0,
5.895,-24.028407027903555,19.251309948138612,0.0,-0.007633587786259542,0.0,191.32602816362254,148.06335155139277,0.0,-0.0,0.0,266.56601370711536,167.3880447040478,0.0,-0.0,0.0,-0.6861509542000266,48.214828583413606,-0.1450381679389313,-0.11450381679389313,0.0,123.0,99.0,-3.0,-5.0,0.0,91.5,105.67,-5.0,5.0,-7.0,
5.933,-23.941018175598593,19.144183717943232,0.0,-0.007633587786259542,0.0,191.33231081601377,148.08477691659152,0.0,-0.0,0.0,266.5796292970641,167.35462559239411,0.0,-0.007633587786259542,-0.022900763358778626,-0.6929852539219604,48.20899701230852,-0.1450381679389313,-0.11450381679389313,0.0,123.0,99.0,-3.0,-5.0,0.0,91.75,105.98,-4.0,9.0,-9.0,
5.972,-23.89490903138022,19.238014290096416,0.022900763358778626,-0.015267175572519083,0.0,191.33765107054631,148.10298847701046,0.0,-0.0,0.0,266.5912025485205,167.3262193474885,0.0,-0.007633587786259542,-0.022900763358778626,-0.6987944086856043,48.2040401768692,-0.1450381679389313,-0.11450381679389313,0.0,123.0,99.0,-3.0,-5.0,0.0,91.79,106.56,-5.0,0.0,0.0,
6.011,-23.8557162587946,19.31777027642662,0.022900763358778626,-0.015267175572519083,0.0,191.34219028689898,148.11846830336657,0.0,-0.0,0.0,266.58915678693785,167.31324052030948,0.0,-0.0,-0.007633587786259542,-0.7037321902347015,48.199826866745774,-0.1450381679389313,-0.11450381679389313,0.0,123.0,99.0,-3.0,-5.0,0.0,91.06,106.22,-1.0,-14.0,7.0,
6.049,-23.915535007984598,19.329114178585815,0.015267175572519083,-0.0,0.0,191.34604862079874,148.13162615576925,0.0,-0.0,0.0,266.5874178895926,167.3022085172073,0.0,-0.0,-0.007633587786259542,-0.7079293045514341,48.19624555314086,-0.1450381679389313,-0.11450381679389313,0.0,123.0,99.0,-3.0,-5.0,0.0,91.24,105.82,-3.0,-10.0,6.0,
6.088,-23.966380944796093,19.33875649542113,0.015267175572519083,-0.0,0.0,191.34932820461358,148.14281033031153,0.0,-0.0,0.0,266.4973271425452,167.3381333256737,0.0,-0.0,0.0,-0.7114968517206568,48.193201436576686,-0.1450381679389313,-0.11450381679389313,0.0,123.0,99.0,-3.0,-5.0,0.0,91.28,105.38,-7.0,4.0,1.0,
6.127,-24.009599991085864,19.346952464731146,0.015267175572519083,-0.0,0.0,191.3521158508562,148.15231687867248,0.0,-0.0,0.0,266.41169797715094,167.35327586677968,-0.007633587786259542,-0.0,0.0,-0.7145292668144961,48.19061393749714,-0.1450381679389313,-0.11450381679389313,0.0,123.0,99.0,-3.0,-5.0,0.0,91.34,105.32,-3.0,1.0,0.0,
6.165,-24.04633618043217,19.353919038644662,0.015267175572519083,-0.0,0.0,191.3544853501624,148.16039744477928,0.0,-0.0,0.0,266.3389131865658,167.36614702671977,-0.007633587786259542,-0.0,0.0,-0.6808477563774793,48.279034949120984,-0.1450381679389313,-0.11450381679389313,0.0,123.0,99.0,-2.0,-8.0,0.0,91.38,105.47,-2.0,-3.0,0.0,
6.203,-24.07756194137653,19.35984062647115,0.015267175572519083,-0.0,0.0,191.3564994245727,148.16726592597004,0.0,-0.0,0.0,266.2770461145684,167.37708751266885,-0.007633587786259542,-0.0,0.0,-0.615956827221256,48.44501837325859,-0.1450381679389313,-0.11450381679389313,0.0,123.0,100.0,-1.0,-7.0,0.0,91.43,105.4,-1.0,-3.0,2.0,
6.242,-24.104103838179235,19.364873976123665,0.015267175572519083,-0.0,0.0,191.34436498898384,148.30780457585087,-0.007633587786259542,-0.0,0.0,266.22445910337063,167.38638692572556,-0.007633587786259542,-0.0,0.0,-0.5607995374384662,48.586104283775555,-0.1450381679389313,-0.11450381679389313,0.0,123.0,100.0,-1.0,-7.0,0.0,91.11,105.32,1.0,-4.0,0.0,
6.28,-24.096506356764266,19.124564321893835,0.030534351145038167,-0.0,-0.022900763358778626,191.33405071873332,148.42726242824955,-0.007633587786259542,-0.0,0.0,266.17976014385255,167.39429142682377,-0.007633587786259542,-0.0,0.0,-0.5139158411230949,48.706027307714976,-0.1450381679389313,-0.11450381679389313,0.0,123.0,100.0,-1.0,-7.0,0.0,91.23,105.36,-2.0,-1.0,-3.0,
6.319,-24.09004849756154,18.92030111579848,0.030534351145038167,-0.0,-0.022900763358778626,191.3252835890204,148.52880160278843,-0.007633587786259542,-0.0,0.0,266.11860197274405,167.30705410002207,0.022900763358778626,-0.0,-0.030534351145038167,-0.4740646992550292,48.80796187806348,-0.1450381679389313,-0.11450381679389313,0.0,123.0,100.0,-1.0,-7.0,0.0,91.27,105.49,-2.0,1.0,-5.0,
6.358,-24.084559317239226,18.746677390617428,0.030534351145038167,-0.0,-0.022900763358778626,191.31783152876437,148.61510990114647,-0.007633587786259542,-0.0,0.0,266.17831156313946,167.2973647340748,0.030534351145038167,0.007633587786259542,-0.022900763358778626,-0.44019122866717336,48.89460626285971,-0.1450381679389313,-0.11450381679389313,0.0,123.0,100.0,-1.0,-7.0,0.0,91.32,105.84,-3.0,0.0,-3.0,
6.397,-24.079893513965256,18.599097224213537,0.030534351145038167,-0.0,-0.022900763358778626,191.31149727754678,148.6884719547508,-0.007633587786259542,-0.0,0.0,266.2651926738205,167.3583712367765,0.022900763358778626,0.007633587786259542,-0.015267175572519083,-0.41139877866749586,48.96825398993651,-0.1450381679389313,-0.11450381679389313,0.0,123.0,100.0,-1.0,-7.0,0.0,91.39,106.1,-2.0,0.0,-3.0,
6.436,-23.98845144847833,18.992425437612965,0.030534351145038167,-0.0,-0.015267175572519083,191.3061131640118,148.7508297003145,-0.007633587786259542,-0.0,0.0,266.33904161789934,167.41022676407295,0.022900763358778626,0.007633587786259542,-0.015267175572519083,-0.38692519616777,49.030854557951784,-0.1450381679389313,-0.11450381679389313,0.0,123.0,100.0,-1.0,-7.0,0.0,91.61,106.27,-2.0,-1.0,0.0,
6.475,-23.91072569281444,19.32675441900248,0.030534351145038167,-0.0,-0.015267175572519083,191.28725383220407,148.40116232539347,0.0,-0.0,-0.007633587786259542,266.40181322036636,167.45430396227493,0.022900763358778626,0.007633587786259542,-0.015267175572519083,-0.366122651043003,49.08406504076477,-0.1450381679389313,-0.11450381679389313,0.0,123.0,100.0,-1.0,-7.0,0.0,91.54,106.3,-3.0,-2.0,-1.0,
6.514,-23.844658800500138,19.610934053183566,0.030534351145038167,-0.0,-0.015267175572519083,191.2712234001675,148.1039450567106,0.0,-0.0,-0.007633587786259542,266.4551690824633,167.49176958074662,0.022900763358778626,0.007633587786259542,-0.015267175572519083,-0.3468969543254019,49.104573699468645,-0.13740458015267176,-0.12213740458015267,0.0,123.0,100.0,-1.0,-7.0,0.0,91.59,106.33,-3.0,-2.0,-2.0,
6.553,-23.78850194203298,19.85248674223749,0.030534351145038167,-0.0,-0.015267175572519083,191.2575975329364,147.85131037833014,0.0,-0.0,-0.007633587786259542,266.4130746957473,167.46541949047844,0.0,-0.0,0.0,-0.330555112115441,49.12200605936694,-0.13740458015267176,-0.12213740458015267,0.0,123.0,100.0,-1.0,-7.0,0.0,91.44,106.38,-5.0,0.0,-3.0,
6.592,-23.740768612335895,20.057806527933327,0.030534351145038167,-0.0,-0.015267175572519083,191.32838344631486,147.91927729045852,-0.007633587786259542,-0.0,0.022900763358778626,266.37729446703867,167.44302191375047,0.0,-0.0,0.0,-0.31666454623697415,49.13682356528049,-0.13740458015267176,-0.12213740458015267,0.0,123.0,100.0,-1.0,-7.0,0.0,91.38,106.49,-4.0,0.0,-2.0,
6.631,-23.70019528209337,20.232328345774786,0.030534351145038167,-0.0,-0.015267175572519083,191.38855147268657,147.97704916576765,-0.007633587786259542,-0.0,0.022900763358778626,266.3468812726363,167.4239839735317,0.0,-0.0,0.0,-0.30485756524027735,49.149418445307,-0.13740458015267176,-0.12213740458015267,0.0,124.0,100.0,-1.0,-6.0,-1.0,91.42,106.61,-5.0,0.0,-2.0,
6.669,-23.665707951387226,20.380671890940025,0.030534351145038167,-0.0,-0.015267175572519083,191.43969429510253,148.0261552597804,-0.007633587786259542,-0.0,0.022900763358778626,266.3210300573943,167.40780172434575,0.0,-0.0,0.0,-0.2948216313930851,49.160124093329536,-0.13740458015267176,-0.12213740458015267,0.0,124.0,100.0,-1.0,-6.0,-1.0,91.15,106.63,-5.0,0.0,0.0,
6.708,-23.636393720287003,20.50676390433048,0.030534351145038167,-0.0,-0.015267175572519083,191.48316569415607,148.06789543969126,-0.007633587786259542,-0.0,0.022900763358778626,266.2990565244386,167.39404681253768,0.0,-0.0,0.0,-0.2862910876229717,49.16922389414869,-0.13740458015267176,-0.12213740458015267,0.0,124.0,100.0,-1.0,-7.0,-1.0,91.17,106.67,-5.0,0.0,0.0,
6.747,-23.611476623851814,20.613942115712366,0.030534351145038167,-0.0,-0.015267175572519083,191.5201163833516,148.10337459261547,-0.007633587786259542,-0.0,0.022900763358778626,266.30817499025204,167.38769974622457,0.0,-0.0,0.0,-0.2790401254183753,49.17695872484498,-0.13740458015267176,-0.12213740458015267,0.0,124.0,100.0,-1.0,-7.0,-1.0,91.31,106.44,-6.0,-1.0,0.0,
6.786,-23.590297091881904,20.705043595386968,0.030534351145038167,-0.0,-0.015267175572519083,191.5515244691678,148.13353187260105,-0.007633587786259542,-0.0,0.022900763358778626,266.0361377078887,167.29847383841425,-0.007633587786259542,0.015267175572519083,-0.007633587786259542,-0.27287680754446836,49.18353333093682,-0.13740458015267176,-0.12213740458015267,0.0,124.0,100.0,-1.0,-7.0,-1.0,91.37,106.25,0.0,0.0,-4.0,
6.825,-23.57229448970748,20.78247985311038,0.030534351145038167,-0.0,-0.015267175572519083,191.57822134211156,148.1591655605888,-0.007633587786259542,-0.0,0.022900763358778626,265.8049060178799,167.22263181677548,-0.007633587786259542,0.015267175572519083,-0.007633587786259542,-0.37159027285201424,48.844086910380874,-0.13740458015267176,-0.12213740458015267,0.0,123.0,100.0,-4.0,-6.0,1.0,91.46,106.52,-6.0,5.0,-3.0,
6.864,-23.55699227785922,20.84830067217528,0.030534351145038167,-0.0,-0.015267175572519083,191.60091368411378,148.1809541953784,-0.007633587786259542,-0.0,0.022900763358778626,265.6083590813724,167.15816609838254,-0.007633587786259542,0.015267175572519083,-0.007633587786259542,-0.4442694416638411,45.47442887137108,-0.12213740458015267,-0.1297709923664122,0.007633587786259542,123.0,100.0,-4.0,-6.0,1.0,91.6,106.19,-2.0,-7.0,9.0,
6.903,-23.543985397788198,20.904248368380447,0.030534351145038167,-0.0,-0.015267175572519083,191.62020217481566,148.19947453494956,-0.007633587786259542,-0.0,0.022900763358778626,266.063861666583,167.47520629011234,-0.015267175572519083,-0.007633587786259542,-0.05343511450381679,-0.506046735153894,42.61021953821276,-0.12213740458015267,-0.1297709923664122,0.007633587786259542,123.0,100.0,-4.0,-6.0,1.0,91.65,106.04,-1.0,-1.0,-1.0,
6.941,-23.53292954972783,20.95180391015484,0.030534351145038167,-0.0,-0.015267175572519083,191.63659739191226,148.21521682358502,-0.007633587786259542,-0.0,0.022900763358778626,265.8463807064845,167.28278323554218,-0.007633587786259542,-0.015267175572519083,-0.015267175572519083,-0.5585574346204388,40.17564160502819,-0.12213740458015267,-0.1297709923664122,0.007633587786259542,123.0,100.0,-4.0,-6.0,1.0,91.76,106.09,-6.0,0.0,-1.0,
6.98,-23.523532078876517,20.992226120663073,0.030534351145038167,-0.0,-0.015267175572519083,191.65053332644436,148.22859776892517,-0.007633587786259542,-0.0,0.022900763358778626,265.6615218904008,167.11922363915755,-0.007633587786259542,-0.015267175572519083,-0.015267175572519083,-0.5395377012654495,39.40225268518061,-0.12213740458015267,-0.1297709923664122,0.007633587786259542,123.0,100.0,-2.0,-5.0,0.0,91.7,106.12,-4.0,-2.0,-1.0,
7.019,-23.5155442286529,21.02658499959507,0.030534351145038167,-0.0,-0.015267175572519083,191.67338806248023,148.0696139474815,-0.007633587786259542,-0.007633587786259542,-0.030534351145038167,265.50439189672966,166.9801979822306,-0.007633587786259542,-0.015267175572519083,-0.015267175572519083,-0.5233709279137085,38.74487210331017,-0.12213740458015267,-0.1297709923664122,0.007633587786259542,123.0,100.0,-2.0,-5.0,0.0,91.5,106.24,-2.0,-1.0,-4.0,
7.059,-23.508754555962824,21.055790046687267,0.030534351145038167,-0.0,-0.015267175572519083,191.66920983263986,148.0548916628503,-0.007633587786259542,-0.0,-0.022900763358778626,265.37083140210916,166.8620261738427,-0.007633587786259542,-0.015267175572519083,-0.015267175572519083,-0.5096291705647288,38.1860986087203,-0.12213740458015267,-0.1297709923664122,0.007633587786259542,123.0,100.0,-2.0,-5.0,0.0,91.34,106.42,-2.0,-1.0,-1.0,
7.097,-23.59127041669339,21.089743897652138,0.007633587786259542,0.007633587786259542,0.015267175572519083,191.66565833727554,148.04237772091378,-0.007633587786259542,-0.0,-0.022900763358778626,265.2573049816817,166.76158013671298,-0.007633587786259542,-0.015267175572519083,-0.015267175572519083,-0.4979486768180959,37.71114113831891,-0.12213740458015267,-0.1297709923664122,0.007633587786259542,123.0,100.0,-2.0,-5.0,0.0,91.34,106.61,-4.0,3.0,1.0,
7.136,-23.66140889831437,21.118604670972278,0.007633587786259542,0.007633587786259542,0.015267175572519083,191.65699651270597,148.09138602524828,0.0,-0.007633587786259542,0.0,265.16080752431844,166.67620100515273,-0.007633587786259542,-0.015267175572519083,-0.015267175572519083,-0.48802025713345804,37.307427288477726,-0.12213740458015267,-0.1297709923664122,0.007633587786259542,123.0,100.0,-2.0,-5.0,0.0,91.43,106.61,-9.0,10.0,-7.0,
7.174,-23.721026607692203,21.143136328294396,0.007633587786259542,0.007633587786259542,0.015267175572519083,191.64963396182185,148.1330430839326,0.0,-0.007633587786259542,0.0,265.3291742681127,166.77019194019502,-0.007633587786259542,-0.0,0.0,-0.4795811004015158,36.96427051611272,-0.12213740458015267,-0.1297709923664122,0.007633587786259542,123.0,100.0,-2.0,-5.0,0.0,91.44,106.58,-10.0,14.0,-8.0,
7.213,-23.77170166066336,21.1639882370182,0.007633587786259542,0.007633587786259542,0.015267175572519083,191.87376309862742,148.42178757019605,0.0,-0.030534351145038167,0.007633587786259542,265.4722860003378,166.85008423498095,-0.007633587786259542,-0.0,0.0,-0.4724078171793649,36.672587259602466,-0.12213740458015267,-0.1297709923664122,0.007633587786259542,123.0,100.0,-2.0,-5.0,0.0,91.06,106.72,-12.0,17.0,-17.0,
7.252,-23.814775455688846,21.18171235943343,0.007633587786259542,0.007633587786259542,0.015267175572519083,192.06427286491217,148.66722038351998,0.0,-0.030534351145038167,0.007633587786259542,265.50698028884665,166.92582654368456,-0.015267175572519083,0.022900763358778626,0.015267175572519083,-0.46631052644053667,36.42465649156875,-0.12213740458015267,-0.1297709923664122,0.007633587786259542,123.0,100.0,-2.0,-5.0,0.0,91.06,106.62,-13.0,37.0,-8.0,
7.291,-23.851388181460507,21.196777863486375,0.007633587786259542,0.007633587786259542,0.015267175572519083,192.2262061662542,148.8758382748453,0.0,-0.030534351145038167,0.007633587786259542,265.7729249749969,166.92013747554216,-0.022900763358778626,0.015267175572519083,0.015267175572519083,-0.46112782931253266,36.21391533874009,-0.12213740458015267,-0.1297709923664122,0.007633587786259542,123.0,100.0,-2.0,-5.0,0.0,90.81,106.54,-10.0,28.0,-9.0,
7.33,-23.88250899836642,21.20958354193138,0.007633587786259542,0.007633587786259542,0.015267175572519083,192.36384947239492,149.05316348247186,0.0,-0.030534351145038167,0.007633587786259542,266.0535963645601,167.01128561738935,0.0,0.022900763358778626,0.03816793893129771,-0.45672253675372926,36.03478535883573,-0.12213740458015267,-0.1297709923664122,0.007633587786259542,123.0,100.0,-2.0,-5.0,0.0,90.93,106.51,-11.0,43.0,2.0,
7.369,-23.90896169273644,21.220468368609634,0.007633587786259542,0.007633587786259542,0.015267175572519083,192.03956104651596,148.69711350530773,-0.015267175572519083,-0.015267175572519083,0.07633587786259542,266.2921670456888,167.08876153795944,0.0,0.022900763358778626,0.03816793893129771,-0.45297803807874637,35.88252487591702,-0.12213740458015267,-0.1297709923664122,0.007633587786259542,123.0,100.0,-2.0,-5.0,0.0,91.45,106.63,-12.0,45.0,9.0,
7.408,-23.93144648295096,21.22972047128615,0.007633587786259542,0.007633587786259542,0.015267175572519083,191.76391588451884,148.39447102471823,-0.015267175572519083,-0.015267175572519083,0.07633587786259542,266.49495212464825,167.15461607044404,0.0,0.022900763358778626,0.03816793893129771,-0.8313695062175597,32.805425102267364,-0.12213740458015267,-0.1297709923664122,0.007633587786259542,124.0,101.0,-14.0,-6.0,4.0,91.77,106.86,-16.0,56.0,14.0,
7.447,-23.950558554633304,21.237584758561187,0.007633587786259542,0.007633587786259542,0.015267175572519083,191.5296174968213,148.13722491621715,-0.015267175572519083,-0.015267175572519083,0.07633587786259542,266.6219993345973,167.13988092988143,-0.030534351145038167,-0.007633587786259542,0.0,-1.153002254135551,30.189890294665155,-0.12213740458015267,-0.1297709923664122,0.007633587786259542,124.0,101.0,-14.0,-6.0,4.0,91.6,106.47,-10.0,43.0,24.0,
7.486,-23.966803815563296,21.24426940274497,0.007633587786259542,0.007633587786259542,0.015267175572519083,191.33046386727838,147.91856572399124,-0.015267175572519083,-0.015267175572519083,0.07633587786259542,266.83352557989485,167.0246017347764,-0.015267175572519083,-0.015267175572519083,0.0,-1.4263900898658435,27.966685708203272,-0.12213740458015267,-0.1297709923664122,0.007633587786259542,124.0,101.0,-14.0,-6.0,4.0,93.05,105.66,-16.0,45.0,26.0,
7.524,-23.980612287353786,21.249951350301185,0.007633587786259542,0.007633587786259542,0.015267175572519083,191.16118328216692,147.7327054105992,-0.015267175572519083,-0.015267175572519083,0.07633587786259542,267.01332288839774,166.92661441893716,-0.015267175572519083,-0.015267175572519083,0.0,-2.227396815451163,25.62769967358686,-0.12213740458015267,-0.1297709923664122,0.007633587786259542,124.0,102.0,-32.0,-11.0,19.0,95.37,104.62,-19.0,54.0,20.0,
7.563,-23.99234948837571,21.254781005723967,0.007633587786259542,0.007633587786259542,0.015267175572519083,191.01729478482216,147.574724144216,-0.015267175572519083,-0.015267175572519083,0.07633587786259542,267.1661506006252,166.8433252004738,-0.015267175572519083,-0.015267175572519083,0.0,-3.1895662361732153,23.561500949557924,-0.12213740458015267,-0.1297709923664122,0.007633587786259542,124.0,101.0,-41.0,-9.0,28.0,98.76,104.18,-19.0,48.0,20.0,
7.603,-24.002326109244343,21.258886212833332,0.007633587786259542,0.007633587786259542,0.015267175572519083,190.4593496648775,148.80054656823094,0.09923664122137404,0.07633587786259542,-0.21374045801526717,267.29605415601856,166.77252936477993,-0.015267175572519083,-0.015267175572519083,0.0,-4.00741024378696,21.80523203413333,-0.12213740458015267,-0.1297709923664122,0.007633587786259542,124.0,101.0,-41.0,-9.0,28.0,101.3,103.26,-11.0,43.0,-38.0,
7.642,-24.01080623698268,21.262375638876293,0.007633587786259542,0.007633587786259542,0.015267175572519083,189.98509631292453,149.84249562864366,0.09923664122137404,0.07633587786259542,-0.21374045801526717,267.4064721781029,166.71235290444014,-0.015267175572519083,-0.015267175572519083,0.0,-4.888616108834622,20.276890566327705,-0.12213740458015267,-0.1297709923664122,0.007633587786259542,124.0,100.0,-47.0,-11.0,35.0,103.7,102.85,-15.0,27.0,8.0,
7.682,-24.018014345560267,21.26534165101281,0.007633587786259542,0.007633587786259542,0.015267175572519083,189.5819809637645,150.7281523299945,0.09923664122137404,0.07633587786259542,-0.21374045801526717,267.5003274968746,166.66120291315133,-0.015267175572519083,-0.015267175572519083,0.0,-5.2330136402289735,19.070482204723135,-0.12213740458015267,-0.1297709923664122,0.007633587786259542,125.0,96.0,-34.0,-22.0,28.0,105.19,102.19,-13.0,13.0,-2.0,
7.721,-24.024141237851218,21.26786276132885,0.007633587786259542,0.007633587786259542,0.015267175572519083,189.23933291697847,151.48096052614267,0.09923664122137404,0.07633587786259542,-0.21374045801526717,267.58010451783053,166.61772542055584,-0.015267175572519083,-0.015267175572519083,0.0,-5.274226384528795,18.14766800321033,-0.12213740458015267,-0.1297709923664122,0.007633587786259542,123.0,93.0,-26.0,-27.0,18.0,106.11,101.21,-9.0,20.0,-9.0,
7.761,-24.029349096298525,21.270005705097482,0.007633587786259542,0.007633587786259542,0.015267175572519083,188.94808207721036,152.12084749286862,0.09923664122137404,0.07633587786259542,-0.21374045801526717,267.64791498564307,166.58076955184967,-0.015267175572519083,-0.015267175572519083,0.0,-5.277707677423001,17.380664515774512,-0.12213740458015267,-0.1297709923664122,0.007633587786259542,122.0,91.0,-25.0,-21.0,12.0,108.99,101.97,-1.0,21.0,-12.0,
7.8,-24.033775775978732,21.27182720730082,0.007633587786259542,0.007633587786259542,0.015267175572519083,188.70051886340747,152.66475141458568,0.09923664122137404,0.07633587786259542,-0.21374045801526717,267.70555388328376,166.54935706344943,-0.015267175572519083,-0.015267175572519083,0.0,-5.40672790540754,16.666269398125355,-0.12213740458015267,-0.1297709923664122,0.007633587786259542,121.0,88.0,-29.0,-23.0,11.0,109.31,102.57,-1.0,-11.0,-4.0,
7.84,-24.037538453706908,21.27337548417366,0.007633587786259542,0.007633587786259542,0.015267175572519083,188.490090131675,153.1270697480452,0.09923664122137404,0.07633587786259542,-0.21374045801526717,267.7545469462783,166.52265644830922,-0.015267175572519083,-0.015267175572519083,0.0,-5.736018295047961,15.982866919833583,-0.12213740458015267,-0.1297709923664122,0.007633587786259542,120.0,86.0,-36.0,-23.0,13.0,110.13,102.99,-1.0,-26.0,1.0,
7.879,-24.04073672977586,21.27469151951557,0.007633587786259542,0.007633587786259542,0.015267175572519083,191.50354442318542,154.32594188297264,0.24427480916030533,1.0,-0.03816793893129771,267.7961910498237,166.49996092544004,-0.015267175572519083,-0.015267175572519083,0.0,-6.0159151262423185,15.401974813285577,-0.12213740458015267,-0.1297709923664122,0.007633587786259542,120.0,86.0,-36.0,-23.0,13.0,110.23,102.51,-3.0,-27.0,0.0,
7.919,-24.04345526443447,21.275810149556197,0.007633587786259542,0.007633587786259542,0.015267175572519083,194.3928691752722,155.04105598488695,0.21374045801526717,1.0229007633587786,-0.0916030534351145,267.83158853783726,166.48066973100123,-0.015267175572519083,-0.015267175572519083,0.0,-6.2538274327575225,14.908216522719773,-0.12213740458015267,-0.1297709923664122,0.007633587786259542,120.0,86.0,-36.0,-23.0,13.0,111.06,102.89,0.0,-14.0,-16.0,
7.958,-24.04576601889429,21.27676098509073,0.007633587786259542,0.007633587786259542,0.015267175572519083,197.37003150063308,155.73933189963634,0.22137404580152673,1.0458015267175573,-0.03816793893129771,267.8616764026488,166.46427221572824,-0.015267175572519083,-0.015267175572519083,0.0,-6.456052893295445,14.488521975738838,-0.12213740458015267,-0.1297709923664122,0.007633587786259542,120.0,86.0,-36.0,-23.0,13.0,110.3,102.47,-4.0,-31.0,5.0,
7.998,-24.047730160185132,21.27756919529508,0.007633587786259542,0.007633587786259542,0.015267175572519083,199.90061947718982,156.33286642717331,0.22137404580152673,1.0458015267175573,-0.03816793893129771,267.8872510877386,166.45033432774622,-0.015267175572519083,-0.015267175572519083,0.0,-6.313809749635296,14.25300180857368,-0.12213740458015267,-0.1297709923664122,0.007633587786259542,118.0,82.0,-26.0,-32.0,6.0,109.47,102.8,-4.0,-47.0,-26.0,
8.036,-27.581208404249843,19.67531069988796,-0.15267175572519084,-1.0,0.2366412213740458,202.05161925726307,156.83737077557976,0.22137404580152673,1.0458015267175573,-0.03816793893129771,267.90898957006493,166.4384871229615,-0.015267175572519083,-0.015267175572519083,0.0,-6.19290307752417,14.052809666483297,-0.12213740458015267,-0.1297709923664122,0.007633587786259542,118.0,82.0,-26.0,-32.0,6.0,108.95,102.7,-1.0,-49.0,5.0,
8.076,-30.58466491170485,18.313390978791908,-0.15267175572519084,-1.0,0.2366412213740458,205.299215289639,157.65566810901163,0.13740458015267176,1.0610687022900764,-0.12213740458015267,267.9274672800423,166.42841699889448,-0.015267175572519083,-0.015267175572519083,0.0,-6.090132406229712,13.88264634570647,-0.12213740458015267,-0.1297709923664122,0.007633587786259542,118.0,82.0,-26.0,-32.0,6.0,107.58,103.18,7.0,-54.0,-28.0,
8.115,-34.233204251815245,17.212710407193256,-0.16793893129770993,-1.0305343511450382,0.22900763358778625,208.05967191715854,158.35122084242872,0.13740458015267176,1.0610687022900764,-0.12213740458015267,267.9431733335231,166.41985739343752,-0.015267175572519083,-0.015267175572519083,0.0,-6.002777335629423,13.738007523046168,-0.12213740458015267,-0.1297709923664122,0.007633587786259542,118.0,82.0,-26.0,-32.0,6.0,106.79,102.32,1.0,-49.0,-22.0,
8.155000000000001,-37.33446269090908,16.277131921334405,-0.16793893129770993,-1.0305343511450382,0.22900763358778625,211.64259101391735,159.05976694556998,0.11450381679389313,1.0916030534351144,-0.19083969465648856,267.95652347898175,166.4125817287991,-0.015267175572519083,-0.015267175572519083,0.0,-5.928525525619177,13.61506452378491,-0.12213740458015267,-0.1297709923664122,0.007633587786259542,118.0,82.0,-26.0,-32.0,6.0,105.99,103.3,-1.0,-33.0,6.0,
8.195,-39.97053236413883,15.481890208354379,-0.16793893129770993,-1.0305343511450382,0.22900763358778625,215.18898887127042,159.7325764751414,0.10687022900763359,1.1374045801526718,-0.16793893129770993,267.9678711026216,166.40639741385644,-0.015267175572519083,-0.015267175572519083,0.0,-5.865411487110468,13.510562974412842,-0.12213740458015267,-0.1297709923664122,0.007633587786259542,118.0,82.0,-26.0,-32.0,6.0,105.23,104.31,0.0,-39.0,-12.0,
8.235,-42.211191586384125,14.805934752321356,-0.16793893129770993,-1.0305343511450382,0.22900763358778625,218.20342705002054,160.3044645752771,0.10687022900763359,1.1374045801526718,-0.16793893129770993,267.97751658271545,166.4011407461552,-0.015267175572519083,-0.015267175572519083,0.0,-5.209469851210877,14.529513049277082,-0.12213740458015267,-0.1297709923664122,0.007633587786259542,114.0,76.0,-7.0,-12.0,-10.0,104.94,104.82,0.0,-34.0,-2.0,
8.274,-44.11575192529263,14.231372614693287,-0.16793893129770993,-1.0305343511450382,0.22900763358778625,220.76569950195815,160.79056946039245,0.10687022900763359,1.1374045801526718,-0.16793893129770993,267.9857152407953,166.39667257860913,-0.015267175572519083,-0.015267175572519083,0.0,-4.651919460696225,15.395620612911685,-0.12213740458015267,-0.1297709923664122,0.007633587786259542,113.0,74.0,-7.0,-16.0,-13.0,104.68,105.79,1.0,-13.0,23.0,
8.314,-45.73462821336485,13.742994797709427,-0.16793893129770993,-1.0305343511450382,0.22900763358778625,222.9436310861051,161.2037586127405,0.10687022900763359,1.1374045801526718,-0.16793893129770993,267.9926841001631,166.39287463619496,-0.015267175572519083,-0.015267175572519083,0.0,-4.209808039183838,15.955642355528813,-0.12213740458015267,-0.1297709923664122,0.007633587786259542,113.0,73.0,-8.0,-16.0,-13.0,106.08,106.07,2.0,-25.0,-43.0,
8.354,-50.02338992810176,36.89038836204093,-0.2595419847328244,-1.015267175572519,0.48854961832061067,224.79487293263003,161.55496939223633,0.10687022900763359,1.1374045801526718,-0.16793893129770993,267.99860763062577,166.38964638514292,-0.015267175572519083,-0.015267175572519083,0.0,-3.8340133308983098,16.431660836753373,-0.12213740458015267,-0.1297709923664122,0.007633587786259542,113.0,73.0,-8.0,-16.0,-13.0,105.23,105.36,3.0,-36.0,0.0,
8.393,-53.66883738562812,56.565672891722706,-0.2595419847328244,-1.015267175572519,0.48854961832061067,226.36842850217622,161.8534985548078,0.10687022900763359,1.1374045801526718,-0.16793893129770993,268.003642631519,166.3869023717487,-0.015267175572519083,-0.015267175572519083,0.0,-3.6069527817893325,34.00625823698259,-0.31297709923664124,-0.32061068702290074,0.20610687022900764,113.0,73.0,-8.0,-16.0,-13.0,104.0,105.63,-4.0,-24.0,-8.0,
8.433,-56.76746772452554,73.28966474195221,-0.2595419847328244,-1.015267175572519,0.48854961832061067,227.70595073629048,162.10724834299353,0.10687022900763359,1.1374045801526718,-0.16793893129770993,214.47604189153085,165.93664323795096,-0.12213740458015267,0.19083969465648856,-0.3053435114503817,-3.4139513150467016,48.94466602717742,-0.31297709923664124,-0.32061068702290074,0.20610687022900764,113.0,73.0,-8.0,-16.0,-13.0,102.66,104.4,-1.0,-15.0,-11.0,
8.473,-59.40130351258834,87.5050578146473,-0.2595419847328244,-1.015267175572519,0.48854961832061067,228.84284463528758,162.3229356629514,0.10687022900763359,1.1374045801526718,-0.16793893129770993,168.9775812625409,165.5539229742229,-0.12213740458015267,0.19083969465648856,-0.3053435114503817,-3.2390899127912496,61.312943354474974,-0.2366412213740458,-0.2366412213740458,0.11450381679389313,113.0,73.0,-8.0,-16.0,-13.0,100.54,103.63,0.0,-21.0,-21.0,
8.514,-61.64006393244172,99.58814192643813,-0.2595419847328244,-1.015267175572519,0.48854961832061067,229.80920444943513,162.5062698849156,0.10687022900763359,1.1374045801526718,-0.16793893129770993,130.17559128728053,165.43369036826724,-0.030534351145038167,0.09923664122137404,-0.16793893129770993,-3.0904577208741153,71.82597908267789,-0.2366412213740458,-0.2366412213740458,0.11450381679389313,113.0,73.0,-8.0,-16.0,-13.0,99.88,103.22,-11.0,-18.0,10.0,
8.554,-64.61552516631784,109.48899291460316,-0.07633587786259542,-0.3893129770992366,0.007633587786259542,230.63061029146056,162.66210397358518,0.10687022900763359,1.1374045801526718,-0.16793893129770993,97.19389980830921,165.33149265320492,-0.030534351145038167,0.09923664122137404,-0.16793893129770993,-2.964120357744551,80.76205945165037,-0.2366412213740458,-0.2366412213740458,0.11450381679389313,113.0,73.0,-8.0,-16.0,-13.0,99.13,103.0,-12.0,14.0,39.0,
8.594,-67.14466721511252,117.90471625454344,-0.07633587786259542,-0.3893129770992366,0.007633587786259542,231.32880525718215,162.7945629489543,0.10687022900763359,1.1374045801526718,-0.16793893129770993,69.1594620511836,165.24462459540194,-0.030534351145038167,0.09923664122137404,-0.16793893129770993,-2.856733599084422,88.35772776527699,-0.2366412213740458,-0.2366412213740458,0.11450381679389313,111.0,68.0,-8.0,-6.0,-6.0,99.64,103.3,-9.0,2.0,21.0,
8.632,-69.294437956588,125.05808109349269,-0.07633587786259542,-0.3893129770992366,0.007633587786259542,235.43657085381196,163.05359202412578,0.007633587786259542,0.20610687022900764,0.06870229007633588,45.33018995762683,165.1707867462694,-0.030534351145038167,0.09923664122137404,-0.16793893129770993,-2.7654548542233117,94.8140458318596,-0.2366412213740458,-0.2366412213740458,0.11450381679389313,111.0,68.0,-8.0,-6.0,-6.0,98.14,102.78,-8.0,-2.0,3.0,
8.671,-71.12174308684216,131.13844120659954,-0.07633587786259542,-0.3893129770992366,0.007633587786259542,239.00155322141302,163.36310626460792,0.015267175572519083,0.22900763358778625,0.05343511450381679,25.07530867810357,165.10802457450677,-0.030534351145038167,0.09923664122137404,-0.16793893129770993,-2.6878679210913683,100.30191618845481,-0.2366412213740458,-0.2366412213740458,0.11450381679389313,111.0,68.0,-8.0,-6.0,-6.0,97.33,102.5,-2.0,7.0,-17.0,
8.711,-72.6749524475582,136.30674730274038,-0.07633587786259542,-0.3893129770992366,0.007633587786259542,242.03178823387393,163.62619336901776,0.015267175572519083,0.22900763358778625,0.05343511450381679,61.814791033194226,165.01185248722783,-0.007633587786259542,0.0916030534351145,-0.12213740458015267,-2.6219190279292164,104.96660599156075,-0.2366412213740458,-0.2366412213740458,0.11450381679389313,111.0,68.0,-8.0,-6.0,-6.0,96.47,102.28,-5.0,-9.0,-10.0,
8.75,-73.99518040416683,140.69980748446008,-0.07633587786259542,-0.3893129770992366,0.007633587786259542,244.60748799446569,163.8498174077661,0.015267175572519083,0.22900763358778625,0.05343511450381679,93.04335103502129,164.93010621304072,-0.007633587786259542,0.0916030534351145,-0.12213740458015267,-2.565862468741387,108.9315923242008,-0.2366412213740458,-0.2366412213740458,0.11450381679389313,111.0,68.0,-8.0,-5.0,4.0,95.95,102.01,-4.0,-1.0,16.0,
8.789,-75.11737416728417,144.43390863892182,-0.07633587786259542,-0.3893129770992366,0.007633587786259542,246.39747642129484,163.85912152938226,0.0,0.061068702290076333,0.0,119.58762703657429,164.86062187998166,-0.007633587786259542,0.0916030534351145,-0.12213740458015267,-2.5182143934317325,112.30183070694486,-0.2366412213740458,-0.2366412213740458,0.11450381679389313,111.0,68.0,-8.0,-5.0,4.0,95.22,102.15,-4.0,-1.0,7.0,
8.828,-76.0712388659339,147.60789462021432,-0.07633587786259542,-0.3893129770992366,0.007633587786259542,247.91896658409962,163.86703003275602,0.0,0.061068702290076333,0.0,142.15026163789435,164.80156019688147,-0.007633587786259542,0.0916030534351145,-0.12213740458015267,-2.1844171088542654,114.9810700548634,-0.2366412213740458,-0.2366412213740458,0.11450381679389313,111.0,68.0,-1.0,-4.0,0.0,94.63,102.63,-4.0,-2.0,3.0,
8.867,-76.88202385978619,150.30578270431295,-0.07633587786259542,-0.3893129770992366,0.007633587786259542,249.59526953312664,163.97308016218298,0.0,0.007633587786259542,0.030534351145038167,161.32850104901638,164.75135776624631,-0.007633587786259542,0.0916030534351145,-0.12213740458015267,-1.9006894169634185,117.25842350059415,-0.2366412213740458,-0.2366412213740458,0.11450381679389313,111.0,68.0,-1.0,-4.0,0.0,93.92,102.7,-2.0,-6.0,-5.0,
8.906,-77.57119110456063,152.59898757579677,-0.07633587786259542,-0.3893129770992366,0.007633587786259542,251.06190526066172,164.08489365502666,-0.007633587786259542,-0.0,0.030534351145038167,177.6300045484701,164.70868570020644,-0.007633587786259542,0.0916030534351145,-0.12213740458015267,-1.6595208788561988,119.1941739294653,-0.2366412213740458,-0.2366412213740458,0.11450381679389313,111.0,68.0,-1.0,-4.0,0.0,93.39,102.79,-5.0,-1.0,7.0,
8.945,-78.1569832626189,154.54821171655803,-0.07633587786259542,-0.3893129770992366,0.007633587786259542,252.3085456290665,164.17993512394378,-0.007633587786259542,-0.0,0.030534351145038167,191.2510171911741,164.70119822107876,0.015267175572519083,-0.04580152671755725,0.007633587786259542,-1.4545276214650622,120.83956179400576,-0.2366412213740458,-0.2366412213740458,0.11450381679389313,111.0,68.0,-1.0,-4.0,0.0,93.45,102.97,-6.0,7.0,10.0,
8.984,-78.65490659696843,156.2050522362051,-0.07633587786259542,-0.3893129770992366,0.007633587786259542,253.36818994221056,164.26072037252334,-0.007633587786259542,-0.0,0.030534351145038167,202.8288779374725,164.69483386382018,0.015267175572519083,-0.04580152671755725,0.007633587786259542,-1.364122190357006,122.29118204306893,-0.2366412213740458,-0.2366412213740458,0.11450381679389313,112.0,70.0,-3.0,-6.0,-1.0,93.17,103.12,-4.0,-2.0,1.0,
9.022,-79.07814143116553,157.6133666779051,-0.07633587786259542,-0.3893129770992366,0.007633587786259542,254.268887608383,164.32938783381596,-0.007633587786259542,-0.0,0.030534351145038167,212.67005957182613,164.6894241601504,0.015267175572519083,-0.04580152671755725,0.007633587786259542,-1.3291890151606462,123.55156931128376,-0.2366412213740458,-0.2366412213740458,0.11450381679389313,112.0,70.0,-4.0,-7.0,0.0,93.36,103.32,-2.0,-5.0,-4.0,
9.06,-79.43789104023307,158.8104339533501,-0.07633587786259542,-0.3893129770992366,0.007633587786259542,255.03448062462962,164.3877551759147,-0.007633587786259542,-0.0,0.030534351145038167,221.11288917639777,164.69057899968865,0.007633587786259542,-0.030534351145038167,0.0,-1.2994958162437404,124.62289848926636,-0.2366412213740458,-0.2366412213740458,0.11450381679389313,112.0,70.0,-4.0,-7.0,0.0,93.17,103.22,-4.0,0.0,1.0,
9.099,-79.74367820794048,159.82794113747835,-0.07633587786259542,-0.3893129770992366,0.007633587786259542,255.6852346884392,164.4373674166986,-0.007633587786259542,-0.0,0.030534351145038167,228.28929434028367,164.69156061329616,0.007633587786259542,-0.030534351145038167,0.0,-1.316160063948793,125.56002812960048,-0.2366412213740458,-0.2366412213740458,0.11450381679389313,112.0,70.0,-5.0,-7.0,-1.0,93.09,103.55,-5.0,0.0,3.0,
9.137,-81.13903009034928,160.6536579935317,0.022900763358778626,-0.015267175572519083,0.03816793893129771,256.2383756426774,164.47953782136494,-0.007633587786259542,-0.0,0.030534351145038167,234.3892387295867,164.69239498486255,0.007633587786259542,-0.030534351145038167,0.0,-1.3303246744980874,126.35658832388448,-0.2366412213740458,-0.2366412213740458,0.11450381679389313,112.0,70.0,-5.0,-7.0,-1.0,93.41,103.81,-5.0,-2.0,3.0,
9.175,-82.32507919039676,161.35551732117705,0.022900763358778626,-0.015267175572519083,0.03816793893129771,256.70854545377983,164.51538266533132,-0.007633587786259542,-0.0,0.030534351145038167,239.66128045191067,164.7057413140266,0.007633587786259542,-0.022900763358778626,0.015267175572519083,-1.3423645934649877,127.03366448902588,-0.2366412213740458,-0.2366412213740458,0.11450381679389313,112.0,70.0,-5.0,-7.0,-1.0,93.89,103.74,-1.0,0.0,4.0,
9.214,-83.33322092543713,161.9520977496756,0.022900763358778626,-0.015267175572519083,0.03816793893129771,257.1081897932169,164.54585078270276,-0.007633587786259542,-0.0,0.030534351145038167,243.84756764504232,164.66469116789958,0.007633587786259542,-0.015267175572519083,0.007633587786259542,-1.352598524586853,127.60917922939608,-0.2366412213740458,-0.2366412213740458,0.11450381679389313,112.0,70.0,-5.0,-7.0,-1.0,93.35,103.46,-8.0,3.0,9.0,
9.252,-84.19014140022144,162.45919111389938,0.022900763358778626,-0.015267175572519083,0.03816793893129771,257.4478874817384,164.57174868246847,-0.007633587786259542,-0.0,0.030534351145038167,247.4848593158269,164.69479657885347,0.007633587786259542,-0.007633587786259542,0.0,-1.3612973660404386,128.09836675871074,-0.2366412213740458,-0.2366412213740458,0.11450381679389313,112.0,70.0,-5.0,-7.0,-1.0,93.08,103.22,-6.0,-2.0,10.0,
9.29,-84.91852380378809,162.89022047348956,0.022900763358778626,-0.015267175572519083,0.03816793893129771,257.7366305169817,164.59376189726933,-0.007633587786259542,-0.0,0.030534351145038167,250.71381599867152,164.68081782515495,0.0,-0.0,-0.007633587786259542,-1.3686913812759862,128.5141761586282,-0.2366412213740458,-0.2366412213740458,0.11450381679389313,112.0,70.0,-5.0,-7.0,-1.0,92.76,103.22,-3.0,-5.0,4.0,
9.329,-85.53764884681975,163.25659542914124,0.022900763358778626,-0.015267175572519083,0.03816793893129771,257.9820620969385,164.61247312985006,-0.007633587786259542,-0.0,0.030534351145038167,253.3212353019079,164.6863118263706,0.0,-0.0,0.0,-1.3749762942262018,128.86761414855806,-0.2366412213740458,-0.2366412213740458,0.11450381679389313,112.0,70.0,-5.0,-7.0,-1.0,92.39,103.11,-4.0,2.0,2.0,
9.367,-86.06390513339666,163.56801414144516,0.022900763358778626,-0.015267175572519083,0.03816793893129771,258.30889512281084,164.60312037920184,0.0,0.015267175572519083,-0.015267175572519083,255.53754170965883,164.69098172740388,0.0,-0.0,0.0,-1.380318470233885,129.16803643999845,-0.2366412213740458,-0.2366412213740458,0.11450381679389313,112.0,70.0,-5.0,-7.0,-1.0,92.03,102.94,-4.0,0.0,-2.0,
9.406,-86.45828131529426,163.85864203848524,0.030534351145038167,-0.007633587786259542,-0.015267175572519083,258.58670319480234,164.59517054115085,0.0,0.015267175572519083,-0.015267175572519083,257.4214021562471,164.69495114328217,0.0,-0.0,0.0,-1.3848593198404158,129.42339538772276,-0.2366412213740458,-0.2366412213740458,0.11450381679389313,112.0,70.0,-5.0,-7.0,-1.0,92.08,103.01,-3.0,-1.0,-3.0,
9.443,-86.79350106990721,164.1056757509693,0.030534351145038167,-0.007633587786259542,-0.015267175572519083,258.82284005599513,164.5884131788075,0.0,0.015267175572519083,-0.015267175572519083,259.15163164857404,164.68340018556515,0.007633587786259542,-0.0,0.0,-1.388719042005967,129.64045049328843,-0.2366412213740458,-0.2366412213740458,0.11450381679389313,112.0,70.0,-5.0,-7.0,-1.0,92.01,103.1,-3.0,0.0,-5.0,
9.482,-87.20322893461531,164.3048359562955,0.030534351145038167,-0.0,0.007633587786259542,259.023556388009,164.58266942081568,0.0,0.015267175572519083,-0.015267175572519083,260.6223267170519,164.6735818715057,0.007633587786259542,-0.0,0.0,-1.3919998058466854,129.82494733301925,-0.2366412213740458,-0.2366412213740458,0.11450381679389313,112.0,70.0,-5.0,-7.0,-1.0,91.82,102.95,-4.0,-1.0,-3.0,
9.52,-87.5514976196172,164.47412213082276,0.030534351145038167,-0.0,0.007633587786259542,259.2104397205957,164.5691231485785,0.0,0.007633587786259542,0.0,261.87241752525813,164.66523630455515,0.007633587786259542,-0.0,0.0,-1.3947884551112961,129.98176964679044,-0.2366412213740458,-0.2366412213740458,0.11450381679389313,112.0,70.0,-5.0,-7.0,-1.0,91.56,102.78,-3.0,-2.0,-3.0,
9.559,-87.8475260018688,164.61801537917094,0.030534351145038167,-0.0,0.007633587786259542,259.3705081730874,164.5611488705087,0.0,-0.0,0.007633587786259542,262.9349947122334,164.6581425726472,0.007633587786259542,-0.0,0.0,-1.397158806986215,130.11506861349596,-0.2366412213740458,-0.2366412213740458,0.11450381679389313,112.0,70.0,-5.0,-7.0,-1.0,91.53,102.63,-3.0,-1.0,-3.0,
9.597,-88.09915012678266,164.7403246402669,0.030534351145038167,-0.0,0.007633587786259542,259.50656635770537,164.55437073414936,0.0,-0.0,0.007633587786259542,263.71760399603454,164.66994945853816,0.0,-0.0,0.0,-1.3991736060798963,130.22837273519565,-0.2366412213740458,-0.2366412213740458,0.11450381679389313,112.0,70.0,-5.0,-7.0,-1.0,91.42,102.62,-3.0,1.0,-3.0,
9.635,-88.31303063295944,164.84428751219843,0.030534351145038167,-0.0,0.007633587786259542,259.62221581463064,164.5486093182439,0.0,-0.0,0.007633587786259542,264.44319893529496,164.6792111971561,0.0,-0.0,0.0,-1.4008861853095254,130.32468123864038,-0.2366412213740458,-0.2366412213740458,0.11450381679389313,112.0,70.0,-5.0,-7.0,-1.0,91.37,102.58,-4.0,0.0,-1.0,
9.674,-88.4948290632097,164.93265595334026,0.030534351145038167,-0.0,0.007633587786259542,259.7205178530171,164.5437121147243,0.0,-0.0,0.007633587786259542,265.008232534309,164.67311634026845,0.0,-0.0,0.0,-1.40234187765471,130.4065434665684,-0.2366412213740458,-0.2366412213740458,0.11450381679389313,112.0,70.0,-5.0,-7.0,-1.0,91.41,102.69,-3.0,-2.0,-3.0,
9.712,-88.64935772892244,165.0077691283108,0.030534351145038167,-0.0,0.007633587786259542,259.78452554036096,164.53082896849537,0.0,-0.0,0.007633587786259542,265.48851109347095,164.66793571191394,0.0,-0.0,0.0,-1.403579216148117,130.4761263603072,-0.2366412213740458,-0.2366412213740458,0.11450381679389313,112.0,70.0,-5.0,-7.0,-1.0,91.18,102.56,-4.0,0.0,-1.0,
9.75,-88.72682409652651,165.06568143257613,0.030534351145038167,0.007633587786259542,0.007633587786259542,259.83893207460324,164.5198782942008,0.0,-0.0,0.007633587786259542,265.8967478687586,164.6635321778126,0.0,-0.0,0.0,-1.404630953867513,130.5352718199852,-0.2366412213740458,-0.2366412213740458,0.11450381679389313,112.0,70.0,-5.0,-7.0,-1.0,91.09,102.54,-3.0,-1.0,0.0,
9.789,-88.81997558717796,165.12598854112443,0.022900763358778626,0.007633587786259542,0.015267175572519083,259.88517762870913,164.5105702210504,0.0,-0.0,0.007633587786259542,266.2437491277531,164.65978917382648,0.0,-0.0,0.0,-1.4055249309289994,130.5855454607115,-0.2366412213740458,-0.2366412213740458,0.11450381679389313,112.0,70.0,-5.0,-7.0,-1.0,91.06,102.58,-4.0,-1.0,0.0,
9.826,-88.8991543542317,165.1772495833905,0.022900763358778626,0.007633587786259542,0.015267175572519083,259.82569173325436,164.52626066775346,0.0,-0.0,0.007633587786259542,266.53870019789844,164.65660762043828,0.0,-0.0,0.0,-1.406284811431263,130.62827805532885,-0.2366412213740458,-0.2366412213740458,0.11450381679389313,112.0,70.0,-5.0,-7.0,-1.0,90.92,102.55,-4.0,-2.0,-2.0,
9.865,-88.95690412643548,165.22430067832772,0.015267175572519083,0.007633587786259542,0.007633587786259542,259.7751287221178,164.53959754745105,0.0,-0.0,0.007633587786259542,266.789408607522,164.6539033000583,0.0,-0.0,0.0,-1.406930709858187,130.66460076075361,-0.2366412213740458,-0.2366412213740458,0.11450381679389313,112.0,70.0,-5.0,-7.0,-1.0,90.86,102.48,-4.0,0.0,-2.0,
9.903,-89.00599143280868,165.26429410902438,0.015267175572519083,0.007633587786259542,0.007633587786259542,259.73215016265175,164.55093389519402,0.0,-0.0,0.007633587786259542,267.00251075570196,164.6516046277353,0.0,-0.0,0.0,-1.239825977816752,130.58942460060084,-0.2366412213740458,-0.2366412213740458,0.11450381679389313,112.0,70.0,-1.0,-6.0,0.0,90.83,102.52,-4.0,-1.0,-1.0,
9.941,-89.04771564322591,165.29828852511653,0.015267175572519083,0.007633587786259542,0.007633587786259542,259.7884878720275,164.5543984452553,0.0,-0.007633587786259542,0.0,267.18364758165495,164.64965075626077,0.0,-0.0,0.0,-1.0977869555815323,130.52552486447098,-0.2366412213740458,-0.2366412213740458,0.11450381679389313,112.0,70.0,-1.0,-6.0,0.0,90.72,102.56,-4.0,-1.0,0.0,
9.98,-89.08318122208055,165.32718377879485,0.015267175572519083,0.007633587786259542,0.007633587786259542,259.83637492499685,164.55734331280738,0.0,-0.007633587786259542,0.0,267.43285041985405,164.65904379713228,0.0,-0.0,-0.007633587786259542,-0.9770537866815956,130.47121008876059,-0.2366412213740458,-0.2366412213740458,0.11450381679389313,112.0,70.0,-1.0,-6.0,0.0,90.65,102.63,-4.0,0.0,-2.0,
10.018,-89.113326964107,165.35174474442144,0.015267175572519083,0.007633587786259542,0.007633587786259542,259.84796095741456,164.54199794466913,0.0,-0.007633587786259542,0.0,267.64467283232324,164.66702788187308,0.0,-0.0,-0.007633587786259542,-0.8744305931166493,130.42504252940677,-0.2366412213740458,-0.2366412213740458,0.11450381679389313,112.0,70.0,-1.0,-6.0,0.0,90.58,102.6,-4.0,-1.0,-1.0,
10.057,-89.13895084482948,165.372621565204,0.015267175572519083,0.007633587786259542,0.007633587786259542,259.85780908496963,164.52895438175165,0.0,-0.007633587786259542,0.0,267.8074022977095,164.68488168098514,0.0,-0.0,0.0,-0.7872008785864449,130.385800103956,-0.2366412213740458,-0.2366412213740458,0.11450381679389313,112.0,70.0,-1.0,-6.0,0.0,90.56,102.66,-4.0,0.0,-1.0,
10.095,-89.16073114344358,165.39036686286923,0.015267175572519083,0.007633587786259542,0.007633587786259542,259.8661799933914,164.51786735327175,0.0,-0.007633587786259542,0.0,267.94572234328774,164.70005741023041,0.0,-0.0,0.0,-0.75497703482679,130.3789668817468,-0.2366412213740458,-0.2366412213740458,0.11450381679389313,112.0,70.0,-2.0,-6.0,-1.0,90.54,102.71,-4.0,-1.0,0.0,
10.133,-89.17078458397943,165.42361787740572,0.022900763358778626,0.007633587786259542,0.0,259.87329526555,164.50844337906386,0.0,-0.007633587786259542,0.0,268.06329438202926,164.7129567800889,0.0,-0.0,0.0,-0.7275867676310833,130.373158642869,-0.2366412213740458,-0.2366412213740458,0.11450381679389313,112.0,70.0,-2.0,-6.0,-1.0,90.64,102.51,-3.0,0.0,-1.0,
10.171,-89.17933000843489,165.45188123976175,0.022900763358778626,0.007633587786259542,0.0,259.8784139487156,164.50085054318401,0.0,-0.0,0.0,268.16323061495956,164.72392124446858,0.0,-0.0,0.0,-0.7043050405147326,130.36822163982285,-0.2366412213740458,-0.2366412213740458,0.11450381679389313,112.0,70.0,-2.0,-6.0,-1.0,90.5,102.39,-4.0,-1.0,0.0,
10.209,-89.18659361922204,165.47590509776435,0.022900763358778626,0.007633587786259542,0.0,259.89334171966516,164.50704614831574,0.0,-0.0,0.0,268.24817641295033,164.73324103919134,0.0,-0.0,0.0,-0.6845155724658345,130.36402518723364,-0.2366412213740458,-0.2366412213740458,0.11450381679389313,112.0,70.0,-2.0,-6.0,-1.0,90.49,102.5,-3.0,-1.0,-1.0,
10.247,-89.19276768839111,165.49632537706657,0.022900763358778626,0.007633587786259542,0.0,259.8342924430298,164.5005307445451,0.0,-0.0,0.0,268.32038034124247,164.74116286470567,0.0,-0.0,0.0,-0.6676945246242711,130.3604582025328,-0.2366412213740458,-0.2366412213740458,0.11450381679389313,112.0,70.0,-2.0,-6.0,-1.0,90.29,102.46,-4.0,-1.0,-1.0,
10.286,-89.19801564718483,165.51368261447345,0.022900763358778626,0.007633587786259542,0.0,259.78410055788976,164.49499265134006,0.0,-0.0,0.0,268.41607931932805,164.74636035058785,0.0,-0.0,-0.007633587786259542,-0.6533966339589423,130.3574262655371,-0.2366412213740458,-0.2366412213740458,0.11450381679389313,112.0,70.0,-2.0,-6.0,-1.0,90.21,102.35,-4.0,-1.0,-2.0,
10.324,-89.20247641215948,165.52843626626932,0.022900763358778626,0.007633587786259542,0.0,259.7414374555207,164.49028527211578,0.0,-0.0,0.0,268.5325061573518,164.73834025058187,0.0,-0.0,-0.007633587786259542,-0.6412434268934127,130.35484911909074,-0.2366412213740458,-0.2366412213740458,0.11450381679389313,112.0,70.0,-2.0,-6.0,-1.0,90.13,102.36,-4.0,0.0,0.0,
10.363,-89.20626806238793,165.5409768702958,0.022900763358778626,0.007633587786259542,0.0,259.74263735391264,164.52250769736523,0.0,-0.0,0.0,268.631468969672,164.7315231655768,0.0,-0.0,-0.007633587786259542,-0.6309132008877126,130.35265854461136,-0.2366412213740458,-0.2366412213740458,0.11450381679389313,112.0,70.0,-2.0,-6.0,-1.0,90.19,102.29,-4.0,0.0,-1.0,
10.401,-89.20949096508213,165.5516363837183,0.022900763358778626,0.007633587786259542,0.0,259.74365726754576,164.54989675882726,0.0,-0.0,0.0,268.71558736014424,164.72572864332247,0.0,-0.0,-0.007633587786259542,-0.6221325087828675,130.35079655630386,-0.2366412213740458,-0.2366412213740458,0.11450381679389313,112.0,70.0,-2.0,-7.0,0.0,90.19,102.3,-3.0,0.0,-2.0,
10.44,-89.21223043237218,165.56069697012742,0.022900763358778626,0.007633587786259542,0.0,259.7445241941339,164.57317746107,0.0,-0.0,0.0,268.8042502340192,164.72662350422277,0.0,0.007633587786259542,0.0,-0.6146689204937492,130.3492138662425,-0.2366412213740458,-0.2366412213740458,0.11450381679389313,112.0,70.0,-2.0,-7.0,0.0,90.2,102.38,-4.0,0.0,-1.0,
10.478,-89.21455897956874,165.5683984685752,0.022900763358778626,0.007633587786259542,0.0,259.7452610817338,164.59296605797633,0.0,-0.0,0.0,268.87961367681294,164.72738413598802,0.0,0.007633587786259542,0.0,-0.6502422945313897,130.37438630447016,-0.2366412213740458,-0.2366412213740458,0.11450381679389313,112.0,70.0,-3.0,-6.0,-1.0,90.17,102.36,-4.0,0.0,-2.0,
10.517,-89.21653824468581,165.57494474225578,0.022900763358778626,0.007633587786259542,0.0,259.74588743619375,164.6097863653467,0.0,-0.0,0.0,268.94367260318757,164.72803067298847,0.0,0.007633587786259542,0.0,-0.6804796624633842,130.39578287696366,-0.2366412213740458,-0.2366412213740458,0.11450381679389313,112.0,71.0,-3.0,-6.0,-1.0,90.15,102.39,-4.0,-1.0,-2.0,
10.554,-89.21822062003531,165.58050907488428,0.022900763358778626,0.007633587786259542,0.0,259.68769406860986,164.61369167506814,0.0,-0.0,0.015267175572519083,268.998122690606,164.72858022943885,0.0,0.007633587786259542,0.0,-0.7061814252055796,130.41396996358316,-0.2366412213740458,-0.2366412213740458,0.11450381679389313,112.0,71.0,-3.0,-6.0,-1.0,90.1,102.41,-4.0,0.0,-1.0,
10.593,-89.21965063908239,165.5852387576185,0.022900763358778626,0.007633587786259542,0.0,259.63822970616354,164.61701118833136,0.0,-0.0,0.015267175572519083,268.97550275997804,164.72400506267704,0.0,-0.0,0.0,-0.7280279235364455,130.42942898720972,-0.2366412213740458,-0.2366412213740458,0.11450381679389313,112.0,71.0,-3.0,-6.0,-1.0,90.05,102.46,-4.0,0.0,-1.0,
10.631,-89.2208661552724,165.5892589879426,0.022900763358778626,0.007633587786259542,0.0,259.59618499808414,164.6198327746051,0.0,-0.0,0.015267175572519083,268.9562758189443,164.72011617092951,0.0,-0.0,0.0,-0.7046800230342904,130.41605143251246,-0.2366412213740458,-0.2366412213740458,0.11450381679389313,112.0,71.0,-2.0,-6.0,0.0,90.03,102.51,-3.0,-1.0,-2.0,
10.67,-89.22189934403391,165.59267618371808,0.022900763358778626,0.007633587786259542,0.0,259.5604469962167,164.6222311229378,0.0,-0.0,0.015267175572519083,268.93993291906554,164.7168106129441,0.0,-0.0,0.0,-0.6848343076074587,130.40468051101982,-0.2366412213740458,-0.2366412213740458,0.11450381679389313,112.0,71.0,-2.0,-6.0,0.0,90.03,102.58,-4.0,-1.0,-2.0,
10.708,-89.22277755448121,165.59558080012724,0.022900763358778626,0.007633587786259542,0.0,259.51771269517735,164.5988967000736,0.0,-0.0,0.0,268.9260414541686,164.7140008886565,0.0,-0.0,0.0,-0.6679654494946516,130.39501522775106,-0.2366412213740458,-0.2366412213740458,0.11450381679389313,112.0,71.0,-2.0,-6.0,0.0,90.01,102.66,-3.0,0.0,-1.0,
10.747,-89.22352403336141,165.59804972407503,0.022900763358778626,0.007633587786259542,0.0,259.4813885392939,164.57906244063904,0.0,-0.0,0.0,268.96572948116244,164.72034743384575,0.0,-0.0,0.0,-0.6536269200987657,130.38679973697262,-0.2366412213740458,-0.2366412213740458,0.11450381679389313,112.0,71.0,-2.0,-6.0,0.0,89.95,102.58,-3.0,-1.0,-2.0,
10.785,-89.22415854040958,165.60014830943064,0.022900763358778626,0.007633587786259542,0.0,259.45051300679296,164.56220332011966,0.0,-0.0,0.0,268.9819833217214,164.73983333581742,0.007633587786259542,-0.0,0.0,-0.6414391701122626,130.37981656981094,-0.2366412213740458,-0.2366412213740458,0.11450381679389313,112.0,71.0,-2.0,-6.0,0.0,89.91,102.61,-4.0,-1.0,-1.0,
10.823,-89.22469787140052,165.60193210698293,0.022900763358778626,0.007633587786259542,0.0,259.4242688041671,164.5478730676782,0.0,-0.0,0.0,268.9872691954448,164.74599902684207,0.0,-0.0,0.0,-0.631079582623735,130.3738808777235,-0.2366412213740458,-0.2366412213740458,0.11450381679389313,112.0,71.0,-2.0,-6.0,0.0,89.91,102.58,-4.0,0.0,-1.0,
10.862,-89.22515630274282,165.60344833490237,0.022900763358778626,0.007633587786259542,0.0,259.42495836221434,164.54222614314546,0.0,-0.0,0.007633587786259542,268.9917621881097,164.75123986421303,0.0,-0.0,0.0,-0.6222739332584866,130.3688355394492,-0.2366412213740458,-0.2366412213740458,0.11450381679389313,112.0,71.0,-2.0,-6.0,0.0,89.87,102.62,-4.0,0.0,0.0,
10.9,-89.22554596938377,165.6047371286339,0.022900763358778626,0.007633587786259542,0.0,259.4148394702312,164.544439506091,0.0,-0.007633587786259542,0.0,268.99558123187484,164.75569457597834,0.0,-0.0,0.0,-0.6147891312980254,130.36454700191604,-0.2366412213740458,-0.2366412213740458,0.11450381679389313,112.0,71.0,-2.0,-6.0,0.0,89.84,102.65,-4.0,0.0,-1.0,
10.937,-89.11875132050636,165.60900933734024,0.022900763358778626,0.015267175572519083,0.007633587786259542,259.40623841204547,164.54632086459475,0.0,-0.007633587786259542,0.0,268.9988274190752,164.75948108097887,0.0,-0.0,0.0,-0.6084270496316334,130.36090174501282,-0.2366412213740458,-0.2366412213740458,0.11450381679389313,112.0,71.0,-2.0,-6.0,0.0,89.92,102.64,-4.0,-1.0,-1.0,
10.975,-89.02797586896057,165.61264071474062,0.022900763358778626,0.015267175572519083,0.007633587786259542,259.39892751258765,164.54792001932293,0.0,-0.007633587786259542,0.0,268.9495735094716,164.77379053970446,0.0,-0.0,0.0,-0.6030192802152002,130.35780327664511,-0.2366412213740458,-0.2366412213740458,0.11450381679389313,112.0,71.0,-2.0,-6.0,0.0,89.95,102.72,-4.0,0.0,0.0,
11.014,-88.95081673514665,165.61572738553096,0.022900763358778626,0.015267175572519083,0.007633587786259542,259.3927132480485,164.54927930084187,0.0,-0.007633587786259542,0.0,268.9255933883572,164.78822025821904,0.0,-0.0,0.0,-0.598422676211232,130.35516957853255,-0.2366412213740458,-0.2366412213740458,0.11450381679389313,112.0,71.0,-2.0,-6.0,0.0,89.93,102.67,-4.0,0.0,0.0,
11.052,-88.88523147140481,165.61835105570273,0.022900763358778626,0.015267175572519083,0.007633587786259542,259.3964624103953,164.52683054388964,0.0,-0.0,0.0,268.90521028540996,164.80048551895646,0.0,-0.0,0.0,-0.594515562807859,130.3529309351369,-0.2366412213740458,-0.2366412213740458,0.11450381679389313,112.0,71.0,-2.0,-6.0,0.0,89.92,102.73,-4.0,0.0,-1.0,
11.09,-88.82948399722424,165.62058117534875,0.022900763358778626,0.015267175572519083,0.007633587786259542,259.3638047460885,164.52347806663434,0.0,-0.0,0.0,268.88788464790485,164.81091099058324,0.0,-0.0,0.0,-0.591194516414992,130.3510280882506,-0.2366412213740458,-0.2366412213740458,0.11450381679389313,112.0,71.0,-2.0,-6.0,0.0,89.94,102.74,-4.0,-1.0,-1.0,
11.128,-88.80889357855533,165.63402352880107,0.022900763358778626,0.007633587786259542,0.0,259.3360457314277,164.52062846096734,0.0,-0.0,0.0,268.8731578560255,164.819772641466,0.0,-0.0,0.0,-0.5883716269810549,130.3494106683972,-0.2366412213740458,-0.2366412213740458,0.11450381679389313,112.0,71.0,-2.0,-6.0,0.0,90.01,102.72,-4.0,0.0,0.0,
11.167,-88.74709325333949,165.63463341851988,0.030534351145038167,0.007633587786259542,0.0,259.312450568966,164.5182062961504,0.0,-0.0,0.0,268.86064008292806,164.82730504471635,0.0,-0.0,0.0,-0.5859721709622084,130.34803586152185,-0.2366412213740458,-0.2366412213740458,0.11450381679389313,112.0,71.0,-2.0,-6.0,0.0,90.08,102.71,-4.0,0.0,0.0,
11.205,-88.69456297690601,165.63515182478088,0.030534351145038167,0.007633587786259542,0.0,259.2583528502019,164.50522151720864,0.0,-0.0,0.0,268.84999997579524,164.83370758747913,0.0,-0.0,0.0,-0.583932633346189,130.34686727567777,-0.2366412213740458,-0.2366412213740458,0.11450381679389313,112.0,71.0,-2.0,-6.0,0.0,89.96,102.64,-4.0,0.0,-2.0,
11.243,-88.64991224193757,165.63559247010272,0.030534351145038167,0.007633587786259542,0.0,259.25536742696914,164.5051103939555,0.0,-0.0,0.0,268.84095588473235,164.83914974882748,0.0,-0.0,0.0,-0.5821990263725724,130.3458739777103,-0.2366412213740458,-0.2366412213740458,0.11450381679389313,112.0,71.0,-2.0,-6.0,0.0,90.04,102.71,-4.0,0.0,-1.0,
11.28,-88.6119591172144,165.63596701862627,0.030534351145038167,0.007633587786259542,0.0,259.2528298172213,164.50501593919034,0.0,-0.0,0.0,268.87606588849496,164.834113476621,0.0,-0.0,0.0,-0.5807254604449983,130.34502967443797,-0.2366412213740458,-0.2366412213740458,0.11450381679389313,112.0,71.0,-2.0,-6.0,0.0,90.15,102.75,-4.0,0.0,-3.0,
11.319,-88.65143096685006,165.62671993567827,0.022900763358778626,0.007633587786259542,0.007633587786259542,259.25067284893566,164.50493565263994,0.0,-0.0,0.0,268.90590939169317,164.82983264524552,0.0,-0.0,0.0,-0.5794729294065604,130.3443120166565,-0.2366412213740458,-0.2366412213740458,0.11450381679389313,112.0,71.0,-2.0,-6.0,0.0,90.45,102.68,-2.0,0.0,0.0,
11.357,-88.68498203904036,165.61885991517246,0.022900763358778626,0.007633587786259542,0.007633587786259542,259.24883942589287,164.50486740907212,0.0,-0.0,0.0,268.95740166805405,164.8380428796964,0.0,-0.0,0.0,-0.5784082780238882,130.34370200754222,-0.2366412213740458,-0.2366412213740458,0.11450381679389313,112.0,71.0,-2.0,-6.0,0.0,90.56,102.23,-6.0,13.0,-12.0,
11.395,-88.71350045040214,165.61217889774255,0.022900763358778626,0.007633587786259542,0.007633587786259542,259.2472810163065,164.50480940203946,0.0,-0.0,0.0,269.0093058133652,164.85610851451392,0.0,-0.0,0.0,-0.5775033243486167,130.3431834997951,-0.2366412213740458,-0.2366412213740458,0.11450381679389313,112.0,71.0,-2.0,-6.0,0.0,91.4,102.11,-12.0,23.0,-18.0,
11.434,-88.73774110005965,165.6065000329271,0.022900763358778626,0.007633587786259542,0.007633587786259542,259.2459563681581,164.5047600960617,0.0,-0.0,0.0,269.0173842596238,164.8535689239473,0.015267175572519083,0.007633587786259542,-0.015267175572519083,-0.576734113724636,130.34274276821003,-0.2366412213740458,-0.2366412213740458,0.11450381679389313,112.0,71.0,-2.0,-6.0,0.0,91.21,103.48,-16.0,23.0,-21.0,
11.473,-88.75834565226853,165.601672997834,0.022900763358778626,0.007633587786259542,0.007633587786259542,259.2448304172319,164.50471818598058,0.0,-0.0,0.0,268.7605902832002,164.855553836998,0.022900763358778626,0.030534351145038167,0.061068702290076333,-0.5760802846942524,130.34236814636273,-0.2366412213740458,-0.2366412213740458,0.11450381679389313,112.0,71.0,-2.0,-6.0,0.0,90.48,104.5,-5.0,-3.0,-29.0,
11.511,-88.77585952164608,165.59757001800483,0.022900763358778626,0.007633587786259542,0.007633587786259542,259.2438733589447,164.50468256241166,0.0,-0.0,0.0,268.7664359026697,164.8366337183565,0.007633587786259542,0.04580152671755725,0.061068702290076333,-0.5755245300184264,130.34204971779252,-0.2366412213740458,-0.2366412213740458,0.11450381679389313,112.0,71.0,-2.0,-6.0,0.0,90.5,105.43,-11.0,4.0,-6.0,
11.55,-88.79074631061701,165.59408248515004,0.022900763358778626,0.007633587786259542,0.007633587786259542,259.24305985940055,164.50465228237806,0.0,-0.0,0.0,268.7791107452132,164.9095822476848,-0.007633587786259542,0.022900763358778626,0.022900763358778626,-0.5750521385439743,130.34177905350785,-0.2366412213740458,-0.2366412213740458,0.11450381679389313,112.0,71.0,-2.0,-6.0,0.0,89.82,105.61,-6.0,6.0,-9.0,
11.588,-88.80340008124227,165.5911180822235,0.022900763358778626,0.007633587786259542,0.007633587786259542,259.33873451822205,164.36944647356702,0.007633587786259542,-0.366412213740458,0.0,268.78988436137513,164.97158849761385,-0.007633587786259542,0.022900763358778626,0.022900763358778626,-0.5746506057906899,130.3415489888659,-0.2366412213740458,-0.2366412213740458,0.11450381679389313,112.0,71.0,-2.0,-6.0,0.0,89.66,106.26,-12.0,9.0,1.0,
11.627,-88.81415578627374,165.5885983397359,0.022900763358778626,0.007633587786259542,0.007633587786259542,259.5345295113652,164.44264114405215,0.022900763358778626,-0.26717557251908397,0.16793893129770993,268.79904193511277,165.02429381005356,-0.007633587786259542,0.022900763358778626,0.022900763358778626,-0.5743093029503983,130.34135343392023,-0.2366412213740458,-0.2366412213740458,0.11450381679389313,112.0,71.0,-2.0,-6.0,0.0,90.56,106.64,-7.0,-5.0,-2.0,
11.664,-88.39113166633555,165.9215789277486,-0.08396946564885496,-0.03816793893129771,-0.030534351145038167,259.7009552555368,164.50485661396448,0.022900763358778626,-0.26717557251908397,0.16793893129770993,268.8068258727898,165.0690933256273,-0.007633587786259542,0.022900763358778626,0.022900763358778626,-0.5740191955361503,130.34118721221643,-0.2366412213740458,-0.2366412213740458,0.11450381679389313,112.0,71.0,-2.0,-6.0,0.0,91.47,104.93,11.0,-42.0,13.0,
11.703,-88.03156116438811,166.2046124275594,-0.08396946564885496,-0.03816793893129771,-0.030534351145038167,260.8024288996599,164.41971202774548,0.183206106870229,-0.030534351145038167,-0.030534351145038167,268.8134422198152,165.10717291386499,-0.007633587786259542,0.022900763358778626,0.022900763358778626,-0.5737726042340396,130.34104592376818,-0.2366412213740458,-0.2366412213740458,0.11450381679389313,112.0,71.0,-2.0,-6.0,0.0,91.73,102.94,9.0,-5.0,26.0,
11.742,-84.56276354514651,166.43590613088205,-0.19083969465648856,0.10687022900763359,0.030534351145038167,261.7386814971645,164.34733912945933,0.183206106870229,-0.030534351145038167,-0.030534351145038167,268.8190661147869,165.13954056386703,-0.007633587786259542,0.022900763358778626,0.022900763358778626,-0.5735630016272455,130.34092582858716,-0.2366412213740458,-0.2366412213740458,0.11450381679389313,112.0,71.0,-2.0,-6.0,0.0,90.68,101.88,6.0,9.0,-9.0,
11.78,-81.61428556879116,166.6325057787063,-0.19083969465648856,0.10687022900763359,0.030534351145038167,262.5344962050434,164.2858221659161,0.183206106870229,-0.030534351145038167,-0.030534351145038167,219.18399058035976,165.00228498785216,-0.22900763358778625,-0.5877862595419847,-0.13740458015267176,-0.5733848394114704,130.34082374768332,-0.2366412213740458,-0.2366412213740458,0.11450381679389313,112.0,71.0,-2.0,-6.0,0.0,88.63,101.56,-33.0,-9.0,4.0,
11.82,-79.10807928888912,166.7996154793569,-0.19083969465648856,0.10687022900763359,0.030534351145038167,263.2109387067405,164.23353274690436,0.183206106870229,-0.030534351145038167,-0.030534351145038167,176.9941763760967,164.88561774823953,-0.22900763358778625,-0.5877862595419847,-0.13740458015267176,-1.283670520707596,130.78878485699568,-0.2366412213740458,-0.2366412213740458,0.11450381679389313,111.0,71.0,-19.0,-14.0,-26.0,87.69,100.54,-37.0,0.0,10.0,
11.859,-76.97780395097237,166.94165872490993,-0.19083969465648856,0.10687022900763359,0.030534351145038167,260.41611031323515,164.45856973106046,0.12213740458015267,0.09923664122137404,-0.07633587786259542,141.1328343024731,164.7864505945688,-0.22900763358778625,-0.5877862595419847,-0.13740458015267176,-1.8874133498093029,131.16955179991118,-0.2366412213740458,-0.2366412213740458,0.11450381679389313,111.0,71.0,-19.0,-14.0,-26.0,86.03,99.75,-16.0,-16.0,-9.0,
11.899,-75.16706991374313,167.06239548362998,-0.19083969465648856,0.10687022900763359,0.030534351145038167,258.0405061787556,164.64985116759317,0.12213740458015267,0.09923664122137404,-0.07633587786259542,157.6379031270462,164.87917251701612,0.19083969465648856,-2.015267175572519,1.3206106870229009,-2.4005947545457538,131.49320370138938,-0.2366412213740458,-0.2366412213740458,0.11450381679389313,111.0,71.0,-19.0,-14.0,-26.0,86.32,99.87,-27.0,18.0,24.0,
11.939,-73.62794598209828,167.16502172854203,-0.19083969465648856,0.10687022900763359,0.030534351145038167,258.2404053564859,141.80048178001098,0.007633587786259542,0.183206106870229,0.4351145038167939,171.66721162793334,164.95798615109632,0.19083969465648856,-2.015267175572519,1.3206106870229009,-2.836798948571737,131.76830781764582,-0.2366412213740458,-0.2366412213740458,0.11450381679389313,111.0,71.0,-19.0,-14.0,-26.0,85.93,98.8,-18.0,-5.0,10.0,
11.979,-72.31969064020016,167.2522540367173,-0.19083969465648856,0.10687022900763359,0.030534351145038167,259.14568591503814,145.7776065312013,0.022900763358778626,0.2595419847328244,0.0916030534351145,183.59212385368738,165.0249777400645,0.19083969465648856,-2.015267175572519,1.3206106870229009,-3.207572513493823,132.0021463164638,-0.2366412213740458,-0.2366412213740458,0.11450381679389313,111.0,71.0,-19.0,-14.0,-26.0,84.7,97.84,-6.0,-1.0,9.0,
