time,t1:pitch,t1:roll,t1:gyrx,t1:gyry,t1:gyrz,t2:pitch,t2:roll,t2:gyrx,t2:gyry,t2:gyrz,k1:pitch,k1:roll,k1:gyrx,k1:gyry,k1:gyrz,k2:pitch,k2:roll,k2:gyrx,k2:gyry,k2:gyrz,W:pitch,W:roll,W:gyrx,W:gyry,W:gyrz,B:pitch,B:roll,B:gyrx,B:gyry,B:gyrz
0.28400000000000003,13.5,13.5,0.0,-0.0,0.0,13.5,13.5,0.0,-0.0,0.0,13.5,13.5,0.0,-0.0,0.0,26.992213755884013,19.498896953420886,-0.1297709923664122,-0.916030534351145,0.12213740458015267,90.0,90.0,0.0,0.0,0.0,38.97,64.58,-4.0,15.0,27.0,
0.317,24.975,24.975,0.0,-0.0,0.0,24.975,24.975,0.0,-0.0,0.0,24.975,24.975,0.0,-0.0,0.0,49.93559544838543,36.07295936382863,-0.1297709923664122,-0.916030534351145,0.12213740458015267,90.0,90.0,0.0,0.0,0.0,41.47,69.92,-37.0,8.0,49.0,
0.351,34.728750000000005,34.728750000000005,0.0,-0.0,0.0,34.728750000000005,34.728750000000005,0.0,-0.0,0.0,34.728750000000005,34.728750000000005,0.0,-0.0,0.0,69.42994316945438,38.165454383696044,0.40458015267175573,-1.8015267175572518,0.42748091603053434,90.0,90.0,0.0,0.0,0.0,44.03,73.48,-11.0,-28.0,0.0,
0.386,43.0194375,43.0194375,0.0,-0.0,0.0,43.0194375,43.0194375,0.0,-0.0,0.0,43.0194375,43.0194375,0.0,-0.0,0.0,86.00013873236298,39.944075150583345,0.40458015267175573,-1.8015267175572518,0.42748091603053434,90.0,90.0,0.0,0.0,0.0,48.32,77.21,0.0,-16.0,25.0,
0.42000000000000004,50.066521875,50.066521875,0.0,-0.0,0.0,50.066521875,50.066521875,0.0,-0.0,0.0,29.094721450738188,61.25451477337493,-0.37404580152671757,1.1374045801526718,-0.16030534351145037,100.0848049608353,41.45590280243755,0.40458015267175573,-1.8015267175572518,0.42748091603053434,90.0,90.0,0.0,0.0,0.0,50.88,81.12,19.0,-46.0,-15.0,
0.45599999999999996,56.05654359375,56.05654359375,0.0,-0.0,0.0,56.05654359375,56.05654359375,0.0,-0.0,0.0,17.258712808865653,76.75433045574363,-0.37404580152671757,1.1374045801526718,-0.16030534351145037,112.05677125503676,42.740956306513624,0.40458015267175573,-1.8015267175572518,0.42748091603053434,90.0,90.0,0.0,0.0,0.0,52.81,84.14,10.0,-28.0,2.0,
0.491,61.1480620546875,61.1480620546875,0.0,-0.0,0.0,61.1480620546875,61.1480620546875,0.0,-0.0,0.0,7.198105463273997,89.929173785757,-0.37404580152671757,1.1374045801526718,-0.16030534351145037,122.23294260510801,43.83325178497829,0.40458015267175573,-1.8015267175572518,0.42748091603053434,90.0,90.0,0.0,0.0,0.0,53.76,86.11,-13.0,2.0,3.0,
0.527,49.86258451061049,76.34624707257599,0.22900763358778625,-0.44274809160305345,0.22900763358778625,65.47585274648438,65.47585274648438,0.0,-0.0,0.0,-1.3534107804789102,101.12779061626837,-0.37404580152671757,1.1374045801526718,-0.16030534351145037,130.88268825266857,44.76170294167325,0.40458015267175573,-1.8015267175572518,0.42748091603053434,90.0,90.0,0.0,0.0,0.0,56.75,88.17,-25.0,0.0,14.0,
0.565,39.43823123119775,88.0778405615169,0.0916030534351145,-0.12213740458015267,0.12213740458015267,69.15447483451172,69.15447483451172,0.0,-0.0,0.0,-8.62219958766888,110.64661492220304,-0.37404580152671757,1.1374045801526718,-0.16030534351145037,138.23497205309505,45.55088642486397,0.40458015267175573,-1.8015267175572518,0.42748091603053434,90.0,90.0,0.0,0.0,0.0,58.69,90.27,1.0,-4.0,-2.0,
0.603,31.407281920924266,98.36039795866472,0.07633587786259542,-0.17557251908396945,-0.05343511450381679,72.28130360933496,72.28130360933496,0.0,-0.0,0.0,-14.800670073780356,118.73761558224751,-0.37404580152671757,1.1374045801526718,-0.16030534351145037,144.48441328345757,46.221692385576084,0.40458015267175573,-1.8015267175572518,0.42748091603053434,90.0,90.0,0.0,0.0,0.0,58.63,92.26,2.0,5.0,1.0,
0.641,24.580975007191807,107.10057174624036,0.07633587786259542,-0.17557251908396945,-0.05343511450381679,74.93910806793471,74.93910806793471,0.0,-0.0,0.0,-17.66001744924913,125.31846441651922,-0.11450381679389313,1.0534351145038168,-0.29770992366412213,149.7964383292657,46.79187745218138,0.40458015267175573,-1.8015267175572518,0.42748091603053434,90.0,90.0,0.0,0.0,0.0,59.85,93.67,-6.0,3.0,6.0,
0.679,18.778614130519216,114.52971946567966,0.07633587786259542,-0.17557251908396945,-0.05343511450381679,93.0044561067495,85.7680881245532,0.10687022900763359,0.16793893129770993,-0.1297709923664122,-20.090462718397585,130.91218592565016,-0.11450381679389313,1.0534351145038168,-0.29770992366412213,154.3116596182026,47.27653475879588,0.40458015267175573,-1.8015267175572518,0.42748091603053434,90.0,90.0,0.0,0.0,0.0,60.51,94.65,1.0,0.0,1.0,
0.718,13.846607385347514,120.84449502720307,0.07633587786259542,-0.17557251908396945,-0.05343511450381679,108.36000193974206,94.97272117267892,0.10687022900763359,0.16793893129770993,-0.1297709923664122,-22.156341197173774,135.66684920841146,-0.11450381679389313,1.0534351145038168,-0.29770992366412213,158.15712443135624,47.68557362208997,0.061068702290076333,-0.916030534351145,0.35877862595419846,90.0,90.0,0.0,0.0,0.0,60.34,95.77,0.0,-2.0,-9.0,
0.758,9.654401651951568,126.21205425449796,0.07633587786259542,-0.17557251908396945,-0.05343511450381679,121.41221589778573,102.79665926358578,0.10687022900763359,0.16793893129770993,-0.1297709923664122,-23.912337904133533,139.70831299875857,-0.11450381679389313,1.0534351145038168,-0.29770992366412213,161.42576952253683,48.033256655889936,0.061068702290076333,-0.916030534351145,0.35877862595419846,90.0,90.0,0.0,0.0,0.0,61.02,96.88,-7.0,3.0,-8.0,
0.798,6.0910267785650145,130.77447959769862,0.07633587786259542,-0.17557251908396945,-0.05343511450381679,132.26851894676807,109.5618788412873,-0.022900763358778626,-0.12213740458015267,0.19083969465648856,-25.40493510504933,143.1435572205536,-0.11450381679389313,1.0534351145038168,-0.29770992366412213,164.20411785004032,48.32878723461991,0.061068702290076333,-0.916030534351145,0.35877862595419846,90.0,90.0,0.0,0.0,0.0,61.13,97.82,0.0,4.0,-5.0,
0.837,3.062158136186443,134.65254113941916,0.07633587786259542,-0.17557251908396945,-0.05343511450381679,141.293339835125,115.26808325638152,-0.061068702290076333,-0.2824427480916031,0.19083969465648856,-26.673642725827754,146.06351480907938,-0.11450381679389313,1.0534351145038168,-0.29770992366412213,166.5657139284183,48.57998822654039,0.061068702290076333,-0.916030534351145,0.35877862595419846,90.0,90.0,0.0,0.0,0.0,61.3,98.44,3.0,-6.0,-17.0,
0.877,0.4876197901646582,137.94889344988164,0.07633587786259542,-0.17557251908396945,-0.05343511450381679,148.96443759022839,120.11835700921159,-0.061068702290076333,-0.2824427480916031,0.19083969465648856,-26.498313279644236,148.84862588361054,-0.04580152671755725,0.13740458015267176,0.04580152671755725,168.57307059503955,48.793509069672794,0.061068702290076333,-0.916030534351145,0.35877862595419846,90.0,90.0,0.0,0.0,0.0,61.05,99.15,1.0,-3.0,-6.0,
0.916,-1.700737803953859,140.75079291377475,0.07633587786259542,-0.17557251908396945,-0.05343511450381679,155.4848706820663,124.24108969911717,-0.061068702290076333,-0.2824427480916031,0.19083969465648856,-26.16594758386402,151.50524438477262,-0.007633587786259542,0.0916030534351145,0.061068702290076333,170.27932376166763,48.97500178633534,0.061068702290076333,-0.916030534351145,0.35877862595419846,90.0,90.0,0.0,0.0,0.0,60.8,99.56,0.0,-3.0,1.0,
0.956,-3.5608417589545986,143.1324074580839,0.07633587786259542,-0.17557251908396945,-0.05343511450381679,161.0272388101285,127.74541248553692,-0.061068702290076333,-0.2824427480916031,0.19083969465648856,-25.88343674245084,153.7633701107604,-0.007633587786259542,0.0916030534351145,0.061068702290076333,171.7296389533015,49.129270595498504,0.061068702290076333,-0.916030534351145,0.35877862595419846,90.0,90.0,0.0,0.0,0.0,60.72,100.01,-1.0,-4.0,9.0,
0.995,-5.1419301207052275,145.15677982074666,0.07633587786259542,-0.17557251908396945,-0.05343511450381679,165.73825171898136,130.7240868539937,-0.061068702290076333,-0.2824427480916031,0.19083969465648856,-25.336725730132276,154.82524366969184,0.015267175572519083,0.05343511450381679,0.030534351145038167,172.9624068661903,49.26039908328719,0.061068702290076333,-0.916030534351145,0.35877862595419846,90.0,90.0,0.0,0.0,0.0,60.77,100.33,-3.0,5.0,5.0,
1.0350000000000001,-6.485855228193262,146.87749632901,0.07633587786259542,-0.17557251908396945,-0.05343511450381679,169.7426126915063,133.25596006718195,-0.061068702290076333,-0.2824427480916031,0.19083969465648856,-24.872021369661496,155.72783619478358,0.015267175572519083,0.05343511450381679,0.030534351145038167,174.01025959214576,49.37185829790758,0.061068702290076333,-0.916030534351145,0.35877862595419846,90.0,90.0,0.0,0.0,0.0,61.22,100.92,1.0,-4.0,-4.0,
1.0739999999999998,-7.289233638664254,147.8064288002651,0.015267175572519083,0.022900763358778626,0.04580152671755725,173.14631951815252,135.40805229839196,-0.061068702290076333,-0.2824427480916031,0.19083969465648856,-24.477022663261334,156.49503984111155,0.015267175572519083,0.05343511450381679,0.030534351145038167,174.9009344092079,49.46659863033491,0.061068702290076333,-0.916030534351145,0.35877862595419846,90.0,90.0,0.0,0.0,0.0,61.37,101.29,-2.0,-1.0,0.0,
1.113,-7.972105287564598,148.59602140083194,0.015267175572519083,0.022900763358778626,0.04580152671755725,175.53416236405718,136.57350202991952,0.0,0.06870229007633588,-0.12213740458015267,-24.141273762821196,157.14716294049032,0.015267175572519083,0.05343511450381679,0.030534351145038167,175.65800800371073,49.547127912898134,0.061068702290076333,-0.916030534351145,0.35877862595419846,90.0,90.0,0.0,0.0,0.0,61.35,101.8,-2.0,-1.0,0.0,
1.1520000000000001,-8.73450491875104,149.42049198125872,-0.022900763358778626,0.05343511450381679,-0.07633587786259542,177.56382878307613,137.56413430171796,0.0,0.06870229007633588,-0.12213740458015267,-23.855887197447082,157.70146757496227,0.015267175572519083,0.05343511450381679,0.030534351145038167,176.30152055903815,49.61557780307688,0.061068702290076333,-0.916030534351145,0.35877862595419846,90.0,90.0,0.0,0.0,0.0,61.6,102.04,-5.0,1.0,2.0,
1.192,-9.382544605259518,150.1212919746215,-0.022900763358778626,0.05343511450381679,-0.07633587786259542,179.28904523924226,138.40617173274663,0.0,0.06870229007633588,-0.12213740458015267,-23.613308616879085,158.17262651426344,0.015267175572519083,0.05343511450381679,0.030534351145038167,176.8575253150359,49.6726571562937,-0.06870229007633588,0.1450381679389313,-0.08396946564885496,90.0,90.0,0.0,0.0,0.0,61.82,102.11,-4.0,0.0,0.0,
1.2309999999999999,-9.933378338791723,150.71697196897983,-0.022900763358778626,0.05343511450381679,-0.07633587786259542,180.75533056059177,139.0942322250375,0.03816793893129771,0.06870229007633588,-0.10687022900763359,-23.407116823396287,158.57311161266944,0.015267175572519083,0.05343511450381679,0.030534351145038167,177.33012935763398,49.721174606527995,-0.06870229007633588,0.1450381679389313,-0.08396946564885496,90.0,90.0,0.0,0.0,0.0,62.12,102.25,-5.0,-1.0,-1.0,
1.271,-10.401587012294097,151.22329996418443,-0.022900763358778626,0.05343511450381679,-0.07633587786259542,182.00167308373886,139.67908364348472,0.03816793893129771,0.06870229007633588,-0.10687022900763359,-23.23185379893591,158.91352394631454,0.015267175572519083,0.05343511450381679,0.030534351145038167,177.73184279384233,49.76241443922715,-0.06870229007633588,0.1450381679389313,-0.08396946564885496,90.0,90.0,0.0,0.0,0.0,62.16,102.3,-5.0,1.0,-2.0,
1.31,-10.799564384771115,151.65367876010836,-0.022900763358778626,0.05343511450381679,-0.07633587786259542,183.0610642284139,140.17620734916488,0.03816793893129771,0.06870229007633588,-0.10687022900763359,-23.082880228144585,159.20287442991287,0.015267175572519083,0.05343511450381679,0.030534351145038167,178.07329921461945,49.79746829702143,-0.06870229007633588,0.1450381679389313,-0.08396946564885496,90.0,90.0,0.0,0.0,0.0,62.34,102.42,-2.0,0.0,-4.0,
1.349,-11.137845151376581,152.0195007366437,-0.022900763358778626,0.05343511450381679,-0.07633587786259542,183.96154670138768,140.598762498993,0.03816793893129771,0.06870229007633588,-0.10687022900763359,-22.95625269297196,159.44882234097145,0.015267175572519083,0.05343511450381679,0.030534351145038167,178.36353717228,49.82726407614657,-0.06870229007633588,0.1450381679389313,-0.08396946564885496,90.0,90.0,0.0,0.0,0.0,62.53,102.52,-6.0,0.0,2.0,
1.388,-11.425383802991227,152.3304494166987,-0.022900763358778626,0.05343511450381679,-0.07633587786259542,184.72695680341536,140.9579343763469,0.03816793893129771,0.06870229007633588,-0.10687022900763359,-22.84861928807523,159.65787806537125,0.015267175572519083,0.05343511450381679,0.030534351145038167,178.60881195537544,49.8534988853495,0.03816793893129771,-0.022900763358778626,0.061068702290076333,90.0,90.0,0.0,0.0,0.0,62.47,102.42,-2.0,1.0,-1.0,
1.427,-11.669791656863676,152.59475579474548,-0.022900763358778626,0.05343511450381679,-0.07633587786259542,185.61637565169767,141.37114127599312,0.03816793893129771,-0.007633587786259542,0.007633587786259542,-22.757130893913008,159.83557543111107,0.015267175572519083,0.05343511450381679,0.030534351145038167,178.81729552100657,49.875798473172,0.03816793893129771,-0.022900763358778626,0.061068702290076333,90.0,90.0,0.0,0.0,0.0,62.46,102.33,-3.0,-2.0,-3.0,
1.466,-11.877538332655257,152.81941621608524,-0.022900763358778626,0.05343511450381679,-0.07633587786259542,186.44918336934592,141.8863734721136,0.022900763358778626,0.007633587786259542,0.015267175572519083,-22.67936575887512,159.98661819198992,0.015267175572519083,0.05343511450381679,0.030534351145038167,178.99450655179302,49.894753122821115,0.03816793893129771,-0.022900763358778626,0.061068702290076333,90.0,90.0,0.0,0.0,0.0,62.31,102.6,-1.0,0.0,-2.0,
1.505,-12.054123007078102,153.01037757422404,-0.022900763358778626,0.05343511450381679,-0.07633587786259542,187.0831855305399,142.21524514743183,0.015267175572519083,-0.0,0.0,-22.613265394092917,160.11500453873694,0.015267175572519083,0.05343511450381679,0.030534351145038167,179.14513592796152,49.91086457502286,0.03816793893129771,-0.022900763358778626,0.061068702290076333,90.0,90.0,0.0,0.0,0.0,62.3,102.71,-2.0,0.0,0.0,
1.544,-12.20421998033752,153.172694728642,-0.022900763358778626,0.05343511450381679,-0.07633587786259542,187.55445403966257,142.52563706617786,0.007633587786259542,0.015267175572519083,0.0,-22.557080084028044,160.2241329334719,0.015267175572519083,0.05343511450381679,0.030534351145038167,179.27317089770474,49.924559309394354,0.03816793893129771,-0.022900763358778626,0.061068702290076333,90.0,90.0,0.0,0.0,0.0,62.34,102.64,-6.0,-1.0,0.0,
1.582,-12.331802407608025,153.31066430989728,-0.022900763358778626,0.05343511450381679,-0.07633587786259542,187.95503227241684,142.789470197112,0.007633587786259542,0.015267175572519083,0.0,-22.283633800596192,160.57697051497337,-0.030534351145038167,-0.0,0.0,179.3820006219865,49.93619983361012,0.03816793893129771,-0.022900763358778626,0.061068702290076333,90.0,90.0,0.0,0.0,0.0,62.3,102.75,-4.0,1.0,1.0,
1.621,-12.440247470787954,153.42793845396426,-0.022900763358778626,0.05343511450381679,-0.07633587786259542,188.29552377025797,143.013728358406,0.007633587786259542,0.015267175572519083,0.0,-22.05120445967912,160.8768824592496,-0.030534351145038167,-0.0,0.0,179.47450588762598,49.94609427919352,0.03816793893129771,-0.022900763358778626,0.061068702290076333,90.0,90.0,0.0,0.0,0.0,62.37,102.71,-3.0,-2.0,-1.0,
1.66,-12.532425774490893,153.5276214764212,-0.022900763358778626,0.05343511450381679,-0.07633587786259542,188.58494154342293,143.20434779550592,0.007633587786259542,0.015267175572519083,0.0,-21.89341536377627,160.70536012255283,-0.007633587786259542,-0.0,0.022900763358778626,179.55313536341953,49.95450455793941,0.03816793893129771,-0.022900763358778626,0.061068702290076333,90.0,90.0,0.0,0.0,0.0,62.33,102.94,-6.0,0.0,1.0,
1.699,-12.672843406024613,153.88651522102705,0.0,-0.015267175572519083,0.015267175572519083,188.83094665061313,143.36637431704085,0.007633587786259542,0.015267175572519083,0.0,-21.759294632258847,160.5595661363606,-0.007633587786259542,-0.0,0.022900763358778626,179.61997041784406,49.961653294873415,0.03816793893129771,-0.022900763358778626,0.061068702290076333,90.0,90.0,0.0,0.0,0.0,62.35,102.92,-5.0,2.0,2.0,
1.737,-12.792198392828276,154.19157490394204,0.0,-0.015267175572519083,0.015267175572519083,189.02846076275148,143.39844012083398,0.022900763358778626,0.03816793893129771,-0.022900763358778626,-21.64529201046904,160.43564124809717,-0.007633587786259542,-0.0,0.022900763358778626,179.6767802141049,49.96772972126732,0.03816793893129771,-0.022900763358778626,0.061068702290076333,90.0,90.0,0.0,0.0,0.0,62.51,102.73,-9.0,0.0,4.0,
1.775,-12.89365013161139,154.4508756344198,0.0,-0.015267175572519083,0.015267175572519083,189.19634775806907,143.42569605405816,0.022900763358778626,0.03816793893129771,-0.022900763358778626,-21.5483897819477,160.33030509307326,-0.007633587786259542,-0.0,0.022900763358778626,179.7250685409266,49.97289468370214,0.03816793893129771,-0.022900763358778626,0.061068702290076333,90.0,90.0,0.0,0.0,0.0,62.45,102.91,-4.0,0.0,0.0,
1.813,-12.979884109577036,154.67128125532588,0.0,-0.015267175572519083,0.015267175572519083,189.38144505672688,143.51397335750656,0.030534351145038167,0.03816793893129771,0.0,-21.466022887704565,160.24076936130294,-0.007633587786259542,-0.0,0.022900763358778626,179.76611361872506,49.97728490177173,0.03816793893129771,-0.022900763358778626,0.061068702290076333,90.0,90.0,0.0,0.0,0.0,62.39,102.81,-3.0,-2.0,-1.0,
1.852,-13.053182990847835,154.85862603309604,0.0,-0.015267175572519083,0.015267175572519083,189.53877776058602,143.5890090654377,0.030534351145038167,0.03816793893129771,0.0,-21.396011027597897,160.16466398929816,-0.007633587786259542,-0.0,0.022900763358778626,179.80100193485376,49.98101658713089,0.03816793893129771,-0.022900763358778626,0.061068702290076333,90.0,90.0,0.0,0.0,0.0,62.35,102.77,-4.0,0.0,0.0,
1.89,-13.115487039928015,155.01786909420068,0.0,-0.015267175572519083,0.015267175572519083,189.6725105588663,143.65278941717918,0.030534351145038167,0.03816793893129771,0.0,-21.460487918985656,160.22090323984,-0.03816793893129771,-0.04580152671755725,0.061068702290076333,179.83065700356315,49.98418851968617,0.03816793893129771,-0.022900763358778626,0.061068702290076333,90.0,90.0,0.0,0.0,0.0,62.27,102.81,-4.0,1.0,0.0,
1.929,-13.168445481646167,155.15322569613963,0.0,-0.015267175572519083,0.015267175572519083,189.78618343740453,143.70700271615942,0.030534351145038167,0.03816793893129771,0.0,-21.51529327666525,160.26870660280056,-0.03816793893129771,-0.04580152671755725,0.061068702290076333,179.85586381196612,49.986884662358165,0.03816793893129771,-0.022900763358778626,0.061068702290076333,90.0,90.0,0.0,0.0,0.0,62.19,102.85,-3.0,-1.0,0.0,
1.967,-13.213460157106596,155.26827880778774,0.0,-0.015267175572519083,0.015267175572519083,189.882805384162,143.75308402029265,0.030534351145038167,0.03816793893129771,0.0,-21.561877830692907,160.30933946131705,-0.03816793893129771,-0.04580152671755725,0.061068702290076333,179.87728959910865,49.989176383629356,0.03816793893129771,-0.022900763358778626,0.061068702290076333,90.0,90.0,0.0,0.0,0.0,62.23,102.85,-3.0,-1.0,-1.0,
2.0060000000000002,-13.251722631247961,155.36607395268862,0.0,-0.015267175572519083,0.015267175572519083,189.96493403890588,143.79225312880587,0.030534351145038167,0.03816793893129771,0.0,-21.601474701616414,160.34387739105605,-0.03816793893129771,-0.04580152671755725,0.061068702290076333,179.8955015181798,49.99112434670987,0.03816793893129771,-0.022900763358778626,0.061068702290076333,90.0,90.0,0.0,0.0,0.0,62.24,102.94,-3.0,0.0,0.0,
2.044,-13.284245734268122,155.44919982585438,0.0,-0.015267175572519083,0.015267175572519083,190.03474339543817,143.8255468710421,0.030534351145038167,0.03816793893129771,0.0,-21.635132041901397,160.3732346313342,-0.03816793893129771,-0.04580152671755725,0.061068702290076333,179.9109816493903,49.9927801153283,0.03816793893129771,-0.022900763358778626,0.061068702290076333,90.0,90.0,0.0,0.0,0.0,62.25,102.98,-3.0,0.0,0.0,
2.083,-13.311890371835258,155.51985681804527,0.0,-0.015267175572519083,0.015267175572519083,190.0940813484906,143.85384655194292,0.030534351145038167,0.03816793893129771,0.0,-21.66374078114363,160.39818828557065,-0.03816793893129771,-0.04580152671755725,0.061068702290076333,179.9241397609192,49.99418751865397,0.03816793893129771,-0.022900763358778626,0.061068702290076333,90.0,90.0,0.0,0.0,0.0,62.11,103.05,-5.0,0.0,1.0,
2.121,-13.335388313767323,155.57991526140754,0.0,-0.015267175572519083,0.015267175572519083,190.14451860858514,143.8779012807086,0.030534351145038167,0.03816793893129771,0.0,-21.68805820949953,160.41939889167162,-0.03816793893129771,-0.04580152671755725,0.061068702290076333,179.93532415571877,49.99538381148079,0.03816793893129771,-0.022900763358778626,0.061068702290076333,90.0,90.0,0.0,0.0,0.0,62.13,102.93,-3.0,0.0,0.0,
2.159,-13.440646375715374,156.13506114842087,0.0,-0.015267175572519083,0.007633587786259542,190.18739027966552,143.89834780015946,0.030534351145038167,0.03816793893129771,0.0,-21.708728023602045,160.43742790685744,-0.03816793893129771,-0.04580152671755725,0.061068702290076333,179.9448308912984,49.99640066038359,0.03816793893129771,-0.022900763358778626,0.061068702290076333,90.0,90.0,0.0,0.0,0.0,62.18,103.05,-5.0,-1.0,0.0,
2.197,-13.530115728371218,156.6069351523822,0.0,-0.015267175572519083,0.007633587786259542,190.22383120008385,143.91572734169267,0.030534351145038167,0.03816793893129771,0.0,-21.726297365589183,160.45275256976538,-0.03816793893129771,-0.04580152671755725,0.061068702290076333,179.9529116165411,49.99726498195097,0.03816793893129771,-0.022900763358778626,0.061068702290076333,90.0,90.0,0.0,0.0,0.0,62.16,103.1,-3.0,1.0,0.0,
2.2359999999999998,-13.606164678128685,157.00802805574932,0.0,-0.015267175572519083,0.007633587786259542,190.25480598243945,143.9304999519959,0.030534351145038167,0.03816793893129771,0.0,-21.741231306278248,160.46577853323714,-0.03816793893129771,-0.04580152671755725,0.061068702290076333,179.9597802329974,49.997999655283245,0.03816793893129771,-0.022900763358778626,0.061068702290076333,90.0,90.0,0.0,0.0,0.0,62.11,103.08,-2.0,-1.0,-1.0,
2.274,-13.619033624120549,157.12618072607657,-0.007633587786259542,-0.007633587786259542,0.015267175572519083,190.2811345474417,143.94305667075363,0.030534351145038167,0.03816793893129771,0.0,-21.753925155863953,160.47685060218814,-0.03816793893129771,-0.04580152671755725,0.061068702290076333,179.96561855698522,49.99862412761568,0.03816793893129771,-0.022900763358778626,0.061068702290076333,90.0,90.0,0.0,0.0,0.0,62.08,103.15,-5.0,0.0,1.0,
2.313,-13.629972228213633,157.22661049585471,-0.007633587786259542,-0.007633587786259542,0.015267175572519083,190.30351382769362,143.9537298816977,0.030534351145038167,0.03816793893129771,0.0,-21.764714928011806,160.48626186079647,-0.03816793893129771,-0.04580152671755725,0.061068702290076333,179.9705811323749,49.999154929098246,0.03816793893129771,-0.022900763358778626,0.061068702290076333,90.0,90.0,0.0,0.0,0.0,61.99,103.12,-4.0,1.0,0.0,
2.351,-13.639270041692756,157.31197580016615,-0.007633587786259542,-0.007633587786259542,0.015267175572519083,190.32253621590775,143.96280211100017,0.030534351145038167,0.03816793893129771,0.0,-21.961091084439193,160.55495331660782,-0.022900763358778626,-0.007633587786259542,0.015267175572519083,179.97479932145612,49.99960611035843,0.03816793893129771,-0.022900763358778626,0.061068702290076333,90.0,90.0,0.0,0.0,0.0,61.98,103.18,-4.0,0.0,0.0,
2.39,-13.76364537138797,157.45052107176068,0.0,-0.0,0.022900763358778626,190.33870524588974,143.97051350590726,0.030534351145038167,0.03816793893129771,0.0,-22.128010817402473,160.61334105404745,-0.022900763358778626,-0.007633587786259542,0.015267175572519083,179.97838478217514,49.99998961442958,0.03816793893129771,-0.022900763358778626,0.061068702290076333,90.0,90.0,0.0,0.0,0.0,62.02,103.3,-4.0,0.0,1.0,
2.428,-13.83701554972954,157.50436017450727,0.0,-0.0,0.022900763358778626,190.35244892137445,143.9770681915783,0.030534351145038167,0.03816793893129771,0.0,-22.26989259042126,160.66297063087114,-0.022900763358778626,-0.007633587786259542,0.015267175572519083,179.98143242378632,50.00031559289006,0.03816793893129771,-0.022900763358778626,0.061068702290076333,90.0,90.0,0.0,0.0,0.0,62.04,103.09,-4.0,0.0,0.0,
2.467,-13.899380201319875,157.55012341184187,0.0,-0.0,0.022900763358778626,190.36413104553645,143.98263967439868,0.030534351145038167,0.03816793893129771,0.0,-22.39049209748723,160.7051557711713,-0.022900763358778626,-0.007633587786259542,0.015267175572519083,179.98402291915582,50.00059267458147,0.03816793893129771,-0.022900763358778626,0.061068702290076333,90.0,90.0,0.0,0.0,0.0,61.94,103.15,-3.0,0.0,-1.0,
2.505,-13.95239015517166,157.5890221635763,0.0,-0.0,0.022900763358778626,190.37406085107415,143.987375434796,0.030534351145038167,0.03816793893129771,0.0,-22.508302097280584,160.78144140158994,-0.015267175572519083,-0.007633587786259542,0.015267175572519083,179.9862248402199,50.000828194019164,0.03816793893129771,-0.022900763358778626,0.061068702290076333,90.0,90.0,0.0,0.0,0.0,61.85,103.16,-5.0,0.0,0.0,
2.543,-13.997448615945675,157.62208610255055,0.0,-0.0,0.022900763358778626,190.38250118578117,143.99140083113372,0.030534351145038167,0.03816793893129771,0.0,-22.608440597104934,160.8462841874458,-0.015267175572519083,-0.007633587786259542,0.015267175572519083,179.98809647312436,50.001028385541204,0.03816793893129771,-0.022900763358778626,0.061068702290076333,90.0,90.0,0.0,0.0,0.0,61.85,103.01,-4.0,0.0,-5.0,
2.581,-14.03574830760359,157.65019045067868,0.0,-0.0,0.022900763358778626,190.38967547028216,143.9948224180208,0.030534351145038167,0.03816793893129771,0.0,-22.730032227768753,160.83349060358518,-0.015267175572519083,-0.022900763358778626,0.007633587786259542,179.98968736109316,50.00119854833494,0.03816793893129771,-0.022900763358778626,0.061068702290076333,90.0,90.0,0.0,0.0,0.0,61.98,103.07,-2.0,0.0,-5.0,
2.62,-14.068303045512817,157.6740791465876,0.0,-0.0,0.022900763358778626,190.39577361210797,143.99773076687478,0.030534351145038167,0.03816793893129771,0.0,-22.833385113833,160.82261605730366,-0.015267175572519083,-0.022900763358778626,0.007633587786259542,179.99103961586664,50.00134318670962,0.03816793893129771,-0.022900763358778626,0.061068702290076333,90.0,90.0,0.0,0.0,0.0,62.11,103.05,0.0,0.0,-22.0,
2.658,-14.072300691254599,157.79134102217068,0.0,-0.015267175572519083,0.015267175572519083,190.40095703265996,144.0002028634007,0.030534351145038167,0.03816793893129771,0.0,-22.92123506698761,160.81337269296438,-0.015267175572519083,-0.022900763358778626,0.007633587786259542,179.9921890324241,50.001466129328094,0.03816793893129771,-0.022900763358778626,0.061068702290076333,90.0,90.0,0.0,0.0,0.0,62.49,103.22,5.0,6.0,-34.0,
2.697,-14.075698690135114,157.89101361641633,0.0,-0.015267175572519083,0.015267175572519083,190.40536294012912,144.0023041454477,0.030534351145038167,0.03816793893129771,0.0,-22.995907527169027,160.805515833276,-0.015267175572519083,-0.022900763358778626,0.007633587786259542,179.99362023497122,50.001181317576695,-0.007633587786259542,0.030534351145038167,0.0,90.0,90.0,0.0,0.0,0.0,62.45,102.57,1.0,6.0,-10.0,
2.736,-14.078586989183552,157.97573532152512,0.0,-0.015267175572519083,0.015267175572519083,190.86046594691223,144.66273346449077,0.015267175572519083,-0.03816793893129771,-0.03816793893129771,-23.059379118323232,160.79883750254083,-0.015267175572519083,-0.022900763358778626,0.007633587786259542,179.99483675713626,50.000939227588006,-0.007633587786259542,0.030534351145038167,0.0,90.0,90.0,0.0,0.0,0.0,62.54,102.04,4.0,20.0,-31.0,
2.774,-14.081042043374724,158.0477487708676,0.0,-0.015267175572519083,0.015267175572519083,190.9406778301547,145.14680336935697,-0.03816793893129771,-0.17557251908396945,0.0,-23.113329970804305,160.79316092141596,-0.015267175572519083,-0.022900763358778626,0.007633587786259542,179.99587080097655,50.000733451097624,-0.007633587786259542,0.030534351145038167,0.0,90.0,90.0,0.0,0.0,0.0,62.99,101.66,-9.0,-4.0,-14.0,
2.814,-14.08312883943722,158.1089602028087,0.0,-0.015267175572519083,0.015267175572519083,191.00885793091078,145.55826278849324,-0.03816793893129771,-0.17557251908396945,0.0,-23.15918819541322,160.78833582745983,-0.015267175572519083,-0.022900763358778626,0.007633587786259542,179.9967497382408,50.00055854108079,-0.007633587786259542,0.030534351145038167,0.0,90.0,90.0,0.0,0.0,0.0,62.8,101.7,-2.0,14.0,-27.0,
2.853,-14.084902616090343,158.16098991995864,0.0,-0.015267175572519083,0.015267175572519083,191.06681101655346,145.90800329475908,-0.03816793893129771,-0.17557251908396945,0.0,-23.198167686330795,160.78423449759708,-0.015267175572519083,-0.022900763358778626,0.007633587786259542,180.00294721659478,49.998463302680996,-0.2366412213740458,0.6717557251908397,0.10687022900763359,90.0,90.0,0.0,0.0,0.0,62.67,102.25,-5.0,5.0,-8.0,
2.892,-13.825954072894548,157.86771854242716,0.03816793893129771,-0.03816793893129771,0.022900763358778626,191.11607113934974,146.20528272508506,-0.03816793893129771,-0.17557251908396945,0.0,-23.231300253610733,160.7807483672138,-0.015267175572519083,-0.022900763358778626,0.007633587786259542,180.00821507319566,49.99668235004117,-0.2366412213740458,0.6717557251908397,0.10687022900763359,90.0,90.0,0.0,0.0,0.0,63.28,102.35,2.0,-4.0,-3.0,
2.931,-14.03144141539235,157.97773253027123,0.007633587786259542,-0.061068702290076333,0.0,191.15794224372658,146.45797024086212,-0.03816793893129771,-0.17557251908396945,0.0,-23.259462935798684,160.77778515638795,-0.015267175572519083,-0.022900763358778626,0.007633587786259542,180.01269275130642,49.995168540297314,-0.2366412213740458,0.6717557251908397,0.10687022900763359,90.0,90.0,0.0,0.0,0.0,63.08,102.65,2.0,23.0,15.0,
2.969,-14.190830988269678,158.51276381265146,0.007633587786259542,-0.07633587786259542,0.015267175572519083,191.1935326824469,146.67275462927262,-0.03816793893129771,-0.17557251908396945,0.0,-23.28340121565844,160.775266427186,-0.015267175572519083,-0.022900763358778626,0.007633587786259542,180.01649877770058,49.99388180201504,-0.2366412213740458,0.6717557251908397,0.10687022900763359,90.0,90.0,0.0,0.0,0.0,63.59,100.63,-9.0,5.0,22.0,
3.008,-14.326312125215406,158.96754040267464,0.007633587786259542,-0.07633587786259542,0.015267175572519083,191.22378455535915,146.85532135942154,-0.03816793893129771,-0.17557251908396945,0.0,-23.605252028694046,161.08213254917598,0.015267175572519083,-0.35877862595419846,0.030534351145038167,180.0197339001356,49.99278807447511,-0.2366412213740458,0.6717557251908397,0.10687022900763359,90.0,90.0,0.0,0.0,0.0,63.39,101.24,-22.0,15.0,16.0,
3.048,-14.441471091619276,159.35410050419438,0.007633587786259542,-0.07633587786259542,0.015267175572519083,191.24949864733458,147.01050308004812,-0.03816793893129771,-0.17557251908396945,0.0,-24.44272889162976,160.8420500135124,0.007633587786259542,-1.0,-0.32061068702290074,180.02248375420538,49.991858406066164,-0.2366412213740458,0.6717557251908397,0.10687022900763359,90.0,90.0,0.0,0.0,0.0,63.51,100.36,-57.0,19.0,16.0,
3.088,-14.539356213062565,159.68267659048612,0.007633587786259542,-0.07633587786259542,0.015267175572519083,191.27135562551368,147.14240754258074,-0.03816793893129771,-0.17557251908396945,0.0,-25.154584225125113,160.63797985819832,0.007633587786259542,-1.0,-0.32061068702290074,180.0248211301647,49.991068187918565,-0.2366412213740458,0.6717557251908397,0.10687022900763359,90.0,90.0,0.0,0.0,0.0,63.74,99.6,-20.0,24.0,18.0,
3.127,-14.62255856628936,159.9619662638341,0.007633587786259542,-0.07633587786259542,0.015267175572519083,188.72133813466917,142.32679382214815,0.20610687022900764,-0.32061068702290074,-0.04580152671755725,-25.759661258596164,160.46452022618138,0.007633587786259542,-1.0,-0.32061068702290074,180.0268078997301,49.990396502493105,-0.2366412213740458,0.6717557251908397,0.10687022900763359,90.0,90.0,0.0,0.0,0.0,64.14,100.19,-10.0,26.0,-2.0,
3.167,-14.693280566532136,160.19936248617992,0.007633587786259542,-0.07633587786259542,0.015267175572519083,186.54958311043987,138.40008857380602,0.09923664122137404,-0.183206106870229,-0.06870229007633588,-26.273976737046556,160.31707953896696,0.007633587786259542,-1.0,-0.32061068702290074,180.02849665386069,49.98982556988146,-0.2366412213740458,0.6717557251908397,0.10687022900763359,90.0,90.0,0.0,0.0,0.0,65.6,99.69,-8.0,60.0,-1.0,
3.206,-14.753394266738496,160.40114927517385,0.007633587786259542,-0.07633587786259542,0.015267175572519083,184.0942218557388,134.7622666049111,0.0,-0.06870229007633588,0.022900763358778626,-26.71114489372939,160.19175495483472,0.007633587786259542,-1.0,-0.32061068702290074,180.0299320948717,49.98934027716157,-0.2366412213740458,0.6717557251908397,0.10687022900763359,90.0,90.0,0.0,0.0,0.0,66.72,99.37,-33.0,53.0,-11.0,
3.245,-14.804490911913902,160.5726680458187,0.007633587786259542,-0.07633587786259542,0.015267175572519083,182.0071647892429,131.67011793135043,0.0,-0.06870229007633588,0.022900763358778626,-34.142165245931814,160.87608616374953,0.0,-2.068702290076336,1.2366412213740459,180.03115221973104,49.988927778349655,-0.2366412213740458,0.6717557251908397,0.10687022900763359,90.0,90.0,0.0,0.0,0.0,68.32,99.39,-27.0,59.0,-2.0,
3.284,-12.778096470283952,156.66735718884223,0.03816793893129771,0.44274809160305345,-0.061068702290076333,180.23316628272136,129.04179155882386,0.0,-0.06870229007633588,0.022900763358778626,-40.458532545303875,161.45776769132712,0.0,-2.068702290076336,1.2366412213740459,180.0321893258615,49.98857715435953,-0.2366412213740458,0.6717557251908397,0.10687022900763359,90.0,90.0,0.0,0.0,0.0,67.12,98.45,-34.0,85.0,5.0,
3.323,-11.055661194898493,153.34784296041224,0.03816793893129771,0.44274809160305345,-0.061068702290076333,178.72526755217805,126.80771414217628,0.0,-0.06870229007633588,0.022900763358778626,-45.82744474977013,161.95219698976805,0.0,-2.068702290076336,1.2366412213740459,180.0330708660724,49.98827912396793,-0.2366412213740458,0.6717557251908397,0.10687022900763359,90.0,90.0,0.0,0.0,0.0,69.22,99.65,-25.0,76.0,22.0,
3.362,-8.968982449553168,139.87049645102422,-0.20610687022900764,0.10687022900763359,-0.29770992366412213,177.44355363121625,124.90874833802584,0.0,-0.06870229007633588,0.022900763358778626,-50.39102012356645,162.37246189344285,0.0,-2.068702290076336,1.2366412213740459,180.03382017525163,49.98802579813506,-0.2366412213740458,0.6717557251908397,0.10687022900763359,90.0,90.0,0.0,0.0,0.0,71.84,96.78,-38.0,64.0,25.0,
3.401,-6.593310396222982,129.5765268367163,-0.2748091603053435,-0.1297709923664122,-0.022900763358778626,176.35409679839873,123.29462740449796,0.0,-0.06870229007633588,0.022900763358778626,-54.27005919129332,162.72968706156644,0.0,-2.068702290076336,1.2366412213740459,180.034457088054,49.98781047117713,-0.2366412213740458,0.6717557251908397,0.10687022900763359,90.0,90.0,0.0,0.0,0.0,73.98,95.25,-16.0,64.0,10.0,
3.439,-4.206466836411509,121.15010715681159,-0.2595419847328244,-0.26717557251908397,0.05343511450381679,175.42805849050382,121.92262461099926,0.0,-0.06870229007633588,0.022900763358778626,-57.56724239886116,163.03332845447147,0.0,-2.068702290076336,1.2366412213740459,180.03499846393603,49.98762744326288,-0.2366412213740458,0.6717557251908397,0.10687022900763359,90.0,90.0,0.0,0.0,0.0,76.91,93.87,-14.0,45.0,6.0,
3.479,-2.177649810571757,113.98765042889256,-0.2595419847328244,-0.26717557251908397,0.05343511450381679,174.64092592879314,120.75642223652537,0.0,-0.06870229007633588,0.022900763358778626,-60.36984812529382,163.29142363844076,0.0,-2.068702290076336,1.2366412213740459,180.03545863343575,49.98747186953577,-0.2366412213740458,0.6717557251908397,0.10687022900763359,90.0,90.0,0.0,0.0,0.0,79.21,92.8,-24.0,53.0,-1.0,
3.518,-1.7352044990465914,114.9541922354509,-0.22137404580152673,-0.37404580152671757,0.16793893129770993,173.97186325133907,119.76515021822254,0.0,-0.06870229007633588,0.022900763358778626,-62.75206299276159,163.51080454481465,0.0,-2.068702290076336,1.2366412213740459,180.0358497775105,49.98733963186773,-0.2366412213740458,0.6717557251908397,0.10687022900763359,90.0,90.0,0.0,0.0,0.0,81.39,92.55,-10.0,45.0,-17.0,
3.557,-1.3591259842502004,115.7757527710255,-0.22137404580152673,-0.37404580152671757,0.16793893129770993,174.98669511409562,121.74492480444799,-0.0916030534351145,0.03816793893129771,0.20610687022900764,-64.77694563010918,163.69727831523247,0.0,-2.068702290076336,1.2366412213740459,180.03618224997402,49.98722722984989,-0.2366412213740458,0.6717557251908397,0.10687022900763359,90.0,90.0,0.0,0.0,0.0,84.3,90.99,-10.0,45.0,-19.0,
3.596,-1.0394592466732682,116.4740792262639,-0.22137404580152673,-0.37404580152671757,0.16793893129770993,176.32733393547966,126.30304539769837,-0.015267175572519083,-0.0,0.022900763358778626,-66.49809587185463,163.85578102008762,0.0,-2.068702290076336,1.2366412213740459,180.036464851568,49.98713168813473,-0.2366412213740458,0.6717557251908397,0.10687022900763359,90.0,90.0,0.0,0.0,0.0,86.61,90.55,-18.0,31.0,-8.0,
3.635,-0.7677425197328758,117.06765671321654,-0.22137404580152673,-0.37404580152671757,0.16793893129770993,177.46687693365607,130.1774479019612,-0.015267175572519083,-0.0,0.022900763358778626,-16.878149846040593,164.64020629459156,-0.04580152671755725,-0.12213740458015267,0.29770992366412213,180.03670506292292,49.987050477676846,-0.2366412213740458,0.6717557251908397,0.10687022900763359,90.0,90.0,0.0,0.0,0.0,89.08,90.18,-6.0,12.0,-7.0,
3.674,-0.5367833018335424,117.57219757712627,-0.22137404580152673,-0.37404580152671757,0.16793893129770993,178.80111905127936,131.9987485554769,-0.05343511450381679,0.05343511450381679,0.16030534351145037,25.29880427590134,165.30696777791994,-0.04580152671755725,-0.12213740458015267,0.29770992366412213,180.03690924257458,49.98698144878764,-0.2366412213740458,0.6717557251908397,0.10687022900763359,90.0,90.0,0.0,0.0,0.0,90.8,89.99,2.0,19.0,0.0,
3.713,-0.34046796661910894,118.00105731144956,-0.22137404580152673,-0.37404580152671757,0.16793893129770993,179.93522485125916,133.54685411096528,-0.05343511450381679,0.05343511450381679,0.16030534351145037,61.14921527955198,165.87371503874905,-0.04580152671755725,-0.12213740458015267,0.29770992366412213,180.0370827952785,49.986922774231815,-0.2366412213740458,0.6717557251908397,0.10687022900763359,90.0,90.0,0.0,0.0,0.0,91.76,89.89,-4.0,13.0,-2.0,
3.752,-0.17359993168684057,118.36558808562434,-0.22137404580152673,-0.37404580152671757,0.16793893129770993,180.899214781242,134.8627438331304,-0.05343511450381679,0.05343511450381679,0.16030534351145037,91.62206463265503,166.3554502104538,-0.04580152671755725,-0.12213740458015267,0.29770992366412213,180.03723031507684,49.98687290085937,-0.2366412213740458,0.6717557251908397,0.10687022900763359,90.0,90.0,0.0,0.0,0.0,92.59,89.58,-5.0,5.0,-1.0,
3.791,-0.031762101994412456,118.67543924367291,-0.22137404580152673,-0.37404580152671757,0.16793893129770993,181.7186062217274,135.98125009697074,-0.05343511450381679,0.05343511450381679,0.16030534351145037,117.52398658279262,166.76492510640284,-0.04580152671755725,-0.12213740458015267,0.29770992366412213,180.03735570690543,49.98683050849279,-0.2366412213740458,0.6717557251908397,0.10687022900763359,90.0,90.0,0.0,0.0,0.0,93.0,89.44,-1.0,3.0,0.0,
3.83,-0.40048380565537006,106.14177697884372,0.007633587786259542,0.03816793893129771,0.04580152671755725,182.41508894614,136.93198042123504,-0.05343511450381679,0.05343511450381679,0.16030534351145037,139.54062024040957,167.1129787679595,-0.04580152671755725,-0.12213740458015267,0.29770992366412213,180.03746228995973,49.98679447498119,-0.2366412213740458,0.6717557251908397,0.10687022900763359,90.0,90.0,0.0,0.0,0.0,93.73,89.25,3.0,-6.0,-5.0,
3.869,-0.7138972537671839,95.48816405373891,0.007633587786259542,0.03816793893129771,0.04580152671755725,181.94031767619686,135.24572205850552,0.07633587786259542,-0.0,-0.17557251908396945,158.25475884938396,167.40882438028268,-0.04580152671755725,-0.12213740458015267,0.29770992366412213,180.0375528855559,49.98676384649633,-0.2366412213740458,0.6717557251908397,0.10687022900763359,90.0,90.0,0.0,0.0,0.0,93.97,89.3,0.0,0.0,1.0,
3.906,-0.9802986846622257,86.43259306739982,0.007633587786259542,0.03816793893129771,0.04580152671755725,181.53676209674518,133.81240245018543,0.07633587786259542,-0.0,-0.17557251908396945,121.12184176359257,167.12604097458194,-0.030534351145038167,0.007633587786259542,-0.06870229007633588,180.03762989181263,49.986737812284204,-0.2366412213740458,0.6717557251908397,0.10687022900763359,90.0,90.0,0.0,0.0,0.0,94.43,89.55,0.0,-5.0,0.0,
3.945,-1.2067399009230113,78.7353577290116,0.007633587786259542,0.03816793893129771,0.04580152671755725,181.19373985421123,132.59408078311336,0.07633587786259542,-0.0,-0.17557251908396945,89.5841016092302,166.90613933363136,-0.015267175572519083,0.007633587786259542,-0.061068702290076333,180.03769534713084,49.9867156832039,-0.2366412213740458,0.6717557251908397,0.10687022900763359,90.0,90.0,0.0,0.0,0.0,94.93,89.7,0.0,-11.0,0.0,
3.984,-1.5155435875287595,70.35603677807026,-0.022900763358778626,0.030534351145038167,0.03816793893129771,180.90217094805737,131.5585073661021,0.07633587786259542,-0.0,-0.17557251908396945,62.77702247802218,166.71922293882335,-0.015267175572519083,0.007633587786259542,-0.061068702290076333,180.03775098415133,49.986696873485634,-0.2366412213740458,0.6717557251908397,0.10687022900763359,90.0,90.0,0.0,0.0,0.0,94.72,89.99,1.0,-5.0,0.0,
4.022,-1.7780267211436454,63.23361396977013,-0.022900763358778626,0.030534351145038167,0.03816793893129771,180.6543373778266,130.67826996164254,0.07633587786259542,-0.0,-0.17557251908396945,40.21872434001741,166.76617281988877,-0.03816793893129771,-0.0,-0.04580152671755725,180.03779827561874,49.98668088522511,-0.2366412213740458,0.6717557251908397,0.10687022900763359,90.0,90.0,0.0,0.0,0.0,94.63,90.32,-2.0,-2.0,1.0,
4.061,-2.0011373847162983,57.17955458271503,-0.022900763358778626,0.030534351145038167,0.03816793893129771,180.44367884313047,129.9300681678519,0.07633587786259542,-0.0,-0.17557251908396945,21.044170922713356,166.80608021879436,-0.03816793893129771,-0.0,-0.04580152671755725,180.03783847336604,49.98666729520367,-0.2366412213740458,0.6717557251908397,0.10687022900763359,90.0,90.0,0.0,0.0,0.0,94.58,90.24,-1.0,-4.0,-1.0,
4.1,-2.1907814487530533,52.03360410371819,-0.022900763358778626,0.030534351145038167,0.03816793893129771,180.26461908863874,129.29409664312988,0.07633587786259542,-0.0,-0.17557251908396945,58.353015445707705,166.59804866332544,-0.015267175572519083,0.022900763358778626,0.007633587786259542,180.03787264145123,49.98665574368544,-0.2366412213740458,0.6717557251908397,0.10687022900763359,90.0,90.0,0.0,0.0,0.0,94.3,90.49,-1.0,-10.0,-1.0,
4.138999999999999,-2.3519789031842953,47.65954619657088,-0.022900763358778626,0.030534351145038167,0.03816793893129771,180.11241829732077,128.75352084711614,0.07633587786259542,-0.0,-0.17557251908396945,90.0655332902529,166.42122184117687,-0.015267175572519083,0.022900763358778626,0.007633587786259542,180.03790168432366,49.986645924894944,-0.2366412213740458,0.6717557251908397,0.10687022900763359,90.0,90.0,0.0,0.0,0.0,94.11,90.55,0.0,-2.0,0.0,
4.177,-2.2813768013266587,45.28672785003538,-0.022900763358778626,0.007633587786259542,0.0,179.9830476247005,128.29403142050447,0.07633587786259542,-0.0,-0.17557251908396945,117.02117345811632,166.27091904235058,-0.015267175572519083,0.022900763358778626,0.007633587786259542,180.0379263707652,49.98663757892302,-0.2366412213740458,0.6717557251908397,0.10687022900763359,90.0,90.0,0.0,0.0,0.0,93.99,90.63,-5.0,0.0,0.0,
4.216,-2.2213650147476676,43.26983225548021,-0.022900763358778626,0.007633587786259542,0.0,179.68508701385232,125.90527419904791,-0.015267175572519083,-0.0,-0.015267175572519083,139.93346760080024,166.14316166334822,-0.015267175572519083,0.022900763358778626,0.007633587786259542,180.03794735424054,49.98663048484689,-0.2366412213740458,0.6717557251908397,0.10687022900763359,90.0,90.0,0.0,0.0,0.0,94.18,90.67,-4.0,-3.0,1.0,
4.254,-2.170354996155525,41.55547100010831,-0.022900763358778626,0.007633587786259542,0.0,179.43182049463138,123.87483056080984,-0.015267175572519083,-0.0,-0.015267175572519083,159.40891762208156,166.03456789119622,-0.015267175572519083,0.022900763358778626,0.007633587786259542,180.03796519019457,49.98662445488218,-0.2366412213740458,0.6717557251908397,0.10687022900763359,90.0,90.0,0.0,0.0,0.0,93.74,90.79,-5.0,-5.0,1.0,
4.292,-2.126996480352204,40.098263933042205,-0.022900763358778626,0.007633587786259542,0.0,179.37996048802327,123.5646742794414,0.007633587786259542,-0.0,0.015267175572519083,175.96305014017065,165.94226318486702,-0.015267175572519083,0.022900763358778626,0.007633587786259542,180.0379803507555,49.98661932941218,-0.2366412213740458,0.6717557251908397,0.10687022900763359,90.0,90.0,0.0,0.0,0.0,93.6,90.84,-2.0,-5.0,0.0,
4.33,-2.090141741919381,38.85963792603601,-0.022900763358778626,0.007633587786259542,0.0,179.33587948240637,123.30104144027824,0.007633587786259542,-0.0,0.015267175572519083,136.35870818020825,165.88843032846245,-0.07633587786259542,-0.007633587786259542,-0.04580152671755725,180.03799323723229,49.98661497276267,-0.2366412213740458,0.6717557251908397,0.10687022900763359,90.0,90.0,0.0,0.0,0.0,93.59,90.8,-3.0,0.0,0.0,
4.369,-2.0588152142514815,37.80680582008074,-0.022900763358778626,0.007633587786259542,0.0,179.298410627632,123.07695352698956,0.007633587786259542,-0.0,0.015267175572519083,102.69501751424022,165.84267240051858,-0.07633587786259542,-0.007633587786259542,-0.04580152671755725,180.03800419073755,49.98661126961059,-0.2366412213740458,0.6717557251908397,0.10687022900763359,90.0,90.0,0.0,0.0,0.0,93.59,90.89,-4.0,-1.0,0.0,
4.408,-2.0321876657337667,36.91189853001877,-0.022900763358778626,0.007633587786259542,0.0,179.2665621010738,122.88647880069416,0.007633587786259542,-0.0,0.015267175572519083,74.08088044816738,165.80377816176627,-0.07633587786259542,-0.007633587786259542,-0.04580152671755725,180.03801350121702,49.986608121931326,-0.2366412213740458,0.6717557251908397,0.10687022900763359,90.0,90.0,0.0,0.0,0.0,93.47,90.86,-3.0,-2.0,-1.0,
4.446,-2.0095542494937093,36.15122733346609,-0.022900763358778626,0.007633587786259542,0.0,179.23949085349932,122.72457528334309,0.007633587786259542,-0.0,0.015267175572519083,49.75886394200546,165.77071805882682,-0.07633587786259542,-0.007633587786259542,-0.04580152671755725,180.03802141512458,49.98660544640395,-0.2366412213740458,0.6717557251908397,0.10687022900763359,90.0,90.0,0.0,0.0,0.0,93.37,90.84,-3.0,-1.0,-1.0,
4.485,-1.9903158456896604,35.50465681639631,-0.022900763358778626,0.007633587786259542,0.0,179.216480293061,122.58695729359466,0.007633587786259542,-0.0,0.015267175572519083,29.08514991176784,165.7426169713283,-0.07633587786259542,-0.007633587786259542,-0.04580152671755725,180.038028141946,49.986603172205676,-0.2366412213740458,0.6717557251908397,0.10687022900763359,90.0,90.0,0.0,0.0,0.0,93.24,90.95,-3.0,-1.0,0.0,
4.524,-2.035008324986851,34.18340131401622,-0.015267175572519083,-0.0,0.022900763358778626,179.19692131668845,122.46998200230851,0.007633587786259542,-0.0,0.015267175572519083,11.512492986065858,165.71873104695453,-0.07633587786259542,-0.007633587786259542,-0.04580152671755725,180.03803385974422,49.986601239137144,-0.2366412213740458,0.6717557251908397,0.10687022900763359,90.0,90.0,0.0,0.0,0.0,93.13,91.0,-5.0,0.0,0.0,
4.562,-2.0729969323894633,33.06033413699314,-0.015267175572519083,-0.0,0.022900763358778626,179.18029618677176,122.37055300471528,0.007633587786259542,-0.0,0.015267175572519083,-3.4242654007808238,165.69842801123684,-0.07633587786259542,-0.007633587786259542,-0.04580152671755725,180.0380387198727,49.986599596028896,-0.2366412213740458,0.6717557251908397,0.10687022900763359,90.0,90.0,0.0,0.0,0.0,93.03,91.05,-4.0,1.0,0.0,
4.601,-2.1052872486816834,32.105727036523525,-0.015267175572519083,-0.0,0.022900763358778626,179.16520152899687,121.99292110375194,0.022900763358778626,-0.0,0.0,-16.120510029600503,165.6811704308768,-0.07633587786259542,-0.007633587786259542,-0.04580152671755725,180.0380428509819,49.98659819938688,-0.2366412213740458,0.6717557251908397,0.10687022900763359,90.0,90.0,0.0,0.0,0.0,93.01,91.1,-5.0,1.0,1.0,
4.639,-2.1327340175300704,31.294311001124353,-0.015267175572519083,-0.0,0.022900763358778626,179.15237106988823,121.6719339879331,0.022900763358778626,-0.0,0.0,-26.912317964097234,165.66650148757077,-0.07633587786259542,-0.007633587786259542,-0.04580152671755725,180.03804636242472,49.98659701224117,-0.2366412213740458,0.6717557251908397,0.10687022900763359,90.0,90.0,0.0,0.0,0.0,93.04,91.22,-3.0,3.0,1.0,
4.677,-2.212068014937564,29.174392220677134,0.0,-0.0,0.030534351145038167,179.1414651796459,121.3990949394871,0.022900763358778626,-0.0,0.0,-36.08535470841946,165.65403288576064,-0.07633587786259542,-0.007633587786259542,-0.04580152671755725,180.03804934715112,49.986596003167314,-0.2366412213740458,0.6717557251908397,0.10687022900763359,90.0,90.0,0.0,0.0,0.0,93.07,91.16,-6.0,3.0,1.0,
4.715,-2.2795019127339335,27.372461257297,0.0,-0.0,0.030534351145038167,179.1321951729399,121.167181748308,0.022900763358778626,-0.0,0.0,-43.88243594109335,165.64343457422203,-0.07633587786259542,-0.007633587786259542,-0.04580152671755725,180.03805188416857,49.98659514545454,-0.2366412213740458,0.6717557251908397,0.10687022900763359,90.0,90.0,0.0,0.0,0.0,93.07,91.16,-3.0,1.0,1.0,
4.753,-2.3519082250816816,26.696658404360328,0.0,0.007633587786259542,0.015267175572519083,179.1243156672398,120.97005553580576,0.022900763358778626,-0.0,0.0,-50.509954988866156,165.6344260094142,-0.07633587786259542,-0.007633587786259542,-0.04580152671755725,180.0380540406334,49.98659441639868,-0.2366412213740458,0.6717557251908397,0.10687022900763359,90.0,90.0,0.0,0.0,0.0,93.15,91.01,-4.0,1.0,1.0,
4.792,-2.413453590577267,26.122225979364156,0.0,0.007633587786259542,0.015267175572519083,179.11761808739473,120.80249825517885,0.022900763358778626,-0.0,0.0,-56.14334617947304,165.62676872932755,-0.07633587786259542,-0.007633587786259542,-0.04580152671755725,180.0380558736285,49.9865937967012,-0.2366412213740458,0.6717557251908397,0.10687022900763359,90.0,90.0,0.0,0.0,0.0,93.24,90.98,-4.0,0.0,0.0,
4.83,-2.465767151248515,25.63395841811741,0.0,0.007633587786259542,0.015267175572519083,179.11192514452642,120.66007456664599,0.022900763358778626,-0.0,0.0,-60.931728691488885,165.6202600412539,-0.07633587786259542,-0.007633587786259542,-0.04580152671755725,180.03805743167433,49.98659326995834,-0.2366412213740458,0.6717557251908397,0.10687022900763359,90.0,90.0,0.0,0.0,0.0,93.22,91.02,-4.0,1.0,0.0,
4.869,-2.5102336778190755,25.218930991057675,0.0,0.007633587786259542,0.015267175572519083,179.10708614308837,120.53901443139304,0.022900763358778626,-0.0,0.0,-64.96257888405012,165.72207507548842,-0.022900763358778626,-0.0,-0.007633587786259542,180.0380587560133,49.98659282222691,-0.2366412213740458,0.6717557251908397,0.10687022900763359,90.0,90.0,0.0,0.0,0.0,93.21,91.03,-4.0,1.0,0.0,
4.907,-2.548030225404052,24.8661576780569,0.0,0.007633587786259542,0.015267175572519083,179.102972991866,120.43611331642805,0.022900763358778626,-0.0,0.0,-68.40892842832743,165.80612824950265,-0.015267175572519083,-0.0,0.0,180.03805988170143,49.9865924416552,-0.2366412213740458,0.6717557251908397,0.10687022900763359,90.0,90.0,0.0,0.0,0.0,93.21,91.0,-3.0,0.0,0.0,
4.945,-2.580157290851282,24.566300362006242,0.0,0.007633587786259542,0.015267175572519083,179.1086212218181,120.64182950721307,0.015267175572519083,-0.0,-0.007633587786259542,-71.33832554096314,165.8775734474147,-0.015267175572519083,-0.0,0.0,180.03806083853632,49.98659211816924,-0.2366412213740458,0.6717557251908397,0.10687022900763359,90.0,90.0,0.0,0.0,0.0,93.22,91.01,-4.0,2.0,0.0,
4.984,-2.6074652964814273,24.311421643363182,0.0,0.007633587786259542,0.015267175572519083,179.1134222172774,120.81668826938035,0.015267175572519083,-0.0,-0.007633587786259542,-73.8283130867035,165.93830186563997,-0.015267175572519083,-0.0,0.0,180.03235172818188,49.98860329358786,0.0,-0.0,0.030534351145038167,90.0,90.0,0.0,0.0,0.0,93.29,91.0,-3.0,1.0,0.0,
5.022,-2.630677101267051,24.09477473251658,0.0,0.007633587786259542,0.015267175572519083,179.11750306341776,120.96531821722253,0.015267175572519083,-0.0,-0.007633587786259542,-75.96798204937589,165.94727259151918,-0.015267175572519083,-0.0,0.0,180.0274989843806,49.99031279269368,0.0,-0.0,0.030534351145038167,90.0,90.0,0.0,0.0,0.0,93.28,91.02,-4.0,1.0,0.0,
5.059,-2.6504071353348313,23.91062485829697,0.0,0.007633587786259542,0.015267175572519083,179.12071349316523,121.11674856969081,0.030534351145038167,-0.0,-0.015267175572519083,-77.78670066764741,165.9548977085165,-0.015267175572519083,-0.0,0.0,180.0233741521495,49.991765866933626,0.0,-0.0,0.030534351145038167,90.0,90.0,0.0,0.0,0.0,93.36,91.03,-4.0,1.0,0.0,
5.096,-2.6420259311993637,23.30729936134946,0.0,-0.0,0.022900763358778626,179.12344235845057,121.24546436928884,0.030534351145038167,-0.0,-0.015267175572519083,-79.3326114931782,165.96137905796422,-0.015267175572519083,-0.0,0.0,180.01986804475308,49.993000980037586,0.0,-0.0,0.030534351145038167,90.0,90.0,0.0,0.0,0.0,93.4,90.97,-2.0,0.0,-1.0,
5.134,-2.6349019076842164,22.79447268894408,0.0,-0.0,0.022900763358778626,179.12576189394312,121.35487279894717,0.030534351145038167,-0.0,-0.015267175572519083,-80.64663569487938,165.96688820499477,-0.015267175572519083,-0.0,0.0,180.0168878534661,49.993985940679764,-0.007633587786259542,-0.0,0.007633587786259542,90.0,90.0,0.0,0.0,0.0,93.41,90.95,-3.0,0.0,-1.0,
5.172,-2.628846487696341,22.358570017399504,0.0,-0.0,0.022900763358778626,179.12695238317926,121.6852236424044,0.030534351145038167,-0.0,-0.030534351145038167,-81.76355626632538,165.97157097997075,-0.015267175572519083,-0.0,0.0,180.01435469087218,49.99482315722562,-0.007633587786259542,-0.0,0.007633587786259542,90.0,90.0,0.0,0.0,0.0,93.52,90.98,-4.0,1.0,-1.0,
5.21,-2.623699380706647,21.988052746586614,0.0,-0.0,0.022900763358778626,179.12796429902997,121.96602185934304,0.030534351145038167,-0.0,-0.030534351145038167,-82.71293875205448,165.97555133870034,-0.015267175572519083,-0.0,0.0,180.01220150266735,49.99553479128959,-0.007633587786259542,-0.0,0.007633587786259542,90.0,90.0,0.0,0.0,0.0,93.55,91.0,-3.0,0.0,-1.0,
5.248,-2.619324339765407,21.673113066395658,0.0,-0.0,0.022900763358778626,179.12882442750308,122.20470034374088,0.030534351145038167,-0.0,-0.030534351145038167,-83.51991386492422,165.97893464362048,-0.015267175572519083,-0.0,0.0,180.01037129269324,49.99620456574016,0.0,-0.0,0.022900763358778626,90.0,90.0,0.0,0.0,0.0,93.53,91.1,-2.0,0.0,-1.0,
5.286,-2.615605554965353,21.405414338233346,0.0,-0.0,0.022900763358778626,179.12955553670523,122.40757705547907,0.030534351145038167,-0.0,-0.030534351145038167,-84.2058427108635,165.9818104528026,-0.015267175572519083,-0.0,0.0,180.00881561421525,49.996773874023134,0.0,-0.0,0.022900763358778626,90.0,90.0,0.0,0.0,0.0,93.49,91.16,-3.0,1.0,-1.0,
5.323,-2.6124445878853075,21.17787041929538,0.0,-0.0,0.022900763358778626,179.09668549777646,122.10694779559216,0.022900763358778626,-0.0,-0.007633587786259542,-84.78888222991188,165.9842548906074,-0.015267175572519083,-0.0,0.0,180.00749328750896,49.99725778606366,0.0,-0.0,0.022900763358778626,90.0,90.0,0.0,0.0,0.0,93.67,91.22,-4.0,1.0,0.0,
5.361,-2.6097577658672684,20.98445808819811,0.0,-0.0,0.022900763358778626,179.06874596468703,121.8514129246883,0.022900763358778626,-0.0,-0.007633587786259542,-85.284465821103,165.9863326627415,-0.015267175572519083,-0.0,0.0,180.0063693098086,49.997669111298116,0.0,-0.0,0.022900763358778626,90.0,90.0,0.0,0.0,0.0,93.74,91.3,-3.0,0.0,0.0,
5.398,-2.607473967151935,20.82005760676543,0.0,-0.0,0.022900763358778626,179.044997361561,121.63420828442003,0.022900763358778626,-0.0,-0.007633587786259542,-85.70571187361546,165.98809876905545,-0.015267175572519083,-0.0,0.0,180.00541392876332,49.997953852251214,-0.007633587786259542,-0.0,0.030534351145038167,90.0,90.0,0.0,0.0,0.0,93.79,91.28,-4.0,0.0,0.0,
5.436,-2.605532738243902,20.68031719754765,0.0,-0.0,0.022900763358778626,179.02481104890387,121.44958434019199,0.022900763358778626,-0.0,-0.007633587786259542,-86.06377101825105,165.98959995942232,-0.015267175572519083,-0.0,0.0,180.0046018548748,49.998195882061346,-0.007633587786259542,-0.0,0.030534351145038167,90.0,90.0,0.0,0.0,0.0,93.82,91.26,-3.0,0.0,-2.0,
5.473,-2.6034828491628104,20.985633584113998,0.0,-0.0,0.015267175572519083,179.0076526831453,121.29265398759816,0.022900763358778626,-0.0,-0.007633587786259542,-86.3681212911913,165.99087597123417,-0.015267175572519083,-0.0,0.0,180.00391159206958,49.99840160739996,-0.007633587786259542,-0.0,0.030534351145038167,90.0,90.0,0.0,0.0,0.0,93.78,91.34,-2.0,0.0,-2.0,
5.511,-2.6017404434438824,21.245152512695395,0.0,-0.0,0.015267175572519083,178.9930680722505,121.1592631878934,0.022900763358778626,-0.0,-0.007633587786259542,-86.74103870244194,166.05331694201425,-0.015267175572519083,-0.0,0.0,180.00332486868513,49.99857647393778,-0.007633587786259542,-0.0,0.030534351145038167,90.0,90.0,0.0,0.0,0.0,93.69,91.39,-4.0,0.0,-1.0,
5.549,-2.6002593985827938,21.46574360198958,0.0,-0.0,0.015267175572519083,179.0752166314538,121.89130479406114,0.030534351145038167,-0.0,-0.022900763358778626,-87.058018502005,166.10639176717734,-0.015267175572519083,-0.0,0.0,180.00282615380834,49.99872511049493,-0.007633587786259542,-0.0,0.030534351145038167,90.0,90.0,0.0,0.0,0.0,93.71,91.42,-3.0,1.0,-2.0,
5.587,-2.606602298784013,21.6828556567976,0.0,-0.0,0.022900763358778626,179.1450429067766,122.51354015930374,0.030534351145038167,-0.0,-0.022900763358778626,-87.3274513316336,166.15150536856595,-0.015267175572519083,-0.0,0.0,180.0024022461631,49.998851451568505,-0.007633587786259542,-0.0,0.030534351145038167,90.0,90.0,0.0,0.0,0.0,93.73,91.44,-3.0,0.0,-1.0,
5.625,-2.61199376395505,21.867400903384418,0.0,-0.0,0.022900763358778626,179.1343997180674,122.45372568906386,0.022900763358778626,-0.0,-0.007633587786259542,-87.5564692368179,166.18985192974628,-0.015267175572519083,-0.0,0.0,180.0020419246646,49.99895884148105,-0.007633587786259542,-0.0,0.030534351145038167,90.0,90.0,0.0,0.0,0.0,93.72,91.48,-4.0,2.0,0.0,
5.663,-2.616576509350431,22.024264362983214,0.0,-0.0,0.022900763358778626,179.1613181459904,122.63101349941086,0.022900763358778626,-0.0,-0.015267175572519083,-87.75113445622456,166.22244650674958,-0.015267175572519083,-0.0,0.0,180.0017356513909,49.99905012290671,-0.007633587786259542,-0.0,0.030534351145038167,90.0,90.0,0.0,0.0,0.0,93.82,91.49,-5.0,2.0,-1.0,
5.7,-2.620471842936505,22.15759830364219,0.0,-0.0,0.022900763358778626,179.18419880972496,122.7817081382058,0.022900763358778626,-0.0,-0.015267175572519083,-87.91659989272021,166.2501518972024,-0.015267175572519083,-0.0,0.0,180.00147531910827,49.9991925976147,0.0,-0.0,0.007633587786259542,90.0,90.0,0.0,0.0,0.0,93.86,91.47,-5.0,3.0,-1.0,
5.738,-2.623782876484668,22.270932153202317,0.0,-0.0,0.022900763358778626,179.19518264829668,122.91129474978442,0.022900763358778626,-0.0,-0.015267175572519083,-88.05724551374152,166.27370147908726,-0.015267175572519083,-0.0,0.0,180.00125403666803,49.9993137011165,0.0,-0.0,0.007633587786259542,90.0,90.0,0.0,0.0,0.0,93.93,91.49,-4.0,2.0,0.0,
5.776,-2.6265972550006063,22.36726592532843,0.0,-0.0,0.022900763358778626,179.17826951560878,122.72153440748184,0.030534351145038167,-0.0,-0.022900763358778626,-88.17679429160964,166.29371862368941,-0.015267175572519083,-0.0,0.0,180.00106594659383,49.99941663909303,0.0,-0.0,0.007633587786259542,90.0,90.0,0.0,0.0,0.0,93.88,91.53,-4.0,1.0,0.0,
5.813,-2.628989476739154,22.449149631635624,0.0,-0.0,0.022900763358778626,179.16389335282403,122.56023811652466,0.030534351145038167,-0.0,-0.022900763358778626,-88.27841075279754,166.31073319660123,-0.015267175572519083,-0.0,0.0,180.00090607003074,49.999504136373076,0.0,-0.0,0.007633587786259542,90.0,90.0,0.0,0.0,0.0,93.95,91.48,-4.0,1.0,0.0,
5.851,-2.6310228652169196,22.51875078199674,0.0,-0.0,0.022900763358778626,179.15167361445702,122.42313626921106,0.030534351145038167,-0.0,-0.022900763358778626,-88.36478474480725,166.32519558357626,-0.015267175572519083,-0.0,0.0,180.00077017495212,49.99957850906112,0.0,-0.0,0.007633587786259542,90.0,90.0,0.0,0.0,0.0,94.01,91.5,-6.0,1.0,-1.0,
5.889,-2.6327512454230204,22.577911759803687,0.0,-0.0,0.022900763358778626,179.14128683684507,122.30659969899449,0.030534351145038167,-0.0,-0.022900763358778626,-88.43820263801551,166.337488612505,-0.015267175572519083,-0.0,0.0,180.0006546641353,49.99964172584595,0.0,-0.0,0.007633587786259542,90.0,90.0,0.0,0.0,0.0,94.1,91.4,-4.0,2.0,0.0,
5.927,-2.634220368598206,22.628198590939594,0.0,-0.0,0.022900763358778626,179.1324580758749,122.2075436143104,0.030534351145038167,-0.0,-0.022900763358778626,-88.33442239013479,166.30163078091886,-0.015267175572519083,-0.0,0.0,180.000556479941,49.99969546011305,0.0,-0.0,0.007633587786259542,90.0,90.0,0.0,0.0,0.0,94.14,91.44,-5.0,2.0,0.0,
5.964,-2.635469123297114,22.670942397405113,0.0,-0.0,0.022900763358778626,179.12495362905025,122.12334594232894,0.030534351145038167,-0.0,-0.022900763358778626,-88.24620917943618,166.27115162407063,-0.015267175572519083,-0.0,0.0,180.00047302337583,49.9997411342401,0.0,-0.0,0.007633587786259542,90.0,90.0,0.0,0.0,0.0,94.23,91.42,-5.0,2.0,0.0,
6.002,-2.6365305647911854,22.707274632900805,0.0,-0.0,0.022900763358778626,179.1185748492493,122.05177792114469,0.030534351145038167,-0.0,-0.022900763358778626,-88.17122795034237,166.24524434074965,-0.015267175572519083,-0.0,0.0,180.00040208529546,49.99977995724808,0.0,-0.0,0.007633587786259542,90.0,90.0,0.0,0.0,0.0,94.34,91.37,-5.0,1.0,0.0,
6.039,-2.6374327900611463,22.73815703307214,0.0,-0.0,0.022900763358778626,179.1131528864185,121.99094510313807,0.030534351145038167,-0.0,-0.022900763358778626,-88.20351294843428,166.2512659887503,-0.015267175572519083,-0.0,0.0,180.00034178792714,49.99981295680487,0.0,-0.0,0.007633587786259542,90.0,90.0,0.0,0.0,0.0,94.41,91.34,-5.0,2.0,0.0,
6.076,-2.638199681540613,22.76440707321778,0.0,-0.0,0.022900763358778626,179.0644530739055,121.67367095057762,0.022900763358778626,-0.0,-0.022900763358778626,-88.2309551968124,166.25638438955085,-0.015267175572519083,-0.0,0.0,180.00029053516405,49.999841006428134,0.0,-0.0,0.007633587786259542,90.0,90.0,0.0,0.0,0.0,94.46,91.3,-5.0,2.0,0.0,
6.114,-2.6388515392981597,22.78671960734157,0.0,-0.0,0.022900763358778626,179.04069153168996,121.60799645220332,0.022900763358778626,-0.0,-0.022900763358778626,-88.2542811079338,166.2607350302313,-0.015267175572519083,-0.0,0.0,180.00024697031543,49.99986484860791,0.0,-0.0,0.007633587786259542,90.0,90.0,0.0,0.0,0.0,94.56,91.28,-5.0,1.0,0.0,
6.152,-2.6394056183920744,22.80568526134679,0.0,-0.0,0.022900763358778626,179.0204942208067,121.55217312858517,0.022900763358778626,-0.0,-0.022900763358778626,-88.274108132387,166.26443307480972,-0.015267175572519083,-0.0,0.0,180.0002099401941,49.999885114460724,0.0,-0.0,0.007633587786259542,90.0,90.0,0.0,0.0,0.0,94.63,91.24,-4.0,2.0,0.0,
6.19,-2.6398765856219018,22.82180606725123,0.0,-0.0,0.022900763358778626,179.003326506556,121.50472330350973,0.022900763358778626,-0.0,-0.022900763358778626,-88.24862824777534,166.26929395103673,-0.007633587786259542,-0.0,0.0,180.000178464591,49.99990234043562,0.0,-0.0,0.007633587786259542,90.0,90.0,0.0,0.0,0.0,94.73,91.13,-5.0,1.0,0.0,
6.227,-2.640276907767255,22.835508752270005,0.0,-0.0,0.022900763358778626,178.98009971170666,121.27121847306866,0.022900763358778626,-0.0,-0.007633587786259542,-88.22697034585543,166.27342569582967,-0.007633587786259542,-0.0,0.0,180.00015171032834,49.99991698251428,0.0,-0.0,0.007633587786259542,90.0,90.0,0.0,0.0,0.0,94.8,91.12,-4.0,2.0,0.0,
6.265,-2.6406171815908057,22.847156034535963,0.0,-0.0,0.022900763358778626,178.96104835392097,121.15326395099312,0.030534351145038167,-0.0,-0.015267175572519083,-88.20856112922353,166.2769376789037,-0.007633587786259542,-0.0,0.0,180.0001289692051,49.999929428281135,0.0,-0.0,0.007633587786259542,90.0,90.0,0.0,0.0,0.0,94.85,91.15,-5.0,2.0,0.0,
6.303,-2.6409064143408236,22.857056224462028,0.0,-0.0,0.022900763358778626,178.98759745684487,121.40781281603566,0.030534351145038167,-0.0,-0.015267175572519083,-88.1929132950864,166.2799228645166,-0.007633587786259542,-0.0,0.0,180.00010963925033,49.999940007182964,0.0,-0.0,0.007633587786259542,90.0,90.0,0.0,0.0,0.0,94.81,91.19,-4.0,1.0,0.0,
6.339,-2.6411522621783385,22.86547138589918,0.0,-0.0,0.022900763358778626,178.99278109428664,121.44496667404802,0.022900763358778626,-0.0,-0.015267175572519083,-88.17961263606983,166.28246027228758,-0.007633587786259542,-0.0,0.0,180.00009320878877,49.99994899924952,0.0,-0.0,0.007633587786259542,90.0,90.0,0.0,0.0,0.0,94.84,91.19,-5.0,2.0,0.0,
6.377,-2.6413612328402265,22.87262427312076,0.0,-0.0,0.022900763358778626,178.99718718611217,121.47654745335852,0.022900763358778626,-0.0,-0.015267175572519083,-88.19440084110006,166.2439485075661,-0.015267175572519083,-0.0,0.0,180.00007924289645,49.99995664250609,0.0,-0.0,0.007633587786259542,90.0,90.0,0.0,0.0,0.0,94.89,91.17,-4.0,1.0,0.0,
6.415,-2.641538857902831,22.878704227259103,0.0,-0.0,0.022900763358778626,179.0004893183925,121.59033993244724,0.030534351145038167,-0.0,-0.015267175572519083,-88.20697081537575,166.21121350755286,-0.015267175572519083,-0.0,0.0,180.00006737188798,49.99996313927418,0.0,-0.0,0.007633587786259542,90.0,90.0,0.0,0.0,0.0,95.0,91.06,-5.0,1.0,0.0,
6.452,-2.6068697894297634,22.368092732779623,0.0,-0.0,0.015267175572519083,179.0032961308308,121.68706353967265,0.030534351145038167,-0.0,-0.015267175572519083,-88.21765529351009,166.1833887575416,-0.015267175572519083,-0.0,0.0,180.0000572815308,49.99996866152705,0.0,-0.0,0.007633587786259542,90.0,90.0,0.0,0.0,0.0,95.12,91.06,-4.0,2.0,0.0,
6.49,-2.5774010812276558,21.934072962472065,0.0,-0.0,0.015267175572519083,179.00568192140332,121.76927860581425,0.030534351145038167,-0.0,-0.015267175572519083,-88.18432692517611,166.2057248707411,-0.015267175572519083,-0.0,0.0,180.00004870472716,49.999973355441995,0.0,-0.0,0.007633587786259542,90.0,90.0,0.0,0.0,0.0,95.15,91.07,-6.0,2.0,-1.0,
6.528,-2.5523526792558644,21.565156157710643,0.0,-0.0,0.015267175572519083,179.00770984339,121.83916141203461,0.030534351145038167,-0.0,-0.015267175572519083,-88.15599781209222,166.2247105669607,-0.015267175572519083,-0.0,0.0,180.00004141444407,49.9999773452697,0.0,-0.0,0.007633587786259542,90.0,90.0,0.0,0.0,0.0,95.16,91.0,-4.0,2.0,0.0,
6.566,-2.5310615375798418,21.25157687366343,0.0,-0.0,0.015267175572519083,179.00943357707865,121.89856179732192,0.030534351145038167,-0.0,-0.015267175572519083,-88.13191806597092,166.24084840874738,-0.015267175572519083,-0.0,0.0,180.00003521770344,49.99998073662324,0.0,-0.0,0.007633587786259542,90.0,90.0,0.0,0.0,0.0,95.25,91.04,-5.0,2.0,0.0,
6.604,-2.5129640671552225,20.985034482223302,0.0,-0.0,0.015267175572519083,179.01089875071398,121.94905212481612,0.030534351145038167,-0.0,-0.015267175572519083,-88.11145028176782,166.25456557426605,-0.015267175572519083,-0.0,0.0,180.00002995047393,49.999983619273756,0.0,-0.0,0.007633587786259542,90.0,90.0,0.0,0.0,0.0,95.36,90.99,-4.0,1.0,0.0,
6.641,-2.497581217294296,20.758473449499192,0.0,-0.0,0.015267175572519083,179.012144148304,121.9919689031862,0.030534351145038167,-0.0,-0.015267175572519083,-88.09405266519518,166.26622516495692,-0.015267175572519083,-0.0,0.0,180.00009035882502,49.999921184030505,-0.007633587786259542,0.007633587786259542,0.022900763358778626,90.0,90.0,0.0,0.0,0.0,95.4,90.9,-4.0,1.0,0.0,
6.678,-2.4845057949125087,20.565896571683698,0.0,-0.0,0.015267175572519083,179.01320273625555,122.02844816480076,0.030534351145038167,-0.0,-0.015267175572519083,-88.07926469110843,166.27613581704415,-0.015267175572519083,-0.0,0.0,180.00014170592343,49.99986811407374,-0.007633587786259542,0.007633587786259542,0.022900763358778626,90.0,90.0,0.0,0.0,0.0,95.49,90.88,-4.0,2.0,0.0,
6.716,-2.4653081433739423,20.516044874541713,0.0,-0.0,0.015267175572519083,179.01410253601438,122.05945553717315,0.030534351145038167,-0.0,-0.015267175572519083,-88.0666949131347,166.2845598713183,-0.015267175572519083,-0.0,0.0,180.00018535095708,49.9998230046105,-0.007633587786259542,0.007633587786259542,0.022900763358778626,90.0,90.0,0.0,0.0,0.0,95.58,90.84,-4.0,1.0,0.0,
6.754,-2.448990139566161,20.473670931971025,0.0,-0.0,0.015267175572519083,179.01486736580938,122.08581180368968,0.030534351145038167,-0.0,-0.015267175572519083,-88.05601060185703,166.2917203174513,-0.015267175572519083,-0.0,0.0,180.00022244923568,49.999784661566736,-0.007633587786259542,0.007633587786259542,0.022900763358778626,90.0,90.0,0.0,0.0,0.0,95.71,90.77,-3.0,1.0,0.0,
6.792,-2.4351198363295468,20.43765308078594,0.0,-0.0,0.015267175572519083,179.01551747113513,122.10821463022873,0.030534351145038167,-0.0,-0.015267175572519083,-88.046928937271,166.29780669666437,-0.015267175572519083,-0.0,0.0,180.00018909727632,49.99981695547572,0.0,-0.0,0.022900763358778626,90.0,90.0,0.0,0.0,0.0,95.74,90.77,-4.0,1.0,0.0,
6.83,-2.4233300785784246,20.407037907278617,0.0,-0.0,0.015267175572519083,178.98237315697952,121.77341493410086,0.030534351145038167,-0.0,-0.022900763358778626,-88.03920952237289,166.30298011899546,-0.015267175572519083,-0.0,0.0,180.00016074811086,49.99984440529836,0.0,-0.0,0.022900763358778626,90.0,90.0,0.0,0.0,0.0,95.84,90.86,-4.0,1.0,0.0,
6.868,-2.413308784489971,20.38101500979739,0.0,-0.0,0.015267175572519083,178.95420048994725,121.48883519239216,0.030534351145038167,-0.0,-0.022900763358778626,-88.04867913218709,166.26769941155936,-0.015267175572519083,-0.0,0.0,180.00013665132022,49.999867737647605,0.0,-0.0,0.022900763358778626,90.0,90.0,0.0,0.0,0.0,96.03,90.86,-6.0,5.0,2.0,
6.905,-2.4128742270288326,20.404039143152477,0.0,-0.0,0.015267175572519083,178.93025372296984,121.24694241193977,0.030534351145038167,-0.0,-0.022900763358778626,-88.05672830052916,166.23771081023867,-0.015267175572519083,-0.0,0.0,180.00011616904817,49.999887570144466,0.0,-0.0,0.022900763358778626,90.0,90.0,0.0,0.0,0.0,95.98,90.79,-6.0,3.0,-1.0,
6.943,-2.412504853186865,20.4236096565043,0.0,-0.0,0.015267175572519083,179.00494640233137,121.84783310484207,0.030534351145038167,-0.0,-0.022900763358778626,-88.06357009361993,166.21222049911609,-0.015267175572519083,-0.0,0.0,180.00009875911692,49.99990442776679,0.0,-0.0,0.022900763358778626,90.0,90.0,0.0,0.0,0.0,95.89,90.87,-6.0,0.0,0.0,
6.98,-2.8148740799905694,19.95740251637321,0.0,-0.0,0.007633587786259542,179.06843517978865,122.35859019380902,0.030534351145038167,-0.0,-0.022900763358778626,-88.06938561774707,166.1905537346619,-0.015267175572519083,-0.0,0.0,180.00008396067537,49.99991875674578,0.0,-0.0,0.022900763358778626,90.0,90.0,0.0,0.0,0.0,95.99,90.95,-2.0,1.0,1.0,
7.018,-2.558908360030412,21.56171217637084,0.0,-0.0,0.015267175572519083,179.12240064062735,122.79273371943094,0.030534351145038167,-0.0,-0.022900763358778626,-88.07432881325515,166.17213698487583,-0.015267175572519083,-0.0,0.0,180.00007138200004,49.999930936377915,0.0,-0.0,0.022900763358778626,90.0,90.0,0.0,0.0,0.0,96.48,90.73,-7.0,9.0,13.0,
7.055,-2.341337498064278,22.925375387368824,0.0,-0.0,0.015267175572519083,178.95124260435657,121.82906097755937,0.04580152671755725,-0.0,-0.030534351145038167,-88.07853052943702,166.15648274755767,-0.015267175572519083,-0.0,0.0,180.00006069012602,49.99994128906523,0.0,-0.0,0.022900763358778626,90.0,90.0,0.0,0.0,0.0,96.48,90.38,-11.0,14.0,2.0,
7.093,-2.1564022653930643,24.084489116717112,0.0,-0.0,0.015267175572519083,178.8057582735264,121.00993914696853,0.04580152671755725,-0.0,-0.030534351145038167,-88.08210198819161,166.14317664583723,-0.015267175572519083,-0.0,0.0,180.00018137302547,61.99995010256144,0.0,0.015267175572519083,0.061068702290076333,90.0,90.0,0.0,0.0,0.0,96.62,90.29,-8.0,17.0,-3.0,
7.131,-1.9992073176225327,25.069735786663156,0.0,-0.0,0.015267175572519083,178.68209659232076,120.31368559096633,0.04580152671755725,-0.0,-0.030534351145038167,-88.085137728133,166.13186645937486,-0.015267175572519083,-0.0,0.0,180.00015418249765,60.200346893298324,0.04580152671755725,-0.0,-0.022900763358778626,90.0,90.0,0.0,0.0,0.0,96.77,90.02,-17.0,24.0,-8.0,
7.169,-1.8655916120175808,25.907195456117293,0.0,-0.0,0.015267175572519083,178.57698416329598,119.72187006836445,0.04580152671755725,-0.0,-0.030534351145038167,-34.44355817701737,166.14549945515475,-0.022900763358778626,0.015267175572519083,0.022900763358778626,180.000131070549,58.670684165424674,0.04580152671755725,-0.0,-0.022900763358778626,90.0,90.0,0.0,0.0,0.0,96.71,90.06,-15.0,20.0,-11.0,
7.207,-1.7520182622533718,26.61903617515331,0.0,-0.0,0.015267175572519083,178.86907660055368,122.00212215497451,0.061068702290076333,0.022900763358778626,0.03816793893129771,11.151784441430923,166.15708750156767,-0.022900763358778626,0.015267175572519083,0.022900763358778626,180.00011142539265,57.370470846732076,0.04580152671755725,-0.0,-0.022900763358778626,90.0,90.0,0.0,0.0,0.0,96.61,89.88,-8.0,24.0,-7.0,
7.245,-1.655480914953794,27.224100786333928,0.0,-0.0,0.015267175572519083,179.11735517222274,123.94033642859307,0.061068702290076333,0.022900763358778626,0.03816793893129771,-3.926313280498528,166.09528718866662,0.0,0.03816793893129771,0.10687022900763359,180.00009472700975,56.265289525843365,0.04580152671755725,-0.0,-0.022900763358778626,90.0,90.0,0.0,0.0,0.0,96.73,90.46,-16.0,29.0,4.0,
7.283,-1.573424169749153,27.73840570583745,0.0,-0.0,0.015267175572519083,179.32839195814145,125.58781856116883,0.061068702290076333,0.022900763358778626,0.03816793893129771,-16.74269634413856,166.0427569227007,0.0,0.03816793893129771,0.10687022900763359,180.00008053338428,55.32588540308796,0.04580152671755725,-0.0,-0.022900763358778626,90.0,90.0,0.0,0.0,0.0,96.43,90.75,-30.0,54.0,-9.0,
7.32,-1.503675936325208,28.175564887415444,0.0,-0.0,0.015267175572519083,179.1964439072822,124.8059131796383,0.0,-0.0,0.061068702290076333,-27.636621948232587,165.9981061966297,0.0,0.03816793893129771,0.10687022900763359,180.00006846880262,54.52739189874587,0.04580152671755725,-0.0,-0.022900763358778626,90.0,90.0,0.0,0.0,0.0,97.04,90.36,-38.0,56.0,4.0,
7.358,-1.4443899379148548,28.54715019175674,0.0,-0.0,0.015267175572519083,179.08428806405186,124.14129360533734,0.0,-0.0,0.061068702290076333,-36.89645871171251,165.96015307946934,0.0,0.03816793893129771,0.10687022900763359,180.00005821390823,53.84867242005509,0.04580152671755725,-0.0,-0.022900763358778626,90.0,90.0,0.0,0.0,0.0,98.44,90.29,-44.0,61.0,27.0,
7.396,-1.3939968392660547,28.86299770044684,0.0,-0.0,0.015267175572519083,178.83844519822534,120.58673549688646,0.007633587786259542,-0.0,0.08396946564885496,-44.76731996067045,165.92789292988303,0.0,0.03816793893129771,0.10687022900763359,180.000049497248,53.27176086316793,0.04580152671755725,-0.0,-0.022900763358778626,90.0,90.0,0.0,0.0,0.0,98.8,88.75,-39.0,39.0,12.0,
7.435,-1.3511627054145745,29.131468082833425,0.0,-0.0,0.015267175572519083,178.6294787622728,117.56536110470321,0.007633587786259542,-0.0,0.08396946564885496,-51.45755202228469,165.90047180273467,0.0,0.03816793893129771,0.10687022900763359,180.00049628656006,52.78099672683674,0.0,0.05343511450381679,0.03816793893129771,90.0,90.0,0.0,0.0,0.0,98.98,87.33,-9.0,36.0,23.0,
7.473,-1.3147536916408165,29.359667907862022,0.0,-0.0,0.015267175572519083,178.1470540630116,112.76705080233968,0.15267175572519084,0.2366412213740458,0.007633587786259542,-57.1442492746568,165.87716384465855,0.0,0.03816793893129771,0.10687022900763359,180.00087605747532,52.36384721095523,0.0,0.05343511450381679,0.03816793893129771,90.0,90.0,0.0,0.0,0.0,98.79,88.3,-14.0,26.0,15.0,
7.511,-1.283806029933122,29.55363775913633,0.0,-0.0,0.015267175572519083,175.0816566806227,109.6669934052321,0.03816793893129771,0.22137404580152673,-0.06870229007633588,-61.97794193917309,165.85735208029385,0.0,0.03816793893129771,0.10687022900763359,180.00119886275328,52.009270122455945,0.0,0.05343511450381679,0.03816793893129771,90.0,90.0,0.0,0.0,0.0,96.12,91.29,-20.0,59.0,4.0,
7.55,-1.2575005174815816,29.718512132719493,0.0,-0.0,0.015267175572519083,172.47606890559211,107.03194461769067,0.03816793893129771,0.22137404580152673,-0.06870229007633588,-66.08658070401194,165.84051208058386,0.0,0.03816793893129771,0.10687022900763359,180.00147324723957,51.70787959723155,0.0,0.05343511450381679,0.03816793893129771,90.0,90.0,0.0,0.0,0.0,98.44,89.59,-2.0,18.0,-6.0,
7.588,-1.2351408318977724,29.85865535026518,0.0,-0.0,0.015267175572519083,170.2613192968161,104.79215314828045,0.03816793893129771,0.22137404580152673,-0.06870229007633588,-69.57892365412496,165.82619808083038,0.0,0.03816793893129771,0.10687022900763359,180.00170647405292,51.45169765079082,0.0,0.05343511450381679,0.03816793893129771,90.0,90.0,0.0,0.0,0.0,100.45,86.11,-6.0,0.0,12.0,
7.627,-0.0167652725320937,38.062075693939235,-0.015267175572519083,-0.3893129770992366,0.007633587786259542,168.37878212935652,102.88833039928176,0.03816793893129771,0.22137404580152673,-0.06870229007633588,-72.54741516172103,165.81403118103992,0.0,0.03816793893129771,0.10687022900763359,180.00190471684425,51.233942996316195,0.0,0.05343511450381679,0.03816793893129771,90.0,90.0,0.0,0.0,0.0,103.47,84.83,-3.0,13.0,14.0,
7.665,1.018853952928733,45.03498298606219,-0.015267175572519083,-0.3893129770992366,0.007633587786259542,166.7786255370159,101.27008106263287,0.03816793893129771,0.22137404580152673,-0.06870229007633588,-75.0706329431777,165.80368931621803,0.0,0.03816793893129771,0.10687022900763359,180.01063810871307,51.048462227035664,-0.04580152671755725,1.0610687022900764,0.4122137404580153,90.0,90.0,0.0,0.0,0.0,108.99,83.16,-16.0,23.0,13.0,
7.703,-0.7791769339798555,40.86522673016784,-0.0916030534351145,-0.5267175572519084,-0.3053435114503817,165.41849243352635,99.89456912648131,0.03816793893129771,0.22137404580152673,-0.06870229007633588,-77.21536805741586,165.79489873111942,0.0,0.03816793893129771,0.10687022900763359,180.01806149180157,50.89080357314722,-0.04580152671755725,1.0610687022900764,0.4122137404580153,90.0,90.0,0.0,0.0,0.0,111.53,81.7,-22.0,7.0,10.0,
7.743,-2.3075031878521557,37.320933912657644,-0.0916030534351145,-0.5267175572519084,-0.3053435114503817,169.94527147193548,109.35936110266576,0.22900763358778625,0.5343511450381679,-0.25190839694656486,-79.0383929045183,165.7874267337856,0.0,0.03816793893129771,0.10687022900763359,180.0243713674268,50.756793717342035,-0.04580152671755725,1.0610687022900764,0.4122137404580153,90.0,90.0,0.0,0.0,0.0,112.07,81.08,10.0,-18.0,8.0,
7.782,-4.415460041269965,33.63266232226564,-0.06870229007633588,-0.6106870229007634,-0.11450381679389313,173.79303365458327,117.40443428242254,0.22900763358778625,0.5343511450381679,-0.25190839694656486,-80.58796402455538,165.78107553605184,0.0,0.03816793893129771,0.10687022900763359,180.02973476170823,50.64288533990763,-0.04580152671755725,1.0610687022900764,0.4122137404580153,90.0,90.0,0.0,0.0,0.0,113.62,80.78,0.0,-37.0,40.0,
7.822,-6.207223366675102,30.49763147043243,-0.06870229007633588,-0.6106870229007634,-0.11450381679389313,176.90304846815494,123.40588857366205,0.13740458015267176,0.6946564885496184,-0.05343511450381679,-81.90509947658688,165.77567701797815,0.0,0.03816793893129771,0.10687022900763359,180.03429364684746,50.54606321908838,-0.04580152671755725,1.0610687022900764,0.4122137404580153,90.0,90.0,0.0,0.0,0.0,113.77,79.74,-6.0,-16.0,2.0,
7.861,-7.730222193269468,27.832855246374205,-0.06870229007633588,-0.6106870229007634,-0.11450381679389313,180.11687628602425,129.1174263676443,0.16793893129770993,0.8702290076335878,-0.0916030534351145,-83.02466461081367,165.77108827761552,0.0,0.03816793893129771,0.10687022900763359,180.0381686992158,50.463764416392024,-0.04580152671755725,1.0610687022900764,0.4122137404580153,90.0,90.0,0.0,0.0,0.0,111.71,79.76,-5.0,-20.0,13.0,
7.901,-9.024771195874681,25.567795455924713,-0.06870229007633588,-0.6106870229007634,-0.11450381679389313,183.90876935575434,134.191862125181,0.11450381679389313,1.0076335877862594,-0.17557251908396945,-83.97629497490644,165.7671878483073,0.0,0.03816793893129771,0.10687022900763359,180.0414624937289,50.39381043410012,-0.04580152671755725,1.0610687022900764,0.4122137404580153,90.0,90.0,0.0,0.0,0.0,112.13,79.41,3.0,-25.0,3.0,
7.94,-11.814072559259294,23.76828671484872,-0.1450381679389313,-1.015267175572519,-0.15267175572519084,187.13187846502493,138.5051325190872,0.11450381679389313,1.0076335877862594,-0.17557251908396945,-84.78518078438529,165.7638724833953,0.0,0.03816793893129771,0.10687022900763359,180.04426221906502,50.334349549152,-0.04580152671755725,1.0610687022900764,0.4122137404580153,90.0,90.0,0.0,0.0,0.0,111.63,79.74,0.0,-28.0,3.0,
7.98,-14.184978718136215,22.238704284934126,-0.1450381679389313,-1.015267175572519,-0.15267175572519084,189.87152120790492,142.17141235390747,0.11450381679389313,1.0076335877862594,-0.17557251908396945,-85.47273372244231,165.7610544232201,0.0,0.03816793893129771,0.10687022900763359,180.04664198560073,50.2838077969461,-0.04580152671755725,1.0610687022900764,0.4122137404580153,90.0,90.0,0.0,0.0,0.0,111.45,79.44,4.0,-22.0,5.0,
8.02,-16.200248953181596,20.938559219506722,-0.1450381679389313,-1.015267175572519,-0.15267175572519084,192.20021753935293,145.2877502135047,0.11450381679389313,1.0076335877862594,-0.17557251908396945,-86.05715371979079,165.75865907207117,0.0,0.03816793893129771,0.10687022900763359,180.04866478715607,50.24084730757109,-0.04580152671755725,1.0610687022900764,0.4122137404580153,90.0,90.0,0.0,0.0,0.0,111.5,78.79,5.0,-34.0,3.0,
8.059999999999999,-17.913228652970172,19.833435913893428,-0.1450381679389313,-1.015267175572519,-0.15267175572519084,195.6544078332337,148.3698938445921,-0.022900763358778626,1.3282442748091603,-0.015267175572519083,-86.553910717537,165.75662302359459,0.0,0.03816793893129771,0.10687022900763359,180.05038416847813,50.204330891602325,-0.04580152671755725,1.0610687022900764,0.4122137404580153,90.0,90.0,0.0,0.0,0.0,111.04,78.73,26.0,-35.0,-9.0,
8.099,-21.87066992778066,18.817417079828594,-0.20610687022900764,-1.251908396946565,0.015267175572519083,198.59046958303236,150.9897159310164,-0.022900763358778626,1.3282442748091603,-0.015267175572519083,-86.97615416562127,165.7548923823895,0.0,0.03816793893129771,0.10687022900763359,180.05184564260188,50.173291938028875,-0.04580152671755725,1.0610687022900764,0.4122137404580153,90.0,90.0,0.0,0.0,0.0,111.17,78.6,20.0,-44.0,-12.0,
8.139,-25.234495011369575,17.953801070873485,-0.20610687022900764,-1.251908396946565,0.015267175572519083,202.33082371597231,153.3633572798316,-0.08396946564885496,1.4351145038167938,0.05343511450381679,-87.3350610964929,165.75342133736515,0.0,0.03816793893129771,0.10687022900763359,180.05308789560706,50.146908827491444,-0.04580152671755725,1.0610687022900764,0.4122137404580153,90.0,90.0,0.0,0.0,0.0,108.99,79.09,23.0,-46.0,0.0,
8.178,-28.093746332420153,17.21972746326164,-0.20610687022900764,-1.251908396946565,0.015267175572519083,205.51012472897128,155.38095242632454,-0.08396946564885496,1.4351145038167938,0.05343511450381679,-87.64013198773378,165.75217094909448,0.0,0.03816793893129771,0.10687022900763359,180.05414381066146,50.12448318353463,-0.04580152671755725,1.0610687022900764,0.4122137404580153,90.0,90.0,0.0,0.0,0.0,110.92,78.34,6.0,-40.0,-8.0,
8.216999999999999,-30.524109955313143,16.595764896791575,-0.20610687022900764,-1.251908396946565,0.015267175572519083,208.21253059002038,157.09590830084352,-0.08396946564885496,1.4351145038167938,0.05343511450381679,-37.29285982653294,142.4269942966529,-0.13740458015267176,0.5343511450381679,-0.16030534351145037,180.0550413384577,50.10542138617134,-0.04580152671755725,1.0610687022900764,0.4122137404580153,90.0,90.0,0.0,0.0,0.0,109.17,79.28,10.0,-47.0,-10.0,
8.257,-32.58991903477219,16.065396715292017,-0.20610687022900764,-1.251908396946565,0.015267175572519083,210.50957557191214,158.55362079418467,-0.08396946564885496,1.4351145038167938,0.05343511450381679,5.502321510487775,122.60059414207755,-0.13740458015267176,0.5343511450381679,-0.16030534351145037,180.05580423708452,50.089218858412536,-0.04580152671755725,1.0610687022900764,0.4122137404580153,90.0,90.0,0.0,0.0,0.0,108.01,79.79,24.0,-34.0,-6.0,
8.296,-34.34585675231237,15.614583761017396,-0.20610687022900764,-1.251908396946565,0.015267175572519083,212.46206380652012,159.79267641352465,-0.08396946564885496,1.4351145038167938,0.05343511450381679,41.87822564695538,105.74815401068851,-0.13740458015267176,0.5343511450381679,-0.16030534351145037,180.0564527009173,50.075446709817555,-0.04580152671755725,1.0610687022900764,0.4122137404580153,90.0,90.0,0.0,0.0,0.0,107.18,81.03,24.0,-40.0,-11.0,
8.336,-35.83840381222153,15.231392749883968,-0.20610687022900764,-1.251908396946565,0.015267175572519083,214.12167880593694,160.8458736899636,-0.08396946564885496,1.4351145038167938,0.05343511450381679,72.79774416295285,91.42357989900782,-0.13740458015267176,0.5343511450381679,-0.16030534351145037,180.05700389517517,50.06374038351182,-0.04580152671755725,1.0610687022900764,0.4122137404580153,90.0,90.0,0.0,0.0,0.0,105.67,82.05,16.0,-31.0,-8.0,
8.376,-37.107068813144316,14.905680390420553,-0.20610687022900764,-1.251908396946565,0.015267175572519083,217.74021239388924,161.4342882036588,-0.06870229007633588,1.0687022900763359,0.06870229007633588,99.0793349015507,79.24769190407923,-0.13740458015267176,0.5343511450381679,-0.16030534351145037,180.05747241029437,50.05379000615195,-0.04580152671755725,1.0610687022900764,0.4122137404580153,90.0,90.0,0.0,0.0,0.0,104.13,82.78,13.0,-31.0,-12.0,
8.415,-41.27704995289332,14.322673092190508,-0.13740458015267176,-0.9541984732824428,0.19083969465648856,220.81596594364868,161.93444054029973,-0.06870229007633588,1.0687022900763359,0.06870229007633588,121.41868702935886,68.89818710838993,-0.13740458015267176,0.5343511450381679,-0.16030534351145037,180.05787064814567,50.045332185396056,-0.04580152671755725,1.0610687022900764,0.4122137404580153,90.0,90.0,0.0,0.0,0.0,103.09,83.63,12.0,-29.0,-11.0,
8.455,-46.08642962020016,37.6599298545425,-0.10687022900763359,-0.7938931297709924,0.21374045801526717,223.4303564609442,162.35957002644452,-0.06870229007633588,1.0687022900763359,0.06870229007633588,140.4071363379958,60.101108032054036,-0.13740458015267176,0.5343511450381679,-0.16030534351145037,180.05820915031927,50.03814303775355,-0.04580152671755725,1.0610687022900764,0.4122137404580153,90.0,90.0,0.0,0.0,0.0,101.5,84.83,11.0,-17.0,0.0,
8.495,-50.31390765325812,57.417834902550624,-0.0916030534351145,-0.7099236641221374,0.06870229007633588,225.6525884006454,162.72093008966758,-0.06870229007633588,1.0687022900763359,0.06870229007633588,156.5473182503372,52.62359081716852,-0.13740458015267176,0.5343511450381679,-0.16030534351145037,180.05849687716685,50.03203226225742,-0.04580152671755725,1.0610687022900764,0.4122137404580153,90.0,90.0,0.0,0.0,0.0,100.21,85.22,9.0,-20.0,6.0,
8.534,-53.90726398135738,74.21205419335753,-0.0916030534351145,-0.7099236641221374,0.06870229007633588,229.28706406701326,163.29400817029023,-0.08396946564885496,0.6030534351145038,-0.08396946564885496,170.2664728758274,46.267701184515836,-0.13740458015267176,0.5343511450381679,-0.16030534351145037,180.05874144498728,50.0268381030857,-0.04580152671755725,1.0610687022900764,0.4122137404580153,90.0,90.0,0.0,0.0,0.0,99.0,85.87,2.0,-13.0,3.0,
8.574,-56.961616860241755,88.48714059054339,-0.0916030534351145,-0.7099236641221374,0.06870229007633588,232.37636838342596,163.78112453881948,-0.08396946564885496,0.6030534351145038,-0.08396946564885496,181.92775430749404,40.865194996761055,-0.13740458015267176,0.5343511450381679,-0.16030534351145037,153.04863250288952,50.022812380766844,0.0,-0.15267175572519084,0.06870229007633588,90.0,90.0,0.0,0.0,0.0,99.35,85.61,-1.0,-6.0,0.0,
8.613,-59.55781680729348,100.62096402815138,-0.0916030534351145,-0.7099236641221374,0.06870229007633588,235.00227705237674,164.19517345206935,-0.08396946564885496,0.6030534351145038,-0.08396946564885496,193.85553884179453,59.57953677087535,0.0,0.16030534351145037,-0.015267175572519083,130.0900399021064,50.019390516795816,0.0,-0.15267175572519084,0.06870229007633588,90.0,90.0,0.0,0.0,0.0,98.38,86.56,0.0,-11.0,3.0,
8.651,-61.764586762287436,110.93471395011817,-0.0916030534351145,-0.7099236641221374,0.06870229007633588,238.06217003035226,164.38987842004113,0.0,0.48854961832061067,-0.3969465648854962,203.99415569594996,75.48672727887251,0.0,0.16030534351145037,-0.015267175572519083,110.57523619144078,50.01648193242045,0.0,-0.15267175572519084,0.06870229007633588,90.0,90.0,0.0,0.0,0.0,97.22,87.12,0.0,-15.0,2.0,
8.69,-63.640341224032305,119.70140138378994,-0.0916030534351145,-0.7099236641221374,0.06870229007633588,240.6630790616315,164.55537764281715,0.0,0.48854961832061067,-0.3969465648854962,212.61198002198205,89.00783921067008,0.0,0.16030534351145037,-0.015267175572519083,93.987653037375,50.01400963570138,0.0,-0.15267175572519084,0.06870229007633588,90.0,90.0,0.0,0.0,0.0,96.05,87.55,-1.0,-9.0,0.0,
8.728,-65.23473251651545,127.15308570241095,-0.0916030534351145,-0.7099236641221374,0.06870229007633588,242.87385173821883,164.69605198217675,0.0,0.48854961832061067,-0.3969465648854962,219.93713069910933,100.50078435269803,0.0,0.16030534351145037,-0.015267175572519083,79.88820735641909,50.01190818349017,0.0,-0.15267175572519084,0.06870229007633588,90.0,90.0,0.0,0.0,0.0,95.09,88.11,-1.0,-7.0,1.0,
8.767,-66.58996511512612,133.48701737323879,-0.0916030534351145,-0.7099236641221374,0.06870229007633588,244.75300851331804,164.81562517063242,0.0,0.48854961832061067,-0.3969465648854962,227.11245528290485,110.3169265670132,-0.015267175572519083,-0.0,-0.030534351145038167,67.90367852760656,50.01012194911065,0.0,-0.15267175572519084,0.06870229007633588,90.0,90.0,0.0,0.0,0.0,94.22,88.59,0.0,-10.0,0.0,
8.805,-68.98491108081406,138.88209696250448,0.0,-0.10687022900763359,-0.007633587786259542,246.3502917721524,164.91726238081972,0.0,0.48854961832061067,-0.3969465648854962,233.21148117913103,118.6606474491811,-0.015267175572519083,-0.0,-0.030534351145038167,57.71682902311591,50.00860364988805,0.0,-0.15267175572519084,0.06870229007633588,90.0,90.0,0.0,0.0,0.0,93.49,88.91,-1.0,-6.0,-2.0,
8.844,-71.02061515164881,143.46791461338032,0.0,-0.10687022900763359,-0.007633587786259542,247.70798254216157,165.00365400947894,0.0,0.48854961832061067,-0.3969465648854962,237.62612350191512,125.76893690621104,0.0,-0.0916030534351145,0.0,49.05800694429886,50.007313095548845,0.0,-0.15267175572519084,0.06870229007633588,90.0,90.0,0.0,0.0,0.0,92.81,89.33,-4.0,-3.0,-2.0,
8.882,-72.75096361185835,147.3658596166248,0.0,-0.10687022900763359,-0.007633587786259542,248.8620196966694,165.07708689383927,0.0,0.48854961832061067,-0.3969465648854962,241.3785694762816,131.8109829446865,0.0,-0.0916030534351145,0.0,41.699760085701314,62.00634590906488,0.015267175572519083,0.05343511450381679,-0.09923664122137404,90.0,90.0,0.0,0.0,0.0,92.3,89.58,-4.0,-2.0,-2.0,
8.921,-74.22175980303646,150.67911286938258,0.0,-0.10687022900763359,-0.007633587786259542,249.84295127800107,165.13950484554556,0.0,0.48854961832061067,-0.3969465648854962,244.56814855449312,136.94672207739063,0.0,-0.0916030534351145,0.0,35.4452502558934,72.20552380055352,0.015267175572519083,0.05343511450381679,-0.09923664122137404,90.0,90.0,0.0,0.0,0.0,91.86,89.78,-5.0,-1.0,-3.0,
8.96,-75.47193656553786,153.4953781342267,0.0,-0.10687022900763359,-0.007633587786259542,252.04385823319723,165.21918704481,0.06870229007633588,0.03816793893129771,-0.0916030534351145,247.27929077097292,141.31210034018915,0.0,-0.0916030534351145,0.0,30.128916900556668,80.87482500831885,0.015267175572519083,0.05343511450381679,-0.09923664122137404,90.0,90.0,0.0,0.0,0.0,91.18,90.08,-6.0,0.0,-5.0,
8.998,-76.44926829145308,155.91934602212234,-0.03816793893129771,-0.022900763358778626,-0.07633587786259542,253.91462914511396,165.28691691418481,0.06870229007633588,0.03816793893129771,-0.0916030534351145,249.58376165498072,145.0226718635679,0.0,-0.0916030534351145,0.0,25.610033548520448,88.24373103491939,0.015267175572519083,0.05343511450381679,-0.09923664122137404,90.0,90.0,0.0,0.0,0.0,90.78,90.23,-6.0,4.0,-1.0,
9.036,-77.28367371874677,157.96437351325963,-0.007633587786259542,-0.022900763358778626,0.061068702290076333,255.5047844202432,165.3444873031534,0.06870229007633588,0.03816793893129771,-0.0916030534351145,251.54256190638733,148.17665765843984,0.0,-0.0916030534351145,0.0,21.768982699289662,94.50730115752985,0.015267175572519083,0.05343511450381679,-0.09923664122137404,90.0,90.0,0.0,0.0,0.0,90.43,90.4,-7.0,2.0,0.0,
9.075,-77.99291833194641,159.70264688072635,-0.007633587786259542,-0.022900763358778626,0.061068702290076333,256.856416404103,165.39342213377668,0.06870229007633588,0.03816793893129771,-0.0916030534351145,253.20754212008296,150.85754558408098,0.0,-0.0916030534351145,0.0,45.503765080814574,99.83120599075637,0.0,0.015267175572519083,0.0,90.0,90.0,0.0,0.0,0.0,90.21,90.5,-5.0,1.0,1.0,
9.111,-79.03477158266158,161.12128407238728,-0.015267175572519083,-0.0,0.022900763358778626,258.00530359038385,165.43501673980649,0.06870229007633588,0.03816793893129771,-0.0916030534351145,254.6227753017243,153.13630032087596,0.0,-0.0916030534351145,0.0,65.67833010511075,104.35652509899892,0.0,0.015267175572519083,0.0,90.0,90.0,0.0,0.0,0.0,89.97,90.49,-5.0,0.0,0.0,
9.149,-79.92034684576947,162.32712568529908,-0.015267175572519083,-0.0,0.022900763358778626,258.9818576987226,165.4703721549318,0.06870229007633588,0.03816793893129771,-0.0916030534351145,255.8257235061194,155.07324184715168,0.0,-0.0916030534351145,0.0,55.826580573918136,108.20317611199744,0.015267175572519083,-0.0,-0.015267175572519083,90.0,90.0,0.0,0.0,0.0,89.73,90.49,-5.0,0.0,1.0,
9.187,-80.67308581941118,163.3520910562741,-0.015267175572519083,-0.0,0.022900763358778626,259.81192869081053,165.50042425778832,0.06870229007633588,0.03816793893129771,-0.0916030534351145,256.84822947985526,156.71964214448604,0.0,-0.0916030534351145,0.0,74.45252861776024,111.47276458755,0.007633587786259542,-0.007633587786259542,-0.015267175572519083,90.0,90.0,0.0,0.0,0.0,89.49,90.47,-5.0,0.0,2.0,
9.225,-81.31291394700663,164.22331162160287,-0.015267175572519083,-0.0,0.022900763358778626,260.51748903408526,165.52596854521636,0.06870229007633588,0.03816793893129771,-0.0916030534351145,257.7173595575307,158.11908239722027,0.0,-0.0916030534351145,0.0,90.2846493405222,102.25204454905005,0.022900763358778626,-0.0,-0.05343511450381679,90.0,90.0,0.0,0.0,0.0,89.19,90.46,-6.0,0.0,1.0,
9.263,-81.39396534578533,164.98266437665004,-0.022900763358778626,-0.0,-0.030534351145038167,261.11721532586876,165.5476811895302,0.06870229007633588,0.03816793893129771,-0.0916030534351145,258.4561201235548,159.30860661204434,0.0,-0.0916030534351145,0.0,103.74195195486986,94.41443251632509,0.022900763358778626,-0.0,-0.05343511450381679,90.0,90.0,0.0,0.0,0.0,89.04,90.36,-6.0,0.0,2.0,
9.301,-81.46285903474723,165.62811421844012,-0.022900763358778626,-0.0,-0.030534351145038167,261.1452034063778,165.63623671152476,0.05343511450381679,-0.0,-0.061068702290076333,259.0840666046753,160.3197021946448,0.0,-0.0916030534351145,0.0,115.18065917706538,87.75246228850888,0.022900763358778626,-0.0,-0.05343511450381679,90.0,90.0,0.0,0.0,0.0,88.94,90.18,-6.0,1.0,3.0,
9.339,-81.52141867036484,166.1767465839617,-0.022900763358778626,-0.0,-0.030534351145038167,261.1689932748105,165.71150890522014,0.05343511450381679,-0.0,-0.061068702290076333,259.6178211136277,161.1791334398552,0.0,-0.0916030534351145,0.0,124.90356031593157,82.0897875948651,0.022900763358778626,-0.0,-0.05343511450381679,90.0,90.0,0.0,0.0,0.0,88.89,90.05,-6.0,0.0,0.0,
9.377,-81.57119436063981,166.64308409465502,-0.022900763358778626,-0.0,-0.030534351145038167,261.18921466297826,165.7754902698612,0.05343511450381679,-0.0,-0.061068702290076333,260.07151244623725,161.90964999828404,0.0,-0.0916030534351145,0.0,133.16802628396783,77.27651410526789,0.022900763358778626,-0.0,-0.05343511450381679,90.0,90.0,0.0,0.0,0.0,88.79,90.08,-5.0,1.0,0.0,
9.415,-81.61350369737353,167.03947097874436,-0.022900763358778626,-0.0,-0.030534351145038167,261.20640284292085,165.8298744298061,0.05343511450381679,-0.0,-0.061068702290076333,260.4571500789554,162.53058907294854,0.0,-0.0916030534351145,0.0,140.19282235679867,73.18523163911026,0.022900763358778626,-0.0,-0.05343511450381679,90.0,90.0,0.0,0.0,0.0,88.61,90.1,-3.0,0.0,0.0,
9.452,-81.6494666335972,167.3763998302203,-0.022900763358778626,-0.0,-0.030534351145038167,261.22101279587207,165.87610096575926,0.05343511450381679,-0.0,-0.061068702290076333,260.61294055830206,162.96661713204452,-0.015267175572519083,0.015267175572519083,-0.030534351145038167,146.16389901870485,69.70764154287627,0.022900763358778626,-0.0,-0.05343511450381679,90.0,90.0,0.0,0.0,0.0,88.57,90.06,-4.0,0.0,-1.0,
9.491,-81.68003512938732,167.66278935397483,-0.022900763358778626,-0.0,-0.030534351145038167,261.2334312558806,165.91539352131946,0.05343511450381679,-0.0,-0.061068702290076333,260.72813429372985,163.35230128831444,-0.015267175572519083,-0.0,-0.015267175572519083,151.2393141813251,66.75168996107739,0.022900763358778626,-0.0,-0.05343511450381679,90.0,90.0,0.0,0.0,0.0,88.64,90.12,-4.0,0.0,-2.0,
9.529,-81.70601835080892,167.9062204491662,-0.022900763358778626,-0.0,-0.030534351145038167,261.24398694688784,165.94879219354561,0.05343511450381679,-0.0,-0.061068702290076333,260.8260489688435,163.68013282114387,-0.015267175572519083,-0.0,-0.015267175572519083,128.55341703870036,64.23900134555596,0.007633587786259542,-0.0,0.0,90.0,90.0,0.0,0.0,0.0,88.5,90.16,-5.0,0.0,-2.0,
9.567,-81.72810408901728,168.11313688007886,-0.022900763358778626,-0.0,-0.030534351145038167,261.252959284244,165.97718106493787,0.05343511450381679,-0.0,-0.061068702290076333,260.9092764426901,163.9587896240489,-0.015267175572519083,-0.0,-0.015267175572519083,109.2704044674693,62.10321602236275,0.007633587786259542,-0.0,0.0,90.0,90.0,0.0,0.0,0.0,88.45,90.25,-5.0,-2.0,-2.0,
9.605,-81.65221497253086,168.28925639459914,-0.007633587786259542,0.007633587786259542,0.022900763358778626,261.2605857709967,166.00131160562128,0.05343511450381679,-0.0,-0.061068702290076333,260.9800197954597,164.19564790651816,-0.015267175572519083,-0.0,-0.015267175572519083,92.87984378192292,60.287798497648524,0.007633587786259542,-0.0,0.0,90.0,90.0,0.0,0.0,0.0,88.26,90.39,-5.0,0.0,-3.0,
9.643,-81.58770922351741,168.43895798194137,-0.007633587786259542,0.007633587786259542,0.022900763358778626,261.58077261055405,166.00725267227935,0.04580152671755725,-0.0,-0.05343511450381679,261.04015164531387,164.39697744661703,-0.015267175572519083,-0.0,-0.015267175572519083,78.94786719920847,58.74469360164143,0.007633587786259542,-0.0,0.0,90.0,90.0,0.0,0.0,0.0,88.16,90.53,-7.0,-2.0,-2.0,
9.681,-81.60882796680997,168.56275521710464,-0.015267175572519083,0.015267175572519083,0.007633587786259542,261.85293142417777,166.0123025789387,0.04580152671755725,-0.0,-0.05343511450381679,261.0912637176899,164.5681075557011,-0.015267175572519083,-0.0,-0.015267175572519083,67.1056871039012,57.4330544400354,0.007633587786259542,-0.0,0.0,90.0,90.0,0.0,0.0,0.0,88.03,90.63,-6.0,-1.0,0.0,
9.719,-81.62677889860865,168.6679828669934,-0.015267175572519083,0.015267175572519083,0.007633587786259542,262.08426641575795,166.01659499959914,0.04580152671755725,-0.0,-0.05343511450381679,261.13470897920956,164.71356814842252,-0.015267175572519083,-0.0,-0.015267175572519083,57.03983402289003,56.31816115267027,0.007633587786259542,-0.0,0.0,90.0,90.0,0.0,0.0,0.0,88.01,90.76,-4.0,-1.0,0.0,
9.757,-81.64203719063752,168.75742636939887,-0.015267175572519083,0.015267175572519083,0.007633587786259542,262.28090115860107,166.0202435571605,0.04580152671755725,-0.0,-0.05343511450381679,261.1716374515013,164.83720965223574,-0.015267175572519083,-0.0,-0.015267175572519083,48.48385890403053,55.37050185840992,0.007633587786259542,-0.0,0.0,90.0,90.0,0.0,0.0,0.0,87.89,90.71,-5.0,0.0,2.0,
9.794,-81.65500673886207,168.83345334644352,-0.015267175572519083,0.015267175572519083,0.007633587786259542,262.44804069001776,166.02334483108768,0.04580152671755725,-0.0,-0.05343511450381679,261.20302665294923,164.94230493047698,-0.015267175572519083,-0.0,-0.015267175572519083,41.21128005299995,54.56499145828862,0.007633587786259542,-0.0,0.0,90.0,90.0,0.0,0.0,0.0,87.85,90.7,-4.0,-1.0,3.0,
9.833,-81.66603085485293,168.89807627693148,-0.015267175572519083,0.015267175572519083,0.007633587786259542,262.59010929172194,166.0259809139258,0.04580152671755725,-0.0,-0.05343511450381679,261.22970747418,165.03163591698203,-0.015267175572519083,-0.0,-0.015267175572519083,35.029588029623966,53.88030761818551,0.007633587786259542,-0.0,0.0,90.0,90.0,0.0,0.0,0.0,87.7,90.74,-4.0,0.0,4.0,
9.871,-81.67033581125109,168.95235493023085,-0.03816793893129771,0.015267175572519083,-0.022900763358778626,262.71086760317047,166.02822158433818,0.04580152671755725,-0.0,-0.05343511450381679,261.2523861722261,165.10756725551133,-0.015267175572519083,-0.0,-0.015267175572519083,29.77514980975437,53.29832635409787,0.007633587786259542,-0.0,0.0,90.0,90.0,0.0,0.0,0.0,87.66,90.75,-4.0,0.0,5.0,
9.909,-81.67399502418952,168.99849178553532,-0.03816793893129771,0.015267175572519083,-0.022900763358778626,262.8135121679017,166.0301261541887,0.04580152671755725,-0.0,-0.05343511450381679,261.27166306556535,165.17210889326122,-0.015267175572519083,-0.0,-0.015267175572519083,25.308877322865214,52.803642279623375,0.007633587786259542,-0.0,0.0,90.0,90.0,0.0,0.0,0.0,87.63,90.68,-4.0,-1.0,6.0,
9.947,-81.6771053551872,169.03770811254412,-0.03816793893129771,0.015267175572519083,-0.022900763358778626,262.90076004792326,166.03174503856164,0.04580152671755725,-0.0,-0.05343511450381679,261.28804842490365,165.22696928534864,-0.015267175572519083,-0.0,-0.015267175572519083,21.51254570900943,52.38316081632006,0.007633587786259542,-0.0,0.0,90.0,90.0,0.0,0.0,0.0,87.59,90.62,-4.0,0.0,5.0,
9.985,-81.67974913653521,169.07104199050158,-0.03816793893129771,0.015267175572519083,-0.022900763358778626,262.9749207459416,166.03312109027866,0.04580152671755725,-0.0,-0.05343511450381679,261.2151966989817,165.22751446224322,-0.04580152671755725,-0.007633587786259542,-0.022900763358778626,18.285663837232015,52.025751572512235,0.007633587786259542,-0.0,0.0,90.0,90.0,0.0,0.0,0.0,87.48,90.43,-5.0,0.0,5.0,
10.023,-81.68199635068102,169.09937578676545,-0.03816793893129771,0.015267175572519083,-0.022900763358778626,263.03795733925716,166.0342907342381,0.04580152671755725,-0.0,-0.05343511450381679,261.192777750536,165.23081166208837,-0.04580152671755725,-0.007633587786259542,-0.030534351145038167,15.542814246221214,51.72195371527558,0.007633587786259542,-0.0,0.0,90.0,90.0,0.0,0.0,0.0,87.49,90.15,-4.0,-1.0,4.0,
10.061,-81.68390648270497,169.12345951358972,-0.03816793893129771,0.015267175572519083,-0.022900763358778626,263.0915384435754,166.03528493160366,0.04580152671755725,-0.0,-0.05343511450381679,261.17372164435716,165.23361428195673,-0.04580152671755725,-0.007633587786259542,-0.030534351145038167,40.2115218957064,51.46385530761679,0.022900763358778626,0.015267175572519083,0.015267175572519083,90.0,90.0,0.0,0.0,0.0,87.39,89.95,-3.0,0.0,4.0,
10.099,-81.68553009492533,169.14393068139034,-0.03816793893129771,0.015267175572519083,-0.022900763358778626,263.1370823822459,166.03612999936436,0.04580152671755725,-0.0,-0.05343511450381679,261.15752395410516,165.23599650884486,-0.04580152671755725,-0.007633587786259542,-0.030534351145038167,61.1799233977688,51.24447166110682,0.022900763358778626,0.015267175572519083,0.015267175572519083,90.0,90.0,0.0,0.0,0.0,87.39,89.68,-3.0,0.0,2.0,
10.137,-81.68691016531263,169.1613311740209,-0.03816793893129771,0.015267175572519083,-0.022900763358778626,263.17579473011585,166.03684830696096,0.04580152671755725,-0.0,-0.05343511450381679,260.99984249114635,165.1690263193789,-0.03816793893129771,-0.007633587786259542,-0.05343511450381679,79.00306467452185,51.05799556157335,0.022900763358778626,0.015267175572519083,0.015267175572519083,90.0,90.0,0.0,0.0,0.0,87.35,89.57,-3.0,0.0,1.0,
10.175,-81.68808322514182,169.17612159275686,-0.03816793893129771,0.015267175572519083,-0.022900763358778626,263.20870022580533,166.03745886841807,0.04580152671755725,-0.0,-0.05343511450381679,261.1822673325263,165.07396865398292,-0.030534351145038167,-0.007633587786259542,-0.03816793893129771,94.15273475976194,50.89949087696989,0.022900763358778626,0.015267175572519083,0.015267175572519083,90.0,90.0,0.0,0.0,0.0,87.22,89.46,-4.0,0.0,0.0,
10.213,-81.68908032599666,169.18869344868241,-0.03816793893129771,0.015267175572519083,-0.022900763358778626,263.2366698971414,166.0379778456566,0.04580152671755725,-0.0,-0.05343511450381679,261.3373284476993,164.99316963839632,-0.030534351145038167,-0.007633587786259542,-0.03816793893129771,107.02995433221601,50.76476189505696,0.022900763358778626,0.015267175572519083,0.015267175572519083,90.0,90.0,0.0,0.0,0.0,87.12,89.46,-4.0,0.0,0.0,
10.251,-81.68992786172326,169.19937952621913,-0.03816793893129771,0.015267175572519083,-0.022900763358778626,263.260444117777,166.03841897630937,0.04580152671755725,-0.0,-0.05343511450381679,261.33400737981526,164.95890983706508,-0.030534351145038167,-0.015267175572519083,-0.030534351145038167,117.97559096880197,50.650242260430964,0.022900763358778626,0.015267175572519083,0.015267175572519083,90.0,90.0,0.0,0.0,0.0,87.13,89.45,-4.0,1.0,1.0,
10.289,-81.69064826709088,169.20846269212535,-0.03816793893129771,0.015267175572519083,-0.022900763358778626,263.28065220531727,166.0387939373642,0.04580152671755725,-0.0,-0.05343511450381679,261.2729798105052,164.92860890386686,-0.022900763358778626,-0.015267175572519083,0.0,127.27938210990004,50.552900570998865,0.022900763358778626,0.015267175572519083,0.015267175572519083,90.0,90.0,0.0,0.0,0.0,87.06,89.43,-4.0,0.0,1.0,
10.327,-81.6098176842771,169.07553538501818,0.0,-0.0,0.030534351145038167,263.2978290797265,166.03911265426083,0.04580152671755725,-0.0,-0.05343511450381679,261.22110637659165,164.90285311064838,-0.022900763358778626,-0.015267175572519083,0.0,135.18760457983342,50.47016013498158,0.022900763358778626,0.015267175572519083,0.015267175572519083,90.0,90.0,0.0,0.0,0.0,87.04,89.5,-4.0,1.0,1.0,
10.365,-81.5411116888854,168.9625471739771,0.0,-0.0,0.030534351145038167,263.3124294229744,166.03938356362295,0.04580152671755725,-0.0,-0.05343511450381679,261.2066549495394,164.86927986287014,-0.022900763358778626,-0.0,0.0,141.90959367927678,50.3998307643669,0.022900763358778626,0.015267175572519083,0.015267175572519083,90.0,90.0,0.0,0.0,0.0,87.07,89.58,-4.0,0.0,1.0,
10.403,-81.46910837515681,168.90353211822375,0.0,-0.0,0.015267175572519083,263.32483971473505,166.03961383658077,0.04580152671755725,-0.0,-0.05343511450381679,261.19437123654507,164.84074260225864,-0.022900763358778626,-0.0,0.0,147.62328441380362,50.34005079934441,0.022900763358778626,0.015267175572519083,0.015267175572519083,90.0,90.0,0.0,0.0,0.0,86.63,89.63,-4.0,0.0,0.0,
10.441,-81.40790555848751,168.8533693208334,0.0,-0.0,0.015267175572519083,263.3353884627316,166.0398095685949,0.04580152671755725,-0.0,-0.05343511450381679,261.18393008049986,164.81648593073885,-0.022900763358778626,-0.0,0.0,152.47979176715907,50.288978287090565,-0.007633587786259542,-0.0,0.0,90.0,90.0,0.0,0.0,0.0,86.78,89.65,-4.0,1.0,0.0,
10.478,-81.35588316431861,168.8107309430516,0.0,-0.0,0.015267175572519083,263.3443548985287,166.03997594080693,0.04580152671755725,-0.0,-0.05343511450381679,261.17505509786145,164.79586775994704,-0.022900763358778626,-0.0,0.0,156.6078230175112,50.24556665167479,-0.007633587786259542,-0.0,0.0,90.0,90.0,0.0,0.0,0.0,86.81,89.71,-4.0,1.0,-2.0,
10.516,-81.31166412927504,168.77448832193707,0.0,-0.0,0.015267175572519083,263.35197636895623,166.04011735718714,0.04580152671755725,-0.0,-0.05343511450381679,261.16751136261877,164.778342314774,-0.022900763358778626,-0.0,0.0,160.1166495803105,50.208666761571386,-0.007633587786259542,-0.0,0.0,90.0,90.0,0.0,0.0,0.0,86.84,89.69,-4.0,0.0,-2.0,
10.553,-81.17092396848633,168.77964753624266,0.007633587786259542,-0.0,0.03816793893129771,263.3584546188196,166.04023756111033,0.04580152671755725,-0.0,-0.05343511450381679,261.1610991876625,164.7634456863769,-0.022900763358778626,-0.0,0.0,163.09915215868992,50.1773018549835,-0.007633587786259542,-0.0,0.0,90.0,90.0,0.0,0.0,0.0,86.84,89.78,-5.0,0.0,-2.0,
10.591,-81.05129483181592,168.78403286840242,0.007633587786259542,-0.0,0.03816793893129771,263.3639611312035,166.04033973444504,0.04580152671755725,-0.0,-0.05343511450381679,261.1556488389497,164.75078355223937,-0.022900763358778626,-0.0,0.0,165.63427935031243,50.150641684383785,-0.007633587786259542,-0.0,0.0,90.0,90.0,0.0,0.0,0.0,86.97,89.87,-5.0,1.0,-3.0,
10.629,-80.94961006564608,168.7877604007382,0.007633587786259542,-0.0,0.03816793893129771,263.3686416667298,166.04042658177954,0.04580152671755725,-0.0,-0.05343511450381679,261.15101604254374,164.74002073822248,-0.022900763358778626,-0.0,0.0,140.78913743233957,50.12778588288548,-0.030534351145038167,-0.0,0.04580152671755725,90.0,90.0,0.0,0.0,0.0,87.0,89.93,-4.0,1.0,-3.0,
10.667,-80.86317801440171,168.7909288032236,0.007633587786259542,-0.0,0.03816793893129771,263.3726201219271,166.04050040201386,0.04580152671755725,-0.0,-0.05343511450381679,261.1470781655987,164.73087234630813,-0.022900763358778626,-0.0,0.0,119.67076680206263,50.10835845161193,-0.030534351145038167,-0.0,0.04580152671755725,90.0,90.0,0.0,0.0,0.0,87.0,89.93,-4.0,0.0,-3.0,
10.705,-80.789710770844,168.7936219453362,0.007633587786259542,-0.0,0.03816793893129771,263.3760018088449,166.04056314921303,0.04580152671755725,-0.0,-0.05343511450381679,261.14373097019546,164.72309621318092,-0.022900763358778626,-0.0,0.0,128.72015179717923,50.09184513502941,-0.030534351145038167,-0.0,0.04580152671755725,90.0,90.0,0.0,0.0,0.0,87.12,90.07,-5.0,0.0,-3.0,
10.743,-80.72726361381994,168.79591111613192,0.007633587786259542,-0.0,0.03816793893129771,263.37887624272497,166.04061648433233,0.04580152671755725,-0.0,-0.05343511450381679,261.1408858541027,164.7164865000228,-0.022900763358778626,-0.0,0.0,136.41212904302833,50.07780881593427,-0.030534351145038167,-0.0,0.04580152671755725,90.0,90.0,0.0,0.0,0.0,87.15,90.2,-4.0,1.0,-2.0,
10.781,-80.6741835303495,168.7978569113083,0.007633587786259542,-0.0,0.03816793893129771,263.38131951152303,166.04066181918373,0.04580152671755725,-0.0,-0.05343511450381679,261.08601845548213,164.76552824518006,0.0,-0.0,0.022900763358778626,142.95030970200008,50.065877944703395,-0.030534351145038167,-0.0,0.04580152671755725,90.0,90.0,0.0,0.0,0.0,87.22,90.24,-4.0,1.0,-2.0,
10.818,-80.62906545939961,168.79951083720817,0.007633587786259542,-0.0,0.03816793893129771,263.38339629000143,166.0407003538074,0.04580152671755725,-0.0,-0.05343511450381679,260.99372221217527,164.78234090432343,0.0,-0.0,0.015267175572519083,148.50776326212605,50.055736704157155,-0.030534351145038167,-0.0,0.04580152671755725,90.0,90.0,0.0,0.0,0.0,87.34,90.27,-4.0,1.0,-1.0,
10.855,-80.59071509909221,168.8009166742231,0.007633587786259542,-0.0,0.03816793893129771,263.38516155170805,166.04073310823756,0.04580152671755725,-0.0,-0.05343511450381679,260.9152704053644,164.79663166459528,0.0,-0.0,0.015267175572519083,126.23159875738114,50.04711664969285,-0.030534351145038167,-0.0,0.03816793893129771,90.0,90.0,0.0,0.0,0.0,87.44,90.28,-4.0,1.0,-1.0,
10.893,-80.55811729283091,168.80211163568578,0.007633587786259542,-0.0,0.03816793893129771,263.3866620241587,166.04076094950318,0.04580152671755725,-0.0,-0.05343511450381679,260.85863154258607,164.88641299228885,0.0,-0.0,0.022900763358778626,107.29685892834797,50.03978960339819,-0.030534351145038167,-0.0,0.03816793893129771,90.0,90.0,0.0,0.0,0.0,87.52,90.33,-4.0,1.0,-1.0,
10.931,-80.53040915750883,168.80312735292904,0.007633587786259542,-0.0,0.03816793893129771,263.3879374257417,166.04078461457897,0.04580152671755725,-0.0,-0.05343511450381679,260.81048850922446,164.9627271208284,0.0,-0.0,0.022900763358778626,91.20233007366978,50.03356161404773,-0.030534351145038167,-0.0,0.03816793893129771,90.0,90.0,0.0,0.0,0.0,87.6,90.38,-3.0,1.0,0.0,
10.969,-80.50685724248505,168.80399071258583,0.007633587786259542,-0.0,0.03816793893129771,263.38902151708726,166.04080472989338,0.04580152671755725,-0.0,-0.05343511450381679,260.8398464023379,164.9930530841084,0.0,-0.0,0.0,77.52198054719332,50.02826782309984,-0.030534351145038167,-0.0,0.03816793893129771,90.0,90.0,0.0,0.0,0.0,87.64,90.36,-3.0,0.0,-1.0,
11.007,-80.48683811471484,168.8047245682941,0.007633587786259542,-0.0,0.03816793893129771,263.389942994731,166.04082182791063,0.04580152671755725,-0.0,-0.05343511450381679,260.8648006114843,165.0188301528964,0.0,-0.0,0.0,65.89368344968833,50.02376810079413,-0.030534351145038167,-0.0,0.03816793893129771,90.0,90.0,0.0,0.0,0.0,87.69,90.37,-4.0,0.0,0.0,
11.044,-80.46982185611016,168.8053483456461,0.007633587786259542,-0.0,0.03816793893129771,263.39072625072816,166.0408363612253,0.04580152671755725,-0.0,-0.05343511450381679,260.90937688838255,165.06734301694902,-0.007633587786259542,-0.0,0.007633587786259542,56.00963091680908,50.01994333683428,-0.030534351145038167,-0.0,0.03816793893129771,90.0,90.0,0.0,0.0,0.0,87.75,90.33,-3.0,0.0,0.0,
11.082,-80.65622582868434,168.86232708565615,0.007633587786259542,-0.0,0.03816793893129771,263.39139201832575,166.04084871454276,0.04580152671755725,-0.0,-0.05343511450381679,260.947266723746,165.10857895139375,-0.007633587786259542,-0.0,0.007633587786259542,47.60818626386172,50.01669228746841,-0.030534351145038167,-0.0,0.03816793893129771,90.0,90.0,0.0,0.0,0.0,87.69,90.33,-3.0,0.0,-1.0,
11.119,-80.80085582102758,168.90227107391524,0.0,-0.0,0.030534351145038167,263.39195792078374,166.0408592148626,0.04580152671755725,-0.0,-0.05343511450381679,260.979473083805,165.14362949567175,-0.007633587786259542,-0.0,0.007633587786259542,40.46695830885646,50.01392889550742,-0.030534351145038167,-0.0,0.03816793893129771,90.0,90.0,0.0,0.0,0.0,87.65,90.32,-3.0,0.0,0.0,
11.157,-80.92379131451933,168.93622346393548,0.0,-0.0,0.030534351145038167,263.392438937873,166.04086814013445,0.04580152671755725,-0.0,-0.05343511450381679,261.0068484898551,165.17342245830804,-0.007633587786259542,-0.0,0.007633587786259542,34.39691454710199,50.01158001234057,-0.030534351145038167,-0.0,0.03816793893129771,90.0,90.0,0.0,0.0,0.0,87.71,90.28,-3.0,0.0,0.0,
11.195,-81.02828648398733,168.96508299545266,0.0,-0.0,0.030534351145038167,263.3928478023989,166.04087572661552,0.04580152671755725,-0.0,-0.05343511450381679,261.0301175849977,165.1987464765489,-0.007633587786259542,-0.0,0.007633587786259542,29.237377349610693,50.00958346164875,-0.030534351145038167,-0.0,0.03816793893129771,90.0,90.0,0.0,0.0,0.0,87.67,90.32,-3.0,0.0,0.0,
11.233,-81.11710737803513,168.98961359724228,0.0,-0.0,0.030534351145038167,263.39319533724586,166.04088217512444,0.04580152671755725,-0.0,-0.05343511450381679,261.0498963158689,165.22027189205363,-0.007633587786259542,-0.0,0.007633587786259542,24.851770731743088,50.00788639356071,-0.030534351145038167,-0.0,0.03816793893129771,90.0,90.0,0.0,0.0,0.0,87.63,90.36,-3.0,0.0,0.0,
11.271,-81.19260513797576,169.01046460876344,0.0,-0.0,0.030534351145038167,263.39349074186583,166.04088765635703,0.04580152671755725,-0.0,-0.05343511450381679,260.9545258865896,165.24501701636592,-0.007633587786259542,-0.0,0.0,21.124005106555625,50.00644388568587,-0.030534351145038167,-0.0,0.03816793893129771,90.0,90.0,0.0,0.0,0.0,87.66,90.36,-3.0,0.0,0.0,
11.309,-81.25677823392529,169.02818796855644,0.0,-0.0,0.030534351145038167,263.3937418357928,166.04089231540473,0.04580152671755725,-0.0,-0.05343511450381679,260.87346102170216,165.26605037203137,-0.007633587786259542,-0.0,0.0,17.95540432514628,50.005217753992255,-0.030534351145038167,-0.0,0.03816793893129771,90.0,90.0,0.0,0.0,0.0,87.62,90.44,-3.0,0.0,0.0,
11.346,-81.31132536548239,169.0432528243805,0.0,-0.0,0.030534351145038167,263.3939552656307,166.0408962755953,0.04580152671755725,-0.0,-0.05343511450381679,260.80455588654786,165.28392872434702,-0.007633587786259542,-0.0,0.0,28.762093676374334,50.00437019854123,-0.007633587786259542,-0.0,0.015267175572519083,90.0,90.0,0.0,0.0,0.0,87.68,90.47,-3.0,0.0,0.0,
11.384,-81.35769042730593,169.05605795183092,0.0,-0.0,0.030534351145038167,263.3941366809929,166.04089964175725,0.04580152671755725,-0.0,-0.05343511450381679,260.7459865216667,165.2991253238153,-0.007633587786259542,-0.0,0.0,37.947779624918184,50.00364977640786,-0.007633587786259542,-0.0,0.015267175572519083,90.0,90.0,0.0,0.0,0.0,87.56,90.51,-3.0,0.0,0.0,
11.422,-81.39710072985594,169.0669423101638,0.0,-0.0,0.030534351145038167,263.2398314327976,166.04241959577044,0.022900763358778626,-0.0,-0.022900763358778626,260.6962025615177,165.31204243336336,-0.007633587786259542,-0.0,0.0,45.75561268118045,50.0030374175945,-0.007633587786259542,-0.0,0.015267175572519083,90.0,90.0,0.0,0.0,0.0,87.59,90.49,-3.0,0.0,0.0,
11.458,-81.43059948702344,169.07619401474673,0.0,-0.0,0.030534351145038167,263.10867197183154,166.04371155668167,0.022900763358778626,-0.0,-0.022900763358778626,260.653886195391,165.3230219764792,-0.007633587786259542,-0.0,0.0,52.39227077900338,50.00251691260314,-0.007633587786259542,-0.0,0.015267175572519083,90.0,90.0,0.0,0.0,0.0,87.47,90.46,-3.0,0.0,0.0,
11.496,-81.45907343061582,169.08405796364224,0.0,-0.0,0.030534351145038167,262.9971864300104,166.0448097234562,0.022900763358778626,-0.0,-0.022900763358778626,260.61791728418336,165.33235458812766,-0.007633587786259542,-0.0,0.0,44.53343014672688,50.00213936885667,0.0,-0.0,0.015267175572519083,90.0,90.0,0.0,0.0,0.0,87.55,90.45,-3.0,0.0,0.0,
11.534,-81.48327628266934,169.09074232020342,0.0,-0.0,0.030534351145038167,262.90242371946243,166.04574316521456,0.022900763358778626,-0.0,-0.022900763358778626,260.58734370965686,165.34028730802885,-0.007633587786259542,-0.0,0.0,37.85341560929185,50.00181845667217,0.0,-0.0,0.015267175572519083,90.0,90.0,0.0,0.0,0.0,87.56,90.54,-4.0,0.0,0.0,
11.571,-81.50384870691484,169.09642402328043,0.0,-0.0,0.030534351145038167,262.82187541549666,166.04653659070917,0.022900763358778626,-0.0,-0.022900763358778626,260.5613561713093,165.34703011994486,-0.007633587786259542,-0.0,0.0,32.17540325247207,50.00154568131534,0.0,-0.0,0.015267175572519083,90.0,90.0,0.0,0.0,0.0,87.58,90.59,-4.0,0.0,0.0,
11.609,-81.53625123995918,169.10098194358798,0.0,-0.0,0.022900763358778626,262.75340935712575,166.04721100237958,0.022900763358778626,-0.0,-0.022900763358778626,260.5392667637139,165.3527615100735,-0.007633587786259542,-0.0,0.0,27.34909274917526,50.00131382226204,0.0,-0.0,0.015267175572519083,90.0,90.0,0.0,0.0,0.0,87.59,90.57,-4.0,0.0,0.0,
11.647,-81.56379339304688,169.1048561758494,0.0,-0.0,0.022900763358778626,262.6952132075105,166.04778425229944,0.022900763358778626,-0.0,-0.022900763358778626,260.5204907672578,165.35763319168282,-0.007633587786259542,-0.0,0.0,23.24672882137297,50.001116742066735,0.0,-0.0,0.015267175572519083,90.0,90.0,0.0,0.0,0.0,87.5,90.63,-4.0,0.0,0.0,
11.684,-81.58720422317141,169.10814927327158,0.0,-0.0,0.022900763358778626,262.6457464803375,166.0482715147313,0.022900763358778626,-0.0,-0.022900763358778626,260.5045311702701,165.36177412105076,-0.007633587786259542,-0.0,0.0,19.759719482741023,50.000949223900726,0.0,-0.0,0.015267175572519083,90.0,90.0,0.0,0.0,0.0,87.38,90.7,-5.0,0.0,0.0,
11.722,-81.64452483009597,169.11517779820704,0.0,0.007633587786259542,0.03816793893129771,262.60369976224047,166.0486856877984,0.022900763358778626,-0.0,-0.022900763358778626,260.4909655128306,165.36529391101348,-0.007633587786259542,-0.0,0.0,16.79576154490387,50.00080683345962,0.0,-0.0,0.015267175572519083,90.0,90.0,0.0,0.0,0.0,87.38,90.67,-4.0,-2.0,0.0,
11.759,-81.69324734598186,169.12115204440218,0.0,0.007633587786259542,0.03816793893129771,262.567960051858,166.04903773490543,0.022900763358778626,-0.0,-0.022900763358778626,260.47943470400696,165.3682857324818,-0.007633587786259542,-0.0,0.0,14.276397297742289,50.00068580158468,0.0,-0.0,0.015267175572519083,90.0,90.0,0.0,0.0,0.0,87.4,90.67,-4.0,-1.0,0.0,
11.797,-81.71221532898059,169.14622526647253,-0.015267175572519083,0.007633587786259542,0.0,262.53758129803293,166.0493369749464,0.022900763358778626,-0.0,-0.022900763358778626,260.4696335165069,165.37082878072988,-0.007633587786259542,-0.0,0.0,12.134937687654947,50.00058292449098,0.0,-0.0,0.015267175572519083,90.0,90.0,0.0,0.0,0.0,87.44,90.74,-4.0,-1.0,0.0,
11.835,-81.64747446587428,169.14760875690092,-0.007633587786259542,-0.0,0.0,262.51175935728156,166.04959132898125,0.022900763358778626,-0.0,-0.022900763358778626,260.4613025071319,165.37299037174074,-0.007633587786259542,-0.0,0.0,10.314697019080706,50.000495478961334,0.0,-0.0,0.015267175572519083,90.0,90.0,0.0,0.0,0.0,87.39,90.83,-4.0,0.0,0.0,
