time,pitch,roll,gyrx,gyry,gyrz,f1,f2,f3,f4,f5,f6,f7,g1,g2,g3
0.427,60.44,82.51,2.85,1.82,-30.57,0.0,0.0,0.0,0.0,0.0,0.0,0.0,0.29,16.68,0.0,
0.45,65.363,90.331,10.3,6.4,-32.18,0.0,0.0,0.0,0.0,0.0,0.0,0.0,0.2,0.98,0.0,
0.474,69.9683,98.18710000000002,18.9,3.91,-19.21,0.0,0.0,0.0,0.0,0.0,0.0,0.0,0.2,0.49,0.0,
0.497,73.68683,105.29070999999999,20.76,-2.43,-21.15,0.0,0.0,0.0,0.0,0.0,0.0,0.0,0.1,0.49,0.0,
0.521,75.867683,111.66207100000001,5.98,-2.6,-14.4,0.0,0.0,0.0,0.0,0.0,0.0,0.0,0.2,0.49,0.0,
0.544,77.5257683,116.8982071,-10.46,8.6,2.17,0.0,0.0,0.0,0.0,0.0,0.0,0.0,0.2,0.49,0.0,
0.568,78.59157683,121.37282071,-4.43,6.59,5.61,0.0,0.0,0.0,0.0,0.0,0.0,0.0,0.2,0.2,0.0,
0.591,79.11215768299999,125.393282071,13.08,4.68,8.75,0.0,0.0,0.0,0.0,0.0,0.0,0.0,0.2,0.2,0.0,
0.615,79.5962157683,128.9633282071,24.61,-1.18,8.8,0.0,0.0,0.0,0.0,0.0,0.0,0.0,0.1,0.2,0.0,
0.638,80.22062157683001,131.75933282071,15.6,2.02,12.78,0.0,0.0,0.0,0.0,0.0,0.0,0.0,0.2,0.2,0.0,
0.662,80.346062157683,133.514933282071,5.06,4.77,19.11,0.0,0.0,0.0,0.0,0.0,0.0,0.0,0.1,0.39,0.0,
0.686,80.79960621576829,135.0044933282071,6.68,3.84,16.27,0.0,0.0,0.0,0.0,0.0,0.0,0.0,0.2,0.29,0.0,
0.709,81.79896062157682,136.4944493328207,13.34,5.66,14.17,0.0,0.0,0.0,0.0,0.0,0.0,0.0,0.29,0.29,0.0,
0.733,82.97889606215769,137.85844493328204,18.05,5.73,16.65,0.0,0.0,0.0,0.0,0.0,0.0,0.0,0.29,0.29,0.0,
0.756,83.42088960621577,138.67884449332823,18.96,1.04,13.91,0.0,0.0,0.0,0.0,0.0,0.0,0.0,0.2,0.29,0.0,
0.78,83.99608896062159,139.72388444933284,9.81,-4.08,9.05,0.0,0.0,0.0,0.0,0.0,0.0,0.0,0.2,0.29,0.0,
0.803,84.83660889606217,140.5303884449333,-1.35,-2.52,8.0,0.0,0.0,0.0,0.0,0.0,0.0,0.0,0.2,0.29,0.0,
0.827,85.72166088960621,140.99803884449332,-5.2,1.19,7.34,0.0,0.0,0.0,0.0,0.0,0.0,0.0,0.2,0.29,0.0,
0.851,86.04416608896061,141.58480388444934,-6.24,-1.49,0.3,0.0,0.0,0.0,0.0,0.0,0.0,0.0,0.2,0.39,0.0,
0.875,85.99541660889605,141.89548038844495,-8.8,-2.24,-7.66,0.0,0.0,0.0,0.0,0.0,0.0,0.0,0.2,0.29,0.0,
0.899,86.3865416608896,142.44854803884448,-10.26,-2.4,-11.45,0.0,0.0,0.0,0.0,0.0,0.0,0.0,0.29,0.29,0.0,
0.922,86.52465416608896,142.93585480388444,-11.03,-3.4,-9.49,0.0,0.0,0.0,0.0,0.0,0.0,0.0,0.2,0.2,0.0,
0.947,86.65546541660889,143.36258548038842,-9.11,-3.03,-3.13,0.0,0.0,0.0,0.0,0.0,0.0,0.0,0.1,0.2,0.0,
0.97,86.60554654166089,143.95425854803887,-4.33,-5.88,-4.33,0.0,0.0,0.0,0.0,0.0,0.0,0.0,0.1,0.29,0.0,
0.994,86.69955465416609,144.70642585480388,-6.89,-8.79,-5.14,0.0,0.0,0.0,0.0,0.0,0.0,0.0,0.1,0.2,0.0,
1.017,87.3389554654166,145.0966425854804,-10.32,-5.05,0.19,0.0,0.0,0.0,0.0,0.0,0.0,0.0,0.2,0.1,0.0,
1.042,87.96989554654166,145.09066425854806,-6.6,-7.24,-2.74,0.0,0.0,0.0,0.0,0.0,0.0,0.0,0.1,0.1,0.0,
1.065,88.47398955465417,145.2700664258548,-6.18,-5.83,0.11,0.0,0.0,0.0,0.0,0.0,0.0,0.0,0.2,0.1,0.0,
1.089,89.44239895546542,145.54000664258547,-2.93,-2.65,1.73,0.0,0.0,0.0,0.0,0.0,0.0,0.0,0.2,0.2,0.0,
1.113,90.19623989554655,145.67500066425856,1.28,-3.67,-0.05,0.0,0.0,0.0,0.0,0.0,0.0,0.0,0.1,0.2,0.0,
1.136,90.42462398955465,145.72450006642583,-0.4,-1.21,-1.87,0.0,0.0,0.0,0.0,0.0,0.0,0.0,0.1,0.2,0.0,
1.161,90.69946239895548,145.78345000664257,-0.89,1.76,-4.1,0.0,0.0,0.0,0.0,0.0,0.0,0.0,0.1,0.2,0.0,
1.184,90.69994623989555,145.89734500066425,1.98,2.03,-3.77,0.0,0.0,0.0,0.0,0.0,0.0,0.0,0.1,0.1,0.0,
1.208,90.06999462398956,145.93573450006642,2.44,0.92,-4.79,0.0,0.0,0.0,0.0,0.0,0.0,0.0,0.0,0.1,0.0,
1.231,89.26899946239897,145.85857345000662,-0.92,0.24,-6.73,0.0,0.0,0.0,0.0,0.0,0.0,0.0,0.0,0.1,0.0,
1.255,88.8558999462399,145.75185734500067,-5.81,1.66,-1.5,0.0,0.0,0.0,0.0,0.0,0.0,0.0,0.0,0.2,0.0,
1.278,88.20258999462398,145.68718573450008,-3.95,-1.48,-1.24,0.0,0.0,0.0,0.0,0.0,0.0,0.0,0.0,0.1,0.0,
1.302,87.2912589994624,145.83371857345,-4.33,-5.63,-4.34,0.0,0.0,0.0,0.0,0.0,0.0,0.0,0.0,0.2,0.0,
1.327,86.84012589994624,145.875371857345,-9.07,-3.16,-2.59,0.0,0.0,0.0,0.0,0.0,0.0,0.0,0.1,0.2,0.0,
1.35,86.99301258999463,145.75353718573453,-8.03,-2.95,0.02,0.0,0.0,0.0,0.0,0.0,0.0,0.0,0.1,0.29,0.0,
1.374,87.10730125899946,145.82235371857345,-5.31,-4.36,2.29,0.0,0.0,0.0,0.0,0.0,0.0,0.0,0.0,0.1,0.0,
1.397,87.28973012589995,146.00023537185734,-6.82,-4.13,2.78,0.0,0.0,0.0,0.0,0.0,0.0,0.0,0.0,0.1,0.0,
1.422,87.29897301258998,146.00902353718573,-10.17,-6.36,-1.02,0.0,0.0,0.0,0.0,0.0,0.0,0.0,0.1,0.1,0.0,
1.445,87.398897301259,145.7669023537186,-9.52,-3.0,-1.94,0.0,0.0,0.0,0.0,0.0,0.0,0.0,0.2,0.2,0.0,
1.469,87.9668897301259,145.86869023537184,-2.85,-0.63,-1.69,0.0,0.0,0.0,0.0,0.0,0.0,0.0,0.1,0.1,0.0,
1.494,88.4196889730126,145.9238690235372,1.63,-0.45,1.56,0.0,0.0,0.0,0.0,0.0,0.0,0.0,0.0,0.1,0.0,
1.517,88.59096889730125,145.98338690235374,0.66,0.05,4.89,0.0,0.0,0.0,0.0,0.0,0.0,0.0,0.1,0.2,0.0,
1.541,88.42809688973013,145.9893386902354,-1.82,-2.49,2.0,0.0,0.0,0.0,0.0,0.0,0.0,0.0,0.1,0.29,0.0,
1.564,87.997809688973,145.91793386902353,-4.76,-1.3,-0.54,0.0,0.0,0.0,0.0,0.0,0.0,0.0,0.1,0.29,0.0,
1.588,87.7297809688973,145.91079338690233,-3.59,1.9,-1.15,0.0,0.0,0.0,0.0,0.0,0.0,0.0,0.1,0.2,0.0,
1.611,87.91897809688973,145.88307933869024,0.12,-0.65,-2.5,0.0,0.0,0.0,0.0,0.0,0.0,0.0,0.1,0.2,0.0,
1.635,87.86589780968897,145.91630793386904,0.36,-2.5,-0.12,0.0,0.0,0.0,0.0,0.0,0.0,0.0,0.0,0.2,0.0,
1.659,87.9055897809689,145.93763079338692,-0.89,0.17,4.38,0.0,0.0,0.0,0.0,0.0,0.0,0.0,0.0,0.2,0.0,
1.683,87.98155897809688,145.85876307933867,1.37,-0.75,5.56,0.0,0.0,0.0,0.0,0.0,0.0,0.0,0.1,0.2,0.0,
1.707,87.9711558978097,145.93187630793386,0.43,-3.18,3.9,0.0,0.0,0.0,0.0,0.0,0.0,0.0,0.1,0.2,0.0,
1.73,87.70911558978098,145.97518763079339,-3.76,-1.92,-0.27,0.0,0.0,0.0,0.0,0.0,0.0,0.0,0.1,0.29,0.0,
1.754,87.79991155897811,145.88951876307934,-4.74,-0.98,-3.37,0.0,0.0,0.0,0.0,0.0,0.0,0.0,0.2,0.29,0.0,
1.777,88.0699911558978,145.95295187630794,-2.03,-0.35,-4.66,0.0,0.0,0.0,0.0,0.0,0.0,0.0,0.1,0.29,0.0,
1.802,88.22299911558977,146.1302951876308,-1.9,1.49,-0.04,0.0,0.0,0.0,0.0,0.0,0.0,0.0,0.1,0.29,0.0,
1.825,88.29229991155897,146.24702951876307,-2.98,0.14,2.72,0.0,0.0,0.0,0.0,0.0,0.0,0.0,0.2,0.2,0.0,
1.849,87.9482299911559,146.23170295187631,-3.85,-1.24,2.47,0.0,0.0,0.0,0.0,0.0,0.0,0.0,0.1,0.29,0.0,
1.872,87.72482299911559,146.14017029518763,-4.05,-1.25,-0.98,0.0,0.0,0.0,0.0,0.0,0.0,0.0,0.1,0.29,0.0,
1.896,87.54048229991156,146.08601702951876,-4.78,0.41,-2.34,0.0,0.0,0.0,0.0,0.0,0.0,0.0,0.1,0.39,0.0,
1.921,87.52204822999116,146.13460170295184,-4.89,0.71,-0.53,0.0,0.0,0.0,0.0,0.0,0.0,0.0,0.2,0.39,0.0,
1.944,87.78120482299913,146.1754601702952,-4.76,-1.83,0.07,0.0,0.0,0.0,0.0,0.0,0.0,0.0,0.1,0.29,0.0,
1.968,87.7711204822999,146.11654601702955,-6.11,-1.78,1.06,0.0,0.0,0.0,0.0,0.0,0.0,0.0,0.2,0.29,0.0,
1.991,87.86911204823,146.06565460170296,-5.89,-0.06,1.08,0.0,0.0,0.0,0.0,0.0,0.0,0.0,0.2,0.39,0.0,
2.015,87.986911204823,146.0065654601703,-2.41,-0.92,0.47,0.0,0.0,0.0,0.0,0.0,0.0,0.0,0.1,0.29,0.0,
2.038,87.9176911204823,145.90165654601702,-0.1,-1.92,-0.63,0.0,0.0,0.0,0.0,0.0,0.0,0.0,0.2,0.29,0.0,
2.063,87.83876911204823,145.8461656546017,-2.98,-1.51,-1.44,0.0,0.0,0.0,0.0,0.0,0.0,0.0,0.1,0.29,0.0,
2.086,87.99287691120483,145.84961656546017,-6.3,-0.8,-1.7,0.0,0.0,0.0,0.0,0.0,0.0,0.0,0.1,0.29,0.0,
2.11,87.79228769112048,145.80496165654603,-5.18,-0.03,-0.97,0.0,0.0,0.0,0.0,0.0,0.0,0.0,0.1,0.29,0.0,
2.134,87.55622876911205,145.80049616565464,-2.64,-1.87,-2.23,0.0,0.0,0.0,0.0,0.0,0.0,0.0,0.1,0.29,0.0,
2.158,87.4336228769112,145.84504961656546,-4.74,-0.76,-0.24,0.0,0.0,0.0,0.0,0.0,0.0,0.0,0.1,0.2,0.0,
2.182,87.52036228769111,145.77750496165655,-6.24,-0.45,2.79,0.0,0.0,0.0,0.0,0.0,0.0,0.0,0.1,0.39,0.0,
2.205,87.32203622876911,145.67175049616566,-6.5,-3.0,-0.82,0.0,0.0,0.0,0.0,0.0,0.0,0.0,0.1,0.29,0.0,
2.229,87.2752036228769,145.40017504961656,-9.59,-2.12,-0.66,0.0,0.0,0.0,0.0,0.0,0.0,0.0,0.0,0.29,0.0,
2.253,87.5945203622877,145.18401750496167,-9.66,-1.64,-2.32,0.0,0.0,0.0,0.0,0.0,0.0,0.0,0.0,0.29,0.0,
2.277,87.90545203622877,145.09040175049617,-8.7,-2.15,-0.96,0.0,0.0,0.0,0.0,0.0,0.0,0.0,0.0,0.29,0.0,
2.3,88.46754520362288,145.0720401750496,-9.79,-0.74,1.65,0.0,0.0,0.0,0.0,0.0,0.0,0.0,0.0,0.29,0.0,
2.324,89.82875452036228,144.81820401750497,-17.63,-1.47,3.97,0.0,0.0,0.0,0.0,0.0,0.0,0.0,0.0,0.39,0.0,
2.349,90.92787545203622,143.9738204017505,-26.49,-8.23,-0.42,0.0,0.0,0.0,0.0,0.0,0.0,0.0,0.0,0.49,0.0,
2.372,91.37978754520363,142.76438204017504,-32.63,-8.85,-8.15,0.0,0.0,0.0,0.0,0.0,0.0,0.0,0.0,0.39,0.0,
2.396,90.65097875452035,141.7704382040175,-31.52,2.26,-12.88,0.0,0.0,0.0,0.0,0.0,0.0,0.0,0.0,0.29,0.0,
2.419,89.22809787545202,141.69804382040175,-24.99,4.64,-19.54,0.0,0.0,0.0,0.0,0.0,0.0,0.0,0.0,0.39,0.0,
2.444,88.16780978754521,141.96080438204018,-22.49,5.69,-22.45,0.0,0.0,0.0,0.0,0.0,0.0,0.0,0.0,0.39,0.0,
2.467,87.37778097875453,142.257080438204,-27.56,-5.91,-25.89,0.0,0.0,0.0,0.0,0.0,0.0,0.0,0.0,0.39,0.0,
2.492,86.33577809787545,142.01670804382042,-37.15,-7.32,-17.88,0.0,0.0,0.0,0.0,0.0,0.0,0.0,0.0,0.39,0.0,
2.515,85.48457780978754,141.41667080438205,-37.7,-4.33,-6.09,0.0,0.0,0.0,0.0,0.0,0.0,0.0,0.0,0.39,0.0,
2.539,85.62445778097876,139.7096670804382,-38.65,-3.81,4.16,0.0,0.0,0.0,0.0,0.0,0.0,0.0,0.0,0.49,0.0,
2.564,85.49444577809788,135.34496670804384,-48.05,0.79,16.12,0.0,0.0,0.0,0.0,0.0,0.0,0.0,0.0,0.39,0.0,
2.587,86.4084445778098,130.16549667080437,-71.47,-7.01,10.25,0.0,0.0,0.0,0.0,0.0,0.0,0.0,0.0,0.29,0.0,
2.611,87.19284445778098,126.55154966708045,-118.73,5.94,22.29,0.0,0.0,0.0,0.0,0.0,0.0,0.0,0.0,0.1,0.0,
2.634,88.8102844457781,121.67215496670804,-130.16,23.27,42.39,0.0,0.0,0.0,0.0,0.0,1.0,0.0,0.0,0.0,0.0,
2.659,89.8090284445778,116.13521549667081,-138.89,21.94,43.14,0.0,0.0,0.0,0.0,0.0,1.0,0.0,0.0,0.0,0.0,
2.682,90.08890284445778,109.86652154966708,-163.45,11.5,14.24,0.0,0.0,0.0,0.0,0.0,1.0,0.0,0.0,0.0,0.0,
2.707,88.35289028444578,104.2806521549667,-175.02,-21.08,-42.5,0.0,0.0,0.0,0.0,0.0,1.0,0.0,0.0,0.1,0.0,
2.731,86.30728902844457,100.17606521549668,-181.63,-4.79,-74.66,0.0,0.0,0.0,0.0,0.0,0.0,0.0,0.0,0.1,0.0,
2.755,85.13972890284445,97.72260652154966,-165.67,0.26,-91.37,0.0,0.0,0.0,0.0,0.0,1.0,0.0,0.0,0.1,0.0,
2.779,84.51897289028446,96.60426065215498,-147.44,-32.05,-94.47,0.0,0.0,0.0,0.0,0.0,1.0,0.0,0.0,0.2,0.0,
2.802,84.92489728902845,96.8524260652155,-144.4,-20.92,-52.05,0.0,0.0,0.0,0.0,0.0,1.0,0.0,0.0,0.0,0.0,
2.827,85.91948972890285,97.19224260652155,-137.36,-1.58,-9.56,0.0,0.0,0.0,0.0,0.0,1.0,0.0,0.0,0.1,0.0,
2.85,86.70294897289028,97.77522426065217,-125.02,-0.39,23.23,0.0,0.0,0.0,0.0,0.0,1.0,0.0,0.0,0.1,0.0,
2.874,86.19629489728902,98.51752242606521,-124.73,-9.39,19.5,0.0,0.0,0.0,0.0,0.0,1.0,0.0,0.0,0.29,0.0,
2.897,84.84062948972891,99.47375224260652,-116.17,-0.25,12.85,0.0,0.0,0.0,0.0,0.0,0.0,0.0,0.0,0.49,0.0,
2.921,82.6710629489729,101.18937522426066,-95.75,12.06,-0.35,0.0,0.0,0.0,0.0,0.0,0.0,0.0,0.0,0.59,0.0,
2.946,80.29410629489729,103.93493752242607,-91.26,6.6,0.8,0.0,0.0,0.0,0.0,0.0,0.0,0.0,0.0,0.59,0.0,
2.969,78.62541062948974,107.1344937522426,-79.31,-1.89,-1.09,0.0,0.0,0.0,0.0,0.0,0.0,0.0,0.0,0.59,0.0,
2.993,78.67454106294899,110.16344937522426,-66.21,-15.79,11.69,0.0,0.0,0.0,0.0,0.0,0.0,0.0,0.0,0.39,0.0,
3.016,78.4994541062949,112.13134493752241,-47.65,-30.43,24.47,0.0,0.0,0.0,0.0,0.0,0.0,0.0,0.0,0.39,0.0,
3.041,79.79594541062949,109.30413449375223,105.46,-27.74,-66.48,0.0,0.0,0.0,0.0,0.0,3.0,0.0,0.0,0.49,0.0,
3.064,84.74059454106296,105.92541344937523,49.73,3.27,-33.16,0.0,0.0,0.0,0.0,0.0,1.0,0.0,0.0,0.39,0.0,
3.089,85.62205945410629,105.19154134493752,53.46,8.68,8.05,0.0,0.0,0.0,2.0,0.0,1.0,0.0,0.0,0.78,0.0,
3.112,84.35120594541063,104.83015413449375,46.76,0.74,16.37,0.0,0.0,0.0,4.0,0.0,1.0,0.0,0.29,3.24,0.0,
3.136,82.12712059454105,102.97601541344937,-10.3,38.99,5.62,0.0,0.0,0.0,4.0,0.0,1.0,0.0,0.39,3.92,0.0,
3.16,83.4347120594541,97.90360154134494,-12.73,-16.79,-5.77,0.0,0.0,0.0,3.0,0.0,1.0,0.0,0.59,3.53,0.0,
3.184,86.0044712059454,94.91236015413449,6.78,34.71,3.12,0.0,0.0,0.0,4.0,0.0,1.0,0.0,0.39,3.34,0.0,
3.208,86.11744712059453,93.73123601541344,13.4,-8.43,18.6,0.0,0.0,0.0,4.0,0.0,1.0,0.0,0.69,3.43,0.0,
3.231,85.87674471205945,93.04612360154134,2.19,-7.13,6.85,0.0,0.0,0.0,5.0,0.0,1.0,0.0,0.88,3.83,0.0,
3.256,85.17767447120595,91.95161236015414,-6.26,-3.05,-0.17,0.0,0.0,0.0,5.0,0.0,1.0,0.0,0.69,3.83,0.0,
3.279,85.07176744712059,90.95116123601541,-2.28,-5.09,-0.79,0.0,0.0,0.0,5.0,0.0,1.0,0.0,0.29,3.63,0.0,
3.303,85.42117674471206,90.31111612360154,-2.1,-1.95,-0.16,0.0,0.0,0.0,5.0,0.0,1.0,0.0,0.0,3.43,0.0,
3.328,85.3931176744712,89.78811161236015,-3.14,-4.5,0.21,0.0,0.0,0.0,5.0,0.0,1.0,0.0,0.0,3.53,0.0,
3.351,85.13831176744712,89.29481116123601,-4.26,-4.1,-0.74,0.0,0.0,0.0,5.0,0.0,1.0,0.0,0.0,3.53,0.0,
3.375,85.18483117674472,88.69648111612359,-3.05,-2.65,1.51,0.0,0.0,1.0,4.0,0.0,2.0,0.0,0.2,3.04,0.0,
3.399,85.42348311767446,88.28564811161235,-2.53,-7.14,-0.74,0.0,0.0,1.0,4.0,0.0,2.0,0.0,0.59,2.55,0.0,
3.423,85.40234831176745,87.97456481116123,-4.36,-7.94,-1.45,0.0,0.0,1.0,4.0,0.0,2.0,0.0,0.69,2.55,0.0,
3.447,84.98623483117674,87.75445648111614,-5.53,-2.76,-0.57,0.0,0.0,2.0,4.0,0.0,2.0,0.0,0.98,2.75,0.0,
3.471,84.72862348311767,87.48044564811161,-5.4,-0.7,1.85,0.0,0.0,2.0,4.0,0.0,2.0,0.0,1.18,3.04,0.0,
3.495,84.84686234831176,87.21004456481117,-4.7,2.6,3.49,0.0,0.0,2.0,3.0,1.0,2.0,0.0,1.47,3.24,0.0,
3.519,85.00268623483117,87.03000445648112,-5.11,4.56,4.26,0.0,0.0,2.0,3.0,1.0,2.0,0.0,1.77,3.43,0.0,
3.543,84.99126862348311,86.94900044564811,-5.18,2.57,3.66,0.0,0.0,2.0,3.0,1.0,2.0,0.0,1.96,3.63,0.0,
3.567,85.14312686234831,86.82390004456481,-3.15,7.93,4.68,0.0,0.0,2.0,3.0,1.0,2.0,0.0,2.35,3.73,0.0,
3.591,85.34731268623484,86.78439000445648,-1.24,-1.99,0.26,0.0,0.0,2.0,3.0,1.0,1.0,0.0,2.94,3.73,0.0,
3.615,85.50273126862349,86.74443900044565,-0.6,-2.88,2.56,0.0,0.0,2.0,3.0,1.0,1.0,0.0,3.53,3.63,0.0,
3.639,85.41027312686236,86.59644390004456,-0.6,-1.83,2.06,0.0,0.0,1.0,3.0,1.0,0.0,0.0,4.41,3.53,0.0,
3.662,85.37402731268625,86.52764439000445,-1.79,-2.56,0.53,0.0,0.0,1.0,3.0,1.0,0.0,0.0,5.0,3.63,0.0,
3.686,85.31640273126864,86.44876443900046,0.6,-2.02,1.98,0.0,0.0,1.0,3.0,1.0,0.0,0.0,5.1,3.43,0.0,
3.71,85.16664027312687,86.44987644390005,1.25,0.05,1.91,0.0,0.0,1.0,4.0,1.0,0.0,0.0,5.1,3.43,0.0,
3.734,85.3766640273127,86.51298764439,-0.25,-1.56,1.6,0.0,0.0,1.0,3.0,1.0,0.0,0.0,5.2,3.43,0.0,
3.758,85.46966640273126,86.285298764439,-3.08,-1.01,1.98,0.0,0.0,1.0,3.0,1.0,0.0,0.0,5.1,3.34,0.0,
3.781,85.69496664027312,86.3525298764439,-4.61,4.05,2.16,0.0,0.0,1.0,3.0,1.0,0.0,0.0,5.0,3.14,0.0,
3.805,85.69049666402731,86.3592529876444,-4.9,-1.29,0.93,0.0,0.0,2.0,3.0,1.0,0.0,0.0,5.0,2.94,0.0,
3.829,85.60904966640273,86.34192529876444,-6.27,-3.39,-0.04,0.0,0.0,2.0,3.0,1.0,0.0,0.0,5.1,2.75,0.0,
3.853,85.66390496664027,86.28619252987644,-6.09,-4.59,-0.66,0.0,0.0,2.0,3.0,1.0,0.0,0.0,5.1,2.55,0.0,
3.877,85.64239049666404,86.16361925298766,-6.07,-3.95,-0.32,0.0,0.0,2.0,3.0,1.0,0.0,0.0,5.0,2.35,0.0,
3.901,85.4422390496664,86.10636192529876,-5.63,-2.11,-0.31,0.0,0.0,2.0,3.0,1.0,1.0,0.0,5.0,2.35,0.0,
3.926,85.38622390496664,86.05563619252987,-4.02,-3.66,-0.48,0.0,0.0,2.0,3.0,1.0,1.0,0.0,5.0,2.26,0.0,
3.949,85.35362239049667,86.06856361925298,-4.13,-1.59,-0.15,0.0,0.0,2.0,3.0,1.0,1.0,0.0,5.1,2.35,0.0,
3.974,85.24236223904967,85.99785636192529,-5.17,0.37,0.74,0.0,0.0,2.0,3.0,1.0,1.0,0.0,4.81,2.45,0.0,
3.997,85.16823622390497,86.02678563619253,-5.02,-0.57,0.34,0.0,0.0,2.0,3.0,1.0,1.0,0.0,4.71,2.55,0.0,
4.022,85.2778236223905,85.99367856361924,-4.15,1.48,1.57,0.0,0.0,2.0,3.0,1.0,1.0,0.0,4.61,2.75,0.0,
4.045,85.23478236223906,85.90936785636192,-2.2,2.16,3.53,0.0,0.0,2.0,3.0,1.0,1.0,0.0,4.71,2.94,0.0,
4.069,85.3114782362239,85.90993678563619,-1.66,-0.15,1.15,0.0,0.0,2.0,3.0,1.0,1.0,0.0,4.71,2.94,0.0,
4.093,85.40914782362239,85.91899367856362,-0.5,-0.23,-0.05,0.0,0.0,2.0,3.0,1.0,1.0,0.0,4.81,3.04,0.0,
4.117,85.44591478236224,86.00989936785635,-0.83,-0.77,-0.93,0.0,0.0,2.0,3.0,1.0,0.0,0.0,4.91,2.94,0.0,
4.142,85.40459147823624,86.00998993678564,-2.06,-1.24,-1.71,0.0,0.0,2.0,3.0,1.0,0.0,0.0,4.91,2.94,0.0,
4.165,85.30145914782364,85.99199899367855,-1.44,-2.45,-0.71,0.0,0.0,2.0,3.0,1.0,0.0,0.0,5.1,2.94,0.0,
4.189,85.49814591478237,86.23319989936786,0.95,-3.88,-0.04,0.0,0.0,1.0,4.0,1.0,0.0,0.0,5.3,2.75,0.0,
4.213,85.59881459147825,86.28431998993679,0.86,-4.77,-2.1,0.0,0.0,1.0,4.0,1.0,0.0,0.0,5.3,2.65,0.0,
4.237,85.61788145914782,86.49643199899367,-3.23,-2.82,0.85,0.0,0.0,1.0,4.0,1.0,0.0,0.0,5.2,2.65,0.0,
4.26,85.61078814591478,86.59864319989936,-4.18,0.97,1.4,0.0,0.0,2.0,4.0,1.0,0.0,0.0,5.1,2.55,0.0,
4.284,85.43907881459148,86.58186431998993,-4.31,-2.53,0.87,0.0,0.0,2.0,4.0,1.0,0.0,0.0,5.2,2.55,0.0,
4.307,85.36790788145915,86.571186431999,-4.31,-2.65,0.14,0.0,0.0,2.0,3.0,1.0,0.0,0.0,5.0,2.65,0.0,
4.332,85.48679078814591,86.62411864319989,-6.21,-1.83,-0.14,0.0,0.0,2.0,3.0,1.0,0.0,0.0,4.81,2.65,0.0,
4.356,85.4356790788146,86.62041186432,-6.93,-2.26,-1.4,0.0,0.0,3.0,3.0,1.0,1.0,1.0,4.71,2.65,0.0,
4.38,85.30456790788146,86.629041186432,-6.43,0.19,-0.55,0.0,0.0,3.0,3.0,1.0,1.0,1.0,4.71,2.65,0.0,
4.404,85.14745679078815,86.54890411864321,-5.7,-3.27,-1.28,0.0,0.0,3.0,3.0,1.0,1.0,1.0,4.71,2.55,0.0,
4.428,85.24874567907882,86.39689041186432,-4.74,-2.62,-1.37,0.0,0.0,3.0,3.0,1.0,1.0,0.0,4.61,2.55,0.0,
4.452,85.2768745679079,86.30068904118643,-4.47,-1.79,-0.89,0.0,0.0,3.0,3.0,1.0,1.0,0.0,4.61,2.55,0.0,
4.476,85.24368745679078,86.21906890411864,-4.3,-2.2,-1.21,0.0,0.0,3.0,3.0,1.0,1.0,1.0,4.32,2.55,0.0,
4.5,85.25836874567909,86.17490689041186,-3.56,-2.01,-0.66,0.0,0.0,3.0,3.0,1.0,1.0,1.0,4.22,2.55,0.0,
4.525,85.22383687456792,86.1524906890412,-3.05,-2.36,-0.49,0.0,0.0,3.0,3.0,1.0,1.0,1.0,4.22,2.55,0.0,
4.548,85.1753836874568,86.07824906890411,-3.1,-2.49,-0.41,0.0,0.0,3.0,3.0,1.0,1.0,1.0,4.22,2.65,0.0,
4.573,85.15253836874568,85.96282490689042,-2.8,-2.6,-0.72,0.0,0.0,3.0,3.0,1.0,1.0,1.0,4.22,2.55,0.0,
4.596,85.12325383687457,85.98728249068903,-2.96,-2.17,-0.5,0.0,0.0,3.0,3.0,1.0,1.0,1.0,4.12,2.65,0.0,
4.621,85.03932538368745,85.9717282490689,-3.08,-2.18,-0.81,0.0,0.0,3.0,3.0,1.0,1.0,1.0,4.22,2.65,0.0,
4.644,84.95893253836874,85.9431728249069,-3.14,-2.14,-0.56,0.0,0.0,3.0,3.0,1.0,1.0,1.0,4.12,2.75,0.0,
4.669,85.01389325383687,85.95831728249068,-2.9,-1.62,-0.35,0.0,0.0,3.0,3.0,1.0,1.0,1.0,4.12,2.75,0.0,
4.692,84.97438932538368,85.95083172824907,-2.99,-2.19,-0.43,0.0,0.0,3.0,3.0,1.0,1.0,1.0,4.02,2.75,0.0,
4.717,84.90743893253838,85.9320831728249,-3.26,-1.47,-0.63,0.0,0.0,3.0,3.0,1.0,1.0,1.0,4.02,2.75,0.0,
4.741,84.93674389325383,85.87620831728249,-2.92,-0.85,-0.15,0.0,0.0,3.0,3.0,1.0,1.0,1.0,4.12,2.84,0.0,
4.765,84.88567438932537,85.85262083172825,-3.04,-1.69,0.01,0.0,0.0,3.0,3.0,1.0,1.0,1.0,4.12,2.84,0.0,
4.789,84.85356743893253,85.84126208317282,-2.94,-1.64,-0.02,0.0,0.0,3.0,3.0,1.0,1.0,1.0,4.22,2.84,0.0,
4.813,84.86835674389326,85.85812620831729,-2.63,-1.89,-0.31,0.0,0.0,3.0,3.0,1.0,1.0,1.0,4.22,2.84,0.0,
4.837,84.83383567438932,85.85981262083173,-2.92,-2.21,-0.41,0.0,0.0,3.0,3.0,1.0,1.0,1.0,4.12,2.75,0.0,
4.861,84.82138356743893,85.92298126208317,-2.99,-1.78,-0.95,0.0,0.0,3.0,3.0,1.0,1.0,1.0,4.12,2.65,0.0,
4.885,84.85613835674388,85.89329812620832,-3.28,-2.31,-0.7,0.0,0.0,3.0,3.0,1.0,1.0,1.0,4.02,2.65,0.0,
4.91,84.87761383567438,85.89032981262083,-3.18,-1.73,-0.37,0.0,0.0,3.0,3.0,1.0,1.0,1.0,4.02,2.55,0.0,
4.933,84.93376138356743,85.91703298126208,-3.05,-1.76,-0.18,0.0,0.0,3.0,3.0,1.0,1.0,1.0,4.02,2.45,0.0,
4.958,84.86737613835673,85.92870329812621,-2.85,-1.86,-0.24,0.0,0.0,3.0,3.0,1.0,1.0,1.0,4.02,2.65,0.0,
4.981,84.81573761383568,85.97487032981263,-2.95,-1.85,-0.18,0.0,0.0,3.0,3.0,2.0,1.0,1.0,4.12,2.55,0.0,
5.006,84.85557376138357,85.95248703298127,-3.15,-1.77,-0.58,0.0,0.0,3.0,3.0,2.0,1.0,1.0,4.12,2.65,0.0,
5.029,84.88655737613836,85.92324870329813,-3.19,-1.25,-0.44,0.0,0.0,3.0,3.0,2.0,1.0,1.0,4.12,2.75,0.0,
5.054,84.81765573761385,85.89332487032982,-3.27,-1.35,-0.5,0.0,0.0,3.0,3.0,2.0,1.0,1.0,4.22,2.75,0.0,
5.078,84.84676557376137,85.90833248703298,-3.09,-1.83,-0.79,0.0,0.0,3.0,3.0,2.0,1.0,1.0,4.12,2.94,0.0,
5.102,84.83167655737613,85.88283324870329,-2.91,-3.4,-0.89,0.0,0.0,3.0,3.0,2.0,1.0,1.0,4.12,2.84,0.0,
5.126,84.82116765573761,85.84428332487033,-2.69,-2.91,-0.85,0.0,0.0,3.0,3.0,2.0,1.0,1.0,4.22,2.84,0.0,
5.15,84.83811676557377,85.80442833248703,-2.78,-2.84,-1.22,0.0,0.0,3.0,3.0,2.0,2.0,1.0,4.02,2.94,0.0,
5.174,84.76781167655739,85.7824428332487,-2.59,-2.99,-0.74,0.0,0.0,4.0,3.0,2.0,2.0,1.0,4.12,2.94,0.0,
5.198,84.71578116765573,85.85224428332486,-2.56,-2.95,-1.18,0.0,0.0,4.0,3.0,2.0,2.0,1.0,4.02,2.94,0.0,
5.222,84.68357811676557,85.86822442833248,-3.3,-4.28,-1.99,0.0,0.0,4.0,3.0,2.0,2.0,1.0,4.12,3.04,0.0,
5.246,84.59935781167655,85.85182244283325,-3.11,-3.75,-1.88,0.0,0.0,4.0,3.0,2.0,2.0,1.0,4.02,3.14,0.0,
5.27,84.50093578116766,85.83218224428333,-2.95,-2.72,-1.15,0.0,0.0,4.0,3.0,2.0,2.0,1.0,3.92,3.14,0.0,
5.295,84.50909357811678,85.88421822442834,-2.93,-2.28,-0.56,0.0,0.0,4.0,3.0,2.0,2.0,1.0,3.92,3.14,0.0,
5.318,84.45590935781169,85.86242182244283,-2.89,-3.13,-0.6,0.0,0.0,4.0,3.0,2.0,2.0,1.0,3.73,3.04,0.0,
5.343,84.42359093578118,85.85124218224428,-2.75,-1.78,0.07,0.0,0.0,4.0,3.0,2.0,2.0,1.0,3.63,3.14,0.0,
5.366,84.48335909357812,85.91312421822443,-2.79,-1.95,-0.95,0.0,0.0,4.0,3.0,2.0,2.0,1.0,3.53,2.94,0.0,
5.391,84.43533590935782,85.92831242182244,-3.17,-2.7,-0.96,0.0,0.0,4.0,3.0,2.0,2.0,2.0,3.34,3.04,0.0,
5.414,84.34053359093579,85.88483124218224,-2.88,-2.63,-1.08,0.0,0.0,4.0,3.0,2.0,2.0,2.0,3.34,2.94,0.0,
5.439,84.21405335909358,85.88048312421823,-3.14,-1.68,-0.4,0.0,0.0,4.0,3.0,2.0,2.0,2.0,3.34,2.94,0.0,
5.463,84.21940533590936,85.93404831242182,-3.28,-1.03,-0.21,0.0,0.0,4.0,3.0,2.0,2.0,1.0,3.34,2.84,0.0,
5.487,84.14794053359094,85.90340483124218,-3.86,-0.05,0.07,0.0,0.0,4.0,3.0,2.0,2.0,1.0,3.43,2.75,0.0,
5.511,84.1767940533591,85.85534048312422,-3.34,-0.4,0.2,0.0,0.0,4.0,3.0,2.0,2.0,1.0,3.43,2.65,0.0,
5.535,84.17967940533592,85.85053404831243,-3.0,-0.8,-0.03,0.0,0.0,4.0,3.0,2.0,2.0,1.0,3.43,2.75,0.0,
5.559,84.20696794053359,85.85905340483124,-2.85,-0.71,0.14,0.0,0.0,4.0,3.0,2.0,2.0,1.0,3.53,2.75,0.0,
5.583,84.17369679405336,85.82390534048312,-2.68,-1.4,0.41,0.0,0.0,4.0,3.0,2.0,2.0,1.0,3.43,2.75,0.0,
5.607,84.24236967940534,85.86539053404832,-2.69,-1.13,0.23,0.0,0.0,4.0,3.0,2.0,2.0,1.0,3.53,2.65,0.0,
5.632,84.22223696794053,85.92353905340484,-3.41,-0.58,0.25,0.0,0.0,4.0,3.0,2.0,2.0,1.0,3.53,2.65,0.0,
5.655,84.20222369679405,85.92935390534049,-3.44,-0.12,0.05,0.0,0.0,4.0,3.0,2.0,2.0,1.0,3.43,2.55,0.0,
5.679,84.20922236967941,85.93893539053406,-3.2,-0.27,0.15,0.0,0.0,4.0,3.0,2.0,2.0,1.0,3.43,2.35,0.0,
5.703,84.20992223696794,85.9578935390534,-3.25,-0.55,0.34,0.0,0.0,4.0,3.0,2.0,2.0,1.0,3.53,2.45,0.0,
5.727,84.2729922236968,85.93278935390535,-3.09,-0.16,0.44,0.0,0.0,4.0,3.0,2.0,2.0,1.0,3.53,2.35,0.0,
5.751,84.31529922236967,85.94827893539053,-2.72,-0.75,0.5,0.0,0.0,4.0,3.0,2.0,2.0,1.0,3.53,2.35,0.0,
5.775,84.30152992223697,86.02182789353905,-2.68,-1.17,0.64,0.0,0.0,4.0,3.0,2.0,2.0,1.0,3.53,2.45,0.0,
5.799,84.3901529922237,86.01118278935391,-2.56,-1.08,0.4,0.0,0.0,4.0,3.0,2.0,2.0,1.0,3.63,2.45,0.0,
5.823,84.40801529922237,85.9831182789354,-2.97,-0.79,0.26,0.0,0.0,4.0,3.0,2.0,2.0,1.0,3.53,2.35,0.0,
5.847,84.39180152992225,86.00731182789355,-3.22,-0.78,0.03,0.0,0.0,4.0,3.0,2.0,2.0,1.0,3.63,2.35,0.0,
5.871,84.35418015299221,86.00073118278937,-3.27,-2.11,-0.38,0.0,0.0,4.0,3.0,2.0,2.0,1.0,3.63,2.35,0.0,
5.895,84.35941801529923,85.98207311827895,-2.94,-1.7,-0.43,0.0,0.0,4.0,3.0,2.0,2.0,1.0,3.53,2.45,0.0,
5.919,84.38694180152993,85.9982073118279,-2.87,-0.92,0.11,0.0,0.0,4.0,3.0,2.0,2.0,1.0,3.63,2.45,0.0,
5.943,84.416694180153,86.0538207311828,-3.07,-1.08,0.11,0.0,0.0,4.0,3.0,2.0,2.0,1.0,3.53,2.55,0.0,
5.967,84.38366941801529,86.04138207311829,-3.09,-0.77,0.17,0.0,0.0,4.0,3.0,2.0,2.0,1.0,3.63,2.45,0.0,
5.991,84.30836694180154,86.07613820731183,-2.73,-1.41,0.22,0.0,0.0,4.0,3.0,2.0,2.0,1.0,3.53,2.55,0.0,
6.016,84.31883669418015,86.08861382073118,-2.95,-1.75,0.65,0.0,0.0,4.0,3.0,2.0,2.0,1.0,3.63,2.55,0.0,
6.039,84.26588366941802,86.08086138207311,-2.53,-0.91,0.54,0.0,0.0,4.0,3.0,2.0,2.0,1.0,3.63,2.45,0.0,
6.064,84.2875883669418,86.12508613820731,-2.34,-0.69,0.13,0.0,0.0,4.0,3.0,2.0,2.0,1.0,3.63,2.45,0.0,
6.087,84.33475883669419,86.23750861382072,-3.34,-1.67,0.03,0.0,0.0,4.0,3.0,2.0,2.0,1.0,3.63,2.35,0.0,
6.111,84.28547588366942,86.19475086138206,-3.35,-0.85,-0.43,0.0,0.0,3.0,3.0,2.0,2.0,1.0,3.53,2.26,0.0,
6.135,84.34354758836693,86.1904750861382,-2.95,-0.86,-0.12,0.0,0.0,3.0,3.0,2.0,2.0,1.0,3.53,2.26,0.0,
6.159,84.3583547588367,86.22604750861382,-3.33,-0.98,0.23,0.0,0.0,3.0,3.0,2.0,2.0,1.0,3.43,2.16,0.0,
6.183,84.32383547588366,86.25660475086138,-3.4,0.24,0.82,0.0,0.0,3.0,3.0,2.0,2.0,1.0,3.53,2.06,0.0,
6.207,84.36538354758837,86.23266047508613,-3.06,0.59,0.57,0.0,0.0,3.0,3.0,2.0,2.0,1.0,3.53,1.96,0.0,
6.231,84.44153835475885,86.23026604750861,-2.67,-0.66,0.14,0.0,0.0,3.0,3.0,2.0,2.0,1.0,3.53,1.86,0.0,
6.255,84.46715383547588,86.19402660475086,-3.47,0.02,0.39,0.0,0.0,3.0,3.0,2.0,2.0,1.0,3.53,1.77,0.0,
6.279,84.51471538354758,86.21740266047509,-3.43,-0.29,-0.08,0.0,0.0,2.0,3.0,2.0,2.0,1.0,3.43,1.77,0.0,
6.303,84.55547153835475,86.21074026604751,-3.52,-1.55,-0.34,0.0,0.0,3.0,3.0,2.0,2.0,1.0,3.53,1.67,0.0,
6.327,84.51454715383548,86.18307402660476,-3.53,-0.81,-0.18,0.0,0.0,3.0,3.0,2.0,2.0,1.0,3.63,1.77,0.0,
6.351,84.56445471538355,86.09930740266049,-3.04,-1.53,-0.22,0.0,0.0,3.0,3.0,2.0,2.0,1.0,3.63,1.67,0.0,
6.375,84.57844547153836,86.11793074026606,-2.65,-0.82,-0.21,0.0,0.0,3.0,3.0,2.0,2.0,1.0,3.63,1.86,0.0,
6.4,84.57984454715384,86.17379307402662,-3.4,-1.56,-0.17,0.0,0.0,3.0,3.0,2.0,2.0,0.0,3.63,1.77,0.0,
6.423,84.48098445471538,86.02637930740266,-3.09,0.07,0.16,0.0,0.0,3.0,3.0,2.0,2.0,0.0,3.63,1.77,0.0,
6.448,84.44409844547152,86.06563793074025,-2.9,-2.71,-0.5,0.0,0.0,3.0,3.0,2.0,2.0,0.0,3.63,1.77,0.0,
6.471,84.47640984454716,86.12356379307403,-3.08,-1.92,-0.4,0.0,0.0,3.0,3.0,2.0,2.0,0.0,3.63,1.77,0.0,
6.496,84.4976409844547,86.1383563793074,-3.43,-0.54,-0.02,0.0,0.0,3.0,3.0,2.0,2.0,0.0,3.53,1.77,0.0,
6.519,84.47276409844547,86.10383563793073,-3.29,-1.42,-0.5,0.0,0.0,3.0,3.0,2.0,2.0,0.0,3.53,1.77,0.0,
6.544,84.54227640984455,86.07338356379307,-2.65,-2.11,-0.32,0.0,0.0,3.0,3.0,2.0,2.0,0.0,3.53,1.67,0.0,
6.567,84.61222764098446,86.01633835637931,-2.27,-2.55,0.29,0.0,0.0,3.0,3.0,2.0,1.0,0.0,3.43,1.57,0.0,
6.592,84.55622276409844,86.04663383563792,-2.67,-0.2,-0.08,0.0,0.0,3.0,3.0,2.0,1.0,0.0,3.43,1.47,0.0,
6.616,84.57762227640984,86.09466338356378,-3.58,0.08,-0.72,0.0,0.0,3.0,3.0,2.0,2.0,0.0,3.53,1.57,0.0,
6.64,84.50776222764098,86.13546633835637,-4.18,0.05,-0.81,0.0,0.0,3.0,3.0,2.0,2.0,1.0,3.53,1.67,0.0,
6.664,84.4827762227641,86.13954663383564,-4.66,0.11,-0.68,0.0,0.0,3.0,3.0,2.0,2.0,1.0,3.63,1.86,0.0,
6.687,84.5162776222764,86.12195466338358,-4.49,-2.18,-0.7,0.0,0.0,3.0,3.0,2.0,2.0,1.0,3.53,2.06,0.0,
6.712,84.43862776222765,86.09319546633836,-4.43,-2.11,-0.89,0.0,0.0,3.0,3.0,2.0,2.0,1.0,3.63,2.06,0.0,
6.735,84.61986277622276,85.97331954663383,-2.67,-3.15,-1.03,0.0,0.0,3.0,2.0,2.0,2.0,1.0,3.53,1.67,0.0,
6.76,84.57498627762227,85.92533195466339,-0.21,-3.67,-0.35,0.0,0.0,2.0,2.0,1.0,1.0,0.0,3.53,1.37,0.0,
6.784,84.48049862776222,86.00153319546635,0.78,-4.66,-0.45,0.0,0.0,2.0,2.0,1.0,1.0,0.0,3.34,1.18,0.0,
6.808,84.39004986277621,85.86515331954664,2.7,-2.54,0.85,0.0,0.0,1.0,2.0,1.0,1.0,0.0,3.24,0.98,0.0,
6.832,84.28200498627763,86.00451533195465,3.47,-1.07,2.78,0.0,0.0,1.0,2.0,1.0,1.0,0.0,2.84,0.78,0.0,
6.856,84.14520049862776,86.15345153319547,2.99,-1.37,0.06,0.0,0.0,1.0,2.0,0.0,1.0,0.0,2.55,0.69,0.0,
6.88,84.17652004986279,86.23134515331955,2.4,4.63,0.9,0.0,0.0,0.0,2.0,0.0,1.0,0.0,2.35,0.59,0.0,
6.903,84.24265200498628,86.24813451533196,3.87,5.38,3.35,0.0,0.0,0.0,1.0,0.0,0.0,0.0,2.06,0.49,0.0,
6.927,84.49226520049862,86.3128134515332,4.55,1.39,4.65,0.0,0.0,0.0,1.0,0.0,0.0,0.0,1.86,0.39,0.0,
6.95,84.81422652004986,86.43628134515333,6.13,-8.36,2.46,0.0,0.0,0.0,1.0,0.0,0.0,0.0,1.57,0.29,0.0,
6.975,84.96342265200498,86.61962813451532,7.46,-9.1,2.65,0.0,0.0,0.0,1.0,0.0,0.0,0.0,1.28,0.1,0.0,
6.999,85.1673422652005,86.75496281345153,11.05,-11.6,3.52,0.0,0.0,0.0,1.0,0.0,0.0,0.0,1.08,0.0,0.0,
7.022,84.80073422652005,87.29049628134514,11.07,-7.88,4.35,0.0,0.0,0.0,1.0,0.0,0.0,0.0,0.69,0.0,0.0,
7.046,84.476073422652,87.87504962813452,9.79,-7.52,9.01,0.0,0.0,0.0,0.0,0.0,0.0,0.0,0.49,0.0,0.0,
7.069,83.9576073422652,88.02350496281346,13.05,-16.36,9.43,0.0,0.0,0.0,0.0,0.0,0.0,0.0,0.29,0.2,0.0,
7.094,83.93276073422652,88.80335049628135,8.06,-8.89,10.79,0.0,0.0,0.0,0.0,0.0,0.0,0.0,0.0,0.29,0.0,
7.117,83.68727607342265,89.37633504962812,-2.89,-5.6,9.23,0.0,0.0,0.0,0.0,0.0,0.0,0.0,0.0,0.39,0.0,
7.141,83.64472760734226,89.29863350496282,-6.08,-2.75,14.14,0.0,0.0,0.0,0.0,0.0,0.0,0.0,0.0,0.49,0.0,
7.164,83.56847276073424,89.26386335049628,-7.76,8.22,14.97,0.0,0.0,0.0,0.0,0.0,0.0,0.0,0.0,0.59,0.0,
7.188,83.54284727607343,89.62938633504963,-13.4,5.44,19.52,0.0,0.0,0.0,0.0,0.0,0.0,0.0,0.0,0.88,0.0,
7.213,84.92628472760734,89.90893863350496,-19.4,21.08,15.61,0.0,0.0,0.0,1.0,0.0,0.0,0.0,0.2,1.57,0.0,
7.236,85.19962847276074,89.56789386335049,-20.4,28.66,0.23,0.0,0.0,0.0,2.0,0.0,0.0,0.0,0.39,2.45,0.0,
7.26,84.89396284727607,88.75978938633504,-18.63,10.25,6.54,0.0,0.0,0.0,3.0,0.0,0.0,0.0,0.69,3.92,0.0,
7.284,84.8093962847276,88.16597893863349,-17.06,2.83,10.21,0.0,0.0,0.0,4.0,0.0,0.0,0.0,1.37,5.98,0.0,
7.308,84.57593962847275,87.69259789386335,-13.24,-8.67,11.4,0.0,0.0,0.0,5.0,0.0,0.0,0.0,1.67,8.14,0.0,
7.331,84.52559396284727,86.93425978938633,-8.79,-3.03,9.92,0.0,0.0,0.0,5.0,0.0,0.0,0.0,1.86,9.71,0.0,
7.355,84.07955939628474,86.73242597893864,-7.07,-15.12,12.01,0.0,0.0,0.0,6.0,0.0,0.0,0.0,2.35,11.38,0.0,
7.379,84.34995593962847,87.04524259789386,-11.86,-10.43,5.82,0.0,0.0,0.0,6.0,1.0,0.0,0.0,2.65,12.75,0.0,
7.403,84.28699559396284,86.94152425978939,-14.08,-12.08,6.46,0.0,0.0,0.0,7.0,1.0,1.0,0.0,3.24,13.93,0.0,
7.428,84.23569955939628,86.86815242597895,-12.66,-12.42,4.77,0.0,0.0,0.0,8.0,2.0,1.0,0.0,3.92,15.3,0.0,
7.451,83.87956995593963,86.41081524259789,-12.14,-14.63,2.35,0.0,0.0,0.0,8.0,2.0,2.0,0.0,4.91,16.68,0.0,
7.476,83.53795699559397,85.98708152425979,-7.07,-15.62,0.08,0.0,0.0,0.0,9.0,2.0,2.0,0.0,6.08,17.56,0.0,
7.499,83.2697956995594,86.529708152426,-7.6,-9.37,2.73,0.0,0.0,0.0,9.0,2.0,2.0,0.0,6.38,17.56,0.0,
7.524,82.82897956995595,86.3589708152426,-10.08,-5.37,0.85,0.0,0.0,0.0,9.0,2.0,3.0,0.0,6.57,17.17,0.0,
7.547,82.4248979569956,86.23389708152426,-17.35,-1.91,3.44,0.0,0.0,1.0,9.0,2.0,3.0,0.0,7.06,17.07,0.0,
7.572,82.30348979569956,85.92438970815243,-16.97,2.69,6.02,0.0,0.0,1.0,10.0,2.0,3.0,0.0,7.65,17.76,0.0,
7.597,82.21934897956994,85.29943897081525,-8.7,0.95,7.16,0.0,0.0,2.0,10.0,3.0,4.0,0.0,8.34,17.76,0.0,
7.62,82.120934897957,85.23694389708153,-4.18,1.14,3.93,0.0,0.0,2.0,9.0,3.0,4.0,0.0,8.63,17.27,0.0,
7.645,82.12909348979571,85.09569438970816,-4.52,2.73,1.42,0.0,0.0,2.0,9.0,2.0,4.0,0.0,8.63,16.58,0.0,
7.668,81.93190934897956,85.10856943897082,-6.44,6.82,2.13,0.0,0.0,2.0,9.0,3.0,4.0,0.0,8.73,15.7,0.0,
7.692,82.16419093489796,85.02885694389708,-6.47,9.14,2.92,0.0,0.0,2.0,9.0,3.0,4.0,1.0,9.03,15.01,0.0,
7.716,82.2234190934898,84.9668856943897,-3.92,10.05,1.56,0.0,0.0,2.0,9.0,3.0,4.0,1.0,9.42,14.52,0.0,
7.74,82.60734190934899,84.75368856943898,-0.6,8.17,0.58,0.0,0.0,2.0,9.0,3.0,4.0,1.0,9.91,13.83,0.0,
7.764,82.9427341909349,84.6423688569439,2.62,5.88,-4.02,0.0,0.0,2.0,8.0,3.0,4.0,1.0,10.2,13.34,0.0,
7.788,82.92227341909349,84.5232368856944,2.11,6.87,-4.97,0.0,0.0,2.0,8.0,3.0,5.0,1.0,10.4,12.65,0.0,
7.813,82.75822734190935,84.66432368856944,-2.95,19.47,-11.4,0.0,0.0,3.0,8.0,3.0,5.0,1.0,10.5,12.36,0.0,
7.837,82.95782273419094,84.53443236885694,3.08,1.2,-16.5,0.0,0.0,3.0,9.0,3.0,5.0,2.0,10.69,12.85,0.0,
7.861,83.0947822734191,84.94444323688569,1.85,1.1,-14.79,0.0,0.0,4.0,9.0,3.0,6.0,2.0,10.69,13.24,0.0,
7.885,83.49547822734192,85.04844432368857,-2.31,0.75,-9.54,0.0,0.0,4.0,9.0,4.0,6.0,2.0,10.79,13.54,0.0,
7.909,83.5535478227342,84.93284443236885,2.37,2.25,-8.09,0.0,0.0,4.0,9.0,4.0,6.0,2.0,10.99,13.93,0.0,
7.933,83.66735478227343,85.02028444323689,0.76,2.55,-8.2,0.0,0.0,4.0,9.0,4.0,6.0,2.0,11.18,14.32,0.0,
7.957,83.85873547822735,85.05602844432369,-2.84,-1.3,-12.09,0.0,0.0,4.0,9.0,4.0,6.0,3.0,11.58,15.11,0.0,
7.982,84.25587354782274,84.69960284443238,-2.7,-12.83,-19.21,0.0,0.0,4.0,10.0,4.0,7.0,3.0,11.87,15.7,0.0,
8.006,84.27758735478227,84.55596028444324,-1.02,-13.82,-16.25,0.0,0.0,5.0,10.0,5.0,7.0,3.0,11.77,16.38,0.0,
8.031,84.28875873547823,84.47859602844431,-0.5,-8.35,-11.82,0.0,0.0,5.0,10.0,5.0,7.0,3.0,11.87,16.78,0.0,
8.055,84.13687587354784,84.84885960284443,-1.2,-5.22,-9.66,0.0,0.0,5.0,10.0,5.0,7.0,3.0,11.77,17.17,0.0,
8.08,84.00468758735478,85.11988596028445,-5.49,-4.85,-8.08,0.0,0.0,5.0,11.0,5.0,7.0,4.0,11.77,17.46,0.0,
8.103,83.62246875873547,85.03898859602845,-2.98,-2.63,-5.4,0.0,0.0,5.0,11.0,6.0,7.0,4.0,11.97,18.25,0.0,
8.128,83.47624687587353,85.20189885960285,-3.67,-2.22,-1.57,0.0,0.0,5.0,11.0,6.0,8.0,4.0,12.07,18.74,0.0,
8.153,83.43462468758736,85.15518988596028,-0.68,-3.87,-2.59,0.0,0.0,5.0,10.0,4.0,7.0,4.0,12.07,18.54,0.0,
8.177,83.38546246875873,85.18651898859603,0.47,-0.89,-1.11,0.0,0.0,5.0,10.0,4.0,7.0,4.0,11.97,17.46,0.0,
8.201,83.30854624687586,85.35165189885961,0.4,0.65,-2.2,0.0,0.0,5.0,10.0,5.0,7.0,3.0,11.97,16.78,0.0,
8.225,83.22885462468759,85.32316518988596,-0.69,2.47,-1.24,0.0,0.0,5.0,10.0,5.0,7.0,3.0,11.87,16.19,0.0,
8.25,83.26588546246876,85.4733165189886,-1.07,5.53,1.32,0.0,0.0,5.0,10.0,5.0,7.0,3.0,11.58,16.09,0.0,
8.273,83.31458854624688,85.69533165189885,-3.87,2.27,-0.48,0.0,0.0,5.0,10.0,5.0,6.0,3.0,11.38,15.79,0.0,
8.298,83.43645885462469,85.83453316518988,-5.08,-2.02,-1.14,0.0,0.0,5.0,10.0,4.0,7.0,3.0,11.28,16.28,0.0,
8.323,83.52964588546247,85.91145331651899,-5.27,-3.26,-1.97,0.0,0.0,5.0,10.0,4.0,7.0,3.0,11.09,16.68,0.0,
8.346,83.55696458854625,85.7931453316519,-3.58,-0.56,-0.54,0.0,0.0,5.0,10.0,4.0,7.0,3.0,11.09,16.58,0.0,
8.371,83.53269645885463,85.93431453316519,-1.89,-0.77,-1.92,0.0,0.0,5.0,10.0,4.0,7.0,3.0,10.99,16.09,0.0,
8.395,83.63826964588547,85.9844314533165,-4.87,-3.15,-3.68,0.0,0.0,5.0,11.0,4.0,7.0,3.0,10.89,15.89,0.0,
8.42,83.64882696458855,85.96244314533163,-6.98,-3.8,-4.53,0.0,0.0,5.0,11.0,4.0,7.0,3.0,10.69,15.99,0.0,
8.443,83.59588269645886,85.81624431453317,-8.53,-4.66,-2.31,0.0,0.0,6.0,11.0,4.0,7.0,3.0,10.59,16.09,0.0,
8.468,83.54558826964589,85.73862443145333,-7.63,-3.85,-0.37,0.0,0.0,6.0,11.0,5.0,7.0,4.0,10.4,16.09,0.0,
8.493,83.5045588269646,85.68586244314534,-6.24,-1.03,3.23,0.0,0.0,6.0,11.0,5.0,8.0,4.0,10.4,16.09,0.0,
8.517,83.51845588269646,85.64458624431454,-4.93,-1.04,0.85,0.0,0.0,6.0,11.0,5.0,8.0,4.0,10.5,16.09,0.0,
8.541,83.61884558826964,85.57745862443144,-5.76,-0.75,1.89,0.0,0.0,6.0,12.0,5.0,8.0,3.0,10.89,16.19,0.0,
8.565,83.59288455882697,85.47174586244314,-4.79,-1.52,-0.31,0.0,0.0,6.0,12.0,5.0,8.0,4.0,11.09,16.68,0.0,
8.59,83.59928845588269,85.40717458624432,-5.79,-3.38,-1.15,0.0,0.0,6.0,12.0,5.0,8.0,4.0,11.18,17.17,0.0,
8.613,83.55492884558826,85.35571745862443,-6.17,-3.76,-2.01,0.0,0.0,6.0,12.0,5.0,8.0,4.0,11.18,17.36,0.0,
8.638,83.51449288455883,85.26957174586245,-5.51,-3.29,-1.24,0.0,0.0,6.0,12.0,5.0,8.0,4.0,11.18,17.46,0.0,
8.663,83.45644928845589,85.15295717458625,-4.28,-2.35,0.42,0.0,0.0,6.0,12.0,5.0,8.0,4.0,11.18,17.17,0.0,
8.687,83.43264492884559,85.06029571745863,-2.49,-1.34,0.99,0.0,0.0,6.0,12.0,5.0,8.0,4.0,11.28,16.97,0.0,
8.711,83.47526449288456,85.09602957174586,-1.87,-0.51,1.95,0.0,0.0,6.0,0.0,5.0,8.0,4.0,11.18,16.87,0.0,
8.735,83.45252644928846,85.06360295717458,-2.5,-0.65,1.05,0.0,0.0,6.0,0.0,5.0,8.0,3.0,11.09,16.78,0.0,
8.759,83.51325264492884,85.14136029571746,-3.2,-1.65,0.3,0.0,0.0,6.0,12.0,5.0,8.0,3.0,11.09,16.48,0.0,
8.783,83.43832526449289,85.11313602957175,-3.7,-1.84,0.15,0.0,0.0,6.0,12.0,4.0,7.0,3.0,10.99,16.38,0.0,
8.808,83.4128325264493,85.11031360295718,-2.9,-1.28,-0.24,0.0,0.0,6.0,12.0,4.0,7.0,3.0,11.18,16.19,0.0,
8.833,83.37428325264493,85.12803136029572,-3.67,-1.21,-0.04,0.0,0.0,6.0,12.0,4.0,7.0,3.0,11.28,16.09,0.0,
8.856,83.2894283252645,85.12980313602958,-3.87,-2.36,-0.11,0.0,0.0,6.0,12.0,4.0,7.0,3.0,11.48,15.99,0.0,
8.881,83.27194283252645,85.12098031360296,-4.21,-3.17,0.22,0.0,0.0,5.0,0.0,4.0,7.0,3.0,11.58,15.79,0.0,
8.905,83.21619428325263,85.1380980313603,-4.95,-3.82,0.31,0.0,0.0,5.0,12.0,4.0,7.0,3.0,11.58,15.6,0.0,
8.929,83.12961942832527,85.04080980313603,-4.41,-2.18,0.94,0.0,0.0,5.0,12.0,4.0,7.0,3.0,11.58,15.3,0.0,
8.953,83.04896194283253,84.9590809803136,-3.25,0.01,1.99,0.0,0.0,5.0,12.0,4.0,7.0,3.0,11.58,15.01,0.0,
8.978,83.04989619428326,84.99590809803136,-2.69,0.94,2.39,0.0,0.0,5.0,12.0,4.0,7.0,3.0,11.67,14.81,0.0,
9.001,83.08598961942833,84.99959080980314,-2.72,1.15,2.18,0.0,0.0,5.0,12.0,4.0,7.0,3.0,11.77,14.72,0.0,
9.026,83.13459896194284,85.03595908098032,-2.51,0.92,1.85,0.0,0.0,5.0,11.0,4.0,7.0,2.0,11.77,14.72,0.0,
9.05,83.2204598961943,85.03959590809804,-2.75,0.98,1.88,0.0,0.0,5.0,11.0,4.0,7.0,2.0,11.67,14.62,0.0,
9.074,83.32804598961943,85.0759595908098,-2.83,-0.08,1.32,0.0,0.0,5.0,11.0,4.0,7.0,2.0,11.67,14.52,0.0,
9.099,83.34780459896194,85.07959595908098,-2.64,-0.84,0.39,0.0,0.0,5.0,11.0,4.0,7.0,2.0,11.77,14.42,0.0,
9.122,83.3677804598962,85.0799595959081,-2.21,-0.69,0.4,0.0,0.0,5.0,11.0,4.0,7.0,2.0,11.67,14.42,0.0,
9.147,83.37877804598962,85.0799959595908,-2.24,-0.45,0.04,0.0,0.0,5.0,11.0,4.0,7.0,2.0,11.67,14.22,0.0,
9.171,83.39787780459896,85.14299959595908,-2.44,0.13,1.02,0.0,0.0,5.0,11.0,4.0,6.0,2.0,11.67,14.13,0.0,
9.195,83.4357877804599,85.16729995959591,-3.16,0.5,1.55,0.0,0.0,5.0,11.0,4.0,6.0,2.0,11.67,13.93,0.0,
9.22,83.475578778046,85.1967299959596,-3.3,0.58,1.22,0.0,0.0,5.0,11.0,4.0,6.0,2.0,11.77,14.03,0.0,
9.243,83.4165578778046,85.16367299959596,-4.2,1.79,2.84,0.0,0.0,5.0,11.0,4.0,6.0,2.0,11.67,14.42,0.0,
9.268,83.47365578778046,85.25936729995959,-4.56,0.38,2.25,0.0,0.0,5.0,11.0,4.0,6.0,2.0,11.67,14.81,0.0,
9.291,83.54236557877803,85.18793672999597,-4.98,-0.87,2.35,0.0,0.0,5.0,11.0,4.0,6.0,2.0,11.67,15.5,0.0,
9.316,83.5852365578778,85.1537936729996,-3.99,-0.71,1.33,0.0,0.0,5.0,11.0,4.0,6.0,2.0,11.87,15.7,0.0,
9.34,83.58952365578779,85.11437936729996,-3.62,-1.06,0.86,0.0,0.0,5.0,11.0,4.0,6.0,2.0,11.87,15.89,0.0,
9.365,83.61695236557878,85.10143793673,-4.14,-0.83,1.54,0.0,0.0,5.0,11.0,4.0,6.0,2.0,11.87,15.99,0.0,
9.389,83.62869523655787,85.109143793673,-3.83,-2.36,1.0,0.0,0.0,5.0,11.0,4.0,6.0,2.0,11.87,16.09,0.0,
9.413,83.6748695236558,85.0559143793673,-3.69,-2.51,1.51,0.0,0.0,5.0,11.0,4.0,6.0,2.0,11.97,15.89,0.0,
9.438,83.68848695236558,85.05059143793673,-3.63,-3.11,0.93,0.0,0.0,5.0,11.0,4.0,6.0,2.0,11.97,15.6,0.0,
9.461,83.65384869523656,85.02305914379367,-3.47,-3.44,0.75,0.0,0.0,5.0,11.0,4.0,6.0,2.0,11.97,15.11,0.0,
9.486,83.57838486952365,85.02030591437936,-3.63,-2.05,1.21,0.0,0.0,5.0,11.0,4.0,6.0,2.0,11.77,14.52,0.0,
9.51,83.50783848695237,85.06503059143793,-3.6,-2.63,1.06,0.0,0.0,5.0,11.0,4.0,6.0,2.0,11.87,14.13,0.0,
9.534,83.42878384869523,85.5645030591438,-5.09,-0.31,1.4,0.0,0.0,5.0,11.0,4.0,6.0,2.0,11.97,13.93,0.0,
9.559,83.26787838486952,85.61445030591439,-3.95,-4.35,0.97,0.0,0.0,4.0,11.0,4.0,6.0,2.0,11.87,13.83,0.0,
9.583,83.18878783848696,85.24144503059145,-4.43,-5.31,1.29,0.0,0.0,4.0,10.0,4.0,6.0,2.0,11.67,13.54,0.0,
9.607,83.18987878384868,85.34814450305915,-4.91,-3.57,2.14,0.0,0.0,4.0,10.0,4.0,6.0,2.0,11.58,13.05,0.0,
9.631,83.16298787838485,85.40381445030592,-4.07,-5.96,-1.4,0.0,0.0,4.0,10.0,4.0,6.0,2.0,11.48,12.46,0.0,
9.656,83.10629878783848,85.3013814450306,-4.12,-7.25,-0.56,0.0,0.0,4.0,10.0,3.0,6.0,2.0,11.28,11.67,0.0,
9.679,83.02862987878385,85.18313814450306,-4.79,-5.5,0.92,0.0,0.0,4.0,10.0,3.0,6.0,2.0,11.38,10.89,0.0,
9.704,82.92186298787838,85.19831381445032,-4.75,-2.16,2.58,0.0,0.0,4.0,9.0,3.0,6.0,2.0,11.28,10.1,0.0,
9.729,82.82118629878785,85.04683138144503,-3.5,-3.49,0.73,0.0,0.0,4.0,9.0,3.0,5.0,2.0,11.28,9.22,0.0,
9.752,82.74811862987877,85.0676831381445,-3.08,-2.57,1.63,0.0,0.0,4.0,9.0,3.0,5.0,1.0,11.18,8.53,0.0,
9.777,82.64181186298788,84.79076831381445,-1.44,-4.47,-1.77,0.0,0.0,4.0,9.0,3.0,5.0,1.0,11.09,7.75,0.0,
9.8,82.78418118629878,84.78107683138145,-3.31,-0.56,1.45,0.0,0.0,4.0,9.0,3.0,5.0,1.0,11.09,7.46,0.0,
9.825,82.80741811862988,84.73510768313815,-2.98,0.34,1.5,0.0,0.0,4.0,9.0,3.0,5.0,1.0,10.99,7.16,0.0,
9.848,82.78274181186299,84.78451076831382,-2.38,0.79,0.6,0.0,0.0,4.0,9.0,3.0,5.0,1.0,10.89,7.06,0.0,
9.873,82.79827418118629,84.79845107683137,-3.04,0.32,0.95,0.0,0.0,4.0,9.0,3.0,5.0,1.0,10.89,7.06,0.0,
9.896,82.85382741811863,84.78184510768314,-3.24,-0.18,0.54,0.0,0.0,4.0,9.0,3.0,5.0,1.0,10.89,7.26,0.0,
9.921,82.88638274181186,84.77118451076831,-2.79,-0.25,0.31,0.0,0.0,4.0,9.0,3.0,5.0,2.0,10.89,7.36,0.0,
9.945,82.94363827418118,84.76111845107684,-2.85,0.23,0.11,0.0,0.0,4.0,9.0,3.0,5.0,2.0,10.79,7.65,0.0,
9.969,82.98536382741813,84.73311184510769,-2.49,0.82,0.37,0.0,0.0,4.0,9.0,3.0,5.0,2.0,10.79,7.65,0.0,
9.993,82.97153638274182,84.73931118451075,-2.81,1.23,0.95,0.0,0.0,4.0,10.0,3.0,5.0,2.0,10.99,7.95,0.0,
10.017,83.03315363827419,84.75793111845108,-2.69,0.79,0.47,0.0,0.0,4.0,10.0,3.0,5.0,2.0,11.09,8.14,0.0,
10.041,83.01231536382743,84.7687931118451,-3.08,0.82,0.85,0.0,0.0,4.0,10.0,3.0,5.0,2.0,11.09,8.34,0.0,
10.065,83.01923153638275,84.80587931118451,-2.97,0.89,0.61,0.0,0.0,4.0,10.0,3.0,5.0,2.0,11.09,8.63,0.0,
10.089,83.08292315363828,84.81858793111844,-2.7,0.85,0.29,0.0,0.0,4.0,10.0,3.0,5.0,2.0,11.18,8.83,0.0,
10.114,83.10729231536384,84.81985879311183,-2.35,0.93,0.06,0.0,0.0,4.0,10.0,3.0,5.0,2.0,11.18,9.03,0.0,
10.138,83.1457292315364,84.82898587931118,-2.99,0.83,-0.49,0.0,0.0,4.0,10.0,3.0,6.0,2.0,11.18,9.12,0.0,
10.162,83.20357292315363,84.86589858793113,-3.85,0.21,-0.73,0.0,0.0,4.0,10.0,3.0,6.0,2.0,11.28,9.22,0.0,
10.186,83.21835729231536,84.86958985879312,-3.7,0.17,-0.69,0.0,0.0,5.0,10.0,3.0,6.0,2.0,11.28,9.52,0.0,
10.211,83.20183572923155,84.8249589858793,-3.4,0.62,-0.56,0.0,0.0,5.0,10.0,3.0,6.0,2.0,11.28,9.61,0.0,
10.234,83.20018357292317,84.80249589858792,-3.17,1.5,-0.05,0.0,0.0,5.0,10.0,3.0,6.0,2.0,11.38,9.71,0.0,
10.259,83.27201835729231,84.76424958985879,-3.1,1.17,-0.34,0.0,0.0,5.0,10.0,3.0,6.0,2.0,11.38,9.91,0.0,
10.284,83.36020183572923,84.76042495898588,-3.21,0.01,-0.37,0.0,0.0,5.0,11.0,3.0,6.0,2.0,11.58,10.2,0.0,
10.307,83.45902018357293,84.75104249589859,-3.42,-0.09,-0.74,0.0,0.0,5.0,11.0,3.0,6.0,2.0,11.48,10.5,0.0,
10.332,83.5049020183573,84.72310424958987,-3.44,0.0,-0.89,0.0,0.0,5.0,11.0,3.0,6.0,2.0,11.48,10.79,0.0,
10.356,83.56349020183572,84.71131042495898,-3.42,0.06,-0.62,0.0,0.0,5.0,11.0,3.0,6.0,2.0,11.58,11.09,0.0,
10.381,83.61434902018358,84.6921310424959,-3.62,1.38,0.7,0.0,0.0,5.0,11.0,3.0,6.0,2.0,11.58,11.38,0.0,
10.404,83.57443490201835,84.6812131042496,-3.19,1.08,-0.01,0.0,0.0,5.0,11.0,3.0,6.0,2.0,11.58,11.67,0.0,
10.429,83.64244349020184,84.70712131042495,-2.97,0.17,-0.76,0.0,0.0,5.0,11.0,3.0,6.0,2.0,11.67,12.16,0.0,
10.454,83.72124434902018,84.7277121310425,-3.69,-0.99,-0.82,0.0,0.0,5.0,11.0,3.0,6.0,2.0,11.67,12.46,0.0,
10.478,83.76512443490202,84.72077121310426,-3.74,-1.14,-0.54,0.0,0.0,5.0,11.0,3.0,6.0,2.0,11.67,12.56,0.0,
10.503,83.8055124434902,84.72007712131042,-3.61,-0.69,-0.56,0.0,0.0,5.0,11.0,3.0,6.0,2.0,11.67,12.46,0.0,
10.526,83.81855124434902,84.72000771213105,-3.56,-0.31,-0.15,0.0,0.0,5.0,11.0,3.0,6.0,2.0,11.67,12.56,0.0,
10.551,83.83785512443491,84.72000077121311,-3.14,0.48,0.01,0.0,0.0,5.0,11.0,3.0,6.0,2.0,11.67,12.46,0.0,
10.575,83.8757855124435,84.72900007712131,-3.31,-0.45,-0.27,0.0,0.0,5.0,11.0,3.0,6.0,2.0,11.67,12.56,0.0,
10.6,83.94257855124435,84.78390000771213,-3.39,-0.94,-0.34,0.0,0.0,5.0,11.0,3.0,6.0,2.0,11.67,12.56,0.0,
10.625,83.98525785512443,84.73539000077122,-3.79,-1.36,-0.41,0.0,0.0,5.0,11.0,3.0,6.0,2.0,11.77,12.56,0.0,
10.648,83.98052578551246,84.67653900007713,-3.75,-1.46,-0.79,0.0,0.0,5.0,11.0,3.0,6.0,2.0,11.77,12.46,0.0,
10.673,83.95305257855125,84.65265390000772,-3.06,-1.25,-0.96,0.0,0.0,5.0,11.0,3.0,6.0,2.0,11.67,12.36,0.0,
10.697,83.96830525785514,84.65926539000077,-2.6,-1.33,-1.34,0.0,0.0,5.0,11.0,3.0,6.0,2.0,11.67,12.16,0.0,
10.722,83.96983052578553,84.70492653900007,-2.53,-1.55,-1.7,0.0,0.0,5.0,11.0,3.0,6.0,2.0,11.58,11.97,0.0,
10.746,83.89798305257855,84.71849265390001,-2.47,-1.96,-1.75,0.0,0.0,5.0,11.0,3.0,6.0,2.0,11.58,11.77,0.0,
10.771,83.85479830525786,84.74684926539001,-3.11,-1.8,-1.14,0.0,0.0,5.0,12.0,3.0,6.0,2.0,11.58,11.58,0.0,
10.796,83.80547983052578,84.76768492653899,-3.37,-1.63,-0.63,0.0,0.0,5.0,12.0,3.0,6.0,2.0,11.38,11.28,0.0,
10.819,83.84554798305258,84.80576849265391,-3.08,-1.1,-0.58,0.0,0.0,5.0,12.0,3.0,6.0,2.0,11.38,11.18,0.0,
10.844,83.88555479830526,84.80057684926538,-2.53,-0.76,-0.37,0.0,0.0,5.0,12.0,3.0,6.0,2.0,11.38,10.99,0.0,
10.868,83.91655547983054,84.81805768492653,-2.53,-0.31,-0.25,0.0,0.0,5.0,12.0,3.0,6.0,2.0,11.28,10.99,0.0,
10.893,83.88365554798305,84.83780576849266,-2.59,-0.27,-0.24,0.0,0.0,5.0,12.0,3.0,6.0,2.0,11.28,11.09,0.0,
10.917,83.8983655547983,84.83978057684928,-2.87,0.29,0.29,0.0,0.0,5.0,12.0,3.0,6.0,2.0,11.18,11.09,0.0,
10.941,83.89083655547984,84.83097805768492,-2.82,0.04,0.5,0.0,0.0,5.0,12.0,3.0,6.0,2.0,11.28,11.18,0.0,
10.966,83.89908365554798,84.88409780576849,-3.14,-0.56,0.34,0.0,0.0,5.0,12.0,3.0,6.0,2.0,11.38,11.18,0.0,
10.99,83.97190836555481,84.88040978057684,-3.13,-0.86,-0.15,0.0,0.0,5.0,12.0,3.0,6.0,2.0,11.28,11.28,0.0,
11.015,83.96119083655547,84.86204097805768,-2.77,-0.5,-0.07,0.0,0.0,5.0,12.0,3.0,6.0,2.0,11.18,11.18,0.0,
11.038,83.96011908365554,84.84220409780578,-3.02,-0.69,-0.13,0.0,0.0,5.0,12.0,3.0,6.0,2.0,11.18,11.18,0.0,
11.063,84.01401190836555,84.80422040978057,-2.83,-1.89,-1.29,0.0,0.0,5.0,12.0,3.0,6.0,2.0,11.28,11.18,0.0,
11.087,84.02840119083656,84.84542204097805,-2.83,-2.13,-1.21,0.0,0.0,5.0,12.0,3.0,6.0,2.0,11.18,11.18,0.0,
11.112,84.02984011908366,84.8495422040978,-2.95,-1.59,-0.62,0.0,0.0,5.0,12.0,3.0,6.0,2.0,11.18,11.09,0.0,
11.137,83.98498401190837,84.84095422040978,-2.88,-1.12,-0.22,0.0,0.0,5.0,12.0,3.0,6.0,2.0,11.18,11.09,0.0,
11.161,83.94449840119084,84.86709542204099,-2.47,0.05,-0.21,0.0,0.0,5.0,12.0,3.0,6.0,2.0,11.18,10.99,0.0,
11.185,83.94044984011909,84.85170954220409,-2.08,1.05,-0.14,0.0,0.0,5.0,12.0,3.0,6.0,2.0,11.28,11.09,0.0,
11.209,84.03904498401191,84.86817095422042,-2.8,0.22,-0.08,0.0,0.0,5.0,12.0,3.0,6.0,2.0,11.38,11.58,0.0,
11.234,84.1389044984012,84.87881709542204,-3.06,-1.13,-0.2,0.0,0.0,5.0,12.0,3.0,6.0,2.0,11.48,12.16,0.0,
11.258,84.16689044984012,84.9068817095422,-3.65,-1.79,0.02,0.0,0.0,5.0,12.0,3.0,6.0,2.0,11.58,12.56,0.0,
11.283,84.15168904498402,84.91868817095421,-3.89,-1.93,-0.19,0.0,0.0,5.0,12.0,3.0,6.0,2.0,11.38,12.46,0.0,
11.307,84.1591689044984,84.87486881709543,-3.17,-1.4,-0.01,0.0,0.0,5.0,12.0,3.0,6.0,2.0,11.28,12.16,0.0,
11.331,84.17791689044985,84.89748688170955,-3.24,-0.63,0.35,0.0,0.0,5.0,12.0,3.0,6.0,2.0,11.18,11.97,0.0,
11.356,84.22479168904499,84.93574868817095,-3.13,-0.32,0.98,0.0,0.0,5.0,12.0,3.0,6.0,2.0,11.18,11.77,0.0,
11.38,84.2294791689045,84.97557486881709,-3.46,-0.53,1.53,0.0,0.0,5.0,12.0,3.0,6.0,2.0,11.18,11.67,0.0,
11.405,84.22094791689045,84.93455748688172,-3.53,-0.89,1.56,0.0,0.0,5.0,12.0,3.0,6.0,2.0,11.28,11.67,0.0,
11.428,84.13909479168905,84.98445574868816,-3.75,0.36,2.55,0.0,0.0,5.0,12.0,3.0,6.0,2.0,11.18,11.77,0.0,
11.453,84.1399094791689,85.04344557486881,-3.82,0.44,1.92,0.0,0.0,5.0,12.0,3.0,6.0,2.0,11.38,11.97,0.0,
11.478,84.19399094791689,85.04034455748688,-4.22,-0.28,1.62,0.0,0.0,5.0,12.0,3.0,6.0,2.0,11.58,12.56,0.0,
11.501,84.29839909479169,85.01303445574868,-3.96,-0.18,1.5,0.0,0.0,5.0,12.0,4.0,6.0,2.0,11.67,13.05,0.0,
11.526,84.40783990947918,85.04630344557486,-3.79,-1.13,0.72,0.0,0.0,5.0,12.0,4.0,6.0,2.0,11.77,13.44,0.0,
11.55,84.33778399094793,84.99563034455748,-4.05,-1.87,0.17,0.0,0.0,5.0,12.0,4.0,6.0,3.0,11.97,13.83,0.0,
11.575,84.32177839909478,84.95456303445575,-3.64,-2.47,-0.12,0.0,0.0,5.0,12.0,4.0,6.0,3.0,12.07,14.03,0.0,
11.598,84.27517783990947,84.90545630344559,-3.82,-1.63,1.22,0.0,0.0,5.0,12.0,4.0,6.0,3.0,12.07,14.03,0.0,
11.623,84.27951778399095,84.88254563034455,-3.73,-1.15,1.91,0.0,0.0,5.0,12.0,4.0,6.0,2.0,12.07,14.03,0.0,
11.648,84.2799517783991,84.84425456303447,-3.52,-1.66,1.58,0.0,0.0,5.0,12.0,4.0,6.0,2.0,12.07,14.03,0.0,
11.672,84.27099517783991,84.82242545630343,-3.64,-1.32,2.74,0.0,0.0,5.0,12.0,4.0,6.0,2.0,12.16,14.13,0.0,
11.696,84.17109951778399,84.78424254563035,-3.41,0.32,4.14,0.0,0.0,5.0,11.0,4.0,6.0,2.0,12.26,13.93,0.0,
11.72,84.1071099517784,84.76242425456304,-3.28,1.6,4.86,0.0,0.0,5.0,11.0,4.0,6.0,2.0,12.36,13.93,0.0,
11.745,84.08271099517783,84.68824242545631,-3.42,2.59,5.84,0.0,0.0,5.0,11.0,4.0,6.0,2.0,12.85,14.72,0.0,
11.769,84.01727109951779,84.52782424254565,-2.67,7.38,9.99,0.0,0.0,5.0,11.0,4.0,6.0,1.0,13.34,15.6,0.0,
11.793,84.10972710995179,84.65578242425457,-1.17,7.11,8.27,0.0,0.0,4.0,11.0,0.0,5.0,1.0,13.73,16.97,0.0,
11.817,84.26297271099519,84.79457824242546,-1.81,3.19,6.63,0.0,0.0,4.0,11.0,0.0,5.0,1.0,14.32,19.13,0.0,
11.842,84.55729727109951,84.85345782424254,-3.89,-1.66,2.96,0.0,0.0,4.0,11.0,0.0,5.0,1.0,15.11,20.7,0.0,
11.866,84.85672972710995,85.01234578242425,-6.65,-6.78,3.4,0.0,0.0,4.0,11.0,0.0,5.0,1.0,15.6,21.58,0.0,
11.89,84.931672972711,85.09123457824242,-8.18,-10.06,3.03,0.0,0.0,4.0,11.0,0.0,5.0,1.0,15.7,21.58,0.0,
11.915,84.9211672972711,85.05412345782425,-8.88,-12.4,-0.11,0.0,0.0,4.0,11.0,0.0,5.0,1.0,15.7,20.4,0.0,
11.939,85.19911672972711,84.87941234578241,-12.67,-14.44,-6.11,0.0,0.0,4.0,10.0,0.0,5.0,1.0,15.3,19.03,0.0,
11.964,85.22691167297272,84.49294123457825,-12.73,-8.75,0.9,0.0,0.0,4.0,9.0,0.0,5.0,1.0,14.72,17.07,0.0,
11.988,84.71669116729727,84.21129412345783,-12.73,-5.93,6.23,0.0,0.0,4.0,9.0,0.0,5.0,1.0,14.22,15.01,0.0,
12.012,84.27866911672973,84.13812941234578,-10.26,-6.55,6.82,0.0,0.0,4.0,8.0,0.0,5.0,1.0,13.83,13.24,0.0,
12.037,84.02786691167299,83.73481294123458,-10.39,-6.76,4.93,0.0,0.0,4.0,7.0,0.0,5.0,1.0,13.64,12.07,0.0,
12.061,83.8407866911673,83.46948129412345,-8.48,-6.6,3.42,0.0,0.0,4.0,6.0,0.0,5.0,1.0,13.54,11.38,0.0,
12.085,83.60607866911673,83.53294812941235,-6.85,-6.32,1.83,0.0,0.0,4.0,6.0,0.0,5.0,1.0,13.64,10.79,0.0,
12.109,83.46560786691168,83.41329481294123,-7.04,-7.95,2.35,0.0,0.0,3.0,6.0,0.0,5.0,1.0,13.64,10.4,0.0,
12.134,83.28956078669117,83.46432948129413,-7.44,-5.81,4.47,0.0,0.0,3.0,5.0,0.0,5.0,1.0,13.64,10.01,0.0,
12.158,83.18195607866912,83.7034329481294,-9.19,-4.31,4.88,0.0,0.0,3.0,5.0,0.0,5.0,1.0,13.54,9.61,0.0,
12.182,82.93719560786691,83.53834329481293,-13.63,2.96,8.84,0.0,0.0,3.0,4.0,0.0,5.0,0.0,13.24,9.32,0.0,
12.207,82.62471956078669,83.64783432948128,-17.5,-6.26,6.27,0.0,0.0,3.0,4.0,0.0,4.0,0.0,13.44,9.03,0.0,
12.23,82.33247195607866,83.80278343294813,-23.16,-11.99,-7.2,0.0,0.0,3.0,4.0,0.0,4.0,0.0,13.54,9.03,0.0,
12.255,82.15024719560786,83.7012783432948,-30.74,-10.91,-16.66,0.0,0.0,3.0,3.0,0.0,4.0,1.0,13.44,8.53,0.0,
12.279,81.93402471956078,83.91612783432949,-45.18,-11.66,-11.05,0.0,0.0,3.0,1.0,0.0,4.0,1.0,12.95,7.65,0.0,
12.304,81.64240247195607,84.09061278343295,-72.34,-14.29,-4.11,0.0,0.0,2.0,0.0,2.0,4.0,0.0,11.97,5.89,0.0,
12.328,81.84724024719561,84.1170612783433,-88.18,-13.38,1.15,0.0,0.0,2.0,0.0,1.0,4.0,0.0,9.22,3.24,0.0,
12.352,83.33472402471956,83.70570612783433,-80.13,21.8,25.5,0.0,0.0,1.0,0.0,1.0,4.0,0.0,7.06,0.59,0.0,
12.377,85.12147240247195,82.75557061278343,-82.5,13.95,34.49,0.0,0.0,0.0,0.0,0.0,2.0,0.0,6.57,0.0,0.0,
12.4,87.0641472402472,81.18455706127835,-71.03,30.37,48.23,0.0,0.0,0.0,0.0,0.0,1.0,0.0,5.2,0.0,0.0,
12.424,87.24041472402473,82.62045570612784,-29.08,20.55,49.46,0.0,0.0,0.0,0.0,0.0,0.0,0.0,2.16,0.29,0.0,
12.447,86.82604147240248,84.55504557061278,17.62,7.06,27.5,0.0,0.0,0.0,0.0,0.0,0.0,0.0,0.29,0.49,0.0,
12.471,85.81260414724025,87.36750455706128,44.05,1.39,2.22,0.0,0.0,0.0,0.0,0.0,0.0,0.0,0.1,0.59,0.0,
12.494,84.92826041472402,90.69075045570614,59.14,2.8,-16.77,0.0,0.0,0.0,0.0,0.0,0.0,0.0,0.39,0.59,0.0,
12.519,84.3628260414724,93.43507504557061,72.27,0.52,-23.59,0.0,0.0,0.0,0.0,0.0,0.0,0.0,0.59,0.29,0.0,
12.542,84.00928260414724,95.40150750455706,83.83,0.06,-19.6,0.0,0.0,0.0,0.0,0.0,0.0,0.0,0.29,0.2,0.0,
12.566,83.46992826041472,97.24515075045571,91.13,5.3,-9.47,0.0,0.0,0.0,0.0,0.0,0.0,0.0,0.2,0.29,0.0,
12.59,83.24499282604147,98.87851507504558,90.18,9.95,2.82,0.0,0.0,0.0,0.0,0.0,0.0,0.0,0.1,0.2,0.0,
12.613,82.83549928260416,100.01385150750457,87.17,6.53,10.17,0.0,0.0,0.0,0.0,0.0,0.0,0.0,0.1,0.1,0.0,
12.637,82.3535499282604,100.35238515075045,79.45,8.67,15.61,0.0,0.0,0.0,0.0,0.0,0.0,0.0,0.0,0.0,0.0,
12.66,82.15235499282605,99.88223851507504,70.42,4.63,12.97,0.0,0.0,0.0,0.0,0.0,0.0,0.0,0.0,0.0,0.0,
12.684,81.7362354992826,99.1602238515075,54.85,-7.6,-3.03,0.0,0.0,0.0,0.0,0.0,0.0,0.0,0.1,0.0,0.0,
12.707,81.65862354992828,96.96402238515074,50.02,12.69,8.66,0.0,0.0,0.0,0.0,0.0,0.0,0.0,0.2,0.0,0.0,
12.731,81.56986235499284,95.40340223851508,61.13,15.38,-1.15,0.0,0.0,0.0,0.0,0.0,0.0,0.0,0.0,0.0,0.0,
12.754,81.4439862354993,94.3473402238515,67.44,-3.21,-8.86,0.0,0.0,0.0,0.0,0.0,0.0,0.0,0.0,0.0,0.0,
12.779,81.58439862354993,93.80973402238514,55.13,11.76,3.67,0.0,0.0,0.0,0.0,0.0,0.0,0.0,0.0,0.0,0.0,
12.803,81.625439862355,93.12597340223851,38.45,11.45,10.89,0.0,0.0,0.0,0.0,0.0,0.0,0.0,0.1,0.0,0.0,
12.826,81.74654398623551,91.89659734022385,20.12,13.74,21.2,0.0,0.0,0.0,0.0,0.0,0.0,0.0,0.1,0.0,0.0,
12.85,82.21765439862354,90.09065973402238,12.32,19.91,29.86,0.0,0.0,0.0,0.0,0.0,0.0,0.0,0.1,0.0,0.0,
12.873,82.83176543986237,87.99306597340225,11.46,17.78,33.14,0.0,0.0,0.0,0.0,0.0,0.0,0.0,0.1,0.0,0.0,
12.897,83.20817654398623,86.10930659734022,13.41,9.73,35.92,0.0,0.0,0.0,0.0,0.0,0.0,0.0,0.0,0.0,0.0,
12.92,83.19181765439862,84.26493065973403,11.71,11.92,37.47,0.0,0.0,0.0,0.0,0.0,0.0,0.0,0.0,0.0,0.0,
12.944,83.10018176543987,82.4424930659734,12.26,7.26,29.34,0.0,0.0,0.0,0.0,0.0,0.0,0.0,0.0,0.0,0.0,
12.967,83.15401817654399,81.02724930659734,12.34,-5.02,17.79,0.0,0.0,0.0,0.0,0.0,0.0,0.0,0.0,0.1,0.0,
12.992,81.51240181765439,77.79872493065973,-20.34,-16.05,10.98,0.0,0.0,0.0,0.0,0.0,0.0,0.0,0.1,0.1,0.0,
13.016,85.74024018176544,75.89187249306597,-54.73,-66.66,34.4,0.0,0.0,0.0,0.0,0.0,0.0,0.0,0.0,0.2,0.0,
13.039,83.85002401817654,80.1111872493066,-82.21,44.21,19.23,0.0,0.0,0.0,0.0,0.0,0.0,0.0,0.0,0.2,0.0,
13.063,83.49900240181765,81.09111872493065,-88.0,-59.93,-15.11,0.0,0.0,0.0,0.0,0.0,0.0,0.0,0.0,0.1,0.0,
13.087,83.48190024018177,80.12711187249306,-97.59,59.44,-2.3,0.0,0.0,0.0,0.0,0.0,0.0,0.0,0.0,0.1,0.0,
13.111,86.30619002401819,78.85171118724931,-5.85,-65.59,-25.95,0.0,0.0,0.0,0.0,0.0,0.0,0.0,0.0,0.0,0.0,
13.134,84.29361900240181,79.20117111872493,-27.25,7.18,-6.66,0.0,0.0,0.0,0.0,0.0,0.0,0.0,0.59,0.2,0.0,
13.159,84.44336190024018,80.29811711187249,-14.2,-1.08,-25.03,0.0,0.0,0.0,1.0,0.0,0.0,0.0,1.28,1.08,0.0,
13.182,84.39533619002403,82.27081171118725,-19.17,26.69,-13.15,0.0,0.0,0.0,2.0,0.0,0.0,0.0,2.06,1.77,0.0,
13.207,83.90453361900241,81.99108117111872,-26.72,61.27,-31.02,0.0,0.0,0.0,4.0,0.0,0.0,0.0,2.55,2.84,0.0,
13.231,83.61245336190024,81.27010811711187,-4.0,10.44,-31.09,0.0,0.0,0.0,5.0,1.0,1.0,0.0,3.63,4.61,0.0,
13.255,84.26724533619003,81.64801081171119,-21.34,34.09,-6.69,0.0,0.0,0.0,6.0,2.0,2.0,0.0,6.47,7.46,0.0,
13.28,85.28672453361901,82.90080108117112,-17.21,29.98,-10.01,0.0,0.0,1.0,7.0,3.0,2.0,0.0,8.04,12.07,0.0,
13.303,86.66667245336188,83.14308010811712,-9.87,-17.44,-23.21,0.0,0.0,2.0,9.0,4.0,2.0,0.0,8.83,17.85,0.0,
13.328,87.8036672453362,83.72530801081172,-9.5,-5.81,-17.87,0.0,0.0,2.0,10.0,4.0,3.0,0.0,8.44,22.46,0.0,
13.352,87.58436672453362,83.91853080108118,-9.92,-49.86,-27.92,0.0,0.0,2.0,12.0,4.0,3.0,0.0,7.46,24.82,0.0,
13.377,87.31043667245336,84.36085308010811,-10.6,-33.79,-28.79,0.0,0.0,3.0,2.0,4.0,4.0,1.0,5.89,24.13,0.0,
13.402,86.67104366724533,85.2870853080108,-15.1,-11.24,-23.18,0.0,0.0,3.0,5.0,4.0,4.0,1.0,4.51,21.58,0.0,
13.426,85.98610436672453,85.66770853080108,-17.31,-22.54,-19.85,0.0,0.0,3.0,7.0,5.0,5.0,1.0,3.24,19.91,0.0,
13.451,85.99861043667246,85.7417708530801,-13.08,-16.42,-12.73,0.0,0.0,4.0,8.0,6.0,5.0,2.0,3.24,21.29,0.0,
13.475,85.68486104366725,85.90217708530801,-7.79,-6.75,-4.49,0.0,0.0,5.0,10.0,6.0,6.0,2.0,3.83,24.13,0.0,
13.5,85.25748610436672,86.15221770853081,0.02,-15.98,-1.84,0.0,0.0,5.0,11.0,6.0,6.0,2.0,3.83,26.39,0.0,
13.524,85.02574861043666,86.33922177085309,-1.79,-9.54,-1.51,0.0,0.0,4.0,11.0,6.0,6.0,2.0,3.43,27.37,0.0,
13.549,84.81357486104368,86.59192217708532,-5.02,-13.9,-0.14,0.0,0.0,4.0,12.0,6.0,6.0,1.0,3.43,27.08,0.0,
13.574,84.48635748610438,86.57219221770853,-4.11,-3.53,0.81,0.0,0.0,3.0,12.0,6.0,6.0,1.0,3.43,25.8,0.0,
13.598,84.49863574861044,86.56121922177087,-2.73,-3.46,0.76,0.0,0.0,3.0,13.0,5.0,6.0,1.0,3.24,24.62,0.0,
13.623,84.35586357486105,86.66812192217711,-0.96,-6.47,1.79,0.0,0.0,2.0,13.0,4.0,6.0,1.0,3.53,23.45,0.0,
13.646,84.2245863574861,86.78681219221771,-0.02,-9.9,2.92,0.0,0.0,1.0,13.0,3.0,6.0,1.0,3.73,21.68,0.0,
13.671,83.73445863574862,86.76268121922178,0.3,-1.05,3.15,0.0,0.0,1.0,12.0,3.0,6.0,0.0,3.73,20.01,0.0,
13.696,83.21744586357485,86.55326812192219,-10.68,2.2,11.31,0.0,0.0,1.0,12.0,2.0,6.0,0.0,3.63,18.64,0.0,
13.72,82.59874458635748,86.26232681219221,-6.78,-9.43,-0.09,0.0,0.0,1.0,13.0,2.0,5.0,0.0,3.73,18.05,0.0,
13.745,82.35687445863574,86.25123268121922,-4.56,-8.72,3.25,0.0,0.0,1.0,13.0,2.0,5.0,0.0,4.61,18.74,0.0,
13.768,82.19768744586358,86.43912326812192,-8.02,7.28,7.31,0.0,0.0,1.0,14.0,2.0,5.0,0.0,5.4,19.72,0.0,
13.793,82.39776874458636,86.46691232681219,-8.54,-0.4,6.23,0.0,0.0,1.0,14.0,2.0,4.0,0.0,6.28,21.09,0.0,
13.817,82.62477687445863,86.36169123268122,-9.57,0.81,7.92,0.0,0.0,1.0,14.0,2.0,4.0,0.0,6.97,22.37,0.0,
13.842,82.62047768744587,86.26116912326812,-7.04,-1.95,6.19,0.0,0.0,1.0,14.0,2.0,4.0,0.0,6.97,23.84,0.0,
13.865,82.39504776874459,86.25111691232681,-3.26,-10.31,7.79,0.0,0.0,1.0,14.0,2.0,4.0,0.0,7.65,24.82,0.0,
13.89,82.21950477687446,86.53811169123267,-3.28,-1.58,18.06,0.0,0.0,0.0,12.0,1.0,4.0,0.0,9.12,24.72,0.0,
13.915,82.33695047768744,86.75581116912326,-13.58,-1.19,9.89,0.0,0.0,0.0,14.0,1.0,4.0,0.0,10.01,25.02,0.0,
13.939,82.05169504776875,86.59758111691232,-19.11,-14.53,1.18,0.0,0.0,1.0,16.0,2.0,5.0,0.0,10.99,27.76,0.0,
13.964,81.94216950477688,86.75275811169124,-28.28,-7.17,8.83,0.0,0.0,3.0,19.0,3.0,5.0,0.0,12.07,32.47,0.0,
13.988,82.16521695047769,86.70527581116912,-35.31,-15.27,-0.69,0.0,0.0,5.0,21.0,5.0,7.0,1.0,14.81,38.16,0.0,
14.013,81.89952169504778,86.47552758111692,-42.89,-33.51,-0.16,0.0,0.0,6.0,22.0,3.0,8.0,3.0,21.68,42.38,0.0,
14.038,81.31495216950478,86.17355275811168,-52.19,-30.82,3.55,0.0,0.0,8.0,21.0,6.0,9.0,4.0,28.45,44.73,0.0,
14.062,80.01449521695048,85.23435527581117,-66.14,-32.53,4.47,0.0,0.0,9.0,15.0,5.0,10.0,5.0,38.46,44.93,0.0,
14.087,74.39444952169505,85.32043552758111,-101.49,8.15,31.96,0.0,0.0,9.0,2.0,8.0,10.0,6.0,50.33,42.28,0.0,
14.111,73.06744495216951,84.81604355275812,-110.59,-0.82,-7.9,0.0,0.0,10.0,9.0,7.0,11.0,6.0,60.33,35.71,0.0,
14.136,72.56574449521695,84.30660435527581,-147.44,5.8,4.73,0.0,0.0,10.0,1.0,7.0,11.0,6.0,66.51,24.23,0.0,
14.16,73.50557444952169,83.59866043552758,-177.24,18.27,-0.95,0.0,0.0,10.0,1.0,5.0,11.0,6.0,60.82,12.36,0.0,
14.185,75.43555744495218,81.50286604355276,-183.01,-10.64,-6.53,0.0,0.0,10.0,1.0,0.0,11.0,6.0,44.64,3.43,0.0,
14.21,77.02355574449523,78.74628660435528,-188.66,-4.21,-30.24,0.0,0.0,9.0,1.0,7.0,11.0,5.0,22.37,0.78,0.0,
14.234,78.19935557444953,76.16662866043552,-180.66,4.73,-29.06,0.0,0.0,7.0,1.0,6.0,10.0,3.0,10.59,1.57,0.0,
14.258,79.39693555744495,75.39566286604357,-176.82,15.72,-13.76,0.0,0.0,5.0,1.0,3.0,8.0,1.0,7.06,1.28,0.0,
14.282,81.32569355574451,71.18756628660435,-134.31,18.04,11.24,0.0,0.0,3.0,1.0,2.0,3.0,1.0,90.35,1.57,0.0,
14.307,84.66856935557445,68.59775662866043,-57.49,-7.55,-5.1,0.0,0.0,1.0,1.0,0.0,0.0,1.0,0.29,2.84,0.0,
14.33,89.09785693555745,69.05877566286604,15.83,-44.88,-11.63,0.0,0.0,0.0,1.0,0.0,0.0,1.0,0.0,2.84,0.0,
14.354,88.53278569355575,73.21787756628662,75.38,-27.89,-0.69,0.0,0.0,0.0,1.0,0.0,0.0,1.0,0.0,2.45,0.0,
14.377,87.22527856935557,77.47678775662867,73.86,-16.31,7.12,0.0,0.0,0.0,1.0,0.0,0.0,1.0,0.78,2.35,0.0,
14.402,85.83452785693557,81.12467877566287,83.5,-8.28,5.84,0.0,0.0,0.0,1.0,0.0,0.0,1.0,1.18,2.35,0.0,
14.426,84.77745278569355,84.7744678775663,96.3,-5.18,8.34,0.0,0.0,0.0,1.0,0.0,0.0,1.0,1.18,2.35,0.0,
14.449,83.78974527856937,88.85644678775664,120.47,3.34,21.18,0.0,0.0,0.0,1.0,0.0,0.0,1.0,1.08,2.35,0.0,
14.473,81.71997452785693,92.23464467877567,138.82,13.88,40.98,0.0,0.0,0.0,1.0,0.0,0.0,1.0,0.98,2.35,0.0,
14.496,78.8759974527857,91.96046446787757,144.88,14.45,42.96,0.0,0.0,0.0,1.0,0.0,0.0,1.0,1.08,2.45,0.0,
14.52,76.04459974527857,90.03404644678776,159.05,16.24,30.56,0.0,0.0,0.0,1.0,0.0,0.0,1.0,1.08,2.45,0.0,
14.543,74.29445997452785,87.67240464467878,166.34,16.36,19.24,0.0,0.0,0.0,1.0,0.0,0.0,1.0,0.98,2.45,0.0,
14.568,73.43544599745279,84.77224046446788,150.97,18.43,10.31,0.0,0.0,0.0,1.0,0.0,1.0,1.0,1.08,2.65,0.0,
14.592,72.98054459974529,80.7832240464468,120.27,28.47,13.29,0.0,0.0,0.0,1.0,0.0,1.0,1.0,1.18,2.65,0.0,
14.615,72.72805445997453,75.88432240464469,92.65,46.29,17.11,0.0,0.0,0.0,1.0,0.0,1.0,1.0,1.28,2.45,0.0,
14.639,72.89180544599745,71.22743224046447,65.72,28.63,8.33,0.0,0.0,0.0,1.0,0.0,1.0,1.0,1.08,2.45,0.0,
14.662,73.95218054459974,67.38674322404644,41.23,4.18,8.06,0.0,0.0,0.0,1.0,0.0,1.0,1.0,1.08,2.35,0.0,
14.686,74.76021805445997,65.20267432240465,25.74,-3.76,11.77,0.0,0.0,0.0,1.0,0.0,1.0,1.0,0.98,2.16,0.0,
14.709,74.82302180544599,63.679267432240465,18.89,-3.1,5.15,0.0,0.0,0.0,1.0,0.0,1.0,1.0,1.08,2.06,0.0,
14.733,74.7573021805446,62.419926743224046,14.59,-9.85,-20.35,0.0,0.0,0.0,1.0,0.0,1.0,1.0,0.88,2.16,0.0,
14.757,74.70573021805447,62.725992674322406,-1.31,-17.79,-43.87,0.0,0.0,0.0,1.0,0.0,1.0,1.0,0.88,2.06,0.0,
14.781,74.73657302180544,64.85359926743224,-29.92,-17.53,-59.5,0.0,0.0,0.0,1.0,0.0,0.0,1.0,0.88,2.06,0.0,
14.804,75.82865730218055,66.78535992674323,-33.66,8.15,-55.89,0.0,0.0,0.0,1.0,0.0,1.0,1.0,1.08,1.96,0.0,
14.828,77.36886573021806,68.58953599267433,-5.52,14.55,-51.54,0.0,0.0,0.0,1.0,0.0,0.0,1.0,0.69,2.16,0.0,
14.853,81.32988657302181,73.62995359926744,170.92,-26.01,-63.41,0.0,0.0,0.0,1.0,0.0,0.0,1.0,0.29,2.94,0.0,
14.876,83.90398865730218,74.94399535992675,29.61,71.88,43.64,0.0,0.0,0.0,3.0,0.0,0.0,1.0,0.78,4.71,0.0,
14.901,82.29839886573022,78.72939953599268,-12.89,-3.84,18.36,0.0,0.0,0.0,5.0,0.0,0.0,1.0,2.35,5.0,0.0,
14.924,84.28883988657303,80.55693995359928,-3.69,-14.21,-37.99,0.0,0.0,0.0,5.0,0.0,1.0,1.0,3.73,5.69,0.0,
14.949,85.58588398865732,79.93869399535994,-23.82,28.5,-10.66,0.0,0.0,0.0,6.0,1.0,1.0,1.0,4.71,6.28,0.0,
14.973,87.01158839886574,80.443869399536,-2.27,29.06,-7.1,0.0,0.0,1.0,7.0,1.0,2.0,0.0,5.98,6.97,0.0,
14.997,87.20815883988658,80.8993869399536,-5.36,9.32,-5.11,0.0,0.0,1.0,8.0,2.0,2.0,0.0,6.47,8.24,0.0,
15.022,87.52481588398865,82.40293869399537,-3.73,4.43,-3.27,0.0,0.0,2.0,10.0,2.0,2.0,1.0,6.08,10.01,0.0,
15.045,87.28648158839887,83.25529386939954,-7.86,0.55,-3.15,0.0,0.0,2.0,11.0,2.0,3.0,1.0,5.49,11.77,0.0,
15.07,87.2536481588399,84.05152938693995,-9.6,-0.59,-9.76,0.0,0.0,2.0,11.0,2.0,3.0,1.0,5.0,13.54,0.0,
15.094,87.601364815884,84.91415293869399,-12.5,-3.74,-8.18,0.0,0.0,3.0,12.0,3.0,4.0,1.0,4.41,15.5,0.0,
15.119,87.42013648158841,84.89241529386939,-8.83,-5.89,-14.11,0.0,0.0,3.0,0.0,3.0,4.0,2.0,3.92,17.07,0.0,
15.142,87.33901364815884,85.08824152938695,-8.9,-7.75,-13.32,0.0,0.0,4.0,2.0,3.0,5.0,2.0,3.34,18.44,0.0,
15.167,87.06090136481588,85.0628241529387,-9.63,-7.22,-8.79,0.0,0.0,4.0,3.0,3.0,5.0,3.0,2.94,19.52,0.0,
15.192,86.64609013648159,85.20428241529387,-8.1,-6.48,-7.75,0.0,0.0,5.0,4.0,3.0,5.0,3.0,2.75,19.91,0.0,
15.215,86.27160901364816,85.26342824152938,-8.52,-7.66,-7.73,0.0,0.0,5.0,6.0,3.0,6.0,3.0,2.26,20.01,0.0,
15.24,86.07216090136481,85.41334282415295,-7.48,-8.17,-8.99,0.0,0.0,5.0,6.0,3.0,6.0,3.0,2.06,20.31,0.0,
15.264,85.94421609013648,85.4823342824153,-6.68,-5.86,-7.14,0.0,0.0,5.0,6.0,4.0,6.0,3.0,1.96,20.7,0.0,
15.288,85.81442160901365,85.44423342824153,-3.69,-4.86,-6.89,0.0,0.0,5.0,7.0,4.0,6.0,3.0,1.86,20.7,0.0,
15.312,85.76544216090137,85.53042334282415,-2.67,-1.85,-1.59,0.0,0.0,5.0,8.0,4.0,6.0,3.0,1.67,20.31,0.0,
15.337,85.55354421609015,85.5660423342824,-2.89,-2.43,-1.47,0.0,0.0,5.0,8.0,4.0,6.0,3.0,1.47,19.72,0.0,
15.362,85.37035442160901,85.67760423342824,-3.74,-4.36,-1.38,0.0,0.0,6.0,8.0,4.0,6.0,3.0,1.08,19.03,0.0,
15.385,85.29803544216091,85.59876042334282,-2.96,-4.4,-1.19,0.0,0.0,5.0,8.0,4.0,6.0,3.0,1.18,18.25,0.0,
15.41,85.37180354421609,85.56387604233429,-1.42,-2.69,-1.18,0.0,0.0,5.0,7.0,3.0,6.0,3.0,1.28,17.36,0.0,
15.434,85.27118035442162,85.67738760423342,-0.27,-3.93,-0.34,0.0,0.0,5.0,7.0,3.0,6.0,3.0,1.28,16.38,0.0,
15.458,85.14411803544216,85.80573876042334,-0.92,-2.72,2.87,0.0,0.0,5.0,7.0,3.0,6.0,3.0,0.98,15.4,0.0,
15.482,85.02341180354422,85.94457387604233,-0.29,-0.51,4.15,0.0,0.0,5.0,6.0,3.0,5.0,3.0,0.69,14.22,0.0,
15.506,84.90334118035442,86.00345738760424,1.01,1.78,5.92,0.0,0.0,5.0,5.0,3.0,5.0,3.0,0.88,13.34,0.0,
15.531,84.88233411803543,85.94634573876043,1.56,1.9,4.44,0.0,0.0,4.0,2.0,3.0,5.0,3.0,1.37,12.26,0.0,
15.554,85.00623341180355,86.12963457387605,1.45,-0.18,3.52,0.0,0.0,4.0,0.0,3.0,4.0,2.0,1.77,11.38,0.0,
15.579,84.90162334118035,86.29196345738761,1.89,0.0,2.73,0.0,0.0,4.0,12.0,2.0,4.0,2.0,2.26,10.1,0.0,
15.602,84.83716233411803,86.39819634573877,1.22,-1.3,1.06,0.0,0.0,3.0,11.0,2.0,4.0,2.0,2.45,9.12,0.0,
15.627,84.5877162334118,86.71481963457387,-1.96,-0.24,1.62,0.0,0.0,3.0,11.0,2.0,4.0,2.0,2.75,8.44,0.0,
15.65,84.51777162334119,86.61148196345738,0.15,-1.38,-2.6,0.0,0.0,3.0,10.0,2.0,3.0,1.0,2.94,7.85,0.0,
15.675,84.80777716233413,86.75414819634574,-0.16,-1.49,3.11,0.0,0.0,3.0,10.0,2.0,3.0,1.0,3.14,7.36,0.0,
15.699,85.00777771623342,86.84041481963456,0.04,0.33,0.65,0.0,0.0,2.0,9.0,2.0,3.0,1.0,3.43,6.77,0.0,
15.723,85.09977777162334,87.09204148196346,-0.97,-0.33,-0.73,0.0,0.0,2.0,9.0,2.0,3.0,1.0,3.63,6.28,0.0,
15.747,85.09997777716234,87.18020414819635,-2.82,-2.24,-1.4,0.0,0.0,2.0,9.0,2.0,3.0,1.0,3.63,5.89,0.0,
15.771,85.24399777771625,87.36002041481963,-2.49,0.66,-1.21,0.0,0.0,2.0,9.0,2.0,3.0,1.0,3.63,5.59,0.0,
15.796,85.26739977777162,87.46800204148197,-2.95,-0.05,-0.22,0.0,0.0,2.0,9.0,2.0,3.0,1.0,3.63,5.4,0.0,
15.819,85.20673997777716,87.4608002041482,-2.98,-0.44,-0.05,0.0,0.0,2.0,9.0,2.0,3.0,1.0,3.73,5.3,0.0,
15.844,85.22767399777773,87.40608002041483,-2.59,0.01,0.12,0.0,0.0,2.0,9.0,2.0,3.0,1.0,3.73,5.3,0.0,
15.867,85.22076739977778,87.43660800204148,-1.81,-0.89,2.15,0.0,0.0,2.0,9.0,2.0,3.0,1.0,3.83,5.3,0.0,
15.892,85.21107673997777,87.45766080020414,-2.31,-1.89,1.69,0.0,0.0,2.0,9.0,2.0,3.0,1.0,3.73,5.2,0.0,
15.916,85.24610767399778,87.45976608002042,-3.5,-1.82,0.29,0.0,0.0,2.0,9.0,2.0,3.0,1.0,3.83,5.3,0.0,
15.94,85.19561076739978,87.41497660800204,-4.08,-2.11,-0.71,0.0,0.0,2.0,9.0,2.0,3.0,1.0,3.92,5.3,0.0,
15.964,85.13656107673998,87.37449766080022,-3.37,-1.07,0.18,0.0,0.0,2.0,9.0,2.0,3.0,1.0,3.83,5.2,0.0,
15.988,85.193656107674,87.31644976608003,-3.62,-0.05,0.4,0.0,0.0,2.0,9.0,2.0,3.0,1.0,4.02,5.3,0.0,
16.012,85.1903656107674,87.35564497660799,-3.78,-0.53,-0.13,0.0,0.0,2.0,9.0,2.0,3.0,1.0,4.02,5.4,0.0,
16.036,85.14503656107675,87.2785644976608,-3.76,-1.98,-0.12,0.0,0.0,2.0,9.0,2.0,3.0,1.0,4.02,5.49,0.0,
16.06,85.13150365610768,87.31585644976607,-4.13,-0.92,-0.58,0.0,0.0,2.0,9.0,2.0,3.0,1.0,4.02,5.4,0.0,
16.084,85.17515036561078,87.29258564497661,-4.46,-1.95,-1.01,0.0,0.0,2.0,9.0,2.0,3.0,1.0,3.92,5.59,0.0,
16.109,85.17051503656108,87.21825856449765,-4.4,-1.63,-1.15,0.0,0.0,2.0,10.0,2.0,3.0,1.0,4.02,5.59,0.0,
16.133,85.17005150365611,87.19282585644977,-3.62,-0.79,-0.95,0.0,0.0,2.0,10.0,2.0,3.0,1.0,4.02,5.59,0.0,
16.157,85.13400515036561,87.14528258564498,-4.11,-1.33,-0.46,0.0,0.0,2.0,10.0,2.0,3.0,1.0,4.02,5.69,0.0,
16.182,85.10340051503657,87.0955282585645,-3.51,-0.75,-0.29,0.0,0.0,2.0,10.0,2.0,3.0,1.0,4.02,5.69,0.0,
16.205,85.04634005150366,87.11755282585645,-3.19,-0.3,0.0,0.0,0.0,2.0,10.0,2.0,3.0,1.0,4.02,5.69,0.0,
16.23,85.04063400515037,87.12875528258564,-3.63,-1.21,-0.54,0.0,0.0,3.0,10.0,2.0,3.0,1.0,4.12,5.79,0.0,
16.254,85.04906340051504,87.12087552825857,-3.69,-1.27,-0.6,0.0,0.0,3.0,10.0,2.0,3.0,1.0,4.22,5.98,0.0,
16.278,84.9689063400515,87.08408755282585,-3.21,-1.75,-0.87,0.0,0.0,3.0,10.0,2.0,3.0,1.0,4.22,5.98,0.0,
16.303,84.95189063400515,87.08940875528259,-3.24,-1.6,-1.17,0.0,0.0,3.0,10.0,2.0,3.0,1.0,4.12,6.08,0.0,
16.327,84.97718906340052,87.09894087552826,-3.08,-1.37,-1.34,0.0,0.0,3.0,10.0,2.0,3.0,1.0,4.02,6.18,0.0,
16.351,84.97971890634005,87.13589408755283,-3.5,-1.23,-1.39,0.0,0.0,3.0,10.0,2.0,3.0,1.0,4.12,6.38,0.0,
16.375,84.961971890634,87.08558940875528,-3.96,-2.31,-2.0,0.0,0.0,3.0,11.0,2.0,3.0,1.0,4.12,6.57,0.0,
16.4,85.0321971890634,87.08955894087552,-3.55,-0.98,-1.56,0.0,0.0,3.0,10.0,2.0,3.0,1.0,4.02,6.67,0.0,
16.423,85.03021971890634,87.05395589408755,-3.62,-1.33,-1.22,0.0,0.0,3.0,10.0,2.0,3.0,1.0,4.02,6.87,0.0,
16.448,85.05702197189063,87.06839558940875,-3.54,-1.31,-0.85,0.0,0.0,3.0,11.0,2.0,3.0,2.0,4.02,6.87,0.0,
16.473,85.06870219718907,87.08783955894087,-3.08,-0.9,-0.55,0.0,0.0,3.0,11.0,2.0,3.0,2.0,4.02,7.06,0.0,
16.496,85.0428702197189,87.03578395589409,-2.95,0.47,-0.15,0.0,0.0,3.0,11.0,2.0,3.0,2.0,3.92,7.06,0.0,
16.521,85.0852870219719,87.0575783955894,-3.38,0.63,0.24,0.0,0.0,3.0,11.0,2.0,3.0,2.0,3.92,7.16,0.0,
16.544,85.21552870219719,87.02375783955894,-3.34,0.04,-0.03,0.0,0.0,3.0,11.0,2.0,3.0,2.0,3.92,7.36,0.0,
16.569,85.27355287021973,86.9843757839559,-2.91,-0.15,-0.26,0.0,0.0,3.0,11.0,2.0,3.0,2.0,3.92,7.55,0.0,
16.593,85.25235528702198,86.9354375783956,-2.87,0.21,-0.2,0.0,0.0,3.0,11.0,2.0,3.0,2.0,4.12,7.55,0.0,
16.617,85.2592355287022,86.96654375783956,-2.77,-0.05,-0.53,0.0,0.0,3.0,11.0,2.0,3.0,2.0,4.02,7.65,0.0,
16.642,85.29592355287022,86.97865437578396,-2.63,0.31,-0.32,0.0,0.0,3.0,11.0,2.0,3.0,2.0,4.12,7.75,0.0,
16.665,85.30859235528703,86.9978654375784,-2.21,0.73,0.56,0.0,0.0,3.0,11.0,2.0,3.0,2.0,4.12,7.75,0.0,
16.69,85.35485923552869,86.99078654375784,-2.42,1.18,0.98,0.0,0.0,3.0,11.0,2.0,3.0,2.0,4.32,7.75,0.0,
16.713,85.36848592355288,87.0350786543758,-2.31,0.55,-0.32,0.0,0.0,3.0,11.0,2.0,3.0,1.0,4.41,7.75,0.0,
16.738,85.40584859235528,87.03950786543759,-2.23,0.28,-0.49,0.0,0.0,3.0,11.0,2.0,3.0,1.0,4.51,7.85,0.0,
16.762,85.43658485923552,87.07595078654376,-2.27,0.66,0.2,0.0,0.0,3.0,11.0,2.0,3.0,1.0,4.41,7.75,0.0,
16.786,85.43965848592356,87.07059507865438,-2.13,0.84,0.32,0.0,0.0,3.0,11.0,2.0,3.0,1.0,4.41,7.65,0.0,
16.811,85.48496584859235,87.11505950786544,-2.13,0.7,1.57,0.0,0.0,3.0,11.0,2.0,3.0,1.0,4.51,7.65,0.0,
16.834,85.51649658485924,87.13750595078655,-2.24,-0.09,0.69,0.0,0.0,3.0,10.0,2.0,3.0,1.0,4.61,7.55,0.0,
16.859,85.53764965848593,87.16675059507865,-2.55,0.47,0.63,0.0,0.0,3.0,10.0,2.0,3.0,1.0,4.71,7.55,0.0,
16.882,85.7107649658486,87.12467505950787,-1.82,0.98,0.54,0.0,0.0,3.0,10.0,2.0,3.0,1.0,4.81,7.46,0.0,
16.907,85.80007649658486,87.03046750595078,-2.31,1.81,1.49,0.0,0.0,3.0,10.0,2.0,3.0,1.0,4.81,7.26,0.0,
16.93,85.69200764965849,87.08404675059508,-2.41,1.08,2.0,0.0,0.0,3.0,10.0,2.0,3.0,1.0,4.81,7.06,0.0,
16.955,85.73520076496584,87.17040467505952,-1.91,0.36,1.26,0.0,0.0,2.0,10.0,2.0,3.0,1.0,4.81,6.97,0.0,
16.978,85.78452007649659,87.14304046750595,-2.84,0.07,-0.19,0.0,0.0,2.0,10.0,2.0,3.0,1.0,5.0,6.77,0.0,
17.003,85.80745200764966,87.1313040467506,-3.24,-0.46,-0.27,0.0,0.0,2.0,10.0,2.0,3.0,1.0,5.0,6.77,0.0,
17.027,85.82774520076497,87.14813040467506,-3.37,-0.22,-0.11,0.0,0.0,2.0,10.0,2.0,3.0,1.0,5.0,6.57,0.0,
17.051,85.8747745200765,87.19481304046751,-2.73,-0.42,-0.3,0.0,0.0,2.0,10.0,2.0,3.0,1.0,4.91,6.57,0.0,
17.076,85.87047745200765,87.15448130404675,-2.79,-0.8,-0.5,0.0,0.0,2.0,10.0,2.0,3.0,1.0,5.1,6.67,0.0,
17.099,85.91504774520077,87.18644813040467,-2.94,-0.92,-0.72,0.0,0.0,2.0,10.0,2.0,3.0,1.0,5.1,6.57,0.0,
17.124,85.94650477452008,87.21664481304047,-3.11,-0.76,-0.21,0.0,0.0,2.0,10.0,2.0,3.0,1.0,5.2,6.67,0.0,
17.148,85.96765047745201,87.21066448130404,-3.15,-0.6,-0.69,0.0,0.0,2.0,10.0,2.0,3.0,1.0,5.1,6.57,0.0,
17.172,85.9247650477452,87.2190664481304,-2.85,-0.58,-0.46,0.0,0.0,2.0,10.0,2.0,3.0,1.0,5.1,6.57,0.0,
17.197,85.84847650477452,87.25590664481305,-2.55,-1.17,-0.52,0.0,0.0,2.0,10.0,2.0,3.0,1.0,5.0,6.57,0.0,
17.221,85.87684765047746,87.3135906644813,-2.91,-0.61,-0.31,0.0,0.0,2.0,10.0,2.0,3.0,1.0,5.0,6.57,0.0,
17.245,85.87968476504774,87.33735906644813,-3.0,-0.62,-0.15,0.0,0.0,2.0,10.0,2.0,3.0,1.0,5.0,6.67,0.0,
17.269,85.88896847650477,87.3487359066448,-3.52,0.06,0.19,0.0,0.0,2.0,10.0,2.0,3.0,1.0,5.0,6.67,0.0,
17.294,85.92589684765048,87.36787359066449,-3.52,0.11,0.01,0.0,0.0,2.0,10.0,2.0,3.0,1.0,5.0,6.67,0.0,
17.317,86.00158968476505,87.38778735906644,-3.45,-1.02,-0.64,0.0,0.0,2.0,10.0,2.0,3.0,1.0,5.1,6.77,0.0,
17.342,86.00915896847651,87.38977873590665,-3.32,-1.37,-1.05,0.0,0.0,2.0,10.0,2.0,3.0,1.0,5.1,6.77,0.0,
17.367,86.02791589684766,87.38097787359067,-3.6,-1.04,-0.59,0.0,0.0,2.0,10.0,2.0,3.0,1.0,5.1,6.77,0.0,
17.39,86.01179158968478,87.38909778735906,-3.34,-0.39,0.49,0.0,0.0,2.0,10.0,2.0,3.0,1.0,5.2,6.77,0.0,
17.415,86.01917915896847,87.3899097787359,-2.97,-1.05,0.29,0.0,0.0,2.0,10.0,2.0,3.0,1.0,5.1,6.77,0.0,
17.438,86.04691791589684,87.3719909778736,-2.87,-1.14,0.28,0.0,0.0,2.0,10.0,2.0,3.0,1.0,5.1,6.87,0.0,
17.463,86.0856917915897,87.32519909778735,-2.73,-1.07,0.25,0.0,0.0,2.0,10.0,2.0,3.0,1.0,5.2,6.87,0.0,
17.487,86.07156917915896,87.33851990977874,-2.87,-1.05,0.32,0.0,0.0,2.0,10.0,2.0,3.0,1.0,5.2,6.87,0.0,
17.511,86.0971569179159,87.37585199097786,-2.5,-1.24,0.53,0.0,0.0,2.0,10.0,2.0,3.0,1.0,5.1,6.87,0.0,
17.536,86.13571569179159,87.39758519909779,-2.44,-1.16,0.82,0.0,0.0,2.0,10.0,2.0,3.0,1.0,5.2,6.77,0.0,
17.559,86.10357156917915,87.39075851990978,-2.4,-0.63,0.66,0.0,0.0,2.0,10.0,2.0,3.0,1.0,5.3,6.57,0.0,
17.584,86.09135715691792,87.42607585199099,-1.69,-1.29,1.28,0.0,0.0,2.0,9.0,2.0,3.0,1.0,5.3,6.47,0.0,
17.608,86.0451357156918,87.4206075851991,-1.73,-2.14,0.8,0.0,0.0,2.0,9.0,2.0,2.0,1.0,5.4,6.18,0.0,
17.632,86.01351357156918,87.48306075851991,-1.95,-1.4,0.98,0.0,0.0,2.0,9.0,2.0,2.0,1.0,5.3,5.89,0.0,
17.656,86.01035135715692,87.51630607585199,-2.22,-1.67,0.02,0.0,0.0,2.0,9.0,2.0,2.0,1.0,5.4,5.4,0.0,
17.68,85.9740351357157,87.5376306075852,-2.67,-1.36,-1.25,0.0,0.0,2.0,9.0,2.0,2.0,1.0,5.4,5.2,0.0,
17.704,86.05140351357157,87.51276306075852,-2.97,-1.46,-1.03,0.0,0.0,2.0,9.0,2.0,2.0,1.0,5.4,4.91,0.0,
17.728,86.05914035135716,87.60927630607586,-3.23,-1.2,-0.62,0.0,0.0,2.0,9.0,2.0,2.0,1.0,5.3,4.91,0.0,
17.753,86.0779140351357,87.59192763060759,-3.09,-0.63,-0.47,0.0,0.0,2.0,9.0,2.0,2.0,1.0,5.2,4.91,0.0,
17.776,86.11579140351358,87.60819276306076,-3.34,-0.76,-0.79,0.0,0.0,2.0,9.0,2.0,2.0,1.0,5.2,4.91,0.0,
17.801,86.15557914035135,87.56481927630608,-3.34,-0.94,-0.81,0.0,0.0,2.0,9.0,2.0,2.0,1.0,5.2,4.91,0.0,
17.825,86.15955791403513,87.5424819276306,-3.45,-0.78,-1.18,0.0,0.0,2.0,9.0,2.0,2.0,1.0,5.3,5.0,0.0,
17.849,86.2139557914035,87.51324819276306,-3.17,-0.85,-0.52,0.0,0.0,2.0,9.0,2.0,2.0,1.0,5.3,5.0,0.0,
17.873,86.19239557914035,87.5283248192763,-2.98,-1.02,-0.72,0.0,0.0,2.0,9.0,2.0,2.0,1.0,5.2,5.2,0.0,
17.897,86.17223955791403,87.54783248192763,-2.6,-1.7,0.04,0.0,0.0,2.0,9.0,2.0,2.0,1.0,5.3,5.2,0.0,
17.922,86.1702239557914,87.54978324819277,-2.84,-1.53,-0.15,0.0,0.0,2.0,9.0,2.0,2.0,1.0,5.3,5.2,0.0,
17.945,86.17002239557914,87.57697832481928,-3.4,-1.41,-0.48,0.0,0.0,2.0,9.0,2.0,2.0,1.0,5.3,5.1,0.0,
17.97,86.17900223955792,87.60669783248193,-3.41,-1.2,-0.76,0.0,0.0,2.0,9.0,2.0,2.0,1.0,5.2,5.0,0.0,
17.994,86.19790022395578,87.6096697832482,-3.7,-1.36,-1.18,0.0,0.0,2.0,9.0,2.0,2.0,1.0,5.3,5.1,0.0,
18.018,86.21779002239558,87.58296697832482,-4.05,-1.5,-1.71,0.0,0.0,2.0,9.0,2.0,2.0,1.0,5.2,5.2,0.0,
18.042,86.21977900223956,87.61629669783248,-3.78,-1.08,-0.95,0.0,0.0,2.0,9.0,2.0,3.0,1.0,5.2,5.3,0.0,
18.066,86.20197790022395,87.60162966978325,-3.67,-1.22,-0.73,0.0,0.0,2.0,9.0,2.0,3.0,1.0,5.2,5.49,0.0,
18.091,86.16419779002238,87.59116296697833,-3.82,-1.32,-0.87,0.0,0.0,2.0,9.0,2.0,3.0,1.0,5.3,5.59,0.0,
18.115,86.15141977900225,87.60811629669783,-3.66,-1.27,-0.85,0.0,0.0,2.0,9.0,2.0,3.0,1.0,5.2,5.59,0.0,
18.139,86.14114197790022,87.58281162966978,-3.75,-1.18,-0.79,0.0,0.0,2.0,9.0,2.0,3.0,1.0,5.2,5.59,0.0,
18.163,86.14011419779001,87.54428116296698,-3.27,-1.66,-0.53,0.0,0.0,2.0,9.0,2.0,3.0,1.0,5.2,5.59,0.0,
18.187,86.158011419779,87.5224281162967,-3.38,-1.34,-0.64,0.0,0.0,2.0,9.0,2.0,3.0,1.0,5.2,5.49,0.0,
18.211,86.10580114197789,87.50224281162967,-3.51,-1.24,-1.12,0.0,0.0,2.0,9.0,2.0,3.0,1.0,5.2,5.4,0.0,
18.236,86.10058011419778,87.42822428116297,-3.63,-1.12,-0.67,0.0,0.0,2.0,9.0,2.0,3.0,1.0,5.3,5.49,0.0,
18.259,86.09105801141979,87.4118224281163,-3.48,-1.0,-0.69,0.0,0.0,2.0,10.0,2.0,3.0,1.0,5.2,5.49,0.0,
18.284,86.09010580114199,87.38318224281163,-3.34,-1.45,-0.61,0.0,0.0,2.0,10.0,2.0,3.0,1.0,5.2,5.59,0.0,
18.308,86.06301058011421,87.33531822428115,-3.21,-1.51,-0.77,0.0,0.0,2.0,10.0,2.0,3.0,1.0,5.2,5.59,0.0,
18.332,86.05130105801142,87.36653182242813,-3.4,-0.7,-0.56,0.0,0.0,2.0,10.0,2.0,3.0,1.0,5.2,5.69,0.0,
18.357,86.05913010580115,87.39665318224283,-3.9,-0.63,-0.93,0.0,0.0,2.0,10.0,2.0,3.0,1.0,5.2,5.59,0.0,
18.381,86.08691301058012,87.35466531822428,-3.64,-1.38,-0.88,0.0,0.0,2.0,10.0,2.0,3.0,1.0,5.3,5.89,0.0,
18.405,86.08969130105802,87.38646653182242,-4.01,-1.81,-1.12,0.0,0.0,2.0,10.0,2.0,3.0,1.0,5.3,6.08,0.0,
18.429,86.0989691301058,87.35364665318224,-3.66,-1.41,-0.9,0.0,0.0,2.0,10.0,2.0,3.0,1.0,5.3,6.18,0.0,
18.454,86.11789691301058,87.35936466531822,-3.8,-1.21,-1.15,0.0,0.0,2.0,10.0,2.0,3.0,1.0,5.3,6.28,0.0,
18.478,86.14678969130107,87.35093646653182,-4.27,-1.5,-1.79,0.0,0.0,3.0,10.0,2.0,3.0,1.0,5.2,6.47,0.0,
18.502,86.1046789691301,87.30509364665318,-4.19,-1.64,-1.47,0.0,0.0,3.0,10.0,2.0,3.0,1.0,5.3,6.77,0.0,
18.527,86.109467896913,87.29150936466533,-3.91,-1.47,-0.49,0.0,0.0,3.0,10.0,2.0,3.0,1.0,5.3,7.06,0.0,
18.55,86.0649467896913,87.25415093646654,-3.64,-1.19,-0.4,0.0,0.0,3.0,10.0,2.0,3.0,1.0,5.3,7.26,0.0,
18.575,86.04249467896913,87.24141509364665,-3.42,-0.58,-0.08,0.0,0.0,3.0,10.0,2.0,3.0,1.0,5.4,7.36,0.0,
18.599,86.04024946789691,87.21314150936465,-3.18,-0.11,0.11,0.0,0.0,3.0,11.0,2.0,3.0,1.0,5.4,7.46,0.0,
18.623,86.0310249467897,87.21931415093647,-3.38,-0.53,-0.03,0.0,0.0,3.0,11.0,2.0,3.0,1.0,5.4,7.46,0.0,
18.648,85.97610249467897,87.16593141509365,-3.15,-0.91,-0.15,0.0,0.0,3.0,11.0,2.0,3.0,1.0,5.49,7.55,0.0,
18.671,85.9526102494679,87.13359314150937,-3.35,-1.06,-0.31,0.0,0.0,3.0,11.0,2.0,3.0,1.0,5.49,7.46,0.0,
18.696,85.9502610249468,87.14835931415094,-3.61,-1.18,-0.2,0.0,0.0,3.0,11.0,2.0,3.0,1.0,5.49,7.55,0.0,
18.72,85.95002610249469,87.20383593141509,-3.59,-0.8,-0.34,0.0,0.0,3.0,11.0,2.0,3.0,1.0,5.59,7.55,0.0,
18.745,86.00400261024947,87.22738359314151,-3.41,-0.94,-0.12,0.0,0.0,3.0,11.0,2.0,3.0,1.0,5.49,7.65,0.0,
18.768,86.01840026102494,87.21173835931414,-3.18,-0.94,0.04,0.0,0.0,3.0,11.0,2.0,3.0,1.0,5.49,7.65,0.0,
18.793,86.04684002610249,87.24617383593142,-3.09,-0.95,0.09,0.0,0.0,3.0,11.0,2.0,3.0,1.0,5.49,7.75,0.0,
18.817,86.04968400261023,87.24061738359313,-3.34,-0.79,-0.4,0.0,0.0,3.0,11.0,2.0,3.0,1.0,5.59,7.75,0.0,
18.841,86.05896840026102,87.15906173835931,-3.17,-1.58,-0.56,0.0,0.0,3.0,11.0,2.0,3.0,1.0,5.59,7.75,0.0,
18.866,86.0688968400261,87.18690617383594,-3.3,-1.23,-0.29,0.0,0.0,3.0,11.0,2.0,3.0,1.0,5.59,7.85,0.0,
18.889,86.0968896840026,87.16269061738359,-3.1,-1.15,0.1,0.0,0.0,3.0,11.0,2.0,3.0,1.0,5.49,7.85,0.0,
18.914,86.09968896840026,87.21426906173836,-3.05,-1.14,0.08,0.0,0.0,3.0,11.0,2.0,3.0,1.0,5.4,7.75,0.0,
18.938,86.09096889684004,87.21042690617382,-3.11,-1.4,-0.15,0.0,0.0,3.0,11.0,2.0,3.0,1.0,5.4,7.75,0.0,
18.962,86.10809688968399,87.19204269061738,-2.74,-1.11,0.1,0.0,0.0,3.0,11.0,2.0,3.0,1.0,5.49,7.46,0.0,
18.987,86.17280968896841,87.19920426906174,-2.55,-1.49,-0.15,0.0,0.0,3.0,11.0,2.0,3.0,1.0,5.4,7.55,0.0,
19.01,86.17028096889683,87.23592042690616,-2.95,-1.38,-0.08,0.0,0.0,3.0,11.0,2.0,3.0,1.0,5.4,7.46,0.0,
19.035,86.1520280968897,87.19459204269062,-2.84,-1.37,-0.03,0.0,0.0,3.0,11.0,2.0,3.0,1.0,5.49,7.26,0.0,
19.059,86.17720280968898,87.19045920426906,-3.08,-1.0,-0.09,0.0,0.0,3.0,11.0,2.0,3.0,1.0,5.4,7.16,0.0,
19.084,86.15272028096891,87.21704592042691,-2.96,-0.92,-0.08,0.0,0.0,3.0,11.0,2.0,3.0,1.0,5.49,6.97,0.0,
19.107,86.14127202809689,87.20170459204269,-2.93,-1.54,-0.12,0.0,0.0,3.0,11.0,2.0,3.0,1.0,5.4,6.97,0.0,
19.132,86.08612720280968,87.24517045920427,-3.2,-1.57,-0.34,0.0,0.0,3.0,11.0,2.0,3.0,1.0,5.49,6.87,0.0,
19.156,86.10761272028097,87.24051704592041,-3.39,-2.44,-0.4,0.0,0.0,3.0,11.0,2.0,3.0,1.0,5.49,6.87,0.0,
19.18,86.1097612720281,87.19505170459205,-3.23,-1.69,-0.19,0.0,0.0,3.0,11.0,2.0,3.0,1.0,5.4,6.77,0.0,
19.205,86.1099761272028,87.20850517045919,-3.34,-2.08,-0.5,0.0,0.0,3.0,11.0,2.0,3.0,1.0,5.3,6.57,0.0,
19.229,86.15499761272028,87.20085051704592,-3.07,-1.35,-0.02,0.0,0.0,3.0,11.0,2.0,3.0,1.0,5.4,6.47,0.0,
19.253,86.13249976127202,87.21808505170459,-3.0,-1.32,0.24,0.0,0.0,3.0,11.0,2.0,3.0,1.0,5.3,6.38,0.0,
19.277,86.0942499761272,87.27380850517046,-3.7,-1.87,-0.15,0.0,0.0,3.0,11.0,2.0,3.0,1.0,5.3,6.38,0.0,
19.301,86.08142499761271,87.25238085051706,-3.71,-2.09,-0.49,0.0,0.0,3.0,11.0,2.0,3.0,1.0,5.3,6.38,0.0,
19.325,86.08014249976127,87.21423808505169,-3.21,-1.53,-0.12,0.0,0.0,3.0,11.0,2.0,3.0,1.0,5.3,6.47,0.0,
19.35,86.07101424997612,87.21042380850515,-3.21,-0.81,0.05,0.0,0.0,3.0,11.0,2.0,3.0,1.0,5.3,6.47,0.0,
19.374,86.1061014249976,87.21004238085051,-3.59,-1.22,0.35,0.0,0.0,3.0,11.0,2.0,3.0,1.0,5.2,6.57,0.0,
19.398,86.13661014249976,87.20100423808505,-3.17,-0.75,-0.2,0.0,0.0,3.0,11.0,2.0,3.0,1.0,5.2,6.77,0.0,
19.423,86.15766101424997,87.22710042380851,-3.71,-2.07,-0.24,0.0,0.0,3.0,11.0,2.0,3.0,1.0,5.2,6.87,0.0,
19.446,86.150766101425,87.08571004238085,-4.35,-0.89,-0.32,0.0,0.0,3.0,11.0,2.0,3.0,1.0,5.2,7.26,0.0,
19.471,86.1230766101425,87.0445710042381,-3.46,-1.35,-0.5,0.0,0.0,3.0,11.0,2.0,3.0,1.0,5.2,7.36,0.0,
19.495,86.07530766101425,87.04045710042382,-3.44,-0.46,-0.48,0.0,0.0,3.0,11.0,2.0,3.0,1.0,5.3,7.75,0.0,
19.519,86.07053076610141,87.05804571004238,-3.46,-0.99,-0.4,0.0,0.0,3.0,12.0,2.0,3.0,1.0,5.2,8.14,0.0,
19.544,86.01605307661015,87.11380457100424,-3.68,-0.31,-0.53,0.0,0.0,3.0,12.0,2.0,3.0,1.0,5.3,8.34,0.0,
19.568,85.98360530766102,87.13738045710042,-3.58,0.15,-0.28,0.0,0.0,3.0,12.0,2.0,3.0,1.0,5.3,8.63,0.0,
19.592,85.98936053076609,87.13973804571005,-4.22,-0.45,-0.56,0.0,0.0,3.0,12.0,2.0,3.0,1.0,5.3,8.83,0.0,
19.616,86.02593605307662,87.175973804571,-4.0,-1.3,-1.05,0.0,0.0,3.0,0.0,2.0,3.0,1.0,5.4,9.12,0.0,
19.641,85.99359360530765,87.1975973804571,-4.34,-1.47,-0.82,0.0,0.0,3.0,0.0,2.0,3.0,1.0,5.4,9.32,0.0,
19.664,86.00835936053078,87.17275973804571,-4.32,-1.13,-0.7,0.0,0.0,3.0,1.0,2.0,3.0,1.0,5.4,9.52,0.0,
19.689,86.02783593605308,87.15227597380458,-4.15,-1.11,-0.84,0.0,0.0,3.0,2.0,2.0,3.0,1.0,5.3,9.91,0.0,
19.714,86.05678359360532,87.06922759738046,-4.44,-1.52,-1.1,0.0,0.0,3.0,1.0,2.0,3.0,1.0,5.4,10.01,0.0,
19.737,86.09567835936052,87.04292275973806,-4.27,-1.34,-0.98,0.0,0.0,3.0,2.0,2.0,3.0,1.0,5.49,10.3,0.0,
19.762,86.07256783593604,86.95929227597381,-3.99,-1.37,-0.95,0.0,0.0,3.0,2.0,3.0,3.0,1.0,5.49,10.5,0.0,
19.786,86.0612567835936,86.97792922759739,-4.42,-0.02,-0.43,0.0,0.0,3.0,2.0,3.0,3.0,1.0,5.4,10.79,0.0,
19.811,86.04212567835937,86.95279292275974,-4.29,-1.1,-1.03,0.0,0.0,3.0,3.0,3.0,4.0,1.0,5.49,10.99,0.0,
19.835,85.96821256783592,86.92327929227598,-4.34,-1.43,-1.21,0.0,0.0,3.0,3.0,3.0,4.0,1.0,5.49,11.38,0.0,
19.859,85.96082125678357,86.87532792922761,-4.68,-1.04,-1.27,0.0,0.0,3.0,4.0,3.0,4.0,1.0,5.49,11.67,0.0,
19.884,86.00508212567836,86.83453279292277,-4.15,-0.63,-0.83,0.0,0.0,3.0,4.0,3.0,4.0,1.0,5.49,12.07,0.0,
19.908,86.00050821256784,86.83945327929229,-3.98,-0.73,-0.85,0.0,0.0,4.0,5.0,3.0,4.0,1.0,5.59,12.36,0.0,
19.933,86.00905082125679,86.78594532792923,-3.78,-0.81,-0.9,0.0,0.0,4.0,5.0,3.0,4.0,1.0,5.59,12.56,0.0,
19.956,86.02790508212568,86.75359453279293,-3.73,-0.86,-0.79,0.0,0.0,4.0,5.0,3.0,4.0,1.0,5.69,12.65,0.0,
19.981,86.05679050821257,86.7233594532793,-4.15,-1.41,-0.92,0.0,0.0,4.0,5.0,3.0,4.0,1.0,5.79,12.85,0.0,
20.005,86.08667905082126,86.68433594532794,-3.69,-1.56,-1.03,0.0,0.0,4.0,5.0,3.0,4.0,1.0,5.79,12.95,0.0,
20.03,86.05366790508212,86.64443359453279,-3.35,-1.08,-0.91,0.0,0.0,4.0,6.0,3.0,4.0,1.0,5.79,13.05,0.0,
20.055,86.05936679050822,86.65844335945327,-3.55,-0.86,-0.64,0.0,0.0,4.0,6.0,3.0,4.0,2.0,5.89,13.05,0.0,
20.078,86.09593667905082,86.59684433594533,-3.76,-0.4,-0.42,0.0,0.0,4.0,6.0,3.0,4.0,2.0,5.89,13.05,0.0,
20.103,86.12659366790507,86.57268443359453,-3.34,-0.57,-0.46,0.0,0.0,4.0,6.0,3.0,4.0,2.0,5.89,13.15,0.0,
20.127,86.1386593667905,86.59726844335945,-3.53,-0.25,-0.26,0.0,0.0,4.0,6.0,3.0,4.0,2.0,6.08,13.24,0.0,
20.152,86.12186593667906,86.58172684433595,-3.62,-0.44,-0.24,0.0,0.0,4.0,6.0,3.0,4.0,2.0,5.98,13.34,0.0,
20.176,86.1831865936679,86.5891726844336,-3.43,-1.1,-0.68,0.0,0.0,4.0,6.0,3.0,4.0,2.0,5.98,13.44,0.0,
20.2,86.18931865936679,86.56291726844337,-3.15,-0.81,-0.4,0.0,0.0,4.0,6.0,3.0,4.0,2.0,5.98,13.44,0.0,
20.225,86.15393186593668,86.54229172684434,-3.01,-0.79,-0.15,0.0,0.0,4.0,6.0,3.0,4.0,2.0,6.08,13.54,0.0,
20.249,86.14139318659366,86.53122917268445,-2.99,-0.81,-0.05,0.0,0.0,4.0,7.0,3.0,4.0,2.0,5.98,13.54,0.0,
20.274,86.14013931865937,86.58412291726846,-3.44,-0.73,0.04,0.0,0.0,4.0,7.0,3.0,4.0,2.0,5.98,13.54,0.0,
20.297,86.15801393186594,86.62541229172685,-3.62,-1.21,-0.19,0.0,0.0,4.0,7.0,3.0,4.0,2.0,5.98,13.64,0.0,
20.322,86.13280139318658,86.5485412291727,-3.74,-1.21,-0.33,0.0,0.0,4.0,7.0,3.0,4.0,2.0,5.89,13.64,0.0,
20.346,86.16628013931866,86.52285412291727,-3.74,-0.63,-0.15,0.0,0.0,4.0,7.0,3.0,4.0,2.0,5.79,13.64,0.0,
20.371,86.15162801393187,86.58328541229173,-3.61,-0.83,-0.34,0.0,0.0,4.0,7.0,3.0,4.0,2.0,5.79,13.64,0.0,
20.396,86.1771628013932,86.63432854122917,-3.51,-0.76,-0.47,0.0,0.0,4.0,8.0,3.0,4.0,2.0,5.79,13.73,0.0,
20.419,86.12571628013933,86.61243285412291,-3.21,-1.1,-0.37,0.0,0.0,4.0,8.0,3.0,4.0,2.0,5.89,13.83,0.0,
20.444,86.14757162801394,86.6192432854123,-3.26,-1.37,-0.62,0.0,0.0,4.0,8.0,3.0,4.0,2.0,5.89,13.83,0.0,
20.468,86.14975716280141,86.61992432854125,-3.83,-1.41,-0.68,0.0,0.0,4.0,8.0,3.0,4.0,2.0,5.98,13.93,0.0,
20.493,86.21297571628014,86.53899243285413,-3.55,-2.24,-0.77,0.0,0.0,4.0,8.0,3.0,4.0,2.0,5.98,14.03,0.0,
20.516,86.255297571628,86.4948992432854,-3.5,-1.67,-0.33,0.0,0.0,4.0,8.0,3.0,4.0,2.0,5.89,14.03,0.0,
20.541,86.2595297571628,86.49048992432853,-3.47,-1.25,-0.24,0.0,0.0,4.0,8.0,3.0,4.0,2.0,5.79,13.93,0.0,
20.566,86.25995297571627,86.46304899243285,-3.37,-1.56,-0.44,0.0,0.0,4.0,8.0,3.0,4.0,2.0,5.69,13.93,0.0,
20.59,86.25999529757162,86.4693048992433,-3.51,-1.85,-0.53,0.0,0.0,4.0,8.0,3.0,4.0,2.0,5.79,13.83,0.0,
20.615,86.30499952975717,86.49693048992434,-3.73,-2.7,-0.96,0.0,0.0,4.0,8.0,3.0,4.0,2.0,5.79,13.73,0.0,
20.638,86.27349995297571,86.49069304899243,-4.07,-2.21,-0.69,0.0,0.0,4.0,8.0,3.0,4.0,2.0,5.79,13.54,0.0,
20.663,86.25234999529756,86.46306930489924,-3.59,-2.12,-0.66,0.0,0.0,4.0,8.0,3.0,4.0,2.0,5.89,13.44,0.0,
20.687,86.26823499952975,86.43330693048993,-3.62,-2.1,-0.67,0.0,0.0,4.0,8.0,3.0,4.0,2.0,5.89,13.15,0.0,
20.712,86.29682349995298,86.412330693049,-3.58,-1.56,-0.41,0.0,0.0,4.0,8.0,3.0,4.0,2.0,5.89,12.95,0.0,
20.736,86.26368234999529,86.41923306930491,-3.3,-1.62,-0.27,0.0,0.0,4.0,8.0,3.0,4.0,2.0,5.98,12.75,0.0,
20.76,86.20636823499953,86.4649233069305,-3.24,-1.4,-0.12,0.0,0.0,4.0,8.0,3.0,4.0,2.0,5.98,12.56,0.0,
20.785,86.17363682349995,86.46949233069306,-3.51,-1.23,-0.14,0.0,0.0,4.0,8.0,3.0,4.0,2.0,6.08,12.56,0.0,
20.809,86.11636368234998,86.4879492330693,-3.66,-1.5,-0.56,0.0,0.0,4.0,8.0,3.0,4.0,2.0,6.08,12.46,0.0,
20.834,86.155636368235,86.46279492330692,-3.41,-1.67,-0.08,0.0,0.0,4.0,9.0,3.0,4.0,2.0,6.28,12.56,0.0,
20.857,86.0515636368235,86.4512794923307,-3.6,-1.89,-0.4,0.0,0.0,4.0,8.0,3.0,4.0,2.0,6.28,12.56,0.0,
20.882,85.98715636368236,86.44112794923308,-3.47,-2.04,-0.61,0.0,0.0,4.0,9.0,3.0,4.0,2.0,6.28,12.46,0.0,
20.907,85.98971563636823,86.41311279492331,-3.34,-2.11,-0.33,0.0,0.0,4.0,9.0,3.0,4.0,2.0,6.28,12.46,0.0,
20.931,85.94497156363683,86.44631127949233,-3.42,-1.63,-0.14,0.0,0.0,4.0,9.0,3.0,4.0,2.0,6.28,12.36,0.0,
20.956,85.94049715636369,86.46763112794923,-3.64,-1.21,-0.17,0.0,0.0,4.0,9.0,3.0,4.0,2.0,6.28,12.36,0.0,
20.979,85.91304971563638,86.48776311279491,-3.6,-1.91,-0.32,0.0,0.0,4.0,9.0,3.0,4.0,2.0,6.28,12.36,0.0,
21.004,85.83830497156363,86.4357763112795,-3.55,-2.31,-0.53,0.0,0.0,4.0,9.0,3.0,4.0,2.0,6.28,12.36,0.0,
21.028,85.81283049715636,86.41257763112796,-3.42,-2.08,-0.6,0.0,0.0,4.0,9.0,3.0,4.0,2.0,6.18,12.46,0.0,
21.053,85.81028304971564,86.4192577631128,-3.24,-1.38,-0.13,0.0,0.0,4.0,10.0,3.0,4.0,2.0,6.28,12.46,0.0,
21.078,85.81002830497157,86.41992577631129,-3.18,-1.35,-0.43,0.0,0.0,4.0,10.0,3.0,4.0,2.0,6.28,12.56,0.0,
21.101,85.73800283049717,86.38399257763113,-3.33,-1.15,-0.44,0.0,0.0,4.0,10.0,3.0,4.0,2.0,6.28,12.65,0.0,
21.126,85.71280028304972,86.34439925776311,-3.34,-1.07,-0.31,0.0,0.0,4.0,10.0,3.0,4.0,2.0,6.28,12.85,0.0,
21.15,85.72828002830498,86.31343992577631,-3.24,-1.33,-0.09,0.0,0.0,4.0,10.0,3.0,4.0,2.0,6.28,13.15,0.0,
21.175,85.7568280028305,86.30134399257763,-3.18,-1.34,-0.07,0.0,0.0,4.0,10.0,3.0,4.0,2.0,6.28,13.24,0.0,
21.199,85.75068280028304,86.36313439925776,-3.37,-1.15,-0.42,0.0,0.0,4.0,10.0,3.0,4.0,2.0,6.18,13.34,0.0,
21.224,85.73206828002832,86.35131343992578,-3.37,-1.34,-0.79,0.0,0.0,4.0,10.0,3.0,4.0,2.0,6.28,13.34,0.0,
21.249,85.74820682800282,86.32313134399257,-3.2,-1.09,-0.41,0.0,0.0,4.0,10.0,3.0,4.0,2.0,6.38,13.44,0.0,
21.272,85.79482068280028,86.29331313439926,-2.98,0.85,0.5,0.0,0.0,4.0,10.0,3.0,4.0,2.0,6.38,13.44,0.0,
21.297,85.88048206828003,86.32633131343992,-2.95,1.25,0.85,0.0,0.0,4.0,10.0,3.0,4.0,2.0,6.38,14.03,0.0,
21.321,85.979048206828,86.320633131344,-2.99,-1.52,0.19,0.0,0.0,4.0,10.0,3.0,4.0,2.0,6.38,14.72,0.0,
21.346,85.9349048206828,86.2390633131344,-3.15,-2.24,-0.69,0.0,0.0,4.0,11.0,3.0,4.0,2.0,6.47,15.11,0.0,
21.369,85.84949048206828,86.27590633131344,-3.08,-4.05,-1.86,0.0,0.0,4.0,11.0,3.0,5.0,2.0,6.38,15.21,0.0,
21.394,85.77794904820682,86.27059063313135,-3.55,-2.98,-2.0,0.0,0.0,4.0,10.0,3.0,5.0,2.0,6.28,14.81,0.0,
21.419,85.86079490482068,86.30605906331314,-3.32,-1.47,-1.47,0.0,0.0,4.0,10.0,3.0,4.0,2.0,6.18,14.52,0.0,
21.443,85.88707949048207,86.27360590633131,-3.46,-1.51,-0.73,0.0,0.0,4.0,10.0,3.0,4.0,2.0,6.28,14.32,0.0,
21.468,85.9437079490482,86.25236059063313,-3.34,-1.11,-0.21,0.0,0.0,4.0,10.0,3.0,4.0,2.0,6.28,14.22,0.0,
21.492,85.93137079490482,86.28623605906331,-3.26,-1.53,-0.11,0.0,0.0,4.0,10.0,3.0,4.0,2.0,6.28,14.22,0.0,
21.516,85.89413707949048,86.29862360590633,-3.39,-0.95,0.35,0.0,0.0,4.0,10.0,3.0,4.0,2.0,6.28,14.13,0.0,
21.54,85.98941370794905,86.29086236059064,-3.21,-0.89,0.79,0.0,0.0,4.0,9.0,3.0,4.0,2.0,6.08,13.93,0.0,
21.565,86.02594137079491,86.31708623605907,-2.82,-0.92,0.32,0.0,0.0,4.0,10.0,3.0,4.0,2.0,6.18,13.83,0.0,
21.588,85.9575941370795,86.2927086236059,-3.23,-2.33,0.12,0.0,0.0,4.0,10.0,3.0,4.0,2.0,6.18,13.93,0.0,
21.613,85.90575941370795,86.29927086236059,-3.29,-1.47,0.41,0.0,0.0,4.0,10.0,3.0,4.0,2.0,6.18,13.73,0.0,
21.638,85.8375759413708,86.29992708623605,-2.91,-3.68,0.1,0.0,0.0,4.0,10.0,3.0,4.0,2.0,6.08,13.54,0.0,
21.662,85.73175759413708,86.2999927086236,-2.78,-3.67,0.28,0.0,0.0,4.0,10.0,3.0,4.0,2.0,6.08,13.24,0.0,
21.686,85.73017575941371,86.22799927086236,-2.63,-3.8,0.85,0.0,0.0,4.0,9.0,3.0,4.0,2.0,5.98,13.05,0.0,
21.71,85.71201757594136,86.28379992708624,-2.64,-4.18,-0.11,0.0,0.0,4.0,9.0,3.0,4.0,2.0,5.98,12.56,0.0,
21.734,85.59320175759414,86.28937999270862,-2.91,-4.73,0.11,0.0,0.0,4.0,8.0,3.0,4.0,2.0,5.89,12.26,0.0,
21.758,85.56332017575942,86.23593799927086,-2.89,-4.89,1.2,0.0,0.0,4.0,8.0,3.0,4.0,2.0,5.89,12.07,0.0,
21.783,85.48833201757594,86.22159379992708,-2.05,-2.79,0.22,0.0,0.0,4.0,8.0,3.0,4.0,2.0,5.79,11.67,0.0,
21.807,85.41783320175759,86.22915937999271,-1.63,-3.99,1.12,0.0,0.0,4.0,8.0,3.0,4.0,2.0,5.79,11.48,0.0,
21.831,85.36578332017575,86.26591593799927,-2.28,-2.95,1.22,0.0,0.0,4.0,8.0,3.0,4.0,2.0,5.79,11.28,0.0,
21.855,85.25257833201756,86.27859159379993,-2.45,-3.79,1.27,0.0,0.0,4.0,7.0,3.0,4.0,2.0,5.69,10.89,0.0,
21.879,85.22325783320176,86.36085915938,-2.38,-3.47,0.76,0.0,0.0,4.0,7.0,3.0,4.0,2.0,5.79,10.5,0.0,
21.904,85.18432578332018,86.378085915938,-2.09,-3.49,2.28,0.0,0.0,4.0,6.0,3.0,4.0,1.0,5.79,10.4,0.0,
21.927,85.07243257833201,86.45180859159379,-1.89,-2.9,2.27,0.0,0.0,4.0,6.0,3.0,4.0,1.0,5.79,10.3,0.0,
21.952,84.9622432578332,86.54018085915938,-1.79,-3.66,3.1,0.0,0.0,4.0,5.0,3.0,4.0,1.0,5.79,9.91,0.0,
21.976,84.94222432578331,86.64801808591594,-1.6,-2.81,4.02,0.0,0.0,4.0,4.0,3.0,4.0,1.0,5.98,9.52,0.0,
22.0,84.93122243257834,86.65880180859159,-1.55,-1.97,4.64,0.0,0.0,4.0,3.0,3.0,4.0,1.0,5.98,9.22,0.0,
22.024,84.95712224325783,86.72288018085916,-1.44,-2.27,3.92,0.0,0.0,4.0,2.0,3.0,4.0,1.0,5.98,8.83,0.0,
22.048,84.84271222432578,86.71128801808592,-1.37,-2.23,3.75,0.0,0.0,3.0,2.0,3.0,4.0,1.0,5.98,8.53,0.0,
22.072,84.75927122243259,86.8811288018086,-2.19,-4.28,3.92,0.0,0.0,3.0,1.0,3.0,4.0,1.0,6.08,8.24,0.0,
22.096,84.66992712224327,86.87111288018086,-1.64,-3.3,1.89,0.0,0.0,3.0,1.0,3.0,4.0,1.0,6.08,7.85,0.0,
22.12,84.69699271222433,86.98711128801808,-2.82,-3.4,3.09,0.0,0.0,3.0,0.0,3.0,4.0,1.0,6.08,7.65,0.0,
22.145,84.59169927122244,86.90871112880181,-3.16,-3.13,0.53,0.0,0.0,3.0,0.0,3.0,4.0,1.0,6.08,7.55,0.0,
22.168,84.59016992712225,87.01787111288017,-2.53,-3.14,1.42,0.0,0.0,3.0,0.0,3.0,4.0,1.0,6.18,7.55,0.0,
22.193,84.49101699271223,86.82178711128802,-2.68,-3.64,2.05,0.0,0.0,3.0,0.0,3.0,4.0,1.0,6.08,7.46,0.0,
22.216,84.45410169927123,86.8651787111288,-2.27,-3.07,1.76,0.0,0.0,3.0,0.0,3.0,4.0,1.0,6.08,7.46,0.0,
22.241,84.40541016992714,86.86951787111289,-3.22,-2.36,1.25,0.0,0.0,3.0,0.0,3.0,4.0,1.0,5.98,7.26,0.0,
22.264,84.3825410169927,86.98695178711128,-2.94,-2.08,0.93,0.0,0.0,3.0,0.0,3.0,4.0,1.0,6.08,7.16,0.0,
22.289,84.36225410169928,87.01669517871113,-3.03,-1.69,1.18,0.0,0.0,3.0,0.0,3.0,4.0,1.0,6.08,7.26,0.0,
22.312,84.32422541016992,87.01066951787112,-3.53,-2.24,0.68,0.0,0.0,3.0,0.0,3.0,4.0,1.0,6.08,7.36,0.0,
22.337,84.293422541017,86.96506695178711,-2.97,-2.09,1.05,0.0,0.0,3.0,0.0,3.0,4.0,1.0,5.98,7.46,0.0,
22.361,84.2543422541017,86.96050669517871,-2.98,-1.85,0.24,0.0,0.0,3.0,0.0,3.0,4.0,1.0,5.98,7.46,0.0,
22.385,84.21443422541017,86.99605066951787,-3.7,-2.24,0.27,0.0,0.0,3.0,0.0,3.0,4.0,1.0,5.98,7.46,0.0,
22.41,84.16544342254102,86.97260506695179,-3.36,-1.45,0.16,0.0,0.0,3.0,0.0,3.0,4.0,1.0,6.08,7.46,0.0,
22.433,84.17854434225411,86.95226050669518,-2.84,-1.41,0.04,0.0,0.0,3.0,0.0,3.0,4.0,1.0,5.98,7.55,0.0,
22.458,84.2068544342254,86.96822605066951,-3.19,-1.37,-0.43,0.0,0.0,3.0,0.0,3.0,4.0,1.0,6.08,7.65,0.0,
22.481,84.23668544342254,86.96982260506695,-3.42,-0.68,-0.19,0.0,0.0,3.0,0.0,3.0,4.0,1.0,6.08,7.55,0.0,
22.506,84.23066854434225,87.0059822605067,-2.88,-1.07,-0.03,0.0,0.0,3.0,0.0,3.0,4.0,1.0,5.98,7.65,0.0,
22.53,84.21206685443423,86.99159822605067,-2.84,-0.87,0.41,0.0,0.0,3.0,0.0,3.0,4.0,1.0,5.98,7.85,0.0,
22.554,84.24620668544343,86.95415982260508,-2.46,-0.66,0.4,0.0,0.0,3.0,0.0,3.0,4.0,1.0,5.98,7.75,0.0,
22.578,84.26762066854434,86.97741598226051,-2.51,-0.3,0.28,0.0,0.0,3.0,0.0,3.0,4.0,1.0,5.98,7.75,0.0,
22.602,84.27876206685444,87.03374159822606,-2.73,-0.47,0.42,0.0,0.0,3.0,0.0,3.0,4.0,1.0,6.08,7.85,0.0,
22.626,84.32487620668545,87.03937415982261,-1.92,0.04,0.8,0.0,0.0,3.0,0.0,3.0,4.0,1.0,5.98,7.85,0.0,
22.65,84.41948762066855,87.00393741598225,-1.91,0.94,1.34,0.0,0.0,3.0,0.0,3.0,4.0,1.0,5.89,7.95,0.0,
22.674,84.32994876206685,87.05439374159822,-2.54,0.3,0.96,0.0,0.0,3.0,0.0,3.0,4.0,1.0,5.98,7.95,0.0,
22.699,84.32099487620667,87.12243937415982,-2.45,0.83,0.54,0.0,0.0,3.0,0.0,3.0,4.0,1.0,5.98,7.95,0.0,
22.722,84.33809948762067,87.10224393741598,-2.02,1.17,0.58,0.0,0.0,3.0,0.0,3.0,4.0,1.0,5.98,8.24,0.0,
22.747,84.37580994876205,87.1542243937416,-2.21,0.95,0.54,0.0,0.0,3.0,0.0,3.0,4.0,1.0,5.98,8.44,0.0,
22.77,84.39758099487621,87.21342243937417,-2.64,0.41,0.34,0.0,0.0,3.0,0.0,3.0,4.0,1.0,5.98,8.63,0.0,
22.794,84.43575809948761,87.2643422439374,-2.61,0.76,0.37,0.0,0.0,3.0,0.0,3.0,4.0,1.0,6.08,8.73,0.0,
22.818,84.50257580994877,87.29643422439374,-2.46,0.6,-0.03,0.0,0.0,3.0,0.0,3.0,4.0,1.0,5.98,8.83,0.0,
22.842,84.55425758099487,87.25464342243937,-3.0,-0.09,-0.06,0.0,0.0,3.0,0.0,3.0,4.0,1.0,5.98,8.93,0.0,
22.866,84.55042575809948,87.25946434224394,-2.83,-0.27,-0.11,0.0,0.0,3.0,0.0,3.0,4.0,1.0,6.08,9.03,0.0,
22.89,84.61304257580994,87.2509464342244,-2.86,-0.37,-0.07,0.0,0.0,3.0,0.0,3.0,4.0,1.0,6.08,9.12,0.0,
22.915,84.61930425758099,87.24109464342243,-3.18,-0.4,-0.37,0.0,0.0,3.0,0.0,3.0,4.0,1.0,5.98,9.22,0.0,
22.939,84.6199304257581,87.24010946434223,-3.24,-0.1,-0.27,0.0,0.0,3.0,0.0,3.0,4.0,1.0,5.98,9.22,0.0,
22.963,84.7009930425758,87.28501094643423,-3.41,-0.01,-0.43,0.0,0.0,3.0,0.0,3.0,4.0,1.0,6.08,9.22,0.0,
22.987,84.74509930425758,87.23550109464342,-3.2,-0.4,-0.39,0.0,0.0,3.0,0.0,3.0,4.0,1.0,6.08,9.32,0.0,
23.011,84.76750993042575,87.24855010946435,-3.14,-0.51,-0.35,0.0,0.0,3.0,0.0,3.0,4.0,1.0,6.08,9.52,0.0,
23.035,84.76975099304256,87.25885501094643,-3.53,-0.73,-0.73,0.0,0.0,3.0,0.0,3.0,4.0,1.0,6.08,9.52,0.0,
23.06,84.84197509930425,87.28688550109464,-3.43,-0.63,-0.55,0.0,0.0,3.0,1.0,3.0,4.0,1.0,5.98,9.52,0.0,
23.084,84.84919750993042,87.28968855010947,-2.85,-0.06,-0.56,0.0,0.0,3.0,0.0,3.0,4.0,1.0,6.08,9.61,0.0,
23.108,84.84991975099304,87.28096885501095,-3.34,-0.27,-0.4,0.0,0.0,3.0,0.0,3.0,4.0,1.0,6.08,9.71,0.0,
23.132,84.89499197509932,87.2620968855011,-3.34,-0.04,-0.33,0.0,0.0,3.0,0.0,3.0,4.0,1.0,6.08,9.71,0.0,
23.156,84.94449919750993,87.25120968855012,-2.64,-0.79,-0.74,0.0,0.0,3.0,0.0,3.0,4.0,1.0,6.18,9.71,0.0,
23.181,84.91344991975099,87.22312096885501,-3.29,-0.72,-0.11,0.0,0.0,3.0,0.0,3.0,4.0,1.0,6.18,9.61,0.0,
23.204,84.8833449919751,87.2383120968855,-3.24,-0.09,0.21,0.0,0.0,3.0,0.0,3.0,4.0,1.0,6.18,9.61,0.0,
23.229,84.9073344991975,87.23983120968853,-2.8,-0.11,0.21,0.0,0.0,3.0,0.0,3.0,4.0,1.0,6.08,9.52,0.0,
23.252,84.98173344991974,87.26698312096885,-2.71,-0.21,0.36,0.0,0.0,3.0,0.0,3.0,4.0,1.0,6.18,9.52,0.0,
23.277,85.07017334499197,87.25169831209689,-3.19,-1.17,0.08,0.0,0.0,3.0,0.0,3.0,4.0,1.0,6.18,9.52,0.0,
23.301,85.0970173344992,87.21416983120967,-2.89,-0.82,0.25,0.0,0.0,3.0,12.0,3.0,4.0,1.0,6.18,9.42,0.0,
23.325,85.09070173344992,87.18341698312096,-3.08,-0.77,0.27,0.0,0.0,3.0,12.0,3.0,4.0,1.0,6.18,9.22,0.0,
23.349,85.090070173345,87.1803416983121,-3.2,-0.93,-0.15,0.0,0.0,3.0,12.0,3.0,4.0,1.0,6.08,9.12,0.0,
23.373,85.0720070173345,87.19803416983122,-3.19,-0.73,0.2,0.0,0.0,3.0,12.0,3.0,4.0,1.0,6.08,9.03,0.0,
23.398,85.14220070173346,87.24480341698313,-3.02,-0.34,0.34,0.0,0.0,3.0,12.0,3.0,4.0,1.0,6.08,9.03,0.0,
23.421,85.19422007017334,87.24948034169832,-2.99,-0.57,-0.19,0.0,0.0,3.0,12.0,3.0,4.0,1.0,6.08,9.03,0.0,
23.446,85.16342200701735,87.26794803416982,-2.92,-1.08,0.05,0.0,0.0,3.0,0.0,3.0,4.0,1.0,5.98,8.93,0.0,
23.47,85.16934220070173,87.28779480341699,-2.79,-0.79,-0.03,0.0,0.0,3.0,0.0,3.0,4.0,1.0,5.89,9.03,0.0,
23.494,85.18793422007018,87.2897794803417,-3.15,-1.08,0.1,0.0,0.0,3.0,0.0,3.0,4.0,1.0,5.79,9.03,0.0,
23.519,85.16279342200703,87.26297794803418,-3.19,-1.1,0.01,0.0,0.0,3.0,12.0,3.0,4.0,1.0,5.79,8.93,0.0,
23.542,85.15127934220071,87.2692977948034,-3.37,-1.63,-0.41,0.0,0.0,3.0,0.0,3.0,4.0,1.0,5.79,8.83,0.0,
23.567,85.14112793422008,87.25192977948035,-3.03,-2.25,-0.92,0.0,0.0,3.0,0.0,3.0,4.0,1.0,5.79,8.83,0.0,
23.59,85.140112793422,87.24119297794803,-3.12,-1.73,-0.57,0.0,0.0,3.0,1.0,3.0,4.0,1.0,5.79,8.83,0.0,
23.615,85.1670112793422,87.26711929779479,-3.38,-1.47,-0.52,0.0,0.0,3.0,0.0,3.0,4.0,1.0,5.69,8.63,0.0,
23.64,85.14270112793423,87.27871192977949,-3.51,-1.63,-0.44,0.0,0.0,3.0,0.0,3.0,4.0,1.0,5.69,8.73,0.0,
23.663,85.15827011279343,87.32487119297794,-3.41,-1.33,-0.28,0.0,0.0,3.0,0.0,3.0,4.0,1.0,5.79,8.63,0.0,
23.688,85.10582701127935,87.3384871192978,-3.5,-1.66,-0.48,0.0,0.0,3.0,0.0,3.0,4.0,1.0,5.69,8.63,0.0,
23.711,85.06458270112793,87.35784871192978,-3.64,-2.16,-0.85,0.0,0.0,3.0,0.0,3.0,4.0,1.0,5.79,8.73,0.0,
23.736,85.03345827011279,87.33278487119297,-3.69,-2.0,-0.75,0.0,0.0,3.0,0.0,3.0,4.0,1.0,5.89,8.63,0.0,
23.76,85.06634582701128,87.33027848711929,-3.41,-1.66,-0.8,0.0,0.0,3.0,0.0,3.0,4.0,1.0,5.79,8.63,0.0,
23.784,85.04263458270113,87.36602784871194,-3.49,-1.58,-0.76,0.0,0.0,3.0,0.0,3.0,4.0,1.0,5.79,8.63,0.0,
23.809,85.02226345827012,87.32460278487119,-3.62,-1.63,-0.47,0.0,0.0,3.0,0.0,3.0,4.0,1.0,5.79,8.73,0.0,
23.832,85.01122634582701,87.28446027848713,-3.19,-1.13,-0.17,0.0,0.0,3.0,1.0,3.0,4.0,1.0,5.79,8.93,0.0,
23.857,85.0011226345827,87.28944602784873,-3.04,-0.87,-0.15,0.0,0.0,3.0,1.0,3.0,4.0,1.0,5.79,8.93,0.0,
23.88,85.00911226345826,87.32594460278486,-3.13,-0.77,-0.29,0.0,0.0,3.0,1.0,3.0,4.0,1.0,5.79,8.83,0.0,
23.905,85.04591122634582,87.32059446027847,-2.81,-0.59,-0.02,0.0,0.0,3.0,1.0,3.0,4.0,1.0,5.79,8.93,0.0,
23.929,85.06759112263458,87.33805944602786,-3.09,-1.08,-0.18,0.0,0.0,3.0,1.0,3.0,4.0,1.0,5.79,8.93,0.0,
23.953,85.08775911226346,87.32180594460277,-3.44,-1.05,-0.04,0.0,0.0,3.0,1.0,3.0,4.0,1.0,5.79,8.93,0.0,
23.977,85.02677591122634,87.29318059446028,-2.99,-1.31,-0.37,0.0,0.0,3.0,1.0,3.0,4.0,1.0,5.89,8.93,0.0,
24.001,85.05667759112264,87.28131805944604,-2.95,-1.05,-0.36,0.0,0.0,3.0,1.0,3.0,4.0,1.0,5.79,8.83,0.0,
24.026,85.05066775911226,87.2891318059446,-3.3,-1.26,-0.47,0.0,0.0,3.0,1.0,3.0,4.0,1.0,5.79,9.03,0.0,
24.05,85.03206677591123,87.25391318059447,-3.08,-0.61,-0.1,0.0,0.0,3.0,1.0,3.0,4.0,1.0,5.89,9.12,0.0,
24.074,84.96720667759112,87.29539131805944,-2.99,-0.88,-0.11,0.0,0.0,3.0,1.0,3.0,4.0,1.0,5.98,9.12,0.0,
24.098,85.01472066775911,87.31753913180594,-3.24,-0.99,-0.24,0.0,0.0,3.0,1.0,3.0,4.0,1.0,5.89,9.22,0.0,
24.122,85.0194720667759,87.2837539131806,-2.95,-1.05,-0.11,0.0,0.0,3.0,1.0,3.0,4.0,1.0,5.89,9.22,0.0,
24.146,85.01094720667759,87.28037539131806,-2.89,-1.7,-0.56,0.0,0.0,3.0,1.0,3.0,4.0,1.0,5.79,9.22,0.0,
24.171,85.03709472066775,87.2980375391318,-2.91,-1.99,-1.11,0.0,0.0,3.0,1.0,3.0,4.0,1.0,5.89,9.22,0.0,
24.195,85.03970947206678,87.28180375391318,-3.06,-1.2,-0.98,0.0,0.0,3.0,0.0,3.0,4.0,1.0,5.79,9.12,0.0,
24.219,85.06697094720668,87.30718037539133,-3.02,-0.6,-0.47,0.0,0.0,3.0,0.0,3.0,4.0,1.0,5.69,9.03,0.0,
24.243,85.12369709472067,87.31871803753913,-3.11,-1.31,-0.65,0.0,0.0,3.0,0.0,3.0,4.0,1.0,5.89,9.12,0.0,
24.267,85.15636970947207,87.28387180375393,-3.06,-1.29,-0.46,0.0,0.0,3.0,0.0,3.0,4.0,1.0,5.79,9.12,0.0,
24.292,85.1506369709472,87.2623871803754,-3.18,-1.19,-0.28,0.0,0.0,3.0,0.0,3.0,4.0,1.0,5.79,9.12,0.0,
24.315,85.14106369709472,87.23323871803754,-3.21,-1.6,-0.25,0.0,0.0,3.0,0.0,3.0,4.0,1.0,5.79,9.12,0.0,
24.34,85.11310636970947,87.23932387180375,-3.11,-1.11,-0.06,0.0,0.0,3.0,0.0,3.0,4.0,1.0,5.79,9.12,0.0,
24.364,85.08331063697095,87.28493238718038,-2.67,-1.3,0.1,0.0,0.0,3.0,1.0,3.0,4.0,1.0,5.69,9.03,0.0,
24.388,85.0983310636971,87.28949323871804,-2.63,-0.88,0.27,0.0,0.0,3.0,0.0,3.0,4.0,1.0,5.69,9.03,0.0,
24.412,85.09083310636971,87.30794932387181,-2.98,-0.4,0.29,0.0,0.0,3.0,0.0,3.0,4.0,1.0,5.79,9.03,0.0,
24.436,85.12608331063697,87.30979493238719,-2.91,-0.63,-0.06,0.0,0.0,3.0,1.0,3.0,4.0,1.0,5.79,9.03,0.0,
24.46,85.16560833106371,87.27397949323871,-2.97,-0.8,-0.27,0.0,0.0,3.0,1.0,3.0,4.0,1.0,5.79,9.12,0.0,
24.484,85.16956083310637,87.30639794932388,-3.04,-1.05,-0.21,0.0,0.0,3.0,1.0,3.0,4.0,1.0,5.79,9.12,0.0,
24.509,85.11595608331064,87.2916397949324,-3.15,-0.93,-0.16,0.0,0.0,3.0,1.0,3.0,4.0,1.0,5.79,9.12,0.0,
24.532,85.14659560833107,87.34416397949323,-3.27,-0.99,-0.23,0.0,0.0,3.0,1.0,3.0,4.0,1.0,5.69,9.22,0.0,
24.557,85.14065956083311,87.37641639794931,-3.24,-0.93,-0.27,0.0,0.0,3.0,1.0,3.0,4.0,1.0,5.79,9.42,0.0,
24.581,85.19406595608332,87.37064163979494,-3.11,-0.72,-0.24,0.0,0.0,3.0,1.0,3.0,4.0,1.0,5.89,9.32,0.0,
24.605,85.19040659560834,87.3430641639795,-3.02,-1.28,-0.41,0.0,0.0,3.0,1.0,3.0,4.0,1.0,5.89,9.42,0.0,
24.63,85.19904065956084,87.28630641639796,-3.12,-1.59,-0.33,0.0,0.0,3.0,1.0,3.0,4.0,1.0,5.89,9.42,0.0,
24.653,85.19990406595609,87.3076306416398,-2.97,-1.07,-0.27,0.0,0.0,3.0,1.0,3.0,4.0,1.0,5.79,9.42,0.0,
24.678,85.17299040659562,87.32776306416397,-3.04,-1.06,-0.34,0.0,0.0,3.0,1.0,3.0,4.0,1.0,5.79,9.42,0.0,
24.701,85.15229904065957,87.3117763064164,-2.98,-1.11,-0.22,0.0,0.0,3.0,1.0,3.0,4.0,1.0,5.89,9.42,0.0,
24.726,85.16822990406597,87.31017763064165,-3.2,-0.82,-0.3,0.0,0.0,3.0,1.0,3.0,4.0,1.0,5.98,9.32,0.0,
24.75,85.1788229904066,87.37301776306415,-3.26,-0.64,-0.02,0.0,0.0,3.0,1.0,3.0,4.0,1.0,5.98,9.32,0.0,
24.774,85.19788229904067,87.3343017763064,-3.06,-0.61,0.08,0.0,0.0,3.0,1.0,3.0,4.0,1.0,5.98,9.42,0.0,
24.799,85.20878822990406,87.33943017763065,-3.15,-0.5,-0.05,0.0,0.0,3.0,1.0,3.0,4.0,1.0,5.98,9.52,0.0,
24.822,85.2188788229904,87.32194301776306,-2.99,-0.42,-0.07,0.0,0.0,3.0,1.0,3.0,4.0,1.0,5.98,9.52,0.0,
24.847,85.24688788229905,87.3201943017763,-3.0,-0.64,0.16,0.0,0.0,3.0,1.0,3.0,4.0,1.0,5.98,9.61,0.0,
24.87,85.2676887882299,87.30201943017762,-3.1,-0.96,0.05,0.0,0.0,3.0,1.0,3.0,4.0,1.0,6.08,9.71,0.0,
24.895,85.29676887882299,87.30920194301777,-3.15,-0.76,0.04,0.0,0.0,3.0,1.0,3.0,4.0,1.0,6.08,9.81,0.0,
24.919,85.3446768878823,87.30992019430178,-3.16,-0.9,-0.28,0.0,0.0,3.0,1.0,3.0,4.0,1.0,5.98,9.81,0.0,
24.943,85.34046768878824,87.33699201943018,-3.06,-1.19,-0.46,0.0,0.0,3.0,1.0,3.0,4.0,1.0,6.08,9.81,0.0,
24.967,85.36704676887884,87.330699201943,-3.22,-0.95,-0.24,0.0,0.0,3.0,1.0,3.0,4.0,1.0,6.08,9.91,0.0,
24.991,85.3967046768879,87.2940699201943,-3.15,-0.92,-0.35,0.0,0.0,3.0,1.0,3.0,4.0,1.0,6.08,9.91,0.0,
25.016,85.4086704676888,87.32640699201943,-3.18,-0.52,-0.89,0.0,0.0,3.0,1.0,3.0,4.0,1.0,6.18,10.01,0.0,
25.039,85.33786704676888,87.36564069920195,-2.82,-0.65,0.18,0.0,0.0,3.0,1.0,3.0,4.0,1.0,6.08,10.1,0.0,
25.064,85.3667867046769,87.37856406992019,-3.05,-0.76,-0.01,0.0,0.0,3.0,1.0,3.0,4.0,1.0,6.08,10.1,0.0,
25.089,85.33367867046769,87.39785640699203,-3.25,-0.68,-0.21,0.0,0.0,3.0,1.0,3.0,4.0,1.0,6.18,10.1,0.0,
25.112,85.38436786704676,87.4447856406992,-3.33,-1.65,-0.35,0.0,0.0,3.0,1.0,3.0,4.0,1.0,6.08,10.1,0.0,
25.137,85.43443678670468,87.44047856406992,-3.05,-0.98,-0.49,0.0,0.0,3.0,1.0,3.0,4.0,1.0,6.08,10.2,0.0,
25.161,85.38544367867047,87.42204785640699,-3.05,-1.45,-0.43,0.0,0.0,3.0,2.0,3.0,4.0,1.0,6.18,10.3,0.0,
25.185,85.39854436786706,87.38420478564069,-3.02,-1.49,-0.75,0.0,0.0,3.0,2.0,3.0,4.0,1.0,6.08,10.3,0.0,
25.209,85.39985443678671,87.38942047856406,-2.91,-1.35,-0.33,0.0,0.0,3.0,2.0,3.0,4.0,1.0,6.18,10.2,0.0,
25.234,85.46298544367868,87.3629420478564,-3.21,-1.02,-0.42,0.0,0.0,3.0,2.0,3.0,4.0,1.0,6.18,10.3,0.0,
25.257,85.50529854436788,87.39629420478565,-3.17,-1.32,-0.4,0.0,0.0,3.0,2.0,3.0,4.0,1.0,6.18,10.2,0.0,
25.282,85.49152985443679,87.38162942047856,-3.24,-1.31,-0.29,0.0,0.0,3.0,2.0,3.0,4.0,1.0,6.08,10.3,0.0,
25.307,85.54415298544369,87.34416294204786,-3.3,-1.08,-0.29,0.0,0.0,3.0,2.0,3.0,4.0,1.0,6.08,10.3,0.0,
25.33,85.57641529854438,87.32241629420477,-3.38,-1.11,-0.48,0.0,0.0,3.0,2.0,3.0,4.0,1.0,6.08,10.4,0.0,
25.355,85.48964152985444,87.34724162942047,-3.22,-1.16,-0.35,0.0,0.0,3.0,2.0,3.0,4.0,1.0,6.08,10.4,0.0,
25.379,85.48096415298545,87.35872416294204,-3.65,-1.21,-0.38,0.0,0.0,3.0,2.0,3.0,4.0,1.0,6.18,10.4,0.0,
25.403,85.48009641529855,87.3328724162942,-3.56,-0.79,-0.29,0.0,0.0,3.0,2.0,3.0,4.0,1.0,6.18,10.5,0.0,
25.427,85.48000964152986,87.33928724162942,-3.35,-0.19,-0.4,0.0,0.0,3.0,2.0,3.0,4.0,1.0,6.18,10.69,0.0,
25.452,85.435000964153,87.31292872416294,-3.37,-0.4,-0.4,0.0,0.0,3.0,2.0,3.0,4.0,1.0,6.18,10.89,0.0,
25.476,85.4485000964153,87.24729287241628,-3.24,-0.73,-0.49,0.0,0.0,3.0,2.0,3.0,4.0,1.0,6.28,11.09,0.0,
25.5,85.42285000964154,87.24972928724164,-3.33,-1.11,-0.96,0.0,0.0,3.0,2.0,3.0,4.0,1.0,6.38,11.48,0.0,
25.525,85.41128500096416,87.24097292872415,-3.56,-1.32,-1.1,0.0,0.0,3.0,2.0,3.0,4.0,1.0,6.28,11.58,0.0,
25.548,85.44612850009642,87.2400972928724,-3.6,-1.56,-0.93,0.0,0.0,4.0,3.0,3.0,4.0,1.0,6.38,11.87,0.0,
25.573,85.50361285000965,87.22200972928724,-3.7,-1.85,-1.12,0.0,0.0,4.0,3.0,3.0,4.0,1.0,6.38,11.97,0.0,
