time,pitch,roll,gyrx,gyry,gyrz,f1,f2,f3,f4,f5,f6,f7,g1,g2,g3
0.35,54.3,25.66,-52.0,9.0,14.0,0,0,0,0,0,0,0,0.20,0.00,0.39,
0.363,62.877,27.703,-62.0,19.0,13.0,0,0,0,0,0,0,0,0.29,0.00,0.29,
0.376,69.9807,30.400299999999998,-68.0,27.0,17.0,0,0,0,0,0,0,0,0.29,0.00,0.20,
0.39,76.61307,32.884029999999996,-72.0,31.0,21.0,0,0,0,0,0,0,0,0.20,0.00,0.20,
0.404,82.757307,35.472403,-71.0,21.0,22.0,0,0,0,0,0,0,0,0.20,0.00,0.10,
0.417,88.2587307,37.6302403,-67.0,16.0,21.0,0,0,0,0,0,0,0,0.20,0.00,0.20,
0.431,92.03987307,39.66402403,-57.0,1.0,21.0,0,0,0,0,0,0,0,0.10,0.00,0.39,
0.445,95.315987307,40.830402403,-45.0,0.0,18.0,0,0,0,0,0,0,0,0.10,0.00,0.39,
0.458,97.9745987307,41.640040240299996,-37.0,4.0,13.0,0,0,0,0,0,0,0,0.10,0.00,0.49,
0.472,100.40945987307,42.207004024030006,-36.0,8.0,10.0,0,0,0,0,0,0,0,0.29,0.00,0.49,
0.485,103.010945987307,42.371700402403,-40.0,8.0,10.0,0,0,0,0,0,0,0,0.29,0.00,0.49,
0.499,104.9630945987307,42.577170040240304,-45.0,3.0,15.0,0,0,0,0,0,0,0,0.29,0.00,0.49,
0.513,106.24730945987307,42.939717004024025,-47.0,1.0,18.0,0,0,0,0,0,0,0,0.29,0.00,0.49,
0.526,106.85273094598732,43.731971700402404,-44.0,0.0,19.0,0,0,0,0,0,0,0,0.29,0.00,0.49,
0.54,107.44427309459873,44.729197170040244,-38.0,0.0,22.0,0,0,0,0,0,0,0,0.20,0.00,0.49,
0.553,108.13342730945986,45.31491971700403,-30.0,0.0,21.0,0,0,0,0,0,0,0,0.20,0.00,0.69,
0.567,108.418342730946,45.31049197170041,-23.0,0.0,20.0,0,0,0,0,0,0,0,0.10,0.00,0.69,
0.58,108.0688342730946,44.89604919717004,-17.0,-2.0,15.0,0,0,0,0,0,0,0,0.10,0.00,0.59,
0.594,106.82788342730946,44.890604919717006,-15.0,-3.0,12.0,0,0,0,0,0,0,0,0.10,0.00,0.59,
0.608,105.47078834273094,45.0790604919717,-13.0,-1.0,12.0,0,0,0,0,0,0,0,0.20,0.00,0.69,
0.621,105.2720788342731,44.89990604919717,-9.0,-6.0,9.0,0,0,0,0,0,0,0,0.10,0.00,0.69,
0.634,105.45920788342731,44.43199060491972,-6.0,-6.0,3.0,0,0,0,0,0,0,0,0.00,0.00,0.69,
0.648,104.66792078834273,44.20519906049197,-4.0,-5.0,-2.0,0,0,0,0,0,0,0,0.00,0.00,0.69,
0.662,104.20179207883429,43.96651990604919,-2.0,-2.0,-5.0,0,0,0,0,0,0,0,0.00,0.00,0.69,
0.675,104.45217920788343,43.24065199060492,0.0,-1.0,-7.0,0,0,0,0,0,0,0,0.00,0.00,0.69,
0.689,105.48521792078833,42.42106519906049,4.0,-5.0,-11.0,0,0,0,0,0,0,0,0.10,0.00,0.78,
0.703,106.68652179207882,41.88010651990605,6.0,-10.0,-14.0,0,0,0,0,0,0,0,0.10,0.00,0.69,
0.716,107.88665217920789,41.6910106519906,7.0,-12.0,-11.0,0,0,0,0,0,0,0,0.20,0.00,0.49,
0.73,108.56466521792078,41.67210106519906,9.0,-9.0,-6.0,0,0,0,0,0,0,0,0.20,0.00,0.49,
0.744,109.38846652179208,41.508210106519904,10.0,-6.0,-3.0,0,0,0,0,0,0,0,0.20,0.00,0.49,
0.757,110.71284665217921,40.81682101065199,10.0,-3.0,0.0,0,0,0,0,0,0,0,0.29,0.00,0.39,
0.771,111.92528466521792,40.0096821010652,9.0,-7.0,0.0,0,0,0,0,0,0,0,0.39,0.00,0.39,
0.784,112.9375284665218,39.36196821010652,7.0,-8.0,0.0,0,0,0,0,0,0,0,0.29,0.00,0.39,
0.797,113.76775284665219,38.93719682101066,5.0,-6.0,0.0,0,0,0,0,0,0,0,0.29,0.00,0.39,
0.812,114.30977528466522,38.606719682101065,5.0,-3.0,0.0,0,0,0,0,0,0,0,0.20,0.00,0.39,
0.825,114.88597752846651,38.40267196821011,7.0,-1.0,-2.0,0,0,0,0,0,0,0,0.29,0.00,0.49,
0.838,115.41159775284665,38.058267196821014,9.0,1.0,-3.0,0,0,0,0,0,0,0,0.20,0.00,0.49,
0.851,115.59915977528468,37.5918267196821,9.0,1.0,-2.0,0,0,0,0,0,0,0,0.20,0.00,0.49,
0.865,115.50991597752846,37.25718267196821,8.0,1.0,-2.0,0,0,0,0,0,0,0,0.29,0.00,0.39,
0.878,115.38399159775285,37.09771826719682,6.0,2.0,1.0,0,0,0,0,0,0,0,0.20,0.00,0.49,
0.891,115.18239915977529,37.27077182671968,3.0,1.0,3.0,0,0,0,0,0,0,0,0.20,0.00,0.49,
0.905,115.01823991597753,37.53107718267197,1.0,3.0,7.0,0,0,0,0,0,0,0,0.20,0.00,0.59,
0.918,114.48882399159776,37.5571077182672,1.0,4.0,7.0,0,0,0,0,0,0,0,0.20,0.00,0.59,
0.931,113.84188239915977,37.42471077182672,0.0,2.0,4.0,0,0,0,0,0,0,0,0.29,0.00,0.49,
0.945,113.08418823991597,37.30347107718267,-2.0,4.0,4.0,0,0,0,0,0,0,0,0.20,0.00,0.69,
0.958,112.34241882399161,37.417347107718264,-4.0,1.0,2.0,0,0,0,0,0,0,0,0.10,0.00,0.69,
0.971,111.72824188239916,37.572734710771826,-5.0,3.0,1.0,0,0,0,0,0,0,0,0.10,0.00,0.69,
0.985,110.97382418823992,38.02927347107718,-5.0,2.0,0.0,0,0,0,1,0,0,0,0.20,0.00,0.59,
0.998,110.05238241882398,38.61492734710772,-4.0,4.0,1.0,0,0,0,1,0,0,0,0.20,0.00,0.59,
1.011,108.9792382418824,39.150492734710774,-3.0,3.0,3.0,0,0,0,1,0,0,0,0.29,0.00,0.59,
1.025,108.09792382418824,39.55504927347108,-2.0,0.0,2.0,0,0,0,1,0,0,0,0.20,0.00,0.69,
1.039,107.61379238241882,39.61350492734711,-2.0,0.0,3.0,0,0,0,0,0,0,0,0.20,0.00,0.69,
1.052,106.9713792382419,39.71835049273471,-4.0,-4.0,1.0,0,0,0,0,0,0,0,0.20,0.00,0.69,
1.065,106.46613792382419,39.85483504927347,-4.0,-3.0,0.0,0,0,0,1,0,0,0,0.10,0.00,0.69,
1.079,106.37961379238241,40.04848350492735,-3.0,-2.0,-2.0,0,0,0,1,0,0,0,0.20,0.00,0.69,
1.093,106.54196137923824,40.22984835049274,-2.0,-1.0,-4.0,0,0,0,1,0,0,0,0.20,0.00,0.69,
1.106,106.63919613792383,40.463984835049274,-2.0,-2.0,-5.0,0,0,0,1,0,0,0,0.20,0.00,0.69,
1.12,106.60391961379239,40.72139848350493,-4.0,-2.0,-3.0,0,0,0,1,0,0,0,0.20,0.00,0.69,
1.134,106.98739196137923,40.6931398483505,-5.0,-3.0,-1.0,0,0,0,1,0,0,0,0.20,0.00,0.69,
1.147,107.35873919613793,40.67231398483505,-3.0,-4.0,-1.0,0,0,0,1,0,0,0,0.20,0.00,0.59,
1.161,107.70187391961379,40.71523139848351,-2.0,-4.0,-2.0,0,0,0,1,0,0,0,0.20,0.00,0.59,
1.174,108.37518739196138,40.665523139848354,0.0,-3.0,-3.0,0,0,0,1,0,0,0,0.20,0.00,0.69,
1.188,108.97351873919615,40.65155231398484,1.0,0.0,-3.0,0,0,0,1,0,0,0,0.20,0.00,0.59,
1.202,109.53735187391962,40.47915523139849,1.0,0.0,-1.0,0,0,0,1,0,0,0,0.20,0.00,0.59,
1.215,110.05273518739196,40.20991552313985,0.0,-2.0,-1.0,0,0,0,1,0,0,0,0.10,0.00,0.59,
1.228,110.42827351873919,39.83199155231399,0.0,-2.0,-1.0,0,0,0,1,0,0,0,0.20,0.00,0.59,
1.242,110.57382735187392,39.5331991552314,0.0,-1.0,-2.0,0,0,0,1,0,0,0,0.10,0.00,0.39,
1.256,110.53438273518739,39.46731991552314,0.0,-1.0,-3.0,0,0,0,0,0,0,0,0.20,0.00,0.59,
1.269,110.37743827351873,39.58673199155231,1.0,0.0,-2.0,0,0,0,1,0,0,0,0.20,0.00,0.69,
1.283,110.20874382735188,39.679673199155225,1.0,0.0,0.0,0,0,0,0,0,0,0,0.10,0.00,0.49,
1.296,110.04787438273519,39.54496731991553,1.0,-2.0,0.0,0,0,0,0,0,0,0,0.20,0.00,0.49,
1.309,109.77978743827352,39.387496731991554,0.0,-5.0,-1.0,0,0,0,1,0,0,0,0.20,0.00,0.59,
1.323,109.49197874382735,39.29974967319915,-2.0,-4.0,-2.0,0,0,0,1,0,0,0,0.20,0.00,0.59,
1.337,109.43619787438274,39.13797496731991,-3.0,-2.0,-3.0,0,0,0,1,0,0,0,0.20,0.00,0.59,
1.35,109.54761978743826,39.10379749673199,-3.0,-3.0,-6.0,0,0,0,1,0,0,0,0.10,0.00,0.59,
1.363,109.85576197874381,39.0283797496732,-3.0,-1.0,-7.0,0,0,0,1,0,0,0,0.10,0.00,0.59,
1.378,110.12957619787439,38.97583797496732,-2.0,-2.0,-5.0,0,0,0,0,0,0,0,0.20,0.00,0.59,
1.391,110.21995761978744,38.925583797496735,-2.0,-2.0,-3.0,0,0,0,0,0,0,0,0.20,0.00,0.69,
1.404,110.25599576197875,38.812558379749674,-3.0,-2.0,-1.0,0,0,0,0,0,0,0,0.10,0.00,0.59,
1.419,110.45759957619788,38.76525583797497,-4.0,-1.0,0.0,0,0,0,0,0,0,0,0.20,0.00,0.59,
1.432,110.65775995761979,38.71552558379749,-6.0,-1.0,1.0,0,0,0,0,0,0,0,0.20,0.00,0.49,
1.445,110.62377599576199,38.80955255837975,-5.0,0.0,0.0,0,0,0,0,0,0,0,0.29,0.00,0.39,
1.459,110.6653775995762,38.90895525583798,-3.0,0.0,-1.0,0,0,0,0,0,0,0,0.29,0.00,0.49,
1.473,110.62453775995762,39.0628955255838,-1.0,0.0,-1.0,0,0,0,0,0,0,0,0.29,0.00,0.59,
1.486,110.82745377599576,39.04228955255838,-1.0,0.0,-2.0,0,0,0,0,0,0,0,0.29,0.00,0.69,
1.5,111.01874537759959,39.049228955255835,-1.0,0.0,-2.0,0,0,0,0,0,0,0,0.20,0.00,0.59,
1.513,111.11887453775995,39.085922895525584,-3.0,0.0,-1.0,0,0,0,0,0,0,0,0.20,0.00,0.59,
1.526,110.86788745377599,39.278592289552556,-4.0,1.0,-1.0,0,0,0,0,0,0,0,0.20,0.00,0.49,
1.541,110.8697887453776,39.22585922895526,-3.0,2.0,-2.0,0,0,0,0,0,0,0,0.10,0.00,0.49,
1.554,110.55497887453777,39.35558592289553,-1.0,1.0,-3.0,0,0,0,0,0,0,0,0.10,0.00,0.49,
1.567,110.41549788745378,39.440558592289555,0.0,0.0,-4.0,0,0,0,0,0,0,0,0.10,0.00,0.49,
1.581,110.34754978874538,39.53005585922895,1.0,0.0,-2.0,0,0,0,0,0,0,0,0.10,0.00,0.69,
1.594,110.04375497887453,39.71000558592289,0.0,-1.0,0.0,0,0,0,0,0,0,0,0.20,0.00,0.59,
1.608,109.80637549788746,39.92600055859229,-1.0,-1.0,2.0,0,0,0,0,0,0,0,0.20,0.00,0.49,
1.622,109.63863754978874,40.02860005585923,0.0,-1.0,3.0,0,0,0,0,0,0,0,0.10,0.00,0.49,
1.635,109.50486375497887,40.020860005585924,0.0,0.0,0.0,0,0,0,0,0,0,0,0.10,0.00,0.49,
1.648,109.49148637549789,39.85808600055859,0.0,1.0,0.0,0,0,0,0,0,0,0,0.10,0.00,0.49,
1.661,109.34614863754979,39.697808600055865,0.0,1.0,-2.0,0,0,0,0,0,0,0,0.20,0.00,0.49,
1.675,109.42161486375498,39.618780860005586,-1.0,0.0,-3.0,0,0,0,0,0,0,0,0.10,0.00,0.49,
1.688,109.4651614863755,39.54787808600056,-1.0,-1.0,-3.0,0,0,0,0,0,0,0,0.10,0.00,0.49,
1.702,109.30751614863755,39.57678780860005,-1.0,0.0,-3.0,0,0,0,0,0,0,0,0.20,0.00,0.59,
1.716,109.24675161486375,39.59767878086001,-3.0,0.0,-3.0,0,0,0,0,0,0,0,0.29,0.00,0.59,
1.729,109.18667516148639,39.563767878086004,-4.0,0.0,0.0,0,0,0,0,0,0,0,0.29,0.00,0.59,
1.742,109.30666751614862,39.36237678780861,-5.0,-2.0,0.0,0,0,0,0,0,0,0,0.20,0.00,0.49,
1.756,109.48966675161488,39.234237678780865,-5.0,-3.0,-1.0,0,0,0,0,0,0,0,0.20,0.00,0.49,
1.77,109.71496667516148,39.203423767878085,-3.0,-4.0,-2.0,0,0,0,0,0,0,0,0.20,0.00,0.49,
1.783,109.79149666751614,39.26334237678781,-2.0,0.0,-2.0,0,0,0,0,0,0,0,0.29,0.00,0.49,
1.797,109.63714966675161,39.34133423767878,-2.0,1.0,-3.0,0,0,0,0,0,0,0,0.29,0.00,0.59,
1.811,109.59471496667516,39.358133423767875,-3.0,1.0,-1.0,0,0,0,0,0,0,0,0.20,0.00,0.59,
1.824,109.68047149666752,39.17081334237679,-4.0,0.0,-1.0,0,0,0,0,0,0,0,0.20,0.00,0.49,
1.838,109.72504714966675,39.134081334237685,-5.0,-3.0,-2.0,0,0,0,0,0,0,0,0.20,0.00,0.39,
1.851,109.92750471496667,39.10340813342377,-4.0,-2.0,-3.0,0,0,0,0,0,0,0,0.20,0.00,0.49,
1.865,110.05575047149667,39.127340813342386,-3.0,-2.0,-4.0,0,0,0,0,0,0,0,0.20,0.00,0.59,
1.879,110.05957504714966,39.300734081334234,-3.0,1.0,-3.0,0,0,0,0,0,0,0,0.10,0.00,0.59,
1.892,109.92495750471497,39.588073408133425,-2.0,2.0,-1.0,0,0,0,0,0,0,0,0.20,0.00,0.59,
1.905,109.75849575047148,39.67080734081335,-1.0,2.0,0.0,0,0,0,0,0,0,0,0.20,0.00,0.49,
1.92,109.72384957504715,39.751080734081334,-1.0,-1.0,0.0,0,0,0,0,0,0,0,0.20,0.00,0.59,
1.933,109.64838495750472,39.82210807340813,0.0,-3.0,0.0,0,0,0,0,0,0,0,0.20,0.00,0.59,
1.946,109.56883849575047,39.80221080734081,0.0,-4.0,0.0,0,0,0,0,0,0,0,0.20,0.00,0.49,
1.959,109.67788384957505,39.75522108073408,0.0,-4.0,-1.0,0,0,0,0,0,0,0,0.20,0.00,0.59,
1.973,109.73378838495749,39.750522108073405,0.0,-2.0,0.0,0,0,0,0,0,0,0,0.20,0.00,0.59,
1.986,109.85637883849576,39.687052210807344,0.0,-1.0,-1.0,0,0,0,1,0,0,0,0.20,0.00,0.59,
2.0,110.01263788384958,39.61770522108073,0.0,-1.0,-3.0,0,0,0,0,0,0,0,0.20,0.00,0.59,
2.014,110.19926378838497,39.64677052210808,0.0,0.0,-3.0,0,0,0,0,0,0,0,0.20,0.00,0.59,
2.027,110.38892637883849,39.77567705221081,0.0,0.0,-2.0,0,0,0,0,0,0,0,0.20,0.00,0.59,
2.04,110.53389263788385,39.77056770522108,0.0,2.0,-1.0,0,0,0,0,0,0,0,0.29,0.00,0.49,
2.054,110.6653892637884,39.6710567705221,0.0,0.0,0.0,0,0,0,1,0,0,0,0.20,0.00,0.59,
2.067,110.64253892637885,39.535105677052215,1.0,-1.0,0.0,0,0,0,1,0,0,0,0.20,0.00,0.69,
2.08,110.56825389263788,39.458510567705225,2.0,-2.0,0.0,0,0,0,1,0,0,0,0.29,0.00,0.59,
2.095,110.81282538926379,39.22585105677052,2.0,-1.0,0.0,0,0,0,1,0,0,0,0.29,0.00,0.49,
2.108,110.89128253892638,39.22058510567705,0.0,0.0,0.0,0,0,0,1,0,0,0,0.29,0.00,0.59,
2.121,110.71012825389263,39.30105851056771,-1.0,1.0,0.0,0,0,0,1,0,0,0,0.10,0.00,0.59,
2.135,110.54801282538926,39.30910585105678,-2.0,1.0,0.0,0,0,0,1,0,0,0,0.10,0.00,0.49,
2.148,110.45980128253892,39.38191058510568,-2.0,1.0,-1.0,0,0,0,1,0,0,0,0.29,0.00,0.39,
2.161,110.47798012825389,39.38919105851057,-1.0,0.0,-1.0,0,0,0,1,0,0,0,0.20,0.00,0.49,
2.174,110.26379801282538,39.524919105851055,0.0,0.0,-2.0,0,0,0,1,0,0,0,0.20,0.00,0.49,
2.189,109.86437980128252,39.7634919105851,-1.0,0.0,-1.0,0,0,0,1,0,0,0,0.29,0.00,0.49,
2.202,109.60843798012824,39.76934919105852,-1.0,1.0,0.0,0,0,0,1,0,0,0,0.29,0.00,0.49,
2.215,109.42984379801281,39.76093491910585,-2.0,0.0,-1.0,0,0,0,1,0,0,0,0.20,0.00,0.49,
2.229,109.32198437980128,39.850093491910584,-2.0,0.0,-1.0,0,0,0,1,0,0,0,0.20,0.00,0.59,
2.242,109.25719843798012,40.02100934919106,-1.0,0.0,-2.0,0,0,0,1,0,0,0,0.20,0.00,0.59,
2.256,109.16071984379802,40.26310093491911,0.0,0.0,-3.0,0,0,0,0,0,0,0,0.20,0.00,0.69,
2.27,109.1060719843798,40.38631009349191,3.0,0.0,-2.0,0,0,0,0,0,0,0,0.20,0.00,0.69,
2.283,109.28960719843798,40.29963100934919,3.0,-1.0,-4.0,0,0,0,0,0,0,0,0.10,0.00,0.69,
2.296,109.4249607198438,40.344963100934926,2.0,0.0,-3.0,0,0,0,1,0,0,0,0.20,0.00,0.69,
2.31,109.43849607198437,40.448496310093496,0.0,0.0,-3.0,0,0,0,0,0,0,0,0.29,0.00,0.59,
2.323,109.84484960719843,40.52184963100935,0.0,1.0,-3.0,0,0,0,1,0,0,0,0.20,0.00,0.59,
2.336,110.11948496071984,41.006184963100935,4.0,1.0,-4.0,0,0,0,1,0,0,0,0.29,0.00,0.49,
2.351,110.92094849607199,41.47761849631009,12.0,4.0,-9.0,0,0,0,1,0,0,0,0.20,0.00,0.49,
2.364,111.94609484960719,41.947761849631014,21.0,5.0,-12.0,0,0,0,1,0,0,0,0.20,0.00,0.49,
2.377,112.90360948496073,42.696776184963106,27.0,6.0,-13.0,0,0,0,1,0,0,0,0.29,0.00,0.59,
2.391,113.68336094849607,44.310677618496314,32.0,9.0,-9.0,0,0,0,0,0,0,0,0.29,0.00,0.59,
2.405,114.00433609484962,46.62306776184963,39.0,13.0,-2.0,0,0,0,0,1,0,0,0.29,0.00,0.49,
2.418,114.07243360948496,47.97930677618496,51.0,11.0,0.0,0,0,0,0,1,0,0,0.20,0.00,0.39,
2.432,113.8632433609485,48.1689306776185,62.0,5.0,-2.0,0,0,0,1,1,0,0,0.20,0.00,0.29,
2.445,113.07732433609485,49.15989306776185,65.0,-6.0,-4.0,0,0,0,0,1,0,0,0.10,0.00,0.29,
2.459,112.17973243360949,51.39198930677618,62.0,-6.0,-1.0,0,0,0,0,1,0,0,0.20,0.00,0.29,
2.472,112.42297324336094,53.46919893067762,61.0,-2.0,-4.0,0,0,0,1,1,0,0,0.29,0.00,0.20,
2.486,112.33929732433609,56.169919893067764,64.0,-3.0,-17.0,0,0,0,0,1,0,0,0.20,0.00,0.20,
2.5,112.96992973243361,59.976991989306775,71.0,-1.0,-32.0,0,0,0,1,1,0,0,0.10,0.00,0.20,
2.513,113.84299297324337,64.56069919893068,83.0,2.0,-52.0,0,0,0,0,1,0,0,0.10,0.00,0.20,
2.527,115.05529929732434,68.68206991989307,96.0,14.0,-67.0,0,0,0,0,1,0,0,0.10,0.00,0.20,
2.541,115.75252992973243,72.25320699198932,106.0,22.0,-81.0,0,0,0,0,1,0,0,0.20,0.00,0.10,
2.554,116.65025299297324,76.25532069919893,111.0,30.0,-88.0,0,0,0,1,1,0,0,0.10,0.00,0.00,
2.569,117.09102529929733,79.8505320699199,116.0,40.0,-78.0,0,0,0,1,1,0,0,0.10,0.00,0.00,
2.582,117.33310252992973,81.893053206992,122.0,36.0,-71.0,0,0,0,1,1,0,0,0.20,0.00,0.00,
2.596,116.67331025299296,82.5473053206992,128.0,35.0,-66.0,0,0,0,1,1,0,0,0.20,0.00,0.00,
2.61,114.93333102529928,83.21573053206993,132.0,33.0,-55.0,0,0,0,1,1,0,0,0.10,0.00,0.00,
2.624,112.24833310252994,84.83957305320699,129.0,25.0,-27.0,0,0,0,1,1,0,0,0.10,0.00,0.00,
2.637,109.34283331025298,86.6129573053207,127.0,9.0,5.0,0,0,0,1,1,0,0,0.10,0.00,0.00,
2.651,106.6762833310253,87.65429573053207,128.0,-9.0,19.0,0,0,0,1,1,0,0,0.10,0.00,0.00,
2.665,104.32162833310254,88.32542957305321,135.0,-40.0,26.0,0,0,0,1,1,0,0,0.00,0.00,0.00,
2.678,103.35716283331024,87.78954295730533,137.0,-57.0,19.0,0,0,0,1,1,0,0,0.00,0.00,0.00,
2.693,102.56771628333102,85.71095429573053,130.0,-52.0,4.0,0,0,0,1,1,0,0,0.00,0.00,0.00,
2.706,102.0567716283331,83.60409542957305,120.0,-56.0,-16.0,0,0,0,1,1,0,0,0.00,0.00,0.00,
2.719,102.40167716283331,81.9714095429573,107.0,-37.0,-24.0,0,0,0,1,1,0,0,0.00,0.00,0.00,
2.734,103.47116771628333,81.60114095429574,95.0,-23.0,-26.0,0,0,0,1,1,0,0,0.00,0.00,0.00,
2.748,104.82011677162834,81.77111409542958,87.0,-25.0,-25.0,0,0,0,1,1,0,0,0.00,0.00,0.00,
2.761,106.59301167716283,81.99511140954296,79.0,-32.0,-27.0,0,0,0,1,1,0,0,0.00,0.00,0.00,
2.775,108.06630116771629,82.8545111409543,72.0,-34.0,-21.0,0,0,0,1,1,0,0,0.10,0.00,0.00,
2.789,109.93263011677163,83.97545111409542,64.0,-32.0,-10.0,0,0,0,1,1,0,0,0.20,0.00,0.00,
2.802,111.36126301167715,83.87154511140955,58.0,-26.0,-9.0,0,0,0,0,1,0,0,0.20,0.00,0.00,
2.817,112.14312630116771,83.25815451114094,56.0,-13.0,-12.0,0,0,0,0,1,0,0,0.10,0.00,0.00,
2.83,112.71631263011678,82.3238154511141,51.0,-5.0,-16.0,0,0,0,0,1,0,0,0.00,0.00,0.00,
2.844,113.68263126301167,80.70038154511141,44.0,8.0,-20.0,0,0,0,1,1,0,0,0.10,0.00,0.00,
2.857,112.98726312630116,79.95303815451115,36.0,19.0,-19.0,0,0,0,0,2,0,0,0.20,0.00,0.00,
2.871,112.3867263126301,79.44630381545112,28.0,21.0,-13.0,0,0,0,0,2,0,0,0.20,0.00,0.00,
2.885,111.51667263126302,79.89963038154511,24.0,24.0,-9.0,0,0,0,0,2,0,0,0.39,0.00,0.00,
2.898,110.0526672631263,82.68996303815452,24.0,13.0,9.0,0,0,0,0,2,0,0,0.49,0.00,0.00,
2.912,109.78026672631263,84.88599630381546,21.0,17.0,10.0,0,0,0,0,2,0,0,0.49,0.00,0.00,
2.926,108.65502667263127,85.47459963038155,28.0,27.0,11.0,0,0,0,0,2,0,0,0.39,0.00,0.00,
2.939,107.75050266726313,85.64145996303814,33.0,16.0,-7.0,0,0,0,0,2,0,0,0.49,0.00,0.00,
2.953,106.31905026672631,85.82014599630381,36.0,6.0,-18.0,0,0,0,0,2,0,0,0.59,0.00,0.10,
2.966,105.92390502667263,86.12601459963038,36.0,3.0,-33.0,0,0,0,0,2,0,0,0.59,0.00,0.29,
2.98,106.39739050266726,93.02360145996303,65.0,-61.0,-70.0,0,0,0,0,2,0,0,0.69,0.00,0.29,
2.994,107.76773905026673,94.97336014599631,28.0,-200.0,63.0,0,0,0,0,2,0,1,0.49,4.32,0.20,
3.008,101.68577390502668,88.42733601459963,4.0,-66.0,-43.0,0,0,0,0,2,0,0,0.00,18.93,2.94,
3.021,105.32557739050267,95.59373360145997,3.0,-24.0,-37.0,0,0,0,0,1,0,0,0.00,46.40,4.61,
3.036,104.15955773905027,99.460373360146,-47.0,50.0,-39.0,0,0,0,0,1,0,0,0.00,49.83,2.55,
3.049,104.46595577390502,103.14103733601459,-32.0,14.0,26.0,0,0,0,0,1,0,0,0.00,35.71,0.39,
3.063,105.5045955773905,99.92710373360146,2.0,-28.0,45.0,0,0,0,0,1,0,0,0.00,29.92,0.00,
3.077,109.84745955773904,93.56671037336014,29.0,-37.0,35.0,0,0,0,0,1,0,0,0.00,28.84,0.00,
3.091,108.0047459557739,87.47667103733602,21.0,0.0,20.0,0,0,0,0,1,0,0,0.00,32.86,0.49,
3.104,107.23547459557739,87.58766710373361,30.0,-16.0,-20.0,0,0,0,0,1,0,0,0.00,36.79,0.88,
3.118,106.45654745955774,91.58576671037336,29.0,17.0,-2.0,0,0,0,0,1,0,0,0.00,41.50,1.47,
3.132,105.24465474595577,93.39857667103733,13.0,-4.0,-3.0,0,0,0,0,1,0,1,0.00,44.34,1.86,
3.145,105.33946547459557,94.63285766710372,9.0,13.0,-2.0,0,0,0,0,2,0,1,0.00,44.05,2.55,
3.16,105.92494654745954,95.44928576671037,4.0,22.0,0.0,0,0,0,0,2,0,1,0.00,40.71,3.04,
3.173,107.00049465474595,96.24192857667104,0.0,7.0,-5.0,0,0,0,0,2,0,1,0.00,37.28,3.73,
3.186,107.2250494654746,96.43819285766709,0.0,10.0,1.0,0,0,0,0,1,0,1,0.00,35.02,3.83,
3.2,107.29250494654745,96.21481928576671,0.0,8.0,-4.0,0,0,0,1,2,0,1,0.00,34.04,3.92,
3.214,107.48825049465475,95.86848192857667,0.0,12.0,-4.0,0,0,0,0,2,0,1,0.00,33.84,4.22,
3.227,107.40882504946548,95.72584819285765,1.0,13.0,-8.0,0,0,0,0,2,0,1,0.00,33.55,4.41,
3.24,107.08588250494654,96.31458481928577,1.0,11.0,-6.0,0,0,0,0,1,0,1,0.00,32.77,4.91,
3.255,106.82858825049466,97.36345848192857,-6.0,7.0,-1.0,0,0,0,0,1,0,1,0.00,31.39,5.00,
3.268,106.71285882504947,99.05234584819286,-16.0,-3.0,3.0,0,0,0,0,1,0,0,0.00,28.15,5.00,
3.282,107.08828588250495,99.89623458481928,-26.0,-3.0,5.0,0,0,0,0,0,0,0,0.00,26.09,4.91,
3.296,107.4318285882505,99.07162345848194,-29.0,1.0,-6.0,0,0,0,0,0,0,0,0.00,23.74,3.92,
3.309,108.97818285882506,100.7351623458482,-15.0,-3.0,-31.0,0,0,0,0,0,0,0,0.00,21.58,3.34,
3.323,110.7618182858825,103.32251623458481,-4.0,16.0,-48.0,0,0,0,0,0,0,0,0.00,17.76,2.94,
3.337,111.23718182858825,103.50925162345848,2.0,6.0,-49.0,0,0,0,0,0,0,0,0.00,16.19,2.65,
3.351,110.07871818285882,99.90992516234586,3.0,8.0,-43.0,0,0,0,0,0,0,0,0.00,15.79,2.94,
3.364,108.77487181828587,94.36599251623458,0.0,0.0,-17.0,0,0,0,0,1,0,1,0.00,16.87,3.43,
3.378,108.53648718182859,90.78759925162345,0.0,19.0,-17.0,0,0,0,0,1,0,1,0.00,19.23,4.12,
3.392,109.54764871818286,93.00375992516234,14.0,31.0,-12.0,0,0,0,0,1,0,1,0.00,23.35,4.71,
3.405,110.9357648718183,97.06837599251624,7.0,-14.0,-3.0,0,0,0,0,1,0,1,0.00,22.37,4.51,
3.42,110.65157648718183,97.93383759925163,0.0,-2.0,1.0,0,0,0,0,1,0,1,0.00,20.31,4.41,
3.433,110.13715764871819,97.03038375992517,4.0,-4.0,4.0,0,0,0,0,1,0,1,0.00,18.44,4.71,
3.446,110.03171576487182,96.43603837599252,3.0,2.0,2.0,0,0,0,0,1,0,1,0.00,16.78,5.10,
3.461,109.88617157648719,96.61960383759924,1.0,0.0,-4.0,0,0,0,0,1,0,1,0.00,16.58,5.49,
3.474,109.84461715764873,96.87196038375993,1.0,1.0,0.0,0,0,0,0,1,0,1,0.00,16.68,5.79,
3.487,109.73246171576487,96.87919603837598,1.0,-4.0,-1.0,0,0,0,0,1,0,1,0.00,17.07,5.89,
3.502,109.45124617157649,97.0959196038376,1.0,-4.0,0.0,0,0,0,0,1,0,1,0.00,18.15,5.98,
3.515,109.21612461715765,97.23459196038377,0.0,-2.0,0.0,0,0,0,0,1,0,1,0.00,18.34,6.08,
3.528,108.93161246171577,97.23045919603838,-1.0,0.0,-2.0,0,0,0,0,1,0,1,0.00,18.25,6.18,
3.543,108.63316124617157,97.35604591960384,0.0,0.0,-3.0,0,0,0,0,1,0,1,0.00,17.95,6.28,
3.556,108.58531612461715,97.46760459196038,0.0,0.0,-2.0,0,0,0,0,1,0,1,0.00,17.66,6.38,
3.569,108.85053161246172,97.67676045919605,0.0,0.0,-1.0,0,0,0,0,1,0,1,0.00,17.56,6.57,
3.584,109.02105316124619,97.79667604591961,0.0,-2.0,-2.0,0,0,0,0,1,0,1,0.00,17.27,6.87,
3.597,109.10110531612462,97.83566760459198,-1.0,-4.0,-3.0,0,0,0,0,1,0,1,0.00,16.97,7.16,
3.611,108.89311053161246,98.0915667604592,-2.0,-5.0,-3.0,0,0,0,0,1,0,1,0.00,16.58,7.16,
3.624,108.72831105316124,98.02715667604592,-2.0,-5.0,-3.0,0,0,0,0,1,0,1,0.00,15.79,7.16,
3.639,108.69383110531612,97.99371566760459,-3.0,-6.0,-5.0,0,0,0,0,1,0,1,0.00,15.30,7.26,
3.652,108.52838311053162,97.78337156676047,-2.0,-6.0,-4.0,0,0,0,0,1,0,1,0.00,14.52,7.26,
3.666,108.46683831105315,97.61833715667605,-1.0,-5.0,-4.0,0,0,0,0,1,0,1,0.00,13.93,7.26,
3.68,108.40668383110531,97.77283371566762,0.0,-5.0,-3.0,0,0,0,0,1,0,1,0.00,13.05,7.26,
3.694,108.31066838311052,97.77928337156678,0.0,-3.0,-3.0,0,0,0,0,1,0,1,0.00,12.36,7.26,
3.707,108.09406683831104,97.77092833715668,1.0,-2.0,-3.0,0,0,0,0,1,0,2,0.00,11.77,6.97,
3.721,107.9734066838311,97.95909283371567,1.0,-1.0,-3.0,0,0,0,0,1,0,2,0.00,11.18,6.87,
3.735,108.0603406683831,98.93190928337157,0.0,-5.0,2.0,0,0,0,0,1,0,1,0.00,9.91,6.87,
3.748,108.40203406683831,99.06519092833716,-1.0,-1.0,1.0,0,0,0,0,1,0,1,0.00,9.52,6.87,
3.762,108.61620340668382,98.82651909283372,0.0,1.0,-3.0,0,0,0,0,1,0,1,0.00,9.03,6.87,
3.776,109.00662034066838,98.78465190928337,1.0,3.0,-8.0,0,0,0,0,1,0,1,0.00,8.44,6.77,
3.789,108.78466203406684,98.18646519092835,0.0,5.0,-9.0,0,0,0,1,1,0,1,0.00,7.95,6.77,
3.803,108.02446620340669,97.26264651909284,0.0,3.0,-6.0,0,0,0,0,1,0,1,0.00,7.06,6.87,
3.816,107.09344662034066,96.49526465190928,1.0,2.0,-3.0,0,0,0,1,1,0,1,0.10,6.87,7.36,
3.83,107.00034466203405,97.12052646519093,2.0,9.0,-3.0,0,0,0,0,1,0,2,0.20,7.16,7.55,
3.844,107.22503446620341,97.9120526465191,-1.0,8.0,-2.0,0,0,0,0,1,0,2,0.10,7.46,7.65,
3.857,107.62550344662034,98.47720526465191,-3.0,3.0,0.0,0,0,0,0,1,0,2,0.10,8.04,7.75,
3.871,108.08855034466204,98.3897205264652,-3.0,1.0,0.0,0,0,0,1,1,0,2,0.00,8.34,7.75,
3.885,108.3418550344662,98.20097205264653,-3.0,0.0,-1.0,0,0,0,1,1,0,2,0.00,8.34,7.65,
3.898,108.40318550344662,98.22709720526467,-4.0,1.0,-1.0,0,0,0,0,1,0,2,0.00,8.34,7.46,
3.912,108.40931855034466,98.42770972052647,-5.0,0.0,-1.0,0,0,0,0,1,0,2,0.00,8.63,7.36,
3.926,108.49093185503448,98.50177097205265,-5.0,-1.0,0.0,0,0,0,0,1,0,2,0.00,9.03,7.26,
3.939,108.59809318550344,98.51817709720525,-4.0,-2.0,0.0,0,0,0,0,1,0,1,0.00,9.71,6.97,
3.953,108.59080931855036,98.41181770972052,-4.0,-2.0,0.0,0,0,0,0,1,0,1,0.00,10.40,6.87,
3.966,108.40108093185503,98.27518177097207,-3.0,-1.0,-1.0,0,0,0,0,1,0,1,0.00,10.99,6.77,
3.981,108.2291080931855,98.20751817709721,-2.0,0.0,-2.0,0,0,0,0,1,0,1,0.00,11.67,6.77,
3.994,108.13091080931855,98.27275181770972,-2.0,0.0,-1.0,0,0,0,0,1,0,1,0.00,11.67,6.57,
4.007,108.28309108093185,98.28827518177098,-2.0,0.0,0.0,0,0,0,0,1,0,1,0.00,11.38,6.57,
4.022,108.54130910809317,98.0378275181771,-2.0,0.0,-2.0,0,0,0,0,1,0,1,0.00,11.18,6.57,
4.035,108.64813091080931,97.99478275181771,-2.0,0.0,-4.0,0,0,0,0,1,0,1,0.00,10.79,6.47,
4.049,108.66781309108093,98.01747827518177,-3.0,0.0,-4.0,0,0,0,0,1,0,1,0.00,10.79,6.47,
4.063,108.50778130910808,98.37074782751817,-3.0,0.0,-3.0,0,0,0,0,1,0,1,0.00,10.89,6.47,
4.077,108.41077813091081,98.5050747827518,-4.0,-1.0,-1.0,0,0,0,0,1,0,1,0.00,11.09,6.57,
4.09,108.38307781309108,98.41050747827518,-4.0,-1.0,-2.0,0,0,0,0,1,0,1,0.00,11.58,6.57,
4.105,108.4433077813091,98.24805074782753,-4.0,-1.0,-2.0,0,0,0,0,1,0,1,0.00,11.87,6.67,
4.118,108.4853307781309,97.99780507478275,-3.0,-1.0,-3.0,0,0,0,0,1,0,1,0.00,12.16,6.77,
4.132,108.46253307781308,97.92778050747827,-2.0,-1.0,-5.0,0,0,0,1,1,0,1,0.00,12.36,6.87,
4.146,108.39725330778131,97.99277805074783,-2.0,-1.0,-5.0,0,0,0,1,1,0,1,0.00,12.65,6.97,
4.16,108.28272533077812,98.42227780507478,-2.0,-2.0,-3.0,0,0,0,1,1,0,1,0.00,12.65,6.97,
4.173,108.18127253307782,98.44722778050748,-2.0,-2.0,-1.0,0,0,0,1,1,0,1,0.00,12.75,7.06,
4.188,108.09012725330778,98.34172277805075,-2.0,-2.0,-1.0,0,0,0,1,1,0,1,0.00,12.85,7.26,
4.201,108.10801272533078,98.29517227780508,-2.0,0.0,0.0,0,0,0,1,1,0,1,0.00,12.85,7.26,
4.215,108.15480127253306,98.26351722778051,-2.0,0.0,-1.0,0,0,0,1,1,0,1,0.00,12.85,7.26,
4.229,108.11448012725332,98.28735172277806,-2.0,-1.0,-1.0,0,0,0,1,1,0,1,0.00,12.75,7.36,
4.242,108.04744801272534,98.28973517227782,-2.0,0.0,0.0,0,0,0,1,1,0,1,0.00,12.75,7.26,
4.256,108.00474480127254,98.22697351722778,-1.0,0.0,0.0,0,0,0,1,1,0,1,0.00,12.85,7.36,
4.27,108.01847448012725,98.20269735172279,-1.0,0.0,-1.0,0,0,0,1,1,0,1,0.00,12.95,7.36,
4.284,108.05584744801273,98.24526973517227,-1.0,0.0,0.0,0,0,0,1,1,0,1,0.00,12.85,7.16,
4.297,108.09558474480126,98.28552697351724,-1.0,0.0,-1.0,0,0,0,1,1,0,1,0.00,12.85,7.36,
4.311,108.19855847448012,98.35255269735173,-1.0,0.0,-1.0,0,0,0,1,1,0,1,0.00,12.85,7.36,
4.325,108.190855847448,98.41325526973517,-1.0,0.0,-1.0,0,0,0,1,1,0,1,0.00,12.46,7.46,
4.338,108.2080855847448,98.39232552697352,-1.0,0.0,-1.0,0,0,0,1,1,0,1,0.00,12.36,7.55,
4.353,108.20980855847448,98.40823255269736,-2.0,0.0,-1.0,0,0,0,1,1,0,1,0.00,12.36,7.55,
4.366,108.25498085584746,98.38282325526973,-2.0,0.0,-1.0,0,0,0,1,1,0,1,0.00,12.46,7.65,
4.379,108.23249808558475,98.37128232552698,-2.0,0.0,0.0,0,0,0,1,1,0,1,0.00,12.65,7.46,
4.393,108.25724980855848,98.3971282325527,-2.0,0.0,-1.0,0,0,0,1,1,0,1,0.00,12.75,7.46,
4.407,108.31372498085585,98.36371282325527,-1.0,0.0,-1.0,0,0,0,1,1,0,1,0.00,12.75,7.36,
4.421,108.30137249808558,98.37837128232553,-2.0,0.0,0.0,0,0,0,1,1,0,1,0.00,12.75,7.36,
4.434,108.26413724980857,98.39783712823255,-2.0,0.0,0.0,0,0,0,1,1,0,1,0.00,13.05,7.46,
4.448,108.30541372498085,98.41778371282325,-2.0,0.0,0.0,0,0,0,1,1,0,1,0.00,13.15,7.46,
4.462,108.33654137249809,98.36577837128232,-2.0,0.0,-1.0,0,0,0,1,1,0,1,0.00,13.24,7.36,
4.475,108.35765413724981,98.37857783712823,-2.0,0.0,-1.0,0,0,0,1,1,0,1,0.00,13.44,7.26,
4.489,108.27876541372498,98.40685778371282,-2.0,0.0,0.0,0,0,0,1,1,0,1,0.00,13.54,7.16,
4.503,108.25287654137249,98.38268577837128,-2.0,0.0,-1.0,0,0,0,1,1,0,1,0.00,13.73,7.26,
4.516,108.33128765413724,98.32626857783713,-2.0,0.0,-1.0,0,0,0,1,1,0,1,0.00,13.73,7.26,
4.53,108.40212876541372,98.29362685778372,-2.0,0.0,-1.0,0,0,0,1,1,0,1,0.00,13.64,7.16,
4.544,108.43621287654138,98.29936268577836,-2.0,0.0,-1.0,0,0,0,1,1,0,1,0.00,13.73,7.16,
4.557,108.43062128765413,98.26393626857785,-3.0,1.0,-1.0,0,0,0,1,1,0,1,0.00,13.93,7.16,
4.572,108.46606212876542,98.22439362685778,-3.0,1.0,-2.0,0,0,0,1,1,0,1,0.00,14.03,6.97,
4.585,108.55960621287653,98.18443936268578,-3.0,1.0,-1.0,0,0,0,1,1,0,1,0.00,14.13,7.06,
4.599,108.61396062128766,98.16244393626857,-2.0,0.0,-1.0,0,0,0,1,1,0,1,0.00,14.32,7.06,
4.613,108.64639606212877,98.14224439362687,-2.0,0.0,-1.0,0,0,0,1,1,0,1,0.00,14.52,6.97,
4.626,108.70363960621287,98.13122443936268,-2.0,0.0,-1.0,0,0,0,1,1,0,1,0.00,14.62,6.97,
4.64,108.66436396062129,98.15712244393626,-2.0,0.0,-1.0,0,0,0,1,1,0,1,0.00,14.72,7.06,
4.654,108.63343639606212,98.17771224439363,-2.0,-1.0,-1.0,0,0,0,1,1,0,1,0.00,14.81,7.06,
4.668,108.54034363960622,98.13477122443936,-2.0,-1.0,-1.0,0,0,0,1,1,0,1,0.00,15.01,7.06,
4.681,108.51303436396063,98.11247712244395,-1.0,-1.0,-1.0,0,0,0,1,1,0,1,0.00,15.11,7.06,
4.696,108.48330343639607,98.0562477122444,-1.0,-1.0,0.0,0,0,0,1,1,0,1,0.00,15.21,7.06,
4.709,108.49833034363961,98.14062477122445,-1.0,-1.0,0.0,0,0,0,1,1,0,1,0.00,15.30,7.06,
4.723,108.50883303436396,98.22106247712246,-1.0,-1.0,0.0,0,0,0,1,1,0,1,0.00,15.11,7.16,
4.737,108.5098833034364,98.36410624771224,-1.0,-1.0,0.0,0,0,0,1,1,0,1,0.00,15.11,7.06,
4.751,108.46498833034363,98.44141062477122,-2.0,-2.0,0.0,0,0,0,1,1,0,1,0.00,15.11,7.26,
4.764,108.45149883303436,98.38614106247712,-2.0,-2.0,0.0,0,0,0,1,1,0,1,0.00,15.21,7.26,
4.777,108.45914988330343,98.39861410624772,-1.0,-1.0,0.0,0,0,0,1,1,0,1,0.00,15.21,7.26,
4.792,108.41491498833034,98.38186141062477,-2.0,-1.0,0.0,0,0,0,1,1,0,1,0.00,15.11,7.26,
4.805,108.41049149883304,98.33518614106248,-2.0,0.0,0.0,0,0,0,1,1,0,1,0.00,15.21,7.16,
4.819,108.3470491498833,98.32151861410625,-2.0,0.0,0.0,0,0,0,1,1,0,1,0.00,15.11,7.06,
4.833,108.37670491498832,98.26615186141063,-2.0,0.0,-1.0,0,0,0,1,1,0,1,0.00,15.21,7.16,
4.846,108.34367049149883,98.30561518614107,-2.0,0.0,-1.0,0,0,0,1,1,0,1,0.00,15.21,7.16,
4.86,108.26836704914989,98.2825615186141,-2.0,0.0,-1.0,0,0,0,1,1,0,1,0.00,15.21,7.16,
4.874,108.260836704915,98.25325615186141,-2.0,0.0,-1.0,0,0,0,1,1,0,1,0.00,15.40,7.26,
4.888,108.26008367049151,98.26832561518614,-2.0,0.0,-1.0,0,0,0,1,1,0,1,0.00,15.40,7.26,
4.901,108.31400836704915,98.22483256151861,-2.0,0.0,-1.0,0,0,0,1,1,0,1,0.00,15.50,7.16,
4.915,108.35540083670492,98.24748325615185,-2.0,0.0,-1.0,0,0,0,1,1,0,1,0.00,15.60,7.16,
4.929,108.4135400836705,98.24074832561519,-2.0,0.0,-1.0,0,0,0,1,1,0,1,0.00,15.60,7.16,
4.942,108.41035400836705,98.21307483256152,-2.0,0.0,-1.0,0,0,0,1,1,0,1,0.00,15.70,7.16,
4.957,108.3650354008367,98.21030748325614,-2.0,0.0,-1.0,0,0,0,1,1,0,1,0.00,15.60,7.16,
4.97,108.38750354008367,98.24603074832561,-2.0,0.0,-1.0,0,0,0,1,1,0,1,0.00,15.70,7.16,
4.984,108.38075035400837,98.19560307483255,-2.0,0.0,-1.0,0,0,0,1,1,0,1,0.00,15.70,7.26,
4.998,108.36207503540084,98.26256030748326,-2.0,0.0,-1.0,0,0,0,1,1,0,1,0.00,15.79,7.26,
5.011,108.36920750354008,98.28725603074834,-2.0,0.0,0.0,0,0,0,1,1,0,1,0.00,15.79,7.26,
5.025,108.36992075035401,98.29872560307483,-2.0,0.0,-1.0,0,0,0,1,1,0,1,0.00,15.89,7.16,
5.039,108.2889920750354,98.26387256030749,-2.0,0.0,-1.0,0,0,0,1,1,0,1,0.00,15.99,7.36,
5.053,108.29889920750354,98.21538725603074,-2.0,0.0,-1.0,0,0,0,1,1,0,1,0.00,15.99,7.36,
5.066,108.34488992075035,98.23753872560307,-2.0,0.0,-1.0,0,0,0,1,1,0,1,0.00,15.99,7.36,
5.08,108.35848899207504,98.2667538725603,-1.0,-1.0,-1.0,0,0,0,1,1,0,1,0.00,15.89,7.36,
5.094,108.3778488992075,98.27867538725603,-1.0,0.0,-1.0,0,0,0,1,1,0,1,0.00,15.99,7.26,
5.107,108.33478488992074,98.2708675387256,-2.0,0.0,-1.0,0,0,0,1,1,0,1,0.00,15.89,7.26,
5.122,108.29447848899208,98.27908675387255,-2.0,0.0,-1.0,0,0,0,1,1,0,1,0.00,15.79,7.36,
5.135,108.35344784889921,98.28890867538726,-2.0,0.0,-1.0,0,0,0,1,1,0,1,0.00,15.89,7.36,
5.148,108.39534478488991,98.28989086753873,-2.0,0.0,-1.0,0,0,0,1,1,0,1,0.00,15.89,7.36,
5.163,108.41753447848899,98.28998908675388,-2.0,0.0,-1.0,0,0,0,1,1,0,1,0.00,15.89,7.36,
5.176,108.48275344784889,98.2899989086754,-2.0,0.0,-1.0,0,0,0,1,1,0,1,0.00,15.89,7.36,
5.19,108.44427534478488,98.30799989086753,-2.0,0.0,-1.0,0,0,0,1,1,0,1,0.00,15.79,7.26,
5.203,108.45842753447847,98.23779998908677,-2.0,0.0,-1.0,0,0,0,1,1,0,1,0.00,15.70,7.36,
5.218,108.45984275344783,98.31177999890868,-2.0,0.0,-1.0,0,0,0,1,1,0,1,0.00,15.70,7.26,
5.231,108.42398427534478,98.29217799989088,-2.0,0.0,-1.0,0,0,0,1,1,0,1,0.00,15.70,7.36,
5.244,108.40239842753448,98.32621779998908,-1.0,0.0,0.0,0,0,0,1,1,0,1,0.00,15.60,7.36,
5.259,108.41823984275345,98.3026217799989,-1.0,0.0,-1.0,0,0,0,1,1,0,1,0.00,15.60,7.26,
5.272,108.38382398427534,98.27326217799988,-1.0,0.0,-1.0,0,0,0,1,1,0,1,0.00,15.60,7.46,
5.286,108.42538239842753,98.26132621779999,-1.0,0.0,-2.0,0,0,0,1,1,0,1,0.00,15.40,7.36,
5.3,108.47453823984276,98.26013262178,-2.0,0.0,-2.0,0,0,0,1,1,0,1,0.00,15.01,7.36,
5.313,108.43445382398427,98.377013262178,-2.0,0.0,-1.0,0,0,0,1,1,0,1,0.00,14.72,7.26,
5.327,108.43044538239843,98.3527013262178,-1.0,0.0,-1.0,0,0,0,1,1,0,1,0.00,14.62,7.16,
5.341,108.41204453823984,98.33227013262177,-1.0,0.0,-2.0,0,0,0,1,1,0,1,0.00,14.42,7.16,
5.355,108.41020445382398,98.23122701326217,-2.0,0.0,-2.0,0,0,0,1,1,0,1,0.00,14.32,7.26,
5.368,108.4100204453824,98.25712270132622,-1.0,0.0,-2.0,0,0,0,1,1,0,1,0.00,13.93,7.26,
5.383,108.37400204453824,98.34071227013263,-1.0,0.0,-2.0,0,0,0,1,1,0,1,0.00,13.83,7.36,
5.396,108.33440020445383,98.47507122701325,-1.0,0.0,-2.0,0,0,0,1,1,0,1,0.00,13.64,7.36,
5.409,108.40244002044538,98.48850712270132,-1.0,0.0,-1.0,0,0,0,1,1,0,2,0.00,13.44,7.36,
5.424,108.41824400204453,98.49885071227014,-1.0,0.0,-1.0,0,0,0,1,1,0,2,0.00,12.85,7.46,
5.437,108.43782440020445,98.47288507122701,-2.0,0.0,-1.0,0,0,0,1,1,0,2,0.00,12.65,7.55,
5.451,108.42178244002045,98.4252885071227,-2.0,0.0,-2.0,0,0,0,1,1,0,2,0.00,12.56,7.65,
5.465,108.36617824400204,98.45652885071226,-2.0,0.0,-2.0,0,0,0,1,1,0,2,0.00,12.46,7.65,
5.478,108.34261782440021,98.49565288507122,-2.0,0.0,-2.0,0,0,0,1,1,0,2,0.00,12.46,7.75,
5.492,108.34026178244002,98.49956528850713,-2.0,0.0,-1.0,0,0,0,1,1,0,2,0.00,12.36,7.75,
5.506,108.394026178244,98.48195652885072,-2.0,0.0,-1.0,0,0,0,1,1,0,2,0.00,12.26,7.85,
5.52,108.3904026178244,98.57019565288506,-2.0,0.0,0.0,0,0,0,1,1,0,2,0.00,12.26,7.95,
5.533,108.46204026178245,98.57901956528849,-2.0,0.0,-1.0,0,0,0,1,1,0,2,0.00,12.36,8.04,
5.547,108.52320402617825,98.55290195652884,-2.0,0.0,-1.0,0,0,0,1,1,0,2,0.00,12.36,8.04,
5.561,108.47532040261783,98.49629019565288,-2.0,0.0,-1.0,0,0,0,1,1,0,2,0.00,12.26,7.95,
5.574,108.48853204026177,98.53562901956529,-2.0,0.0,-1.0,0,0,0,1,1,0,2,0.00,12.16,7.85,
5.588,108.48985320402616,98.58456290195653,-2.0,0.0,-1.0,0,0,0,1,1,0,2,0.00,12.36,7.75,
5.602,108.48998532040261,98.59845629019564,-2.0,0.0,-1.0,0,0,0,1,1,0,2,0.00,12.26,7.75,
5.615,108.54399853204025,98.62684562901956,-2.0,0.0,0.0,0,0,0,1,1,0,2,0.00,12.26,7.85,
5.629,108.55839985320404,98.63868456290194,-2.0,0.0,0.0,0,0,0,1,1,0,2,0.00,12.46,7.85,
5.643,108.4878399853204,98.5948684562902,-2.0,0.0,-1.0,0,0,0,1,1,0,2,0.00,12.65,7.75,
5.657,108.45378399853205,98.48248684562903,-2.0,0.0,-1.0,0,0,0,1,1,0,2,0.00,12.75,7.85,
5.67,108.45037839985321,98.4262486845629,-2.0,0.0,-1.0,0,0,0,1,1,0,2,0.00,12.85,7.75,
5.684,108.43203783998533,98.38462486845629,-2.0,0.0,-1.0,0,0,0,1,1,0,2,0.00,12.85,7.75,
5.698,108.44820378399854,98.47046248684563,-2.0,0.0,-1.0,0,0,0,1,1,0,2,0.00,12.85,7.65,
5.711,108.44982037839985,98.52404624868457,-2.0,0.0,-1.0,0,0,0,1,1,0,2,0.00,12.95,7.55,
5.726,108.46798203783999,98.50240462486846,-2.0,0.0,-1.0,0,0,0,1,1,0,2,0.00,13.15,7.46,
5.739,108.469798203784,98.45524046248684,-2.0,0.0,-1.0,0,0,0,1,1,0,2,0.00,13.24,7.46,
5.752,108.4789798203784,98.43252404624869,-3.0,2.0,-2.0,0,0,0,1,1,0,2,0.00,13.34,7.46,
5.767,108.48889798203783,98.43925240462487,-3.0,2.0,-2.0,0,0,0,1,1,0,2,0.00,13.54,7.46,
5.78,108.54388979820378,98.41292524046249,-3.0,1.0,-1.0,0,0,0,1,1,0,2,0.00,13.64,7.46,
5.794,108.58538897982038,98.35629252404624,-2.0,0.0,-1.0,0,0,0,1,1,0,2,0.00,13.83,7.46,
5.808,108.62553889798203,98.35962925240463,-2.0,0.0,-1.0,0,0,0,1,1,0,2,0.00,13.83,7.46,
5.822,108.68355388979819,98.35996292524047,-3.0,0.0,-1.0,0,0,0,1,1,0,2,0.00,14.03,7.46,
5.835,108.73435538897982,98.35099629252404,-3.0,0.0,-1.0,0,0,0,1,1,0,2,0.00,14.13,7.46,
5.849,108.70343553889798,98.3500996292524,-2.0,0.0,-1.0,0,0,0,1,1,0,2,0.00,14.22,7.46,
5.863,108.6643435538898,98.29600996292525,-2.0,0.0,-1.0,0,0,0,1,1,0,2,0.00,14.42,7.46,
5.876,108.64243435538897,98.36260099629253,-2.0,0.0,-1.0,0,0,0,1,1,0,2,0.00,14.62,7.46,
5.891,108.55924343553889,98.45926009962926,-2.0,0.0,-1.0,0,0,0,1,1,0,2,0.00,14.81,7.46,
5.904,108.59592434355388,98.46892600996293,-2.0,0.0,0.0,0,0,0,1,1,0,2,0.00,14.91,7.46,
5.917,108.62659243435539,98.4158926009963,-2.0,0.0,0.0,0,0,0,1,1,0,2,0.00,14.81,7.55,
5.932,108.62065924343554,98.38358926009963,-2.0,0.0,-1.0,0,0,0,1,1,0,2,0.00,14.91,7.55,
5.945,108.62906592434355,98.33535892600996,-2.0,0.0,-1.0,0,0,0,1,1,0,2,0.00,15.01,7.55,
5.959,108.62090659243437,98.33953589260099,-2.0,0.0,-1.0,0,0,0,1,1,0,2,0.00,15.11,7.46,
5.972,108.59309065924344,98.37595358926009,-2.0,0.0,-1.0,0,0,0,1,1,0,2,0.00,15.21,7.46,
5.986,108.64430906592435,98.42459535892601,-2.0,0.0,0.0,0,0,0,1,1,0,1,0.00,15.40,7.46,
6.0,108.67643090659244,98.3844595358926,-2.0,0.0,0.0,0,0,0,1,1,0,1,0.00,15.60,7.46,
6.013,108.67064309065924,98.42544595358926,-2.0,0.0,0.0,0,0,0,1,1,0,1,0.00,15.79,7.46,
6.027,108.69706430906592,98.34854459535893,-2.0,0.0,0.0,0,0,0,1,1,0,1,0.00,15.79,7.46,
6.041,108.69970643090659,98.37685445953589,-2.0,0.0,0.0,0,0,0,1,1,0,1,0.00,15.89,7.46,
6.054,108.71797064309065,98.2986854459536,-2.0,0.0,0.0,0,0,0,1,1,0,1,0.00,15.99,7.36,
6.068,108.77379706430906,98.30886854459536,-2.0,0.0,0.0,0,0,0,1,1,0,1,0.00,16.09,7.46,
6.082,108.7703797064309,98.33688685445954,-2.0,0.0,0.0,0,0,0,1,1,0,1,0.00,16.19,7.46,
6.095,108.75203797064309,98.32168868544595,-2.0,0.0,0.0,0,0,0,1,1,0,1,0.00,16.38,7.36,
6.109,108.7592037970643,98.28416886854458,-2.0,0.0,0.0,0,0,0,1,1,0,1,0.00,16.48,7.26,
6.123,108.77792037970643,98.32541688685446,-2.0,0.0,-1.0,0,0,0,1,1,0,1,0.00,16.87,7.36,
6.136,108.78879203797064,98.34754168868544,-2.0,0.0,-1.0,0,0,0,1,1,0,1,0.00,16.97,7.36,
6.15,108.77187920379706,98.30475416886854,-2.0,0.0,-1.0,0,0,0,1,1,0,1,0.00,17.07,7.36,
6.164,108.7251879203797,98.28247541688685,-2.0,0.0,-1.0,0,0,0,1,1,0,1,0.00,16.97,7.36,
6.177,108.76551879203797,98.28024754168868,-2.0,0.0,-1.0,0,0,0,1,1,0,1,0.00,16.97,7.36,
6.192,108.80555187920379,98.28002475416886,-2.0,0.0,-1.0,0,0,0,1,1,0,1,0.00,16.87,7.36,
6.205,108.83655518792038,98.2890024754169,-2.0,0.0,-1.0,0,0,0,1,1,0,1,0.00,16.97,7.26,
6.218,108.83065551879204,98.32590024754168,-2.0,0.0,0.0,0,0,0,1,1,0,1,0.00,17.17,7.26,
6.233,108.7850655518792,98.26659002475418,-2.0,0.0,0.0,0,0,0,1,1,0,1,0.00,17.46,7.26,
6.246,108.73550655518791,98.27865900247542,-2.0,0.0,0.0,0,0,0,1,1,0,1,0.00,17.66,7.26,
6.259,108.72155065551878,98.26186590024756,-2.0,0.0,0.0,0,0,0,1,1,0,1,0.00,17.66,7.26,
6.274,108.72015506555188,98.21518659002476,-2.0,0.0,0.0,0,0,0,1,1,0,1,0.00,17.76,7.26,
6.287,108.78301550655519,98.20151865900249,-2.0,0.0,-1.0,0,0,0,1,1,0,1,0.00,17.85,7.16,
6.301,108.81630155065552,98.26315186590024,-2.0,0.0,-1.0,0,0,0,1,1,0,1,0.00,18.05,7.16,
6.315,108.78363015506555,98.25131518659002,-2.0,0.0,0.0,0,0,0,1,1,0,1,0.00,18.25,7.06,
6.328,108.78036301550655,98.18713151865902,-2.0,0.0,0.0,0,0,0,1,1,0,1,934.89,18.34,7.06,
6.35,108.79803630155065,98.19871315186592,-2.0,0.0,0.0,0,0,0,1,1,0,1,0.00,18.64,7.06,
6.365,108.77280363015507,98.20887131518658,-2.0,0.0,-1.0,0,0,0,1,1,0,1,0.00,18.74,7.06,
6.378,108.7882803630155,98.22788713151867,-3.0,0.0,-1.0,0,0,0,1,1,0,1,0.00,18.74,7.06,
6.392,108.73582803630154,98.23878871315186,-2.0,0.0,-1.0,0,0,0,1,1,0,1,0.00,18.74,6.97,
6.406,108.74858280363016,98.1768788713152,-2.0,0.0,-1.0,0,0,0,1,1,0,1,0.00,18.93,6.87,
6.419,108.70485828036301,98.18868788713151,-2.0,0.0,-1.0,0,0,0,1,1,0,1,0.00,18.93,6.77,
6.433,108.67348582803629,98.17186878871316,-2.0,0.0,0.0,0,0,0,1,1,0,1,0.00,19.03,6.67,
6.447,108.67034858280363,98.17018687887132,-2.0,0.0,-1.0,0,0,0,1,1,0,1,0.00,19.13,6.77,
6.46,108.72403485828036,98.13401868788712,-2.0,0.0,-1.0,0,0,0,1,1,0,1,0.00,19.23,6.77,
6.474,108.69340348582803,98.16640186878871,-2.0,0.0,0.0,0,0,0,1,1,0,1,0.00,19.13,6.77,
6.488,108.7263403485828,98.07964018687886,-2.0,0.0,0.0,0,0,0,1,1,0,1,0.00,19.33,6.77,
6.502,108.72963403485828,98.00796401868789,-2.0,0.0,-2.0,0,0,0,1,1,0,1,0.00,19.33,6.77,
6.515,108.73896340348583,98.04579640186878,-2.0,0.0,-2.0,0,0,0,1,1,0,1,0.00,19.23,6.77,
6.529,108.77589634034858,98.03157964018688,-2.0,0.0,-2.0,0,0,0,1,1,0,1,0.00,19.23,6.77,
6.543,108.67158963403486,98.03915796401868,-2.0,-1.0,-2.0,0,0,0,1,1,0,1,0.00,19.23,6.77,
6.556,108.71515896340348,98.12991579640187,-1.0,0.0,-2.0,0,0,0,1,1,0,1,0.00,18.93,6.87,
6.571,108.80951589634034,98.17499157964019,-2.0,0.0,-1.0,0,0,0,1,1,0,1,0.00,18.54,6.67,
6.584,108.86395158963404,98.19749915796403,-2.0,-1.0,-1.0,0,0,0,1,1,0,1,0.00,18.05,6.57,
6.598,108.8513951589634,98.1727499157964,-2.0,0.0,0.0,0,0,0,1,1,0,1,0.00,17.66,6.47,
6.611,108.82313951589634,98.24227499157963,-2.0,-1.0,0.0,0,0,0,1,1,0,1,0.00,17.56,6.57,
6.625,108.72131395158964,98.24022749915795,-2.0,0.0,0.0,0,0,0,1,1,0,1,0.00,17.85,6.57,
6.639,108.67513139515896,98.0690227499158,-1.0,0.0,-1.0,0,0,0,1,1,0,1,0.00,18.05,6.67,
6.652,108.61651313951589,98.09690227499158,-1.0,0.0,0.0,0,0,0,1,1,0,1,0.00,18.25,6.67,
6.666,108.54765131395159,98.05469022749917,-1.0,0.0,-1.0,0,0,0,1,1,0,1,0.00,18.54,6.77,
6.68,108.53176513139516,98.07746902274992,-1.0,0.0,-1.0,0,0,0,1,1,0,1,0.00,18.54,6.87,
6.693,108.57517651313951,98.13374690227499,-1.0,1.0,-1.0,0,0,0,1,1,0,1,0.00,18.64,6.87,
6.708,108.62451765131394,98.13037469022748,-1.0,1.0,-1.0,0,0,0,1,1,0,1,0.00,18.74,6.97,
6.721,108.63845176513139,98.16603746902275,-1.0,1.0,-2.0,0,0,0,1,1,0,1,0.00,18.34,7.06,
6.735,108.59484517651315,98.23260374690227,-1.0,0.0,-2.0,0,0,0,1,1,0,1,0.00,18.25,7.06,
6.749,108.74348451765131,98.23926037469022,-1.0,0.0,-1.0,0,0,0,1,1,0,1,0.00,17.95,7.16,
6.762,108.87534845176513,98.26692603746902,-2.0,0.0,-1.0,0,0,0,1,1,0,1,0.00,17.46,7.06,
6.776,108.93353484517652,98.39569260374691,-2.0,-1.0,0.0,0,0,0,1,1,0,1,0.00,16.48,6.87,
6.79,108.97535348451765,98.55256926037468,-2.0,-2.0,0.0,0,0,0,1,1,0,1,0.00,16.38,6.87,
6.804,108.86253534845177,98.50525692603748,-2.0,-3.0,1.0,0,0,0,0,1,0,1,0.00,16.38,6.67,
6.817,108.75225353484518,98.57252569260373,-1.0,-4.0,1.0,0,0,0,0,1,0,1,0.00,16.38,6.57,
6.831,108.71422535348451,98.37225256926037,-2.0,-3.0,0.0,0,0,0,0,0,0,0,0.00,16.09,6.38,
6.845,108.76442253534844,98.27122525692604,-3.0,-4.0,-1.0,0,0,0,0,0,0,0,0.00,14.72,6.18,
6.858,108.76944225353485,98.20712252569261,-4.0,-3.0,-2.0,0,0,0,0,0,0,0,0.00,13.93,5.69,
6.872,108.72494422535348,98.30871225256925,-5.0,-2.0,0.0,0,0,0,0,0,0,0,0.00,13.15,5.40,
6.886,108.58549442253533,98.57087122525692,-6.0,-2.0,1.0,0,0,0,0,0,0,0,0.00,12.65,5.20,
6.899,108.42754944225354,98.4620871225257,-6.0,-1.0,2.0,0,0,0,0,0,0,0,0.00,12.95,5.10,
6.913,108.15075494422535,98.24420871225257,-6.0,0.0,1.0,0,0,0,0,0,0,0,0.00,13.44,5.00,
6.927,108.14107549442254,98.06942087122526,-5.0,3.0,1.0,0,0,0,0,0,0,0,0.00,13.83,4.61,
6.94,108.15810754944225,97.78194208712253,-5.0,5.0,-1.0,0,0,0,0,0,0,0,0.00,14.13,4.61,
6.953,108.27681075494424,97.76219420871226,-4.0,3.0,-1.0,0,0,0,0,0,0,0,0.00,14.03,4.51,
6.967,108.26168107549444,97.94021942087123,-4.0,5.0,0.0,0,0,0,0,0,0,0,0.00,13.83,4.32,
6.981,108.53016810754944,98.01202194208713,-4.0,3.0,1.0,0,0,0,0,0,0,0,0.00,13.54,4.22,
6.994,108.86301681075494,97.89320219420871,-4.0,2.0,0.0,0,0,0,0,0,0,0,0.00,13.24,4.12,
7.008,109.2113016810755,97.95332021942087,-5.0,0.0,0.0,0,0,0,0,0,0,0,0.00,13.24,4.12,
7.021,109.44413016810755,98.02233202194209,-9.0,-2.0,1.0,0,0,0,0,0,0,0,0.00,14.13,4.12,
7.035,109.39541301681076,97.9752332021942,-10.0,-3.0,1.0,0,0,0,0,0,0,0,0.00,15.01,4.02,
7.049,109.37254130168108,97.77252332021942,-12.0,-4.0,0.0,0,0,0,0,0,0,0,0.00,16.38,3.53,
7.062,109.0822541301681,97.25725233202195,-12.0,-4.0,0.0,0,0,0,0,0,0,0,0.00,18.34,3.24,
7.076,108.7022254130168,96.9897252332022,-11.0,-2.0,-2.0,0,0,0,0,0,0,0,0.00,22.96,2.94,
7.09,108.34922254130167,97.07097252332022,-10.0,-2.0,-1.0,0,0,0,0,0,0,0,0.00,25.51,2.65,
7.104,108.36792225413016,97.08809725233202,-9.0,-2.0,0.0,0,0,0,0,0,0,0,0.00,27.96,2.26,
7.117,108.36079222541301,96.9908097252332,-6.0,-4.0,0.0,0,0,0,0,0,0,0,0.00,29.82,2.06,
7.131,108.3240792225413,96.78308097252332,-5.0,-3.0,0.0,0,0,0,0,0,0,0,0.00,30.90,1.96,
7.145,108.27540792225412,96.42930809725233,-3.0,-3.0,1.0,0,0,0,0,0,0,0,0.00,30.80,1.86,
7.158,108.3515407922254,96.51093080972522,-4.0,-5.0,1.0,0,0,0,0,0,0,0,0.00,30.31,1.77,
7.172,108.42215407922254,96.64509308097252,-2.0,-6.0,4.0,0,0,0,0,0,0,0,0.00,30.51,1.57,
7.186,108.51021540792225,96.57750930809725,-2.0,-12.0,4.0,0,0,0,0,0,0,0,0.00,31.10,1.57,
7.199,108.61802154079221,96.16575093080974,0.0,-11.0,2.0,0,0,0,0,0,0,0,0.00,32.67,1.57,
7.213,108.5298021540792,95.79157509308097,-2.0,-13.0,0.0,0,0,0,0,0,0,0,0.00,33.55,1.57,
7.227,108.63798021540794,95.2861575093081,-1.0,-16.0,-4.0,0,0,0,0,0,0,0,0.00,34.83,1.57,
7.24,107.7667980215408,94.8936157509308,-3.0,-15.0,-6.0,0,0,0,0,0,0,0,0.00,37.18,1.67,
7.255,106.68067980215409,94.61136157509307,0.0,-11.0,-6.0,0,0,0,0,0,0,0,0.00,45.71,1.86,
7.268,106.47306798021542,94.2951361575093,-1.0,-11.0,-10.0,0,0,0,0,0,0,0,0.00,51.40,2.06,
7.281,106.90230679802156,95.09151361575093,0.0,-16.0,-14.0,0,0,0,0,0,0,0,0.00,57.49,2.94,
7.296,107.56623067980216,95.9901513615751,0.0,-24.0,-10.0,0,0,0,0,0,0,0,0.00,64.45,3.34,
7.309,107.64162306798022,96.6470151361575,2.0,-23.0,-9.0,0,0,0,0,0,0,0,0.00,80.64,3.63,
7.323,107.73916230679802,96.76670151361576,4.0,-27.0,-6.0,0,0,0,0,0,0,0,0.00,88.68,3.92,
7.336,107.1549162306798,96.51767015136157,6.0,-30.0,-6.0,0,0,0,0,0,0,0,0.00,96.14,4.41,
7.35,106.65549162306797,96.84376701513615,8.0,-33.0,-9.0,0,0,0,0,0,0,0,0.00,102.71,4.61,
7.364,106.24554916230679,97.28137670151361,7.0,-30.0,-8.0,0,0,0,1,0,0,0,0.00,108.89,5.00,
7.378,105.76355491623067,97.47813767015136,6.0,-29.0,-10.0,1,0,0,1,0,0,0,0.29,123.51,5.49,
7.392,104.88735549162307,97.62381376701514,6.0,-29.0,-11.0,1,0,0,1,0,0,0,0.59,131.94,6.08,
7.406,103.8277355491623,97.89938137670153,7.0,-29.0,-9.0,1,0,0,1,0,0,0,1.28,140.87,6.38,
7.42,102.72277355491623,97.96293813767015,8.0,-18.0,-8.0,1,0,0,1,0,0,1,1.57,156.18,6.67,
7.434,102.25227735549163,98.10429381376701,7.0,-16.0,-7.0,1,0,0,1,1,0,1,1.86,160.59,7.16,
7.448,101.95322773554918,98.1904293813767,6.0,-18.0,-8.0,1,0,0,1,1,0,1,2.16,162.45,8.34,
7.461,101.63532277355492,98.46904293813768,5.0,-15.0,-9.0,1,0,0,1,1,0,1,2.55,162.94,8.83,
7.476,101.32453227735549,98.89290429381377,4.0,-12.0,-8.0,1,0,0,1,1,0,1,2.65,162.16,9.32,
7.49,101.23045322773555,98.90829042938138,2.0,-11.0,-7.0,1,0,0,1,1,0,1,2.94,161.57,9.71,
7.503,101.02304532277356,98.86482904293814,2.0,-11.0,-8.0,1,0,0,1,1,0,1,2.84,160.69,10.40,
7.518,100.65130453227736,99.02248290429382,1.0,-8.0,-5.0,1,0,0,1,1,0,2,2.84,160.00,10.79,
7.532,100.49713045322774,99.0562482904294,1.0,-4.0,-5.0,1,0,0,1,1,0,2,3.04,159.41,11.09,
7.545,100.58971304532277,99.03262482904294,2.0,0.0,-4.0,1,0,0,1,1,0,2,3.04,157.55,11.48,
7.56,100.48197130453228,99.0032624829043,3.0,2.0,-3.0,1,0,0,1,1,0,2,3.04,154.31,12.46,
7.573,100.47119713045322,99.09932624829042,1.0,2.0,-3.0,1,0,0,1,2,0,2,3.04,150.29,13.15,
7.587,100.40711971304533,99.32493262482903,0.0,4.0,-2.0,1,0,0,1,2,0,2,2.94,140.77,13.93,
7.601,100.43671197130453,99.2664932624829,-1.0,5.0,-3.0,1,0,0,1,2,0,2,2.94,136.26,14.42,
7.615,100.53867119713045,99.1976493262483,0.0,6.0,-2.0,1,0,0,1,2,0,2,2.84,132.53,14.52,
7.629,100.72886711971304,99.22676493262483,0.0,8.0,-2.0,1,0,0,1,2,0,2,2.75,128.81,14.42,
7.643,100.99988671197131,99.3826764932625,-1.0,8.0,-2.0,1,0,0,2,2,0,2,2.75,120.27,14.62,
7.657,101.07198867119712,99.30826764932625,0.0,10.0,0.0,1,0,0,2,2,0,2,2.55,116.35,14.72,
7.671,101.2501988671197,99.16582676493263,4.0,16.0,1.0,1,0,0,2,2,0,2,2.35,112.62,14.91,
7.685,101.55601988671198,99.10658267649326,5.0,18.0,2.0,1,0,0,2,2,0,2,2.26,108.30,15.50,
7.699,101.98260198867119,99.33465826764933,6.0,21.0,2.0,1,0,0,2,2,0,3,2.35,95.55,16.58,
7.712,102.15126019886712,99.60046582676493,5.0,23.0,5.0,1,0,0,2,2,0,3,2.16,88.49,17.95,
7.727,102.3391260198867,99.71704658267649,4.0,23.0,5.0,1,0,0,2,2,0,3,2.26,82.01,20.90,
7.741,102.66391260198867,99.82770465826766,2.0,20.0,5.0,1,0,0,2,2,0,3,2.16,76.22,21.97,
7.754,102.91239126019886,99.97377046582676,1.0,19.0,6.0,1,0,0,2,2,0,3,2.16,66.41,22.86,
7.769,103.27023912601989,100.08737704658267,0.0,16.0,6.0,1,0,0,2,2,0,3,1.96,62.49,23.35,
7.782,103.45002391260199,100.21573770465827,-2.0,16.0,9.0,1,0,0,2,2,0,3,1.77,59.15,23.35,
7.796,103.5040023912602,100.12057377046582,-1.0,17.0,9.0,1,0,0,2,2,0,3,1.57,56.60,23.05,
7.811,103.64440023912601,100.06605737704658,0.0,15.0,10.0,1,0,0,2,2,0,3,1.37,53.86,22.76,
7.824,104.0364400239126,100.12360573770466,0.0,16.0,8.0,1,0,0,2,2,0,3,1.08,52.68,22.17,
7.838,104.53464400239126,99.97636057377046,0.0,14.0,6.0,1,0,0,2,2,0,3,0.98,50.91,21.97,
7.853,105.57446440023912,99.77263605737704,0.0,18.0,2.0,1,0,0,2,2,0,3,0.78,48.76,21.88,
7.866,105.60644644002392,99.78826360573771,0.0,12.0,2.0,0,0,0,2,2,0,3,0.78,43.46,21.88,
7.88,106.2846446440024,100.11382636057377,-2.0,10.0,2.0,0,0,0,2,2,0,3,0.69,41.20,22.07,
7.894,106.61346446440025,100.10138263605738,-5.0,6.0,0.0,0,0,0,2,2,0,3,0.69,39.73,22.17,
7.908,106.56534644644003,99.63213826360574,-4.0,9.0,-2.0,0,0,0,2,2,0,3,0.69,39.83,22.07,
7.922,106.506534644644,99.72021382636058,-4.0,10.0,-2.0,0,0,0,2,2,0,3,0.49,40.81,21.88,
7.936,106.6806534644644,99.69302138263606,-5.0,11.0,-1.0,0,0,0,2,2,0,3,0.39,40.61,21.88,
7.95,106.78806534644644,99.8073021382636,-5.0,11.0,-2.0,0,0,0,2,2,0,3,0.39,40.32,21.78,
7.964,106.77180653464464,99.54873021382636,-2.0,13.0,0.0,0,0,0,2,2,0,3,0.39,41.10,21.78,
7.979,106.99518065346446,99.54987302138264,0.0,11.0,-2.0,0,0,0,2,2,0,3,0.39,41.50,21.88,
7.992,107.13451806534644,99.30698730213827,0.0,16.0,-5.0,1,0,0,2,2,0,3,0.59,41.30,22.76,
8.006,107.33745180653463,99.30069873021382,1.0,12.0,-5.0,1,0,0,2,2,0,3,0.98,40.42,23.45,
8.019,107.68174518065346,99.62406987302138,0.0,9.0,-3.0,1,0,0,2,2,0,3,1.18,37.38,24.33,
8.034,107.92317451806534,99.79140698730214,-1.0,7.0,-3.0,1,0,0,2,2,0,3,1.47,36.49,25.21,
8.048,108.03731745180653,99.8801406987302,-2.0,6.0,-3.0,1,0,0,2,2,0,3,1.77,36.30,26.49,
8.061,108.12973174518066,99.88001406987301,-2.0,7.0,0.0,1,0,0,2,2,0,3,1.77,36.59,26.98,
8.076,108.36397317451807,100.2130014069873,-3.0,4.0,1.0,1,0,0,2,2,0,3,1.96,37.38,27.47,
8.089,108.4143973174518,100.03030014069873,-4.0,4.0,0.0,1,0,0,3,2,0,4,2.06,38.36,27.76,
8.103,108.37443973174518,99.85903001406987,-3.0,4.0,-2.0,1,0,0,3,2,0,4,2.16,39.63,28.45,
8.118,108.35244397317452,99.58990300140698,-2.0,6.0,-6.0,1,0,0,3,2,0,4,2.26,40.91,28.65,
8.131,108.21524439731746,99.6349903001407,-1.0,8.0,-7.0,1,0,0,3,2,0,4,2.35,40.52,28.94,
8.145,108.20152443973176,99.69349903001407,-1.0,7.0,-4.0,1,0,0,3,2,0,4,2.45,39.24,29.33,
8.16,108.53315244397317,99.8973499030014,-2.0,6.0,-2.0,1,0,0,3,2,1,4,2.55,37.87,29.92,
8.173,108.95331524439732,100.28673499030013,-6.0,1.0,-1.0,1,0,0,3,2,1,4,2.75,36.79,30.12,
8.187,109.11233152443972,100.38867349903002,-9.0,0.0,0.0,1,0,0,3,2,1,4,2.94,36.69,30.21,
8.202,108.88523315244397,100.380867349903,-10.0,1.0,1.0,1,0,0,3,2,0,4,3.04,38.16,30.02,
8.215,108.8265233152444,100.19108673499031,-9.0,2.0,3.0,1,0,0,3,2,0,4,3.04,40.52,28.65,
8.229,108.83865233152444,99.97410867349903,-8.0,4.0,2.0,1,0,0,3,2,0,4,3.14,43.56,27.86,
8.244,108.93886523315246,99.7184108673499,-7.0,5.0,0.0,1,0,0,3,2,0,4,3.43,49.64,27.17,
8.257,109.05688652331524,99.58484108673498,-6.0,5.0,0.0,1,0,0,3,2,0,4,3.73,51.89,26.19,
8.271,109.17668865233152,99.41848410867351,-5.0,6.0,0.0,1,0,0,3,2,0,4,3.83,53.66,25.80,
8.285,109.33266886523315,99.40184841086736,-4.0,5.0,0.0,1,0,0,3,2,0,4,3.92,55.03,25.51,
8.299,109.36626688652332,99.28318484108674,-3.0,6.0,-1.0,1,0,0,3,2,0,3,3.92,56.70,25.31,
8.312,109.27962668865233,99.28031848410868,-2.0,6.0,0.0,1,0,0,3,2,0,3,3.83,57.00,24.82,
8.327,109.45996266886524,99.29803184841087,-2.0,4.0,-1.0,1,0,0,3,2,0,3,3.73,56.90,24.72,
8.341,109.55899626688652,99.32680318484108,-1.0,3.0,-1.0,1,0,0,2,2,0,3,3.73,56.21,24.92,
8.354,109.78489962668866,99.49168031848411,-1.0,1.0,0.0,1,0,0,2,2,0,3,3.73,54.35,25.02,
8.369,110.03248996266886,99.58016803184842,-1.0,-1.0,1.0,1,0,0,2,2,0,3,3.43,53.66,25.51,
8.382,110.21924899626688,99.62501680318485,0.0,-5.0,2.0,1,0,0,2,2,0,3,3.34,53.27,25.70,
8.396,110.25592489962669,99.50350168031848,0.0,-7.0,2.0,1,0,0,2,2,0,3,3.24,53.17,25.60,
8.41,110.21459248996266,99.45535016803186,2.0,-9.0,2.0,1,0,0,2,2,1,3,3.14,53.76,25.60,
8.424,109.88645924899626,99.23453501680319,3.0,-11.0,1.0,1,0,0,2,2,1,3,3.04,54.05,26.19,
8.438,109.51164592489963,99.21245350168032,2.0,-6.0,0.0,1,0,0,2,2,1,3,3.14,54.35,26.59,
8.452,109.13216459248997,99.26424535016804,2.0,-2.0,0.0,1,0,0,2,2,1,4,3.34,54.45,27.17,
8.466,108.860216459249,99.28742453501681,0.0,-1.0,-2.0,1,0,0,2,2,1,4,3.53,53.96,27.86,
8.479,108.7430216459249,99.30774245350169,1.0,0.0,-2.0,1,0,0,2,2,1,4,3.63,53.27,29.14,
8.494,108.8663021645925,99.31877424535016,1.0,-1.0,-2.0,1,0,0,2,2,1,4,4.22,52.29,29.63,
8.508,109.04963021645925,99.39187742453502,1.0,-2.0,-2.0,1,0,0,2,3,1,4,4.32,50.82,30.31,
8.521,109.05896302164594,99.47118774245351,2.0,-3.0,-3.0,1,0,0,2,3,1,4,4.22,47.19,30.80,
8.536,109.0058963021646,99.58711877424535,1.0,-4.0,-3.0,1,0,0,2,3,1,4,4.32,45.52,31.69,
8.549,108.92858963021646,99.76971187742454,0.0,-3.0,-2.0,1,0,0,2,3,1,4,4.32,44.05,32.08,
8.563,108.76785896302164,99.94997118774245,0.0,-2.0,-1.0,1,0,0,2,3,1,4,4.22,41.69,32.47,
8.578,108.66178589630218,100.05799711877424,0.0,-1.0,0.0,1,0,0,2,3,1,4,4.12,41.10,32.67,
8.591,108.71417858963021,100.05979971187742,0.0,-1.0,0.0,1,0,0,2,3,1,4,4.02,40.81,32.86,
8.605,108.78241785896302,100.12297997118775,0.0,-1.0,0.0,1,0,0,2,3,1,4,4.12,40.71,33.06,
8.62,108.8792417858963,100.12029799711877,0.0,-2.0,0.0,1,0,0,2,3,1,4,4.32,40.32,33.26,
8.633,108.93392417858963,100.23702979971188,0.0,-2.0,0.0,1,0,0,2,3,1,4,4.41,39.93,33.55,
8.647,108.85839241785897,100.2757029799712,0.0,-3.0,0.0,1,0,0,2,3,1,4,4.51,39.53,33.84,
8.66,108.81483924178589,100.27057029799711,0.0,-4.0,0.0,1,0,0,2,3,1,4,4.61,39.14,33.94,
8.675,108.81048392417858,100.3510570297997,0.0,-4.0,1.0,1,0,0,2,3,1,4,4.71,38.55,33.94,
8.689,108.72004839241785,100.38610570297996,0.0,-4.0,1.0,1,0,0,2,3,1,4,4.61,38.46,33.84,
8.702,108.6570048392418,100.344610570298,0.0,-4.0,1.0,1,0,0,2,3,1,4,4.61,38.65,33.75,
8.717,108.66870048392417,100.4484610570298,0.0,-5.0,2.0,1,0,0,2,3,1,5,4.51,38.85,33.75,
8.731,108.58887004839241,100.50384610570298,0.0,-5.0,2.0,1,0,0,2,3,1,4,4.61,39.63,33.65,
8.744,108.49088700483924,100.5723846105703,0.0,-5.0,3.0,1,0,0,2,3,1,4,4.61,40.32,33.65,
8.759,108.33708870048392,100.53423846105703,-1.0,-4.0,3.0,1,0,0,2,3,1,4,4.61,41.20,33.55,
8.773,108.15970887004839,100.4314238461057,-1.0,-2.0,2.0,1,0,0,2,3,1,4,4.61,42.28,33.35,
8.786,108.06097088700484,100.38514238461056,-1.0,-1.0,2.0,1,0,0,2,3,1,4,4.71,44.24,33.16,
8.801,108.08709708870049,100.41651423846105,0.0,-2.0,3.0,1,0,0,3,3,2,4,5.00,44.83,33.06,
8.815,108.17970970887004,100.4106514238461,0.0,-2.0,2.0,1,0,0,3,3,2,4,5.10,45.42,32.57,
8.828,108.260970970887,100.38306514238461,0.0,-3.0,2.0,1,0,0,3,3,2,4,5.20,45.81,32.37,
8.843,108.27809709708869,100.35330651423845,0.0,-4.0,3.0,1,0,0,3,3,2,4,5.30,46.60,32.08,
8.857,108.22580970970887,100.26033065142386,0.0,-5.0,1.0,1,0,0,3,3,2,4,5.59,46.99,31.78,
8.87,108.1035809709709,100.29603306514238,1.0,-5.0,1.0,1,0,0,3,3,2,4,5.59,47.09,31.88,
8.885,107.8663580970971,100.33560330651424,0.0,-4.0,0.0,1,0,0,3,3,2,5,5.69,47.19,31.98,
8.898,107.7256358097097,100.35756033065142,0.0,-3.0,0.0,1,0,0,3,3,2,5,5.79,47.28,32.27,
8.912,107.72956358097098,100.43175603306514,0.0,-2.0,0.0,1,0,0,3,3,2,5,5.98,47.28,32.77,
8.927,107.6579563580971,100.46617560330651,-1.0,-1.0,0.0,1,0,0,3,3,2,5,5.98,47.19,33.16,
8.94,107.60579563580971,100.53261756033065,-1.0,0.0,0.0,1,0,0,3,3,2,5,5.98,47.09,33.45,
8.954,107.60957956358098,100.53926175603307,-1.0,0.0,0.0,1,0,0,3,3,2,5,6.08,47.09,33.75,
8.969,107.69995795635809,100.49492617560331,-2.0,0.0,1.0,1,0,0,3,3,2,5,6.18,47.09,34.04,
8.982,107.7899957956358,100.49049261756034,-2.0,0.0,0.0,1,0,0,3,3,2,5,6.38,47.28,34.14,
8.996,107.85299957956357,100.49004926175604,-2.0,0.0,0.0,1,0,0,3,3,2,5,6.28,48.17,34.04,
9.011,107.77829995795635,100.43600492617561,-2.0,0.0,0.0,2,0,0,3,3,2,5,6.47,48.85,33.94,
9.024,107.72582999579564,100.41260049261756,-2.0,0.0,0.0,2,0,0,3,3,2,5,6.47,49.64,33.84,
9.038,107.66658299957956,100.43726004926175,-1.0,0.0,0.0,2,0,0,3,3,2,5,6.57,50.23,33.84,
9.052,107.70565829995795,100.38572600492617,-1.0,0.0,0.0,2,0,0,3,3,3,5,6.57,51.01,33.84,
9.066,107.7455658299958,100.44357260049262,-1.0,-1.0,0.0,2,0,0,3,3,3,5,6.47,51.01,33.84,
9.08,107.85755658299959,100.44935726004925,-1.0,-1.0,0.0,2,0,0,3,3,3,5,6.47,51.11,33.65,
9.095,107.90475565829996,100.48593572600493,-2.0,-1.0,0.0,2,0,0,3,3,3,5,6.38,51.21,33.65,
9.108,107.87347556583,100.5165935726005,-2.0,-1.0,0.0,2,0,0,3,3,3,5,6.38,51.60,33.55,
9.122,107.834347556583,100.50165935726005,-2.0,0.0,0.0,2,0,0,3,3,3,5,6.28,52.19,33.45,
9.137,107.7584347556583,100.428165935726,-2.0,-1.0,0.0,2,0,0,3,3,3,5,6.28,52.97,33.26,
9.15,107.66984347556583,100.4118165935726,-2.0,-1.0,0.0,2,0,0,3,3,3,5,6.28,53.56,33.16,
9.164,107.57098434755659,100.42818165935728,-2.0,-1.0,-1.0,2,0,0,3,3,3,5,6.28,54.54,33.06,
9.179,107.55209843475566,100.51981816593573,-2.0,0.0,0.0,2,0,0,3,3,3,5,6.18,54.94,32.86,
9.193,107.56820984347557,100.55598181659357,-2.0,0.0,0.0,2,0,0,3,3,3,5,6.18,55.13,32.67,
9.206,107.61482098434756,100.48759818165937,-2.0,0.0,-1.0,2,0,0,3,3,3,5,6.08,55.43,32.57,
9.221,107.61048209843476,100.38175981816595,-2.0,0.0,0.0,2,0,0,3,3,3,5,5.98,55.62,32.37,
9.235,107.62804820984348,100.38017598181659,-2.0,0.0,0.0,2,0,0,3,3,3,5,5.89,55.72,32.08,
9.248,107.68380482098435,100.38001759818165,-2.0,0.0,-1.0,2,0,0,3,3,3,5,5.89,55.72,31.88,
9.263,107.68938048209844,100.34400175981817,-2.0,0.0,-1.0,2,0,0,3,3,3,5,5.79,55.72,31.69,
9.277,107.70793804820984,100.37640017598181,-2.0,0.0,-1.0,2,0,0,3,3,3,5,5.79,55.62,31.69,
9.29,107.71879380482099,100.37964001759818,-2.0,0.0,-1.0,2,0,0,3,3,3,5,5.79,55.43,31.39,
9.305,107.73787938048208,100.42496400175983,-2.0,0.0,-1.0,2,0,0,3,3,3,5,5.59,55.33,31.20,
9.319,107.74878793804821,100.45649640017598,-2.0,0.0,-1.0,2,0,0,3,3,3,5,5.40,54.84,31.00,
9.333,107.71387879380481,100.4146496400176,-2.0,0.0,-1.0,2,0,0,3,3,3,5,5.10,54.45,30.80,
9.347,107.7733878793805,100.42846496400178,-2.0,0.0,0.0,2,0,0,3,3,3,5,4.91,54.05,30.51,
9.361,107.78833878793806,100.42084649640017,-2.0,0.0,0.0,2,0,0,3,3,3,5,4.71,53.86,30.41,
9.374,107.8168338787938,100.38408464964002,-2.0,0.0,0.0,2,0,0,3,3,3,5,4.51,54.05,30.31,
9.389,107.8646833878794,100.398408464964,-2.0,0.0,0.0,2,0,0,3,3,3,5,4.12,54.54,30.12,
9.403,107.86946833878795,100.3908408464964,-2.0,0.0,0.0,2,0,0,3,3,3,5,4.02,55.13,30.02,
9.416,107.82494683387878,100.40808408464963,-2.0,0.0,0.0,2,0,0,3,3,3,5,3.83,55.92,29.92,
9.431,107.74849468338788,100.31080840846496,-2.0,0.0,0.0,2,0,0,3,3,3,5,3.73,57.98,29.82,
9.445,107.7588494683388,100.3010808408465,-2.0,0.0,0.0,2,0,0,3,3,3,5,3.92,58.76,30.02,
9.458,107.73288494683388,100.30010808408464,-2.0,0.0,0.0,2,0,0,3,3,3,5,3.92,59.64,30.12,
9.473,107.7572884946834,100.29101080840847,-2.0,0.0,0.0,2,0,0,3,3,3,5,4.02,60.33,30.31,
9.487,107.83172884946835,100.34410108084084,-2.0,0.0,0.0,2,0,0,3,3,3,5,4.12,61.31,30.31,
9.5,107.90217288494684,100.34041010808409,-2.0,0.0,0.0,2,0,0,3,3,3,5,4.22,61.90,30.41,
9.515,107.94521728849469,100.3040410108084,-2.0,0.0,0.0,2,0,0,3,3,3,5,4.32,62.29,30.80,
9.528,107.99452172884946,100.30040410108083,-2.0,0.0,0.0,2,0,0,3,3,3,5,4.41,62.59,30.80,
9.542,107.92745217288494,100.31804041010808,-2.0,0.0,0.0,2,0,0,3,3,3,5,4.51,62.98,30.80,
9.556,107.87574521728851,100.3558040410108,-2.0,0.0,0.0,2,0,0,3,3,3,5,4.61,63.47,30.90,
9.57,107.85257452172884,100.38658040410108,-2.0,0.0,0.0,2,0,0,3,3,3,5,4.81,63.96,31.00,
9.584,107.82325745217288,100.3356580404101,-2.0,1.0,0.0,2,0,0,3,3,3,5,4.81,64.65,31.20,
9.598,107.82032574521727,100.321565804041,-2.0,1.0,0.0,2,0,0,3,3,3,5,5.10,65.73,31.29,
9.612,107.88303257452172,100.27515658040409,-2.0,2.0,0.0,2,0,0,3,3,3,5,5.20,66.02,31.59,
9.626,107.90730325745217,100.33351565804043,-2.0,2.0,0.0,2,0,0,3,3,3,5,5.69,66.12,31.78,
9.639,107.98173032574522,100.43835156580404,-2.0,3.0,0.0,2,0,0,3,3,3,5,5.98,66.32,31.98,
9.654,108.02517303257453,100.37683515658041,-2.0,3.0,0.0,2,0,0,3,3,3,5,6.28,66.81,32.27,
9.668,108.09251730325744,100.31668351565804,-2.0,3.0,0.0,2,0,0,3,3,3,5,6.67,67.00,32.47,
9.681,108.15325173032574,100.3466683515658,-2.0,4.0,0.0,2,0,0,3,3,3,5,7.06,67.20,32.67,
9.696,108.26732517303257,100.38566683515657,-2.0,3.0,1.0,2,0,0,3,3,3,5,7.75,67.98,32.96,
9.71,108.35073251730326,100.42556668351567,-2.0,4.0,1.0,2,0,0,3,3,3,5,8.14,68.47,33.35,
9.723,108.45807325173033,100.39355666835156,-2.0,4.0,1.0,2,0,0,3,3,3,5,8.53,69.16,33.75,
9.738,108.50480732517303,100.38135566683515,-2.0,4.0,0.0,2,0,0,3,3,3,5,9.12,69.95,34.04,
9.752,108.63548073251731,100.29913556668352,-2.0,3.0,0.0,2,0,0,3,3,3,5,9.91,71.51,34.34,
9.765,108.77454807325174,100.23691355666836,-2.0,2.0,0.0,2,0,0,3,3,3,5,10.50,72.01,34.43,
9.78,108.81545480732517,100.22169135566685,-2.0,1.0,0.0,2,0,0,3,3,3,5,10.79,72.40,34.63,
9.794,108.84654548073252,100.19316913556669,-2.0,0.0,0.0,2,0,0,3,3,3,5,11.09,72.79,34.63,
9.807,108.89465454807325,100.21731691355667,-2.0,0.0,0.0,2,0,0,3,3,3,5,11.58,73.48,34.73,
9.822,108.90846545480733,100.20173169135568,-2.0,0.0,0.0,2,0,0,3,3,3,5,11.67,73.77,34.83,
9.836,108.87384654548073,100.22717316913557,-2.0,0.0,0.0,2,0,0,3,3,3,5,11.77,74.07,34.92,
9.849,108.86138465454808,100.19371731691356,-1.0,0.0,0.0,2,0,0,3,3,3,5,11.87,74.36,35.02,
9.864,108.86913846545481,100.19037173169136,-2.0,0.0,0.0,2,0,0,3,3,3,5,12.07,74.85,35.02,
9.878,108.88791384654549,100.21703717316915,-1.0,0.0,0.0,2,0,0,3,3,3,5,12.07,75.05,35.12,
9.892,108.87179138465456,100.17470371731692,-1.0,-1.0,0.0,2,0,0,3,3,3,5,12.07,75.14,35.02,
9.906,108.88817913846546,100.20647037173168,-1.0,-1.0,-1.0,2,0,0,3,3,3,5,11.97,75.05,35.02,
9.92,108.91681791384654,100.16464703717317,-1.0,-1.0,-1.0,2,0,0,3,3,3,5,11.97,74.46,35.02,
9.934,108.92868179138466,100.20546470371731,-2.0,-1.0,-1.0,2,0,0,3,3,3,5,11.77,74.16,35.02,
9.949,108.91186817913847,100.21854647037173,-1.0,-1.0,-1.0,2,0,0,3,3,3,5,11.77,73.97,35.02,
9.963,108.87418681791385,100.18385464703718,-1.0,-1.0,-1.0,2,0,0,3,3,3,5,11.67,73.38,35.02,
9.977,108.85241868179139,100.17138546470372,-1.0,-2.0,-1.0,2,0,0,3,3,3,5,11.38,73.18,34.92,
9.992,108.88624186817914,100.21513854647037,-1.0,-2.0,-1.0,2,0,0,3,3,3,5,11.28,73.08,34.73,
10.006,108.84462418681791,100.27351385464705,-1.0,-3.0,-1.0,2,0,0,3,3,3,5,11.18,72.99,34.63,
10.02,108.7774624186818,100.33335138546471,-1.0,-2.0,-1.0,2,0,0,3,3,3,5,11.09,72.59,34.63,
10.035,108.68074624186818,100.32133513854646,-1.0,-2.0,-1.0,2,0,0,3,3,3,5,10.69,72.50,34.83,
10.049,108.59007462418681,100.34713351385464,-1.0,-2.0,-1.0,2,0,0,3,3,3,5,10.59,72.30,34.73,
10.062,108.56300746241868,100.37671335138546,-1.0,-2.0,-1.0,2,0,0,3,3,3,5,10.50,71.42,34.83,
10.077,108.54230074624188,100.38867133513854,-1.0,-2.0,-1.0,2,0,0,3,3,3,5,10.40,70.73,34.92,
10.091,108.51323007462419,100.41686713351385,-1.0,-2.0,-1.0,2,0,0,3,3,3,5,9.81,70.04,34.92,
10.105,108.48332300746242,100.36568671335138,-1.0,-1.0,-1.0,2,0,0,3,3,3,5,9.71,69.65,34.83,
10.12,108.47133230074624,100.36956867133514,-1.0,-1.0,-1.0,2,0,0,3,3,3,5,9.52,68.67,34.83,
10.134,108.47013323007462,100.40595686713351,-1.0,-1.0,-1.0,2,0,0,3,3,3,5,9.42,68.18,35.02,
10.148,108.50601332300747,100.40959568671335,-1.0,-1.0,-1.0,2,0,0,3,3,3,5,9.12,67.89,34.92,
10.163,108.47360133230075,100.38295956867134,-1.0,-1.0,-1.0,2,0,0,3,4,3,5,9.03,67.20,34.92,
10.177,108.45236013323007,100.33529595686713,-1.0,0.0,-1.0,2,0,0,3,4,3,5,8.93,66.90,35.02,
10.191,108.396236013323,100.33952959568673,-1.0,0.0,-1.0,2,0,0,3,4,3,5,8.73,66.61,35.12,
10.205,108.4716236013323,100.32195295956866,-2.0,-1.0,-1.0,2,0,0,3,4,3,5,8.63,66.32,35.22,
10.219,108.45216236013323,100.35619529595687,-1.0,0.0,-1.0,2,0,0,3,4,3,5,8.63,65.33,35.32,
10.233,108.45021623601332,100.37761952959568,-1.0,0.0,-2.0,2,0,0,3,4,3,5,8.53,64.84,35.32,
10.248,108.45002162360133,100.35276195295957,-2.0,-1.0,-2.0,2,0,0,3,4,3,5,8.34,64.45,35.32,
10.262,108.45000216236014,100.36827619529596,-2.0,0.0,-2.0,2,0,0,3,4,3,5,8.14,64.06,35.32,
10.275,108.49500021623602,100.36082761952959,-2.0,0.0,-2.0,2,0,0,3,4,3,5,7.95,63.08,35.22,
10.29,108.5085000216236,100.36008276195295,-1.0,0.0,-2.0,2,0,0,3,4,3,5,7.75,62.59,35.02,
10.304,108.49185000216235,100.3690082761953,-1.0,-1.0,-2.0,2,0,0,3,4,3,5,7.65,62.10,35.02,
10.318,108.48118500021624,100.36990082761955,-1.0,-1.0,-2.0,2,0,0,3,4,3,5,7.46,60.92,35.02,
10.333,108.49811850002163,100.42399008276197,-1.0,-1.0,-2.0,2,0,0,3,4,3,5,7.36,60.23,35.02,
10.347,108.51781185000215,100.39339900827619,-2.0,-1.0,-2.0,2,0,0,3,4,3,5,7.26,59.64,35.22,
10.361,108.4657811850002,100.39933990082763,-1.0,-1.0,-2.0,2,0,0,3,4,3,5,7.16,59.06,35.32,
10.376,108.39757811850002,100.38193399008276,-1.0,-1.0,-2.0,2,0,0,3,4,3,5,6.97,58.08,35.32,
10.389,108.35475781184999,100.40719339900828,-1.0,-1.0,-2.0,2,0,0,3,4,3,5,6.87,57.58,35.41,
10.403,108.314475781185,100.43671933990083,-1.0,-1.0,-2.0,2,0,0,3,4,3,5,6.87,57.29,35.41,
10.418,108.3554475781185,100.45767193399008,-2.0,-1.0,-2.0,2,0,0,3,4,3,5,6.77,56.31,35.32,
10.432,108.28754475781184,100.459767193399,-1.0,-1.0,-2.0,2,0,0,3,4,3,5,6.28,55.82,35.32,
10.446,108.25375447578118,100.4689767193399,-1.0,-1.0,-2.0,2,0,0,3,4,3,5,6.18,55.52,35.12,
10.461,108.20537544757812,100.433897671934,-2.0,-1.0,-2.0,2,0,0,3,4,3,5,6.18,55.13,35.22,
10.475,108.1645375447578,100.4573897671934,-1.0,0.0,-2.0,2,0,0,3,4,3,5,6.08,54.54,35.32,
10.488,108.13345375447577,100.45073897671934,-1.0,-1.0,-2.0,2,0,0,3,4,3,5,6.08,54.15,35.41,
10.503,108.14834537544758,100.53107389767193,-1.0,-1.0,-2.0,2,0,0,3,4,3,5,5.89,53.76,35.41,
10.517,108.15883453754475,100.59310738976718,-1.0,-1.0,-2.0,2,0,0,3,4,3,6,5.79,52.97,35.41,
10.531,108.14188345375447,100.59031073897673,-2.0,-1.0,-2.0,2,0,0,3,4,3,6,5.79,52.48,35.41,
10.546,108.11318834537545,100.58103107389768,-2.0,-1.0,-1.0,2,0,0,3,4,3,6,5.69,52.09,35.41,
10.56,108.14631883453755,100.67010310738978,-2.0,0.0,-1.0,2,0,0,3,4,3,5,5.59,51.80,35.32,
10.574,108.12263188345376,100.64301031073899,-1.0,0.0,-1.0,2,0,0,3,4,3,6,5.59,51.70,35.41,
10.589,108.11126318834538,100.5953010310739,-1.0,0.0,-1.0,2,0,0,3,4,3,6,5.59,51.60,35.51,
10.602,108.15512631883453,100.5815301031074,-1.0,0.0,-1.0,2,0,0,3,4,3,6,5.59,51.40,35.71,
10.616,108.18651263188345,100.54415301031074,-1.0,0.0,-1.0,2,0,0,3,4,3,6,5.59,51.31,35.81,
10.631,108.19865126318835,100.54041530103108,-1.0,0.0,-2.0,2,0,0,3,4,3,6,5.59,50.91,36.00,
10.645,108.15486512631884,100.54904153010311,-1.0,0.0,-2.0,2,0,0,3,4,3,6,5.69,50.62,36.20,
10.659,108.15048651263189,100.5949041530103,-1.0,0.0,-1.0,2,0,0,3,4,3,6,5.59,50.33,36.40,
10.673,108.12304865126319,100.61749041530103,-1.0,0.0,-1.0,2,0,0,3,4,3,6,5.59,49.74,36.59,
10.687,108.12930486512631,100.66474904153011,-1.0,0.0,-1.0,2,0,0,3,4,3,6,5.49,49.44,36.59,
10.701,108.09393048651263,100.65147490415302,-2.0,0.0,-1.0,2,0,0,3,4,3,6,5.59,49.15,36.89,
10.716,108.09039304865126,100.67714749041531,-2.0,0.0,-1.0,2,0,0,3,4,3,6,5.59,48.76,36.98,
10.73,108.09903930486512,100.71571474904152,-2.0,0.0,0.0,2,0,0,3,4,3,6,5.59,48.56,36.98,
10.743,108.04590393048652,100.69257147490414,-2.0,0.0,0.0,2,0,0,3,4,3,6,5.59,48.76,37.08,
10.758,108.04959039304865,100.71725714749041,-2.0,0.0,0.0,2,0,0,3,4,3,6,5.79,48.95,36.98,
10.772,108.04995903930487,100.68372571474904,-2.0,0.0,-1.0,2,0,0,3,4,3,6,5.98,49.25,36.98,
10.785,108.0319959039305,100.71637257147489,-2.0,0.0,-1.0,2,0,0,3,4,3,6,5.98,49.54,37.08,
10.8,108.06619959039304,100.69263725714748,-2.0,0.0,-1.0,2,0,0,3,4,3,6,6.08,49.34,37.18,
10.814,108.0876199590393,100.72626372571476,-2.0,0.0,0.0,2,0,0,3,4,3,6,5.98,49.34,37.18,
10.828,108.10776199590393,100.73862637257147,-2.0,0.0,0.0,2,0,0,3,4,3,6,6.18,49.34,37.18,
10.843,108.0917761995904,100.76686263725715,-2.0,0.0,0.0,2,0,0,3,4,3,6,6.18,49.44,37.28,
10.856,108.08117761995905,100.7516862637257,-2.0,0.0,0.0,2,0,0,3,4,3,6,6.18,49.54,37.08,
10.87,108.0351177619959,100.71416862637257,-2.0,0.0,0.0,2,0,0,3,4,3,6,6.18,49.54,37.08,
10.885,107.99451177619959,100.73741686263725,-2.0,0.0,0.0,2,0,0,3,4,3,6,6.08,49.83,36.98,
10.898,107.96345117761996,100.68574168626373,-2.0,0.0,0.0,2,0,0,3,4,3,6,6.08,50.03,36.98,
10.912,107.96034511776199,100.69857416862638,-2.0,0.0,0.0,2,0,0,3,4,3,6,6.08,50.03,36.79,
10.927,107.9600345117762,100.70885741686263,-2.0,0.0,0.0,2,0,0,3,4,3,6,6.08,50.03,36.69,
10.941,107.96900345117761,100.70088574168628,-2.0,0.0,0.0,2,0,0,3,4,3,6,6.08,50.23,36.69,
10.954,107.94290034511776,100.70008857416863,-2.0,0.0,0.0,2,0,0,3,4,3,6,5.89,50.13,36.59,
10.969,107.94029003451178,100.65500885741687,-2.0,0.0,0.0,2,0,0,3,4,3,6,5.98,50.33,36.40,
10.983,107.94902900345117,100.6775008857417,-2.0,0.0,0.0,2,0,0,3,4,3,6,6.08,50.52,36.40,
10.996,107.98590290034511,100.67975008857418,-2.0,0.0,0.0,2,0,0,3,4,3,6,5.98,50.72,36.30,
11.011,107.99859029003451,100.63497500885741,-2.0,0.0,0.0,2,0,0,3,4,3,6,5.89,50.72,36.20,
11.025,108.02685902900345,100.63049750088572,-2.0,0.0,0.0,2,0,0,3,4,3,6,5.89,50.72,36.10,
11.039,108.01168590290034,100.64804975008857,-2.0,0.0,0.0,2,0,0,3,4,3,6,5.89,50.62,35.90,
11.053,108.03716859029004,100.66780497500886,-1.0,0.0,0.0,2,0,0,3,4,3,6,5.98,50.62,35.90,
11.067,108.030716859029,100.75978049750088,-1.0,0.0,0.0,2,0,0,3,4,3,6,5.89,50.82,35.81,
11.081,107.9580716859029,100.77797804975009,-2.0,0.0,0.0,2,0,0,3,4,3,6,5.89,50.82,35.81,
11.095,107.95080716859029,100.752797804975,-2.0,0.0,0.0,2,0,0,3,4,3,6,5.98,51.01,35.81,
11.109,107.98608071685902,100.7502797804975,-2.0,0.0,0.0,2,0,0,3,4,3,6,5.98,50.91,35.90,
11.123,108.00760807168591,100.67802797804976,-2.0,0.0,0.0,2,0,0,3,4,3,6,5.98,50.91,35.81,
11.137,108.04576080716859,100.72480279780498,-2.0,0.0,-1.0,2,0,0,3,4,3,6,5.98,50.91,35.81,
11.151,108.03157608071686,100.6844802797805,-2.0,0.0,0.0,2,0,0,3,4,3,6,5.98,50.72,35.81,
11.165,108.03915760807169,100.72544802797806,-2.0,0.0,-1.0,2,0,0,3,4,3,6,5.89,50.72,35.81,
11.18,108.07591576080718,100.7475448027978,-2.0,0.0,0.0,2,0,0,3,4,3,6,5.89,50.52,35.71,
11.194,108.0705915760807,100.73175448027979,-2.0,0.0,-1.0,2,0,0,3,4,3,6,5.89,50.62,35.71,
11.207,108.07005915760806,100.70317544802799,-2.0,0.0,-1.0,2,0,0,3,4,3,6,5.79,50.42,35.71,
11.222,107.9980059157608,100.74531754480279,-2.0,0.0,-1.0,2,0,0,3,4,3,6,5.79,50.33,35.61,
11.236,107.95480059157607,100.76753175448027,-2.0,0.0,-1.0,2,0,0,3,4,3,6,5.59,50.23,35.41,
11.25,107.9504800591576,100.75175317544802,-2.0,0.0,-1.0,2,0,0,3,4,3,6,5.59,50.23,35.22,
11.264,108.04004800591576,100.7231753175448,-2.0,0.0,-1.0,2,0,0,3,4,3,6,5.59,50.23,35.02,
11.278,108.15700480059158,100.76531753175448,-2.0,0.0,-1.0,2,0,0,3,4,3,6,5.49,50.23,34.83,
11.292,108.16870048005916,100.78753175317546,-2.0,0.0,-1.0,2,0,0,3,4,3,6,5.40,50.13,34.73,
11.307,108.17887004800592,100.82575317531754,-2.0,0.0,-1.0,2,0,0,3,4,3,6,5.30,50.03,34.53,
11.321,108.11688700480059,100.79357531753176,-2.0,0.0,0.0,2,0,0,3,4,3,6,5.20,50.23,34.43,
11.334,108.07468870048005,100.80835753175317,-2.0,0.0,0.0,2,0,0,3,4,3,6,5.20,50.52,34.34,
11.348,108.034468870048,100.8008357531753,-2.0,0.0,0.0,2,0,0,3,4,3,6,5.20,50.72,34.43,
11.363,108.0304468870048,100.75508357531753,-2.0,0.0,0.0,2,0,0,3,4,3,6,5.30,51.40,34.53,
11.377,108.01204468870048,100.73250835753176,-2.0,0.0,0.0,2,0,0,3,4,3,6,5.40,51.70,34.53,
11.39,108.02820446887004,100.65825083575318,-2.0,0.0,0.0,2,0,0,3,4,3,6,5.40,51.99,34.63,
11.405,108.011820446887,100.65982508357531,-2.0,0.0,0.0,2,0,0,3,4,3,6,5.59,52.29,34.63,
11.419,108.0281820446887,100.65098250835754,-2.0,0.0,0.0,2,0,0,3,4,3,6,5.59,52.78,34.53,
11.432,108.05681820446887,100.65909825083574,-2.0,0.0,-1.0,2,0,0,3,4,3,6,5.59,52.97,34.53,
11.447,108.06868182044687,100.66890982508357,-2.0,0.0,-1.0,2,0,0,3,4,3,6,5.69,52.97,34.53,
11.461,108.02486818204468,100.62489098250836,-2.0,0.0,-1.0,2,0,0,3,4,3,6,5.59,52.97,34.53,
11.475,108.03848681820448,100.58448909825084,-2.0,0.0,-1.0,2,0,0,3,4,3,6,5.40,52.68,34.53,
11.49,108.03984868182044,100.5804489098251,-2.0,0.0,-1.0,2,0,0,3,4,3,6,5.30,52.39,34.24,
11.503,108.03098486818205,100.5980448909825,-2.0,0.0,-1.0,2,0,0,3,4,3,6,5.20,52.09,34.14,
11.517,108.0750984868182,100.58180448909826,-2.0,0.0,-1.0,2,0,0,3,4,3,5,5.00,51.80,34.14,
11.532,108.15150984868181,100.60718044890983,-2.0,0.0,0.0,2,0,0,3,4,3,5,4.81,51.70,33.94,
11.546,108.18615098486818,100.59171804489098,-2.0,0.0,0.0,2,0,0,3,4,3,5,4.71,51.80,33.65,
11.559,108.18061509848683,100.57217180448909,-2.0,0.0,0.0,2,0,0,3,4,3,5,4.51,51.99,33.45,
11.574,108.16206150984867,100.5522171804489,-2.0,0.0,0.0,2,0,0,3,4,3,5,4.41,52.68,33.26,
11.588,108.16920615098488,100.5502217180449,-2.0,0.0,0.0,2,0,0,3,4,2,5,4.02,53.07,33.06,
11.601,108.14292061509849,100.5140221718045,-2.0,0.0,0.0,2,0,0,3,4,2,5,3.92,53.46,32.86,
11.616,108.12229206150985,100.56440221718044,-2.0,0.0,0.0,2,0,0,3,4,2,5,3.73,54.05,32.86,
11.63,108.07522920615098,100.56944022171803,-2.0,0.0,0.0,2,0,0,3,4,2,5,3.73,54.94,32.77,
11.644,108.0885229206151,100.6239440221718,-3.0,0.0,0.0,2,0,0,3,4,2,5,3.53,55.52,32.67,
11.658,108.1258522920615,100.62939440221717,-3.0,0.0,0.0,2,0,0,3,4,2,5,3.53,56.11,32.47,
11.672,108.10258522920614,100.59393944022172,-2.0,0.0,0.0,2,0,0,3,4,2,5,3.43,57.78,32.27,
11.686,108.05525852292061,100.59039394402217,-2.0,0.0,0.0,2,0,0,3,4,2,5,3.43,58.76,32.18,
11.7,108.05952585229207,100.57203939440221,-2.0,0.0,0.0,2,0,0,3,4,2,5,3.43,59.74,31.98,
11.714,108.0689525852292,100.54320393944022,-2.0,0.0,0.0,2,0,0,3,4,2,5,3.53,60.63,31.98,
11.728,108.11489525852292,100.54032039394403,-3.0,0.0,0.0,2,0,0,3,4,2,5,3.53,61.90,31.78,
11.743,108.0294895258523,100.4950320393944,-4.0,-1.0,0.0,2,0,0,3,4,2,5,3.43,62.49,31.59,
11.756,108.05694895258523,100.43650320393945,-5.0,-1.0,0.0,2,0,0,3,4,2,5,3.14,62.88,31.00,
11.77,108.05069489525853,100.51165032039395,-7.0,-4.0,0.0,2,0,0,3,4,2,5,3.04,63.37,30.41,
11.785,108.03206948952585,100.5371650320394,-9.0,-4.0,0.0,2,0,0,2,4,2,5,2.84,65.53,29.63,
11.799,107.98520694895258,100.44971650320394,-10.0,-3.0,0.0,2,0,0,2,4,1,5,2.55,67.39,27.17,
11.813,107.88152069489527,100.31497165032039,-10.0,-3.0,-1.0,2,0,0,2,3,1,5,1.86,69.65,25.70,
11.828,107.80815206948952,100.20249716503204,-9.0,-2.0,0.0,2,0,0,2,3,1,4,1.37,74.85,24.23,
11.841,107.74681520694894,99.9932497165032,-9.0,-1.0,0.0,1,0,0,2,3,1,4,0.88,77.40,22.86,
11.855,107.8306815206949,99.81032497165032,-8.0,0.0,-1.0,1,0,0,1,3,1,4,0.39,79.66,20.01,
11.87,107.7400681520695,99.68403249716503,-6.0,0.0,-2.0,1,0,0,1,3,0,4,0.00,81.82,18.93,
11.884,107.54200681520695,99.3564032497165,-2.0,0.0,-1.0,1,0,0,1,3,1,4,0.00,85.74,17.85,
11.897,107.7652006815207,99.17964032497164,1.0,2.0,-3.0,1,0,0,2,3,1,4,0.00,86.72,17.27,
11.912,107.75152006815208,99.36896403249717,1.0,2.0,-6.0,1,0,0,2,3,1,5,0.00,86.52,17.46,
11.926,107.7951520068152,99.49589640324973,2.0,6.0,-4.0,2,0,0,2,4,1,5,0.00,85.54,18.15,
11.939,107.79051520068153,99.40058964032498,3.0,6.0,-5.0,2,0,0,2,4,1,5,0.00,82.50,19.03,
11.954,107.65505152006816,99.49905896403251,5.0,7.0,-4.0,2,0,0,2,4,1,6,0.20,80.83,20.21,
11.968,107.4345051520068,99.74290589640324,4.0,10.0,-2.0,2,0,0,2,4,2,6,0.78,78.68,23.94,
11.981,107.55645051520068,99.89329058964032,2.0,11.0,-2.0,2,0,0,2,4,2,6,1.47,76.13,26.29,
11.996,107.78464505152007,99.93532905896403,1.0,11.0,-2.0,2,0,0,3,4,2,6,3.34,71.42,28.45,
12.01,108.11346450515201,100.1105329058964,0.0,8.0,-2.0,2,0,0,3,4,2,6,4.32,69.16,32.18,
12.023,108.49734645051521,100.28105329058964,-1.0,6.0,-1.0,2,0,0,3,4,2,6,5.30,67.39,33.65,
12.038,108.74273464505151,100.42410532905896,-2.0,5.0,0.0,2,0,0,3,4,2,6,6.18,65.92,34.73,
12.052,109.01927346450515,100.42041053290589,-3.0,5.0,0.0,2,0,0,3,4,2,6,7.95,64.65,35.41,
12.066,109.10992734645052,100.3750410532906,-3.0,6.0,-1.0,2,0,0,3,4,2,6,8.63,65.14,36.20,
12.08,109.13699273464505,100.33450410532906,-2.0,4.0,0.0,2,0,0,3,4,2,6,9.32,65.92,36.49,
12.094,109.2476992734645,100.3844504105329,-2.0,3.0,0.0,2,0,0,3,4,2,6,9.81,67.30,36.59,
12.108,109.32176992734645,100.36244504105329,-2.0,2.0,0.0,2,0,0,3,4,2,6,10.79,67.89,36.69,
12.123,109.26617699273464,100.26124450410533,-3.0,2.0,-1.0,2,0,0,3,4,2,6,11.18,68.47,36.98,
12.137,109.17061769927346,100.26912445041053,-3.0,3.0,0.0,2,0,0,3,4,2,6,11.58,69.45,37.08,
12.15,109.17006176992734,100.33291244504106,-3.0,3.0,0.0,2,0,0,3,4,2,6,11.97,72.59,37.18,
12.165,109.24200617699273,100.4922912445041,-3.0,1.0,2.0,2,0,0,3,4,2,6,13.05,74.16,37.28,
12.179,109.22220061769927,100.63422912445041,-3.0,1.0,4.0,2,0,0,3,4,2,6,13.34,75.73,36.89,
12.193,109.14822006176992,100.51342291244504,-4.0,0.0,5.0,2,0,0,3,4,2,6,13.93,77.60,36.30,
12.208,109.275822006177,100.35734229124452,-3.0,1.0,4.0,2,0,0,3,4,2,6,14.62,83.09,35.61,
12.221,109.44158220061769,100.22473422912444,-3.0,2.0,2.0,2,0,0,3,4,2,6,15.60,85.84,34.34,
12.235,109.70115822006177,100.04047342291244,-4.0,3.0,1.0,2,0,0,3,4,2,6,15.89,88.00,33.65,
12.25,109.84411582200617,100.02204734229124,-3.0,4.0,0.0,2,0,0,3,4,2,6,15.99,92.31,32.96,
12.264,109.8764115822006,100.07420473422913,-3.0,3.0,0.0,2,0,0,3,4,2,6,16.09,94.67,32.37,
12.278,109.94264115822006,100.07942047342291,-5.0,2.0,0.0,2,0,0,3,4,2,6,16.58,97.32,31.98,
12.292,110.012264115822,100.24194204734229,-6.0,1.0,2.0,2,0,0,3,4,2,6,17.17,100.45,31.59,
12.306,109.9832264115822,100.32119420473423,-6.0,5.0,2.0,2,0,0,3,4,2,6,17.66,108.40,30.90,
12.32,109.99832264115821,100.19411942047343,-5.0,6.0,2.0,2,0,0,3,4,2,6,18.05,113.60,29.53,
12.335,110.03583226411583,99.99241194204734,-5.0,5.0,1.0,2,0,0,3,4,2,6,18.84,119.29,28.74,
12.349,110.26458322641159,99.72024119420473,-4.0,6.0,0.0,2,0,0,3,4,2,6,18.84,124.88,28.06,
12.363,110.75545832264116,99.48602411942046,-3.0,6.0,-6.0,2,0,0,3,4,2,6,18.84,133.61,27.57,
12.378,111.05654583226412,99.43560241194206,-2.0,0.0,-9.0,2,0,0,3,4,2,7,18.64,136.95,28.45,
12.391,111.03265458322642,99.39456024119421,-2.0,-2.0,-10.0,2,0,0,3,4,2,7,16.78,139.99,30.12,
12.405,110.89526545832264,98.95845602411943,1.0,-5.0,-12.0,2,0,0,3,4,2,7,15.79,145.48,32.08,
12.42,110.82752654583226,98.94184560241195,1.0,-7.0,-13.0,3,0,0,3,4,3,8,15.11,146.46,34.24,
12.434,110.66775265458323,99.1921845602412,0.0,-13.0,-11.0,3,0,0,3,4,3,8,14.03,145.68,40.22,
12.448,110.40877526545832,99.49621845602411,0.0,-14.0,-7.0,3,0,0,3,4,3,8,11.77,143.91,43.56,
12.463,109.96887752654582,99.65262184560241,0.0,-15.0,-7.0,3,0,0,3,5,3,9,10.89,141.36,46.40,
12.477,109.60088775265459,99.75826218456024,0.0,-12.0,-5.0,3,0,0,3,5,3,9,10.10,140.97,51.21,
12.491,109.19508877526548,99.95782621845602,0.0,-12.0,-4.0,3,0,0,3,5,3,9,9.32,140.68,53.76,
12.506,108.81250887752654,100.16678262184561,0.0,-10.0,-3.0,3,0,0,3,5,3,9,7.95,139.60,56.31,
12.52,108.44125088775266,100.22367826218456,-1.0,-7.0,-2.0,3,0,0,3,5,3,9,7.36,139.01,58.86,
12.534,108.23312508877525,100.19336782621846,-2.0,-2.0,-1.0,3,0,0,3,5,3,9,6.97,138.52,63.18,
12.549,107.79831250887753,100.16333678262185,-2.0,2.0,-1.0,3,0,0,3,5,3,9,6.67,138.42,64.94,
12.563,107.71883125088775,100.10633367826219,-2.0,7.0,-2.0,3,0,0,3,5,3,9,6.67,137.54,66.41,
12.577,107.88188312508879,100.15463336782622,-2.0,10.0,-1.0,3,0,0,3,5,3,9,7.36,135.87,67.10,
12.592,108.21318831250888,100.19546333678262,-3.0,14.0,-1.0,3,0,0,3,4,3,9,8.34,133.61,66.02,
12.606,108.7323188312509,100.01054633367826,-3.0,17.0,0.0,3,0,0,4,4,3,9,9.42,127.33,63.86,
12.62,108.9192318831251,100.18105463336784,-3.0,13.0,0.0,3,0,0,4,4,3,8,12.65,124.49,60.14,
12.635,109.2079231883125,100.15310546333679,-3.0,16.0,0.0,3,0,0,4,4,3,8,14.13,122.33,52.39,
12.649,109.52479231883125,100.07831054633368,-2.0,15.0,0.0,3,0,0,4,4,4,8,15.60,121.06,49.44,
12.663,109.78147923188313,99.96283105463337,-2.0,13.0,-1.0,3,0,0,4,4,4,8,18.34,119.29,47.09,
12.677,109.90614792318831,100.03228310546334,-2.0,12.0,-1.0,3,0,0,4,4,4,8,19.62,118.11,44.73,
12.692,110.17061479231883,100.08422831054634,-2.0,9.0,-1.0,3,0,0,4,4,4,8,21.19,116.25,43.75,
12.706,110.46706147923189,100.14342283105464,-1.0,7.0,-1.0,2,0,0,4,4,4,8,22.96,110.95,42.67,
12.72,110.64070614792318,100.13134228310547,-1.0,7.0,-2.0,2,0,0,4,4,4,8,26.00,107.71,40.42,
12.734,110.75707061479231,100.10313422831055,0.0,5.0,-3.0,2,0,0,5,4,4,8,27.17,104.38,39.44,
12.748,110.71470706147923,100.13631342283105,0.0,5.0,-3.0,2,0,0,5,4,4,8,28.55,101.04,38.75,
12.763,110.97147070614793,100.10363134228311,0.0,5.0,-4.0,2,0,0,5,4,4,8,29.92,94.08,38.46,
12.777,111.2311470706148,100.22636313422831,0.0,3.0,-5.0,2,0,0,5,4,4,8,32.57,90.35,38.65,
12.791,111.42811470706148,100.31063631342283,0.0,0.0,-4.0,2,0,0,5,4,4,8,33.35,86.33,39.04,
12.806,111.61881147070615,100.33706363134229,0.0,-1.0,-4.0,2,0,0,5,4,4,8,33.94,79.36,39.53,
12.82,111.71888114707062,100.33970636313424,0.0,-5.0,-4.0,2,0,0,5,4,4,8,34.43,76.62,40.02,
12.833,111.78288811470706,100.35797063631342,2.0,-8.0,-3.0,2,0,0,5,4,4,8,34.53,74.07,41.01,
12.848,111.52828881147072,100.47679706363134,3.0,-9.0,-3.0,2,0,0,5,4,4,8,34.43,71.61,41.50,
12.862,111.43982888114708,100.55167970636313,3.0,-9.0,-3.0,2,0,0,5,4,5,8,34.24,67.49,42.28,
12.876,111.1969828881147,100.64916797063631,5.0,-9.0,-3.0,2,0,0,5,4,5,8,34.04,65.43,44.44,
12.891,111.17269828881146,100.71291679706363,5.0,-7.0,-5.0,2,0,0,5,4,5,9,33.75,63.27,45.62,
12.905,110.95426982888115,100.81829167970636,5.0,-6.0,-6.0,2,0,0,5,4,5,9,33.65,58.17,47.19,
12.919,110.75242698288812,100.90982916797064,6.0,-6.0,-7.0,2,0,0,5,4,5,9,33.65,55.62,49.05,
12.934,110.60624269828881,100.94598291679706,6.0,-6.0,-7.0,2,0,0,5,4,5,9,33.75,53.07,53.46,
12.948,110.50162426982888,100.9675982916797,8.0,-8.0,-8.0,2,0,0,5,4,5,9,34.53,50.23,55.92,
12.961,110.38316242698289,100.95175982916797,10.0,-10.0,-10.0,2,0,0,5,5,5,9,34.73,43.65,58.27,
12.977,110.30831624269828,101.0941759829168,12.0,-13.0,-12.0,2,0,0,5,5,5,9,34.83,39.73,64.16,
12.991,110.20183162426983,101.18041759829168,14.0,-14.0,-14.0,2,0,0,6,5,6,9,34.53,35.71,67.59,
13.005,109.97518316242697,101.40504175982917,15.0,-15.0,-15.0,2,0,0,6,5,6,10,33.45,28.15,71.51,
13.02,109.53851831624269,101.44550417598292,19.0,-16.0,-17.0,2,0,0,6,5,6,10,32.96,24.92,76.13,
13.034,109.01785183162426,101.80055041759829,23.0,-15.0,-18.0,1,0,0,6,5,6,10,32.47,21.88,87.31,
13.048,108.64178518316241,101.93505504175984,28.0,-16.0,-22.0,1,0,0,6,5,7,10,31.39,15.60,93.59,
13.064,108.13617851831624,101.30950550417597,36.0,-19.0,-24.0,1,0,0,7,5,7,10,30.31,11.77,100.06,
13.078,107.70761785183163,101.52595055041759,36.0,-5.0,-36.0,0,0,0,7,5,8,10,28.94,7.65,113.50,
13.092,107.84476178518315,101.60159505504176,42.0,-4.0,-29.0,0,0,0,7,5,8,10,27.27,3.34,119.78,
13.107,108.80347617851832,100.81715950550418,53.0,-6.0,-29.0,0,0,0,8,5,8,10,24.23,0.00,125.47,
13.121,107.22534761785182,102.31371595055042,51.0,12.0,-22.0,0,0,0,8,5,8,10,22.96,0.00,134.50,
13.135,106.75253476178518,104.27237159505503,54.0,10.0,-23.0,0,0,0,8,5,9,10,21.29,0.00,137.54,
13.15,108.18125347617851,106.36723715950549,58.0,16.0,-25.0,0,0,0,9,5,9,10,18.84,0.00,139.89,
13.164,108.10812534761784,107.24272371595056,59.0,26.0,-26.0,0,0,0,9,5,9,10,11.97,0.00,142.93,
13.178,108.01981253476178,107.32127237159504,65.0,33.0,-26.0,0,0,0,9,5,9,10,9.22,0.00,143.13,
13.193,107.85798125347618,107.1941272371595,66.0,46.0,-27.0,0,0,0,9,5,9,10,6.97,0.00,142.15,
13.207,108.33679812534761,107.26241272371594,71.0,57.0,-24.0,0,0,0,9,5,9,10,2.45,0.00,139.79,
13.221,108.42067981253476,106.5222412723716,78.0,69.0,-36.0,0,0,0,8,4,8,10,0.49,0.00,130.77,
13.236,109.54506798125348,107.94222412723715,94.0,57.0,-25.0,0,0,0,8,4,8,9,0.00,0.00,124.29,
13.25,110.18850679812536,108.84922241272372,90.0,56.0,-46.0,0,0,0,8,4,7,9,0.00,0.00,116.05,
13.263,109.77585067981254,109.21892224127237,84.0,54.0,-43.0,0,0,0,7,4,6,9,0.00,0.00,105.65,
13.278,110.85058506798126,111.35289222412725,89.0,40.0,-37.0,0,0,0,7,4,6,8,0.00,0.00,77.20,
13.292,111.92105850679813,113.46528922241272,90.0,38.0,-31.0,0,0,0,7,3,5,8,0.00,0.00,57.39,
13.306,114.67410585067981,115.12552892224127,94.0,30.0,-28.0,0,0,0,6,3,4,6,0.00,0.00,39.34,
13.32,116.91141058506798,115.50755289222413,89.0,23.0,-21.0,0,0,0,5,2,3,4,0.00,0.00,23.05,
13.334,118.72814105850681,114.4927552892224,71.0,8.0,-36.0,0,0,0,3,1,3,2,0.00,0.00,18.93,
13.348,120.79981410585069,114.26527552892225,54.0,-2.0,-48.0,0,0,0,1,0,2,0,0.00,0.00,15.21,
13.362,123.32898141058506,114.25152755289223,25.0,-30.0,-40.0,0,0,0,0,0,2,0,0.00,0.00,11.97,
13.376,125.1568981410585,105.68215275528922,-19.0,-66.0,-59.0,0,0,0,0,0,2,0,0.29,0.00,6.57,
13.39,125.03368981410586,101.17121527552892,-56.0,-113.0,-45.0,0,0,0,0,0,2,0,0.59,0.00,5.00,
13.404,123.6533689814106,95.37412152755289,-81.0,-134.0,-48.0,0,0,0,0,0,2,0,0.59,0.00,4.41,
13.418,121.10333689814105,89.55641215275529,-92.0,-155.0,-64.0,0,0,0,0,0,2,0,0.49,0.00,4.32,
13.431,117.8153336898141,85.33864121527554,-101.0,-144.0,-85.0,0,0,0,0,0,2,0,0.59,0.00,3.92,
13.446,113.98553336898141,83.08986412152757,-111.0,-131.0,-75.0,0,0,0,0,0,2,0,0.78,0.00,3.73,
13.46,110.30855333689814,80.57898641215274,-116.0,-120.0,-64.0,0,0,0,0,0,2,0,0.78,0.00,3.53,
13.473,106.14285533368982,79.19389864121528,-115.0,-105.0,-53.0,0,0,0,0,0,2,0,0.69,0.00,3.43,
13.488,101.38828553336899,79.23538986412153,-116.0,-66.0,-28.0,0,0,0,0,0,2,0,0.69,0.00,3.83,
13.502,98.3568285533369,79.81553898641215,-112.0,-28.0,0.0,0,0,0,0,0,1,0,1.08,0.00,4.02,
13.515,95.9926828553337,80.39555389864121,-104.0,-7.0,28.0,0,0,0,0,0,1,0,1.08,0.00,4.41,
13.53,94.28026828553338,79.95855538986412,-103.0,9.0,52.0,0,0,0,0,0,1,0,0.98,0.00,4.51,
13.543,93.20902682855333,78.2588555389864,-108.0,11.0,59.0,0,0,0,0,0,1,0,1.08,0.00,4.71,
13.556,92.62490268285534,75.40688555389865,-115.0,6.0,54.0,0,0,0,0,0,1,0,1.08,0.00,4.71,
13.571,92.34149026828554,72.40368855538986,-119.0,0.0,40.0,0,0,0,0,0,1,0,1.18,0.00,4.71,
13.584,92.22314902682854,69.86236885553899,-123.0,0.0,22.0,0,0,0,0,0,0,0,1.18,0.00,4.71,
13.598,92.04931490268285,68.54623688555391,-128.0,-2.0,10.0,0,0,0,0,0,0,0,1.18,0.00,4.61,
13.612,91.50093149026829,67.7666236885554,-137.0,-1.0,-2.0,0,0,0,0,0,0,0,1.18,0.00,4.61,
13.625,90.99609314902683,67.80566236885554,-147.0,-3.0,-5.0,0,0,0,0,0,0,0,1.08,0.00,4.32,
13.639,90.72960931490269,68.17856623688556,-152.0,-7.0,0.0,0,0,0,0,0,0,0,0.88,0.00,4.02,
13.652,90.59496093149028,68.84585662368856,-155.0,-3.0,4.0,0,0,0,0,0,0,0,0.69,0.00,3.83,
13.666,90.53649609314903,70.19058566236886,-156.0,1.0,9.0,0,0,0,0,0,0,0,0.59,0.00,3.34,
13.68,90.6206496093149,71.78305856623687,-153.0,7.0,15.0,0,0,0,0,0,0,0,0.69,0.00,3.34,
13.693,90.9350649609315,73.37330585662367,-146.0,15.0,18.0,0,0,0,0,0,0,0,0.69,0.00,3.43,
13.707,91.47950649609317,75.09833058566238,-140.0,12.0,18.0,0,0,0,0,0,0,0,0.49,0.00,3.53,
13.721,92.28995064960931,76.53083305856623,-138.0,18.0,15.0,0,0,0,0,0,0,0,0.39,0.00,3.63,
13.734,93.07299506496092,77.80808330585663,-127.0,19.0,7.0,0,0,0,0,0,0,0,0.29,0.00,3.43,
13.748,94.0152995064961,79.27680833058565,-110.0,24.0,0.0,0,0,0,0,0,0,0,0.29,0.00,3.34,
13.762,94.1905299506496,81.83568083305856,-57.0,26.0,22.0,0,0,0,0,0,0,0,0.39,0.00,3.43,
13.775,91.04905299506497,79.85956808330586,-137.0,154.0,6.0,0,0,0,0,0,0,0,0.49,0.00,2.84,
13.789,88.3859052995065,79.49995680833058,-128.0,-16.0,21.0,0,0,0,0,0,0,0,0.39,0.00,2.45,
13.803,88.26359052995065,83.38799568083306,-68.0,2.0,30.0,0,0,0,0,0,0,0,0.39,0.00,2.45,
13.816,90.58235905299506,87.7277995680833,-48.0,66.0,39.0,0,0,0,0,0,0,0,0.39,0.00,2.55,
13.83,91.3182359052995,91.05077995680833,-36.0,62.0,45.0,0,0,0,0,0,0,0,0.20,0.00,2.45,
13.843,92.53482359052995,93.95707799568083,-26.0,66.0,49.0,0,0,0,0,0,0,0,0.10,0.00,2.26,
13.857,94.528482359053,96.16470779956809,-16.0,71.0,47.0,0,0,0,0,0,0,0,0.10,0.00,1.86,
13.871,96.1678482359053,98.42847077995683,-2.0,73.0,34.0,0,0,0,0,0,0,0,0.10,0.00,1.77,
13.884,97.39378482359052,101.25584707799568,-1.0,62.0,20.0,0,0,0,0,0,0,0,0.10,0.00,1.96,
13.897,97.96637848235906,104.26558470779956,0.0,67.0,16.0,0,0,0,0,0,0,0,0.10,0.00,1.77,
13.911,100.1926378482359,107.57255847077995,9.0,58.0,0.0,0,0,0,0,0,0,0,0.00,0.00,1.57,
13.924,100.9732637848236,109.919255847078,28.0,47.0,-22.0,0,0,0,0,0,0,0,0.00,0.00,1.67,
13.938,102.75232637848237,112.5119255847078,47.0,26.0,-38.0,0,0,0,0,0,0,0,0.00,0.00,1.77,
13.952,103.57823263784823,114.60719255847079,54.0,4.0,-47.0,0,0,0,1,0,0,0,0.00,0.00,1.67,
13.965,104.69582326378482,116.43671925584708,45.0,4.0,-38.0,0,0,0,1,0,0,0,0.00,0.00,1.37,
13.979,105.61758232637848,116.43967192558472,32.0,15.0,-26.0,0,0,0,1,0,0,0,0.10,0.00,1.08,
13.992,108.60775823263785,116.20596719255848,49.0,42.0,-11.0,0,0,0,1,0,0,0,0.20,0.00,0.88,
14.006,111.54377582326379,116.74959671925585,59.0,42.0,-27.0,0,0,0,0,0,0,0,0.39,0.00,0.59,
14.019,114.65437758232638,118.40595967192559,72.0,49.0,-35.0,0,0,0,0,0,0,0,0.49,1.67,0.20,
14.033,115.97343775823265,119.63359596719255,65.0,19.0,-16.0,0,0,0,0,0,0,0,0.59,4.41,0.00,
14.047,117.88734377582325,114.92335959671927,50.0,36.0,8.0,0,0,0,0,0,0,0,0.49,7.95,0.00,
14.06,119.96873437758234,106.39733595967192,55.0,17.0,1.0,0,0,0,0,0,0,0,0.49,17.76,0.00,
14.073,121.49087343775822,99.64073359596719,101.0,41.0,-62.0,0,0,0,0,0,0,0,0.49,26.49,0.00,
14.088,117.87208734377582,99.53207335959672,124.0,40.0,-58.0,0,0,0,0,0,0,0,0.29,45.42,0.10,
14.101,116.03420873437759,102.49120733595967,121.0,43.0,-11.0,0,0,0,0,0,0,0,0.20,79.76,0.49,
14.115,116.04842087343775,103.93912073359596,92.0,25.0,-3.0,0,0,0,0,0,0,0,0.00,135.18,0.78,
14.129,116.48184208734378,105.1279120733596,79.0,5.0,4.0,0,0,0,0,0,0,0,0.00,144.99,1.08,
14.142,115.98518420873438,105.02179120733595,75.0,7.0,19.0,0,0,0,0,0,0,0,0.00,144.01,2.35,
14.156,117.24951842087343,104.69617912073359,66.0,-12.0,14.0,0,0,0,0,0,0,0,0.00,135.67,3.04,
14.17,118.09595184208733,103.73661791207336,58.0,-12.0,16.0,0,0,0,0,0,0,0,0.00,126.55,4.22,
14.184,118.14459518420874,102.75866179120735,47.0,-21.0,8.0,1,0,0,0,0,0,0,0.00,118.50,5.69,
14.198,117.37545951842088,101.67986617912075,43.0,-30.0,-2.0,1,0,0,1,1,0,1,0.00,118.50,8.34,
14.213,116.76754595184208,101.23898661791208,34.0,-50.0,17.0,1,0,0,1,2,0,1,0.00,120.76,10.10,
14.227,116.95875459518422,100.45689866179121,25.0,-21.0,-10.0,1,0,0,1,3,0,2,1.08,128.12,12.46,
14.241,115.66387545951842,100.92768986617912,18.0,-6.0,-11.0,2,0,0,1,4,0,3,2.65,130.77,19.91,
14.256,115.16538754595184,100.6327689866179,11.0,-8.0,-13.0,2,0,0,2,4,0,3,3.92,131.65,24.43,
14.27,115.1785387545952,100.60327689866178,8.0,-10.0,-12.0,2,0,0,2,4,0,4,5.10,131.65,30.12,
14.284,114.99085387545952,100.62732768986616,3.0,-11.0,-11.0,2,0,0,2,4,0,5,7.36,132.93,37.18,
14.299,113.89208538754595,100.42273276898663,5.0,-7.0,-7.0,2,0,0,2,4,0,6,8.53,135.67,52.48,
14.313,113.04420853875459,100.29427327689868,3.0,-2.0,-7.0,2,0,0,2,4,0,6,9.81,139.20,60.23,
14.327,112.34742085387545,100.11042732768988,2.0,-2.0,-7.0,2,0,0,2,4,1,7,11.28,143.72,67.89,
14.342,111.81874208538754,99.96604273276898,1.0,0.0,-7.0,2,0,0,3,5,1,7,14.13,142.83,79.56,
14.355,111.79287420853876,99.7716042732769,1.0,0.0,-7.0,2,0,0,3,5,1,7,15.30,140.09,83.19,
14.369,111.76328742085387,99.52716042732769,1.0,-2.0,-7.0,2,0,0,3,5,2,7,16.19,135.67,84.37,
14.384,111.71532874208539,99.67371604273276,0.0,-4.0,-5.0,2,0,0,3,5,2,8,16.87,125.47,83.97,
14.398,111.56653287420853,99.77837160427327,0.0,-4.0,-3.0,2,0,0,3,5,2,8,16.68,120.37,82.21,
14.412,111.51565328742086,99.66283716042733,-2.0,-7.0,-3.0,2,0,0,3,5,2,8,15.99,115.37,81.13,
14.427,111.51056532874209,99.49828371604275,-2.0,-7.0,-3.0,2,0,0,3,5,2,8,15.01,108.20,80.15,
14.441,111.42005653287421,99.53582837160428,-2.0,-6.0,-1.0,2,0,0,3,5,2,8,14.03,106.73,79.07,
14.455,111.22200565328741,99.50358283716042,-3.0,-2.0,0.0,2,0,0,3,5,2,8,12.46,106.34,77.11,
14.47,111.13920056532874,99.59935828371604,-7.0,-2.0,0.0,2,0,0,3,5,2,8,12.07,107.03,75.73,
14.484,111.18492005653287,99.2669358283716,-9.0,0.0,0.0,3,0,0,3,5,2,8,11.87,112.52,73.67,
14.497,110.91049200565328,98.81969358283716,-7.0,-1.0,-1.0,3,0,0,2,5,2,8,11.77,117.72,68.18,
14.512,110.85604920056532,98.5499693582837,-5.0,0.0,-3.0,3,0,0,2,5,2,8,11.87,123.70,65.83,
14.526,110.77860492005652,98.53199693582837,-4.0,-1.0,-4.0,3,0,0,2,5,2,8,11.87,132.24,64.35,
14.54,110.74386049200565,98.63819969358285,-4.0,0.0,-4.0,3,0,0,2,5,2,8,11.97,134.00,63.67,
14.555,110.79438604920057,98.5228199693583,-4.0,-1.0,-5.0,3,0,0,2,5,2,8,11.97,135.08,63.37,
14.569,110.55643860492006,98.57428199693582,-4.0,-2.0,-4.0,3,0,0,2,5,2,8,12.26,136.56,63.27,
14.583,110.343643860492,98.5884281996936,-4.0,-3.0,-3.0,3,0,0,2,5,2,8,12.56,140.87,63.27,
14.598,109.69236438604919,98.34684281996935,-3.0,-1.0,-3.0,3,0,0,2,5,2,8,12.85,143.23,63.18,
14.612,109.58223643860492,98.20568428199692,0.0,-5.0,-3.0,3,0,0,2,5,2,8,12.95,144.99,62.98,
14.626,109.45422364386049,97.9665684281997,2.0,-3.0,-6.0,3,0,0,2,5,2,8,13.05,144.80,63.37,
14.641,109.52242236438605,98.07765684281998,3.0,-6.0,-7.0,3,0,0,2,5,2,8,13.15,141.75,64.45,
14.655,109.58324223643861,98.30476568428199,4.0,-9.0,-6.0,3,0,0,3,5,2,8,13.15,137.05,69.26,
14.668,109.56232422364386,98.57047656842819,5.0,-8.0,-3.0,3,0,0,3,5,2,9,13.15,131.85,72.10,
14.683,109.35323242236439,99.02004765684282,6.0,-11.0,-1.0,3,0,0,3,5,3,9,13.24,122.33,75.14,
14.697,109.30532324223644,99.04700476568428,6.0,-9.0,0.0,3,0,0,3,5,3,9,13.34,118.41,81.52,
14.711,109.11153232422365,99.03170047656843,7.0,-10.0,-1.0,3,0,0,3,5,3,9,13.34,114.97,84.86,
14.726,108.98415323242237,99.21017004765685,7.0,-8.0,-1.0,3,0,0,3,5,3,9,13.44,108.60,88.00,
14.74,108.93541532324224,99.41701700476568,5.0,-7.0,-1.0,3,0,0,3,5,3,9,13.44,104.87,90.74,
14.754,108.90354153232423,99.61770170047657,3.0,-5.0,-3.0,3,0,0,3,5,3,9,13.54,101.24,93.00,
14.769,108.54935415323243,99.89877017004767,2.0,-4.0,-1.0,3,0,0,3,5,3,9,13.93,98.59,92.70,
14.782,108.58593541532325,99.90887701700476,1.0,-2.0,0.0,3,0,0,4,5,3,9,15.01,95.94,92.70,
14.796,108.69759354153231,99.96388770170047,0.0,-1.0,0.0,3,0,0,4,5,3,9,15.50,95.45,90.74,
14.811,108.78975935415323,99.92438877017004,0.0,-2.0,-1.0,3,0,0,4,5,3,8,15.99,95.26,88.49,
14.825,108.86197593541533,99.89343887701699,0.0,-3.0,-1.0,3,0,0,4,5,4,8,16.48,95.35,85.64,
14.838,108.78819759354153,99.8723438877017,0.0,-2.0,-1.0,3,0,0,4,5,4,8,17.17,96.33,82.21,
14.853,108.59181975935414,99.90623438877017,0.0,0.0,-1.0,3,0,0,3,5,4,8,17.56,96.82,74.07,
14.867,108.45518197593542,99.99062343887701,0.0,2.0,-2.0,3,0,0,4,5,4,7,18.05,97.02,69.85,
14.881,108.48651819759353,100.0350623438877,0.0,2.0,0.0,3,0,0,3,5,4,7,18.64,96.24,65.83,
14.895,108.72365181975935,100.16550623438877,0.0,1.0,1.0,3,0,0,3,5,4,7,19.91,95.55,61.90,
14.909,108.90936518197594,100.14255062343888,0.0,-1.0,3.0,3,0,0,3,5,4,6,19.91,94.37,55.52,
14.923,109.0179365181976,100.13125506234388,0.0,-5.0,5.0,2,0,0,4,4,4,6,19.33,92.90,52.88,
14.938,109.19079365181976,99.98612550623439,1.0,-9.0,5.0,2,0,0,3,4,4,6,18.34,87.80,50.13,
14.952,109.26207936518198,99.73761255062342,5.0,-13.0,3.0,2,0,0,3,4,4,6,16.68,82.99,47.09,
14.965,108.99020793651819,99.73076125506235,6.0,-16.0,4.0,2,0,0,3,4,4,6,11.97,76.03,41.10,
14.98,108.45902079365182,99.89207612550624,6.0,-15.0,4.0,2,0,0,4,4,4,6,9.71,67.20,38.75,
14.994,108.09090207936518,100.09720761255062,4.0,-14.0,5.0,2,0,0,4,4,4,6,7.65,50.72,36.79,
15.008,107.97309020793652,100.19872076125506,3.0,-9.0,4.0,2,0,0,4,4,4,6,6.08,44.54,32.96,
15.022,107.78130902079366,100.25387207612552,1.0,-7.0,3.0,2,0,0,4,3,4,6,4.61,39.83,31.20,
15.036,107.77113090207936,100.18738720761256,1.0,-5.0,3.0,2,0,0,4,3,4,6,4.32,36.40,29.53,
15.05,107.71611309020793,100.03673872076125,2.0,-11.0,1.0,1,0,0,4,3,4,6,4.12,31.49,28.06,
15.065,107.71961130902079,99.87767387207612,3.0,-9.0,0.0,1,0,0,4,3,4,6,4.02,29.43,26.00,
15.078,107.46796113090207,99.97876738720761,3.0,-10.0,-1.0,1,0,0,4,3,4,6,3.53,27.17,25.21,
15.092,107.0377961130902,100.14187673872077,4.0,-12.0,-1.0,1,0,0,4,3,4,6,3.24,22.76,24.52,
15.107,106.90477961130902,100.32918767387207,6.0,-13.0,0.0,1,0,0,4,3,4,6,2.94,20.70,23.84,
15.121,106.7924779611309,100.4919187673872,6.0,-9.0,-1.0,1,0,0,5,3,4,6,2.84,18.93,22.96,
15.135,106.61924779611309,100.62519187673873,5.0,-7.0,-1.0,1,0,0,5,3,4,6,2.75,17.27,22.76,
15.149,106.53892477961132,100.89051918767387,5.0,-7.0,-2.0,1,0,0,5,3,4,6,2.75,14.13,22.46,
15.163,106.32389247796112,101.16005191876738,6.0,-6.0,-1.0,1,0,0,5,3,4,6,2.65,12.85,21.97,
15.177,105.93338924779611,101.28600519187674,5.0,-4.0,-4.0,1,0,0,5,3,4,7,2.65,11.67,21.78,
15.192,105.7593389247796,101.32560051918767,4.0,-1.0,-6.0,1,0,0,5,3,4,7,2.65,10.59,21.58,
15.206,105.79593389247796,101.43756005191878,4.0,-2.0,-5.0,1,0,0,5,3,4,7,2.75,8.63,21.39,
15.219,105.75459338924779,101.76375600519188,3.0,-1.0,-4.0,1,0,0,5,3,4,7,2.84,7.75,20.99,
15.234,105.66945933892477,102.01237560051919,2.0,-1.0,-2.0,1,0,0,5,3,5,7,2.94,7.06,20.99,
15.248,105.63394593389246,102.25323756005193,0.0,0.0,-1.0,0,0,0,5,3,5,7,3.14,6.18,20.80,
15.261,105.67539459338926,102.4573237560052,-1.0,0.0,-1.0,0,0,0,5,3,5,7,3.14,5.89,20.90,
15.276,105.83253945933892,102.54973237560051,-3.0,1.0,0.0,0,0,0,5,3,5,7,3.04,5.69,21.19,
15.29,106.0912539459339,102.52297323756005,-3.0,1.0,0.0,1,0,0,6,3,5,7,3.04,5.69,21.09,
15.303,106.2881253945934,102.48429732375601,-3.0,0.0,-1.0,1,0,0,6,3,5,7,3.14,5.89,21.19,
15.318,106.14581253945933,102.38142973237561,-3.0,0.0,-2.0,1,0,0,6,3,5,7,3.24,6.18,21.39,
15.332,106.09558125394594,102.33514297323755,-4.0,1.0,-2.0,1,0,0,6,3,5,7,3.34,6.47,22.17,
15.345,106.01855812539459,102.32151429732374,-4.0,2.0,-1.0,1,0,0,6,3,5,7,3.43,6.77,22.66,
15.36,105.96585581253944,102.18515142973237,-4.0,3.0,-1.0,1,0,0,5,3,5,7,3.63,7.55,23.25,
15.374,105.96058558125394,102.06351514297323,-2.0,3.0,-1.0,1,0,0,5,3,5,7,3.73,8.04,24.03,
15.388,106.0230585581254,101.96135151429733,-2.0,4.0,-1.0,1,0,0,6,3,5,7,3.73,8.53,24.52,
15.401,106.15530585581253,101.90613515142974,-2.0,4.0,-2.0,1,0,0,6,3,5,7,3.73,8.83,25.02,
15.416,106.24053058558125,101.96361351514297,-2.0,5.0,-2.0,1,0,0,5,3,5,7,3.73,9.42,25.60,
15.43,106.33005305855812,102.0503613515143,-3.0,5.0,-1.0,1,0,0,6,3,5,7,3.83,9.61,26.59,
15.443,106.38400530585581,102.11303613515143,-3.0,5.0,0.0,1,0,0,5,3,5,7,3.92,9.81,26.98,
15.458,106.43440053058558,102.20030361351513,-5.0,5.0,0.0,1,0,0,5,3,5,7,4.02,10.20,27.37,
15.472,106.53844005305855,102.24503036135152,-5.0,4.0,1.0,1,0,0,5,3,5,7,4.12,11.18,27.86,
15.486,106.77384400530586,102.20450303613515,-6.0,2.0,2.0,1,0,0,5,3,5,6,4.32,11.87,28.84,
15.5,106.86038440053059,102.15545030361352,-6.0,1.0,3.0,1,0,0,5,3,4,6,4.41,12.75,29.33,
15.514,106.85103844005305,102.01554503036135,-6.0,2.0,3.0,1,0,0,5,3,4,6,4.51,14.72,29.72,
15.528,106.7511038440053,101.78555450303614,-5.0,5.0,2.0,1,0,0,5,3,4,6,4.61,15.99,30.21,
15.542,106.88511038440053,101.6725554503036,-6.0,6.0,1.0,1,0,0,5,3,4,6,4.81,17.17,31.29,
15.556,107.02451103844007,101.67925554503037,-6.0,6.0,1.0,1,0,0,5,3,4,6,5.00,18.25,31.59,
15.57,107.182451103844,101.64392555450303,-6.0,5.0,1.0,1,0,0,5,3,4,6,5.10,20.31,31.78,
15.585,107.3602451103844,101.6043925554503,-6.0,4.0,1.0,1,0,0,5,3,4,6,5.30,21.39,31.88,
15.598,107.42302451103845,101.49243925554504,-6.0,4.0,1.0,1,0,0,5,3,4,6,5.40,22.46,31.78,
15.612,107.49230245110384,101.3552439255545,-5.0,3.0,1.0,1,0,0,5,3,4,6,5.59,23.64,31.88,
15.627,107.53523024511038,101.26052439255545,-5.0,2.0,1.0,1,0,0,5,3,4,6,5.59,26.19,32.08,
15.64,107.46752302451104,101.19705243925554,-5.0,1.0,2.0,1,0,0,5,3,4,6,5.69,27.47,32.47,
15.654,107.4607523024511,101.10970524392555,-4.0,1.0,2.0,1,0,0,5,3,4,6,5.79,28.74,32.77,
15.669,107.57707523024511,101.00197052439255,-3.0,0.0,1.0,1,0,0,5,3,4,6,5.98,30.21,32.96,
15.683,107.66970752302451,100.91019705243926,-3.0,0.0,1.0,1,0,0,5,3,4,6,6.28,32.47,33.16,
15.696,107.72397075230245,100.84701970524392,-3.0,0.0,0.0,1,0,0,5,3,4,6,6.47,33.45,33.55,
15.711,107.77439707523025,100.84070197052439,-3.0,-1.0,0.0,2,0,0,5,3,4,6,6.57,34.14,33.65,
15.725,107.73443970752302,100.81307019705244,-3.0,0.0,0.0,2,0,0,5,3,4,6,6.87,35.51,33.75,
15.739,107.6674439707523,100.70230701970524,-2.0,0.0,0.0,2,0,0,5,3,4,6,6.97,36.10,33.84,
15.753,107.65174439707523,100.62823070197052,-2.0,-1.0,0.0,2,0,0,5,4,4,6,7.06,36.79,34.34,
15.767,107.66817443970753,100.62982307019705,-1.0,-1.0,0.0,2,0,0,5,4,4,6,7.36,37.38,34.53,
15.781,107.67881744397076,100.6299823070197,-1.0,-1.0,0.0,2,0,0,5,4,4,6,7.65,37.67,34.73,
15.796,107.73388174439707,100.70199823070196,-1.0,-1.0,0.0,2,0,0,5,4,4,6,7.65,37.57,35.41,
15.81,107.8383881744397,100.7181998230702,-1.0,-2.0,0.0,2,0,0,5,4,4,6,7.75,37.28,35.71,
15.823,107.74983881744396,100.71081998230702,-1.0,-2.0,0.0,2,0,0,5,4,4,6,8.04,37.08,36.10,
15.838,107.6959838817444,100.73708199823069,-2.0,-1.0,0.0,2,0,0,5,4,4,6,8.14,36.79,36.49,
15.852,107.63659838817443,100.75770819982307,-2.0,-1.0,0.0,2,0,0,5,4,4,6,8.14,36.69,37.08,
15.866,107.63065983881745,100.7507708199823,-1.0,-1.0,0.0,2,0,0,5,4,5,6,8.24,36.89,37.18,
15.881,107.64806598388175,100.76807708199823,-1.0,-2.0,0.0,2,0,0,5,4,4,6,8.14,36.98,37.08,
15.894,107.61380659838818,100.78780770819984,-1.0,-2.0,0.0,2,0,0,5,4,4,6,8.14,36.98,37.08,
15.908,107.60138065983882,100.78078077081997,-1.0,-2.0,0.0,2,0,0,5,4,5,6,8.14,37.08,37.28,
15.923,107.53713806598388,100.76207807708201,0.0,-2.0,0.0,2,0,0,5,4,5,6,8.24,37.08,37.57,
15.937,107.48571380659838,100.76020780770821,0.0,-2.0,0.0,2,0,0,5,4,5,6,8.14,36.79,37.67,
15.95,107.43557138065985,100.78702078077083,0.0,-2.0,0.0,2,0,0,5,4,5,6,8.04,36.59,37.67,
15.965,107.42155713806598,100.80770207807709,0.0,-2.0,0.0,2,0,0,5,4,5,6,7.85,36.20,37.96,
15.979,107.4741557138066,100.8097702078077,0.0,-2.0,0.0,2,0,0,5,4,5,6,7.75,35.71,38.16,
15.992,107.50641557138066,100.80097702078076,0.0,-2.0,0.0,2,0,0,5,4,5,6,7.65,34.83,38.26,
16.007,107.53664155713807,100.82709770207808,0.0,-3.0,0.0,2,0,0,5,4,5,6,7.65,34.43,38.46,
16.021,107.4946641557138,100.8747097702078,0.0,-2.0,0.0,2,0,0,5,4,5,6,7.55,34.14,38.46,
16.035,107.42746641557137,100.92447097702077,0.0,-2.0,0.0,2,0,0,4,4,5,6,7.46,33.84,38.55,
16.049,107.36674664155713,100.94744709770208,0.0,0.0,0.0,2,0,0,5,4,5,6,7.46,33.26,38.75,
16.063,107.35167466415571,100.96774470977022,0.0,0.0,-1.0,2,0,0,5,4,5,6,7.36,32.96,39.14,
16.077,107.33216746641557,100.86177447097702,0.0,2.0,-1.0,2,0,0,5,4,5,6,7.46,32.67,39.34,
16.091,107.30321674664155,100.8601774470977,0.0,1.0,-1.0,2,0,0,5,4,5,6,7.26,31.59,39.34,
16.105,107.27332167466415,100.90501774470977,0.0,0.0,-1.0,2,0,0,5,4,5,6,7.26,31.00,39.53,
16.119,107.36933216746641,100.93650177447098,0.0,0.0,-2.0,2,0,0,5,4,5,6,6.97,30.21,40.02,
16.134,107.32493321674663,100.9216501774471,0.0,0.0,-3.0,2,0,0,5,4,5,6,6.87,29.53,40.22,
16.147,107.38349332167465,101.01916501774471,0.0,0.0,-2.0,2,0,0,5,4,5,6,6.67,28.25,40.52,
16.161,107.39834933216747,101.10991650177448,0.0,-1.0,-1.0,2,0,0,5,4,5,6,6.57,27.66,40.71,
16.176,107.39083493321674,101.17299165017747,0.0,-1.0,-1.0,2,0,0,5,4,5,6,6.57,27.27,41.30,
16.19,107.35408349332167,101.18829916501774,0.0,-2.0,-1.0,2,0,0,5,4,5,6,6.38,26.98,41.40,
16.203,107.35040834933216,101.28882991650177,0.0,-2.0,-1.0,2,0,0,5,4,5,6,6.38,26.39,41.79,
16.218,107.35904083493321,101.34388299165018,0.0,-2.0,0.0,2,0,0,5,4,5,6,6.38,26.09,42.48,
16.232,107.36890408349333,101.40338829916502,-1.0,-2.0,0.0,2,0,0,5,4,5,7,6.38,25.80,42.77,
16.246,107.36089040834932,101.4003388299165,-1.0,-1.0,-1.0,2,0,0,5,4,5,7,6.38,25.51,42.97,
16.261,107.30608904083492,101.41803388299165,-1.0,-2.0,-1.0,2,0,0,5,4,5,7,6.38,25.11,43.07,
16.274,107.30060890408348,101.37480338829917,-1.0,-2.0,-1.0,2,0,0,5,4,5,7,6.28,24.92,43.36,
16.288,107.30006089040833,101.36148033882992,-1.0,-2.0,-2.0,2,0,0,5,4,5,7,6.18,24.72,43.46,
16.303,107.26400608904083,101.441148033883,-1.0,-1.0,-2.0,2,0,0,5,4,5,7,6.18,24.23,43.46,
16.317,107.19740060890409,101.4941148033883,-1.0,-1.0,-1.0,2,0,0,5,4,6,7,6.08,23.94,43.46,
16.331,107.1637400608904,101.50841148033884,-1.0,-1.0,-1.0,2,0,0,5,4,5,7,5.89,23.54,43.16,
16.346,107.11537400608904,101.56384114803387,-1.0,-1.0,-1.0,2,0,0,5,4,6,7,5.89,23.25,43.26,
16.36,107.0655374006089,101.57838411480338,-1.0,-1.0,-1.0,2,0,0,5,4,6,7,5.89,22.66,43.26,
16.374,107.05155374006088,101.54383841148035,-1.0,0.0,-2.0,2,0,0,5,4,6,7,5.79,22.56,43.26,
16.388,107.0411553740061,101.53138384114804,-1.0,0.0,-2.0,2,0,0,5,4,6,7,5.79,22.37,43.36,
16.402,107.04011553740062,101.5661383841148,-1.0,-1.0,-2.0,2,0,0,5,4,6,7,5.69,22.07,43.46,
16.416,107.07601155374006,101.62361383841147,-1.0,-1.0,-1.0,2,0,0,5,4,6,7,5.69,21.97,43.65,
16.431,107.025601155374,101.64736138384116,-1.0,-1.0,-2.0,2,0,0,5,4,6,7,5.69,21.78,43.85,
16.445,107.00256011553739,101.64073613838411,-1.0,-1.0,-1.0,2,0,0,5,4,6,7,5.69,21.58,43.85,
16.459,107.05425601155373,101.65807361383841,-2.0,-1.0,-1.0,2,0,0,5,4,6,7,5.49,21.48,43.85,
16.474,106.96942560115536,101.64180736138384,-1.0,-1.0,-1.0,2,0,0,5,4,6,7,5.59,21.39,43.85,
16.488,106.94294256011553,101.67618073613839,-2.0,-1.0,-1.0,2,0,0,5,4,6,7,5.49,21.29,43.75,
16.501,106.91329425601154,101.66161807361384,-2.0,-1.0,-1.0,2,0,0,5,4,6,7,5.49,21.19,43.75,
16.516,106.89232942560116,101.66016180736138,-2.0,0.0,-1.0,2,0,0,5,4,6,7,5.49,21.29,43.75,
16.53,106.89923294256012,101.59701618073615,-2.0,0.0,0.0,2,0,0,5,4,6,7,5.49,21.19,43.46,
16.544,106.854923294256,101.61770161807362,-1.0,0.0,-1.0,2,0,0,5,4,6,7,5.49,21.19,43.46,
16.559,106.91349232942561,101.57477016180735,-1.0,-1.0,-2.0,2,0,0,5,4,6,7,5.40,20.99,43.46,
16.573,106.89234923294256,101.61547701618075,-1.0,-1.0,-2.0,2,0,0,5,4,6,7,5.20,20.80,43.46,
16.586,106.87223492329426,101.65554770161808,-2.0,-2.0,-2.0,2,0,0,5,4,6,7,5.20,20.60,43.16,
16.601,106.87022349232943,101.6685547701618,-2.0,-2.0,-1.0,2,0,0,5,4,6,7,5.20,20.40,43.07,
16.615,106.85202234923293,101.70585547701617,-2.0,-2.0,-1.0,2,0,0,5,4,6,7,5.00,20.21,42.97,
16.629,106.85020223492329,101.71858554770162,-2.0,-1.0,-1.0,2,0,0,5,4,6,7,5.00,20.11,42.67,
16.644,106.85902022349234,101.72885855477017,-2.0,-1.0,-1.0,2,0,0,5,4,6,7,5.00,20.11,42.58,
16.658,106.85090202234922,101.66688585547702,-2.0,-1.0,-1.0,2,0,0,5,4,6,7,5.00,20.11,42.48,
16.672,106.80509020223492,101.6606885855477,-2.0,0.0,-1.0,2,0,0,5,4,6,7,5.00,20.11,42.38,
16.687,106.87250902022348,101.69606885855477,-2.0,0.0,-1.0,2,0,0,5,4,6,7,4.81,20.31,42.08,
16.7,106.86125090202235,101.71760688585547,-2.0,0.0,-1.0,2,0,0,5,4,6,7,4.71,20.31,41.69,
16.714,106.89612509020225,101.71076068858555,-2.0,0.0,-1.0,2,0,0,4,4,6,7,4.71,20.21,41.69,
16.729,106.88161250902021,101.72807606885856,-3.0,0.0,-1.0,2,0,0,4,4,5,7,4.61,20.40,41.30,
16.743,106.88916125090202,101.73880760688586,-3.0,0.0,0.0,2,0,0,4,4,5,7,4.51,20.50,41.10,
16.756,106.83591612509021,101.74888076068859,-3.0,0.0,0.0,2,0,0,4,4,5,7,4.41,20.60,40.91,
16.771,106.81259161250902,101.78588807606886,-3.0,0.0,-1.0,2,0,0,4,4,5,7,4.41,20.99,40.71,
16.785,106.81025916125091,101.76258880760689,-3.0,0.0,-1.0,2,0,0,4,4,5,7,4.32,21.29,40.42,
16.799,106.7920259161251,101.75125888076069,-3.0,0.0,-1.0,2,0,0,4,4,5,7,4.12,21.48,40.22,
16.814,106.8172025916125,101.76812588807607,-3.0,0.0,-1.0,2,0,0,4,4,5,7,4.02,22.07,39.93,
16.827,106.85572025916126,101.73381258880761,-3.0,0.0,-1.0,2,0,0,4,4,5,7,4.02,22.37,39.73,
16.841,106.86857202591614,101.70338125888077,-3.0,0.0,-1.0,2,0,0,4,4,5,7,3.92,22.66,39.24,
16.856,106.80685720259162,101.69133812588808,-3.0,0.0,-1.0,2,0,0,4,4,5,7,3.83,23.05,38.95,
16.87,106.79168572025917,101.61813381258881,-3.0,0.0,-1.0,2,0,0,4,4,5,7,3.83,23.54,38.65,
16.883,106.73616857202592,101.51181338125889,-3.0,0.0,-1.0,2,0,0,4,4,5,7,3.83,23.94,38.06,
16.898,106.83861685720258,101.53718133812589,-3.0,0.0,-1.0,2,0,0,4,4,5,7,3.73,24.13,37.77,
16.912,106.83086168572027,101.4857181338126,-3.0,0.0,-1.0,2,0,0,4,4,5,7,3.63,24.33,37.67,
16.926,106.80308616857202,101.53457181338126,-2.0,0.0,-1.0,2,0,0,4,4,5,6,3.63,24.92,37.47,
16.941,106.79130861685721,101.50345718133813,-2.0,-1.0,0.0,2,0,0,4,4,5,6,3.53,25.02,37.28,
16.954,106.75413086168572,101.43734571813381,-2.0,0.0,-1.0,2,0,0,4,4,5,6,3.53,25.21,37.28,
16.968,106.74141308616858,101.45773457181338,-2.0,-1.0,-1.0,2,0,0,4,4,5,6,3.63,25.41,37.08,
16.983,106.69514130861685,101.37877345718134,-2.0,-1.0,-1.0,2,0,0,4,4,5,6,3.53,25.41,37.08,
16.997,106.69951413086169,101.39787734571814,-2.0,0.0,-1.0,2,0,0,4,4,5,6,3.53,25.51,37.08,
17.011,106.73595141308617,101.39078773457182,-2.0,0.0,-1.0,2,0,0,4,4,5,6,3.43,25.60,37.08,
17.026,106.75759514130861,101.41707877345718,-2.0,0.0,-1.0,2,0,0,4,4,5,6,3.43,25.70,36.98,
17.039,106.82275951413087,101.4557078773457,-2.0,0.0,-1.0,2,0,0,4,4,5,6,3.34,25.70,36.89,
17.053,106.82027595141308,101.42357078773458,-2.0,0.0,-1.0,2,0,0,4,4,5,6,3.43,25.60,36.79,
17.068,106.79302759514131,101.42035707877346,-2.0,0.0,-1.0,2,0,0,4,4,5,6,3.43,25.60,36.69,
17.082,106.73630275951413,101.41103570787735,-2.0,-1.0,-1.0,2,0,0,4,4,5,7,3.34,25.31,36.79,
17.096,106.73963027595141,101.41010357078774,-2.0,0.0,-1.0,2,0,0,4,4,5,6,3.34,25.31,36.69,
17.11,106.71296302759514,101.44601035707878,-2.0,0.0,-1.0,2,0,0,4,4,5,6,3.24,25.21,36.69,
17.124,106.71029630275952,101.44960103570789,-2.0,0.0,-1.0,2,0,0,4,4,5,6,3.14,24.92,36.59,
17.138,106.68302963027597,101.49496010357079,-2.0,0.0,-1.0,2,0,0,4,4,5,6,3.14,24.72,36.49,
17.153,106.65330296302761,101.5354960103571,-2.0,0.0,-1.0,2,0,0,4,4,5,6,3.04,24.62,36.40,
17.167,106.65033029630277,101.53954960103572,-2.0,0.0,-1.0,2,0,0,4,4,5,6,3.04,24.52,36.40,
17.18,106.59603302963029,101.53995496010359,-2.0,0.0,-1.0,2,0,0,4,4,5,6,3.14,24.13,36.20,
17.195,106.57260330296302,101.52199549601035,-2.0,0.0,-1.0,2,0,0,4,4,5,6,3.04,24.13,36.30,
17.209,106.6062603302963,101.48419954960104,-2.0,0.0,-1.0,2,0,0,4,4,5,6,3.04,24.23,36.30,
17.223,106.65462603302963,101.43541995496011,-2.0,0.0,-1.0,2,0,0,4,4,5,6,3.04,24.43,36.20,
17.238,106.66846260330296,101.38554199549601,-2.0,0.0,-1.0,2,0,0,4,4,5,6,3.04,24.72,36.30,
17.251,106.69684626033029,101.38955419954961,-2.0,0.0,-1.0,2,0,0,4,4,5,6,2.94,24.72,36.30,
17.265,106.69968462603303,101.38095541995496,-2.0,0.0,-1.0,2,0,0,4,4,5,6,2.94,24.62,36.30,
17.28,106.7539684626033,101.3980955419955,-2.0,0.0,-1.0,2,0,0,4,4,5,6,2.84,24.33,36.20,
17.294,106.73239684626033,101.40880955419955,-1.0,0.0,-1.0,2,0,0,4,4,5,6,2.84,24.23,36.10,
17.308,106.74823968462603,101.42788095541997,-2.0,0.0,-1.0,2,0,0,4,4,5,6,2.84,24.23,36.10,
17.321,106.6958239684626,101.465788095542,-2.0,0.0,-1.0,2,0,0,4,4,5,6,2.75,24.23,36.00,
17.336,106.72658239684625,101.4065788095542,-2.0,0.0,-1.0,2,0,0,4,4,5,6,2.84,24.13,36.00,
17.35,106.71165823968462,101.38265788095542,-2.0,0.0,-1.0,2,0,0,4,4,5,6,2.84,24.13,36.10,
17.364,106.69216582396847,101.31726578809554,-2.0,0.0,-1.0,2,0,0,4,4,5,6,2.94,24.03,36.00,
17.379,106.72621658239684,101.33772657880955,-2.0,0.0,-1.0,2,0,0,4,4,5,6,2.94,24.03,36.00,
17.392,106.73862165823968,101.25877265788095,-2.0,0.0,-1.0,2,0,0,4,4,5,6,2.94,24.23,36.00,
17.406,106.68586216582398,101.24187726578809,-1.0,0.0,-1.0,2,0,0,4,4,5,6,2.94,24.23,35.90,
17.421,106.6625862165824,101.26718772657881,-1.0,0.0,-1.0,2,0,0,4,4,5,6,2.94,24.13,35.90,
17.435,106.73225862165825,101.25171877265788,-2.0,0.0,-1.0,2,0,0,4,4,5,6,2.94,23.94,35.90,
17.449,106.72122586216582,101.31317187726579,-2.0,0.0,-1.0,2,0,0,4,4,5,6,2.84,23.74,35.81,
17.463,106.70212258621657,101.33731718772658,-2.0,0.0,-1.0,2,0,0,4,4,5,6,2.84,23.54,35.81,
17.477,106.69121225862166,101.38473171877266,-2.0,0.0,-1.0,2,0,0,4,4,5,6,2.84,23.54,35.90,
17.491,106.70812122586216,101.41647317187727,-2.0,0.0,-1.0,2,0,0,4,4,5,6,2.84,23.64,35.90,
17.506,106.76381212258622,101.45564731718773,-2.0,0.0,0.0,2,0,0,4,4,5,6,2.75,23.74,35.81,
17.519,106.75138121225862,101.49556473171879,-2.0,0.0,0.0,2,0,0,4,4,5,6,2.84,23.64,35.71,
17.533,106.70513812122586,101.49055647317186,-2.0,0.0,0.0,2,0,0,4,4,5,6,2.84,23.64,35.71,
17.548,106.72751381212258,101.54405564731718,-2.0,0.0,0.0,2,0,0,4,4,5,6,2.84,23.64,35.61,
17.562,106.72975138121225,101.53140556473173,-2.0,0.0,0.0,2,0,0,4,4,5,6,2.75,23.54,35.51,
17.575,106.75697513812122,101.50314055647318,-2.0,0.0,0.0,2,0,0,4,4,5,6,2.84,23.74,35.41,
17.59,106.76869751381213,101.44631405564732,-2.0,0.0,0.0,2,0,0,4,4,5,6,2.94,23.94,35.41,
17.604,106.80586975138121,101.46763140556473,-2.0,0.0,0.0,2,0,0,4,4,5,6,2.94,24.03,35.41,
17.617,106.72858697513811,101.58676314055647,-2.0,0.0,0.0,2,0,0,4,4,5,6,2.94,23.94,35.41,
17.632,106.7208586975138,101.51767631405565,-2.0,0.0,0.0,2,0,0,4,4,5,6,2.84,23.94,35.32,
17.646,106.72008586975139,101.48376763140557,-2.0,0.0,0.0,2,0,0,4,4,5,6,2.75,23.74,35.41,
17.66,106.74700858697514,101.45337676314057,-2.0,0.0,0.0,2,0,0,4,4,5,6,2.75,23.74,35.41,
17.674,106.76770085869751,101.48633767631405,-2.0,0.0,0.0,2,0,0,4,4,5,6,2.65,23.84,35.22,
17.688,106.74277008586975,101.46263376763139,-2.0,0.0,0.0,2,0,0,4,4,5,6,2.65,23.94,35.22,
17.702,106.77627700858697,101.44226337676315,-2.0,0.0,0.0,2,0,0,4,4,5,6,2.84,24.13,35.32,
17.716,106.7976277008587,101.38622633767632,-2.0,0.0,0.0,2,0,0,4,4,5,7,2.84,24.33,35.32,
17.73,106.79976277008588,101.32662263376763,-2.0,0.0,-1.0,2,0,0,4,4,5,6,2.75,24.33,35.32,
17.744,106.81797627700857,101.33866226337676,-2.0,0.0,-1.0,2,0,0,4,4,5,6,2.65,24.33,35.32,
17.759,106.82879762770087,101.30386622633768,-2.0,0.0,-1.0,2,0,0,4,4,5,6,2.55,24.23,35.22,
17.773,106.82087976277008,101.33638662263377,-2.0,0.0,-1.0,2,0,0,4,4,5,6,2.55,24.03,35.12,
17.786,106.82908797627701,101.37563866226338,-2.0,0.0,-1.0,2,0,0,4,4,5,6,2.55,23.94,35.02,
17.801,106.7489087976277,101.40656386622635,-2.0,0.0,0.0,2,0,0,4,4,5,6,2.55,23.74,35.02,
17.815,106.76789087976277,101.44565638662264,-2.0,0.0,0.0,2,0,0,4,4,5,6,2.45,23.64,34.92,
17.829,106.80578908797628,101.44056563866226,-2.0,0.0,-1.0,2,0,0,4,4,5,6,2.45,23.64,34.92,
17.843,106.83657890879763,101.45805656386622,-2.0,0.0,-1.0,2,0,0,4,4,5,6,2.45,23.74,34.92,
17.857,106.74965789087976,101.43280565638662,-2.0,0.0,-1.0,2,0,0,4,4,5,6,2.45,23.54,35.02,
17.871,106.73196578908798,101.42128056563867,-2.0,0.0,-1.0,2,0,0,4,4,5,6,2.55,23.54,34.92,
17.886,106.7391965789088,101.43812805656387,-2.0,0.0,-1.0,2,0,0,4,4,5,6,2.55,23.45,34.83,
17.899,106.75791965789088,101.41281280565639,-2.0,0.0,-1.0,1,0,0,4,4,5,6,2.55,23.35,34.92,
17.913,106.78679196578909,101.40128128056564,-2.0,0.0,-1.0,1,0,0,4,4,5,6,2.55,23.35,34.83,
17.928,106.82567919657892,101.42712812805657,-2.0,0.0,-1.0,1,0,0,4,4,5,6,2.55,23.25,34.83,
17.942,106.79356791965789,101.40271281280566,-2.0,0.0,-1.0,1,0,0,4,4,5,6,2.45,23.15,34.83,
17.956,106.80835679196579,101.41827128128057,-2.0,0.0,-1.0,1,0,0,4,4,5,6,2.35,23.15,34.73,
17.97,106.79183567919658,101.39282712812806,-2.0,0.0,-1.0,1,0,0,4,4,5,6,2.35,23.35,34.73,
17.984,106.82618356791966,101.4082827128128,-2.0,0.0,-1.0,1,0,0,4,4,5,6,2.35,23.15,34.92,
17.998,106.83861835679197,101.43682827128129,-2.0,0.0,-1.0,1,0,0,4,4,5,6,2.35,23.15,34.83,
18.013,106.8128618356792,101.39468282712814,-2.0,0.0,-1.0,1,0,0,4,4,5,6,2.35,23.25,34.73,
18.027,106.77428618356792,101.38146828271282,-2.0,0.0,-1.0,1,0,0,4,4,5,6,2.45,23.05,34.73,
18.04,106.78842861835679,101.43414682827128,-1.0,0.0,-1.0,1,0,0,4,4,5,6,2.45,22.96,35.12,
18.055,106.78084286183568,101.43041468282713,-2.0,0.0,-1.0,1,0,0,4,4,5,6,2.35,22.86,35.12,
18.069,106.75308428618357,101.44804146828272,-2.0,0.0,-1.0,1,0,0,4,4,5,6,2.35,22.76,35.22,
18.083,106.75030842861835,101.49480414682827,-1.0,0.0,-1.0,1,0,0,4,4,5,6,2.35,22.66,35.32,
18.098,106.73203084286183,101.50848041468284,-1.0,0.0,0.0,1,0,0,4,4,5,6,2.35,22.56,35.51,
18.111,106.72120308428619,101.51884804146827,-1.0,0.0,-1.0,1,0,0,4,4,5,6,2.35,22.46,35.61,
18.125,106.71112030842862,101.53788480414684,-1.0,0.0,-1.0,1,0,0,4,4,5,6,2.45,22.37,35.61,
18.14,106.69211203084286,101.5037884804147,-1.0,0.0,-1.0,1,0,0,4,4,5,6,2.55,22.17,35.81,
18.154,106.6272112030843,101.54537884804147,-1.0,0.0,-1.0,1,0,0,4,4,5,6,2.55,22.07,35.90,
18.167,106.65672112030843,101.54053788480415,-2.0,0.0,-1.0,1,0,0,4,4,5,6,2.45,21.78,36.00,
18.182,106.65067211203086,101.54005378848042,-2.0,0.0,-1.0,1,0,0,4,4,5,6,2.65,21.78,36.00,
18.196,106.69506721120308,101.52200537884804,-2.0,0.0,-1.0,1,0,0,4,4,5,6,2.55,21.78,36.00,
18.21,106.7175067211203,101.5292005378848,-2.0,0.0,-1.0,1,0,0,4,4,5,6,2.55,21.88,36.10,
18.225,106.65675067211204,101.56592005378847,-2.0,0.0,-1.0,1,0,0,4,4,5,7,2.65,21.78,36.20,
18.238,106.6686750672112,101.56959200537884,-2.0,0.0,0.0,1,0,0,4,4,5,6,2.55,21.78,36.49,
18.252,106.68786750672112,101.51595920053789,-2.0,0.0,-1.0,1,0,0,4,4,5,7,2.65,21.78,36.49,
18.267,106.68978675067211,101.46559592005377,-2.0,0.0,-1.0,1,0,0,4,4,5,6,2.75,21.88,36.49,
18.281,106.68097867506722,101.43355959200538,-2.0,0.0,-1.0,1,0,0,4,4,5,6,2.65,22.07,36.49,
18.295,106.71609786750672,101.42135595920054,-2.0,0.0,-1.0,1,0,0,4,4,5,6,2.75,22.07,36.59,
18.309,106.72860978675067,101.45613559592005,-2.0,0.0,-1.0,1,0,0,4,4,5,6,2.75,21.97,36.59,
18.323,106.75686097867506,101.45061355959201,-2.0,0.0,-1.0,1,0,0,4,4,5,6,2.75,21.97,36.59,
18.337,106.7326860978675,101.4500613559592,-2.0,0.0,-1.0,1,0,0,4,4,5,6,2.75,22.07,36.49,
18.352,106.71226860978675,101.41400613559593,-2.0,0.0,-1.0,1,0,0,4,4,5,6,2.65,22.07,36.49,
18.366,106.69222686097868,101.3744006135596,-2.0,0.0,-1.0,1,0,0,4,4,5,6,2.65,22.07,36.40,
18.379,106.68122268609788,101.40644006135597,-2.0,0.0,-1.0,1,0,0,4,4,4,6,2.65,21.97,36.40,
18.394,106.6891222686098,101.48164400613558,-2.0,0.0,-1.0,1,0,0,4,4,4,6,2.65,21.78,36.49,
18.408,106.72591222686098,101.48916440061355,-2.0,0.0,-1.0,1,0,0,4,4,4,6,2.45,21.58,36.40,
18.422,106.68459122268611,101.48091644006136,-2.0,0.0,-1.0,1,0,0,4,4,4,6,2.45,21.39,36.49,
18.436,106.7074591222686,101.49809164400614,-2.0,0.0,-2.0,1,0,0,4,4,4,6,2.55,21.29,36.40,
18.45,106.70074591222686,101.5178091644006,-2.0,0.0,-1.0,1,0,0,4,4,4,6,2.55,21.19,36.59,
18.464,106.6550745912227,101.53778091644007,-1.0,0.0,-1.0,1,0,0,4,4,4,6,2.55,21.09,36.69,
18.479,106.72250745912227,101.575778091644,-1.0,0.0,-1.0,1,0,0,4,4,4,6,2.45,20.80,36.69,
18.493,106.74725074591223,101.57957780916439,-1.0,0.0,-1.0,1,0,0,4,4,4,6,2.65,20.70,36.79,
18.506,106.73172507459122,101.61595778091645,-1.0,0.0,-1.0,1,0,0,4,4,4,6,2.65,20.60,36.98,
18.521,106.74817250745912,101.57459577809163,-1.0,0.0,-1.0,1,0,0,4,4,4,6,2.65,20.60,37.08,
18.535,106.7678172507459,101.58845957780918,-2.0,0.0,-1.0,1,0,0,4,4,4,6,2.75,20.50,37.08,
18.549,106.7877817250746,101.61684595778092,-1.0,0.0,-1.0,1,0,0,4,4,4,6,2.65,20.40,37.08,
18.564,106.76277817250747,101.6196845957781,-1.0,0.0,-1.0,1,0,0,4,4,4,6,2.55,20.31,37.18,
18.577,106.70627781725075,101.5749684595778,-1.0,0.0,-1.0,1,0,0,4,4,4,6,2.55,20.31,37.18,
18.591,106.70062778172507,101.58849684595779,-2.0,0.0,-1.0,1,0,0,4,4,4,6,2.55,19.91,37.08,
18.606,106.74506277817251,101.59884968459578,-2.0,0.0,-1.0,1,0,0,4,4,4,6,2.45,19.91,36.79,
18.62,106.70450627781725,101.62688496845958,-2.0,0.0,-1.0,1,0,0,4,4,4,6,2.45,19.72,36.79,
18.634,106.73645062778172,101.59368849684597,-2.0,0.0,-1.0,1,0,0,4,4,4,6,2.35,19.52,36.59,
18.648,106.77564506277817,101.5453688496846,-2.0,0.0,-1.0,1,0,0,4,4,4,6,2.35,19.52,36.49,
18.662,106.82456450627782,101.56753688496846,-2.0,0.0,-1.0,1,0,0,4,4,4,6,2.26,19.52,36.40,
18.676,106.82045645062777,101.56975368849685,-2.0,0.0,-1.0,1,0,0,4,4,4,6,2.26,19.52,36.30,
18.691,106.81104564506278,101.60597536884968,-2.0,0.0,-1.0,1,0,0,4,4,4,6,2.26,19.62,36.20,
18.705,106.81910456450626,101.60959753688496,-2.0,0.0,-1.0,1,0,0,4,4,4,6,2.16,19.62,36.00,
18.718,106.81991045645061,101.6189597536885,-2.0,0.0,-1.0,1,0,0,4,4,4,6,2.16,19.52,36.00,
18.733,106.83799104564507,101.61989597536886,-2.0,0.0,-1.0,1,0,0,4,4,4,6,2.16,19.62,35.90,
18.747,106.8667991045645,101.58398959753688,-2.0,0.0,-1.0,1,0,0,4,4,4,6,2.16,19.72,35.90,
18.761,106.86967991045645,101.58039895975368,-2.0,0.0,-1.0,1,0,0,4,4,4,6,2.06,19.72,35.90,
18.776,106.86096799104565,101.49003989597537,-2.0,0.0,-1.0,1,0,0,4,4,4,6,1.96,19.62,35.90,
18.789,106.81509679910457,101.50800398959754,-2.0,0.0,-1.0,1,0,0,4,4,4,6,2.06,19.62,35.90,
18.803,106.81950967991044,101.48280039895977,-2.0,0.0,0.0,1,0,0,4,4,4,6,2.06,19.62,35.81,
18.818,106.86495096799105,101.53428003989599,-2.0,0.0,-1.0,1,0,0,4,4,4,6,2.06,19.62,35.81,
18.832,106.84249509679911,101.53042800398961,-2.0,0.0,-1.0,1,0,0,4,4,4,6,1.96,19.62,35.90,
18.845,106.85824950967992,101.55704280039897,-2.0,0.0,-1.0,1,0,0,4,4,4,6,1.96,19.52,35.90,
18.86,106.83282495096799,101.5237042800399,-2.0,0.0,-1.0,1,0,0,4,4,4,6,1.96,19.52,35.81,
18.874,106.82128249509678,101.54737042800399,-2.0,0.0,-1.0,1,0,0,4,4,4,6,2.06,19.42,35.90,
18.888,106.87412824950967,101.60373704280039,-2.0,0.0,-1.0,1,0,0,4,4,4,6,1.86,19.42,35.81,
18.903,106.83441282495097,101.57337370428003,-2.0,0.0,-2.0,1,0,0,4,4,4,6,1.96,19.52,35.71,
18.916,106.8394412824951,101.561337370428,-2.0,0.0,-1.0,1,0,0,4,4,4,6,1.96,19.52,36.00,
18.93,106.86694412824951,101.4521337370428,-2.0,0.0,-1.0,1,0,0,4,4,4,6,1.86,19.52,36.00,
18.945,106.89669441282496,101.53121337370429,-2.0,0.0,-1.0,1,0,0,4,4,3,6,1.86,19.72,36.00,
18.959,106.96266944128249,101.50312133737043,-2.0,0.0,-1.0,1,0,0,4,4,3,6,1.86,19.72,36.00,
18.973,106.96926694412824,101.50931213373705,-2.0,0.0,0.0,1,0,0,4,4,3,6,1.96,19.82,35.81,
18.987,106.88892669441282,101.4919312133737,-3.0,0.0,-1.0,1,0,0,4,4,3,6,1.86,19.91,35.90,
19.001,106.94389266944128,101.52619312133737,-3.0,0.0,-1.0,1,0,0,4,4,3,6,1.96,20.21,36.00,
19.015,106.94938926694414,101.53861931213375,-3.0,0.0,-1.0,1,0,0,4,4,3,6,1.96,20.50,36.10,
19.03,106.90493892669441,101.53986193121338,-2.0,0.0,-1.0,1,0,0,4,4,3,6,1.96,20.80,36.10,
19.044,106.90949389266943,101.56698619312134,-3.0,0.0,-1.0,1,0,0,3,4,3,6,1.96,20.99,36.10,
19.057,106.89194938926695,101.49769861931213,-2.0,0.0,-1.0,1,0,0,3,4,3,6,1.96,21.58,36.30,
