time,pitch,roll,gyrx,gyry,gyrz,f1,f2,f3,f4,f5,f6,f7,g1,g2,g3
0.415,31.68,80.23,-7.29,-2.59,-2.15,0.0,0.0,2.0,0.0,3.0,0.0,0.0,0.0,0.0,0.0,
0.439,35.28,89.122,-5.63,-0.47,-3.92,0.0,0.0,2.0,0.0,3.0,0.0,0.0,0.0,0.0,0.0,
0.462,39.086999999999996,97.7692,-3.52,0.71,-0.83,0.0,0.0,2.0,0.0,3.0,0.0,0.0,0.0,0.0,0.0,
0.486,42.3747,105.00592,0.45,2.67,4.82,0.0,0.0,2.0,0.0,3.0,0.0,0.0,0.0,0.0,0.0,
0.509,45.016470000000005,110.877592,-1.41,1.18,4.29,0.0,0.0,2.0,0.0,3.0,0.0,0.0,0.1,0.0,0.0,
0.533,46.855647000000005,115.9647592,-2.95,1.25,-0.87,0.0,0.0,2.0,0.0,3.0,0.0,0.0,0.0,0.0,0.0,
0.557,48.19156470000001,120.37947592,-2.17,1.27,-8.08,0.0,0.0,2.0,0.0,3.0,0.0,0.0,0.1,0.0,0.0,
0.58,48.86515647,124.447947592,-4.98,-6.4,-9.57,0.0,0.0,2.0,0.0,3.0,0.0,0.0,0.0,0.0,0.0,
0.604,49.283515647,127.77079475919999,-7.63,-12.51,-8.79,0.0,0.0,1.0,0.0,2.0,0.0,0.0,0.0,0.0,0.0,
0.628,49.7303515647,130.58707947592,-5.34,-4.26,-8.69,0.0,0.0,1.0,0.0,2.0,0.0,0.0,0.0,0.0,0.0,
0.652,50.25203515647,132.929707947592,-6.11,-1.27,-4.19,0.0,0.0,1.0,0.0,2.0,0.0,0.0,0.0,0.0,0.0,
0.675,50.619203515647,135.0449707947592,-5.46,-0.25,1.86,0.0,0.0,1.0,0.0,3.0,0.0,0.0,0.1,0.0,0.0,
0.699,50.75492035156471,136.90349707947593,-4.11,2.02,1.34,0.0,0.0,1.0,0.0,3.0,0.0,0.0,0.1,0.0,0.0,
0.722,50.84949203515647,138.5833497079476,-4.3,-2.67,-2.3,0.0,0.0,1.0,0.0,3.0,0.0,0.0,0.1,0.0,0.0,
0.747,51.18294920351565,139.93033497079477,-4.71,-5.27,-4.2,0.0,0.0,1.0,0.0,3.0,0.0,0.0,0.2,0.0,0.0,
0.771,51.85529492035157,140.83003349707948,-2.69,-5.04,-4.36,0.0,0.0,1.0,0.0,3.0,0.0,0.0,0.1,0.0,0.0,
0.794,52.51652949203516,141.63100334970795,-4.42,-4.39,-2.31,0.0,0.0,1.0,0.0,3.0,0.0,0.0,0.1,0.0,0.0,
0.818,53.29365294920352,142.3411003349708,-2.76,0.56,0.52,0.0,0.0,1.0,0.0,3.0,0.0,0.0,0.1,0.0,0.0,
0.842,53.83936529492035,143.08711003349705,2.0,2.39,2.65,0.0,0.0,1.0,0.0,3.0,0.0,0.0,0.2,0.0,0.0,
0.866,54.28993652949204,143.55771100334974,0.15,-1.53,4.29,0.0,0.0,1.0,0.0,3.0,0.0,0.0,0.2,0.0,0.0,
0.889,54.631993652949205,143.63177110033496,-1.37,-1.56,0.8,0.0,0.0,1.0,0.0,2.0,0.0,0.0,0.2,0.0,0.0,
0.913,54.97219936529492,143.7831771100335,1.4,3.27,-2.66,0.0,0.0,1.0,0.0,2.0,0.0,0.0,0.29,0.0,0.0,
0.936,54.88921993652949,144.22131771100337,-3.76,-1.9,-0.56,0.0,0.0,1.0,0.0,2.0,0.0,0.0,0.49,0.0,0.0,
0.96,54.38592199365294,144.67013177110033,-6.61,-5.82,0.76,0.0,0.0,1.0,0.0,2.0,0.0,0.0,0.49,0.0,0.0,
0.984,53.975592199365295,145.12001317711002,-2.05,-2.82,-0.76,0.0,0.0,1.0,0.0,2.0,0.0,0.0,0.49,0.0,0.0,
1.007,53.772559219936525,145.30900131771102,0.13,-3.41,-0.4,0.0,0.0,1.0,0.0,2.0,0.0,0.0,0.49,0.0,0.0,
1.032,53.455255921993654,145.57090013177108,0.09,-0.51,1.18,0.0,0.0,1.0,0.0,2.0,0.0,0.0,0.49,0.0,0.0,
1.055,53.342525592199365,145.8580900131771,-0.79,-0.37,1.11,0.0,0.0,1.0,0.0,2.0,0.0,0.0,0.59,0.0,0.0,
1.079,53.50225255921994,146.30980900131772,-1.53,-0.9,1.56,0.0,0.0,1.0,0.0,2.0,0.0,0.0,0.59,0.0,0.0,
1.102,53.74322525592199,146.57098090013176,-3.07,-2.0,2.11,0.0,0.0,1.0,0.0,2.0,0.0,0.0,0.59,0.0,0.0,
1.126,54.0733225255922,146.42609809001317,-1.45,1.09,1.16,0.0,0.0,1.0,0.0,2.0,0.0,0.0,0.69,0.0,0.0,
1.149,54.46633225255921,146.4296098090013,0.56,2.11,-0.43,0.0,0.0,1.0,0.0,2.0,0.0,0.0,0.69,0.0,0.0,
1.173,54.73963322525593,146.35796098090015,-5.18,-2.75,0.27,0.0,0.0,1.0,0.0,2.0,0.0,0.0,0.59,0.0,0.0,
1.197,55.090963322525596,145.93679609808999,-3.52,-1.95,0.67,0.0,0.0,1.0,0.0,2.0,0.0,0.0,0.69,0.0,0.0,
1.221,55.19809633225256,145.606679609809,-2.05,0.16,-1.12,0.0,0.0,1.0,0.0,2.0,0.0,0.0,0.59,0.0,0.0,
1.245,55.20880963322526,145.45666796098092,-5.5,2.43,-2.18,0.0,0.0,1.0,0.0,2.0,0.0,0.0,0.59,0.0,0.0,
1.268,55.344880963322524,145.7386667960981,-0.82,3.26,-1.11,0.0,0.0,1.0,0.0,2.0,0.0,0.0,0.69,0.0,0.0,
1.292,55.34948809633226,145.9018666796098,-2.76,-2.56,0.53,0.0,0.0,1.0,0.0,2.0,0.0,0.0,0.69,0.0,0.0,
1.315,55.34094880963323,145.783186667961,-6.0,-3.85,-0.73,0.0,0.0,1.0,0.0,2.0,0.0,0.0,0.69,0.0,0.0,
1.339,55.31309488096333,145.8073186667961,-4.08,-0.66,-2.37,0.0,0.0,1.0,0.0,2.0,0.0,0.0,0.69,0.0,0.0,
1.363,55.094309488096336,146.0887318666796,-5.19,-1.82,-3.89,0.0,0.0,1.0,0.0,2.0,0.0,0.0,0.69,0.0,0.0,
1.387,54.82043094880963,146.46787318666796,-5.05,-3.38,-4.19,0.0,0.0,1.0,0.0,2.0,0.0,0.0,0.69,0.0,0.0,
1.411,54.76604309488096,146.71278731866678,-0.59,-0.98,-1.4,0.0,0.0,1.0,0.0,2.0,0.0,0.0,0.69,0.0,0.0,
1.434,54.7426043094881,146.80927873186667,-0.76,-0.94,1.33,0.0,0.0,1.0,0.0,2.0,0.0,0.0,0.59,0.0,0.0,
1.459,54.78526043094881,146.7019278731867,-3.13,0.37,2.15,0.0,0.0,1.0,0.0,2.0,0.0,0.0,0.69,0.0,0.0,
1.482,54.51052604309488,146.66419278731865,-2.79,1.41,2.75,0.0,0.0,1.0,0.0,2.0,0.0,0.0,0.59,0.0,0.0,
1.506,53.99705260430949,146.97541927873186,-3.63,-2.05,0.36,0.0,0.0,1.0,0.0,2.0,0.0,0.0,0.69,0.1,0.0,
1.529,53.45070526043095,147.0695419278732,-4.17,-5.43,0.79,0.0,0.0,1.0,0.0,2.0,0.0,0.0,0.69,0.1,0.0,
1.553,53.2970705260431,146.94395419278734,-0.35,0.81,0.26,0.0,0.0,1.0,0.0,2.0,0.0,0.0,0.69,0.0,0.0,
1.576,53.713707052604306,146.81439541927872,-0.42,3.97,-1.19,0.0,0.0,1.0,0.0,2.0,0.0,0.0,0.69,0.1,0.0,
1.6,53.78237070526043,146.84643954192785,-5.25,-3.17,2.8,0.0,0.0,1.0,0.0,2.0,0.0,0.0,0.59,0.0,0.0,
1.624,53.62723707052604,146.7776439541928,-6.69,-5.82,1.43,0.0,0.0,1.0,0.0,2.0,0.0,0.0,0.69,0.0,0.0,
1.648,53.7017237070526,146.55476439541928,-2.81,-1.32,-4.63,0.0,0.0,1.0,0.0,2.0,0.0,0.0,0.69,0.0,0.0,
1.672,54.13217237070526,146.37947643954195,-3.35,-0.6,-2.87,0.0,0.0,1.0,0.0,2.0,0.0,0.0,0.69,0.0,0.0,
1.695,54.58921723707053,146.2539476439542,-6.87,-1.47,0.12,0.0,0.0,1.0,0.0,2.0,0.0,0.0,0.69,0.0,0.0,
1.719,54.93192172370705,146.11539476439543,-5.98,-2.0,-0.64,0.0,0.0,1.0,0.0,2.0,0.0,0.0,0.69,0.0,0.0,
1.742,54.78619217237071,146.20053947643953,-3.85,-2.0,-2.96,0.0,0.0,1.0,0.0,2.0,0.0,0.0,0.59,0.1,0.0,
1.767,54.81661921723707,146.18205394764396,-5.62,-4.41,-3.5,0.0,0.0,1.0,0.0,2.0,0.0,0.0,0.69,0.1,0.0,
1.79,55.28766192172371,146.1352053947644,-2.95,0.53,-2.09,0.0,0.0,1.0,0.0,2.0,0.0,0.0,0.69,0.0,0.0,
1.814,55.532766192172375,146.12152053947645,-3.11,2.6,0.71,0.0,0.0,1.0,0.0,2.0,0.0,0.0,0.69,0.0,0.0,
1.838,55.34127661921724,146.27315205394765,-5.08,-0.39,1.66,0.0,0.0,1.0,0.0,2.0,0.0,0.0,0.59,0.0,0.0,
1.861,54.96212766192173,146.42331520539474,-4.78,-0.97,0.31,0.0,0.0,1.0,0.0,2.0,0.0,0.0,0.69,0.0,0.0,
1.886,54.59121276619217,146.47433152053947,-1.8,-1.11,-2.13,0.0,0.0,1.0,0.0,2.0,0.0,0.0,0.59,0.0,0.0,
1.909,54.35612127661921,146.56943315205396,-2.1,0.5,-2.27,0.0,0.0,1.0,0.0,2.0,0.0,0.0,0.59,0.0,0.0,
1.933,54.32361212766192,146.6419433152054,-2.19,0.21,0.91,0.0,0.0,1.0,0.0,2.0,0.0,0.0,0.69,0.0,0.0,
1.956,54.24836121276619,146.65819433152055,-3.26,-0.42,4.08,0.0,0.0,1.0,0.0,2.0,0.0,0.0,0.59,0.0,0.0,
1.98,53.86283612127662,146.62381943315205,-4.76,-2.65,2.34,0.0,0.0,1.0,0.0,2.0,0.0,0.0,0.69,0.0,0.0,
2.003,53.590283612127664,146.6743819433152,-2.05,-1.0,-1.88,0.0,0.0,1.0,0.0,2.0,0.0,0.0,0.69,0.0,0.0,
2.028,53.68002836121276,146.78743819433151,-0.21,-1.73,-4.21,0.0,0.0,1.0,0.0,2.0,0.0,0.0,0.69,0.0,0.0,
2.052,53.86900283612128,146.71774381943317,-3.47,-4.08,0.4,0.0,0.0,1.0,0.0,2.0,0.0,0.0,0.69,0.1,0.0,
2.075,53.896900283612126,146.48577438194334,-4.48,-3.91,1.34,0.0,0.0,1.0,0.0,2.0,0.0,0.0,0.59,0.0,0.0,
2.099,54.04369002836121,146.40857743819436,-3.79,-0.34,-2.38,0.0,0.0,1.0,0.0,2.0,0.0,0.0,0.59,0.0,0.0,
2.122,54.27436900283612,146.62585774381944,-1.73,-0.6,-3.53,0.0,0.0,1.0,0.0,2.0,0.0,0.0,0.69,0.1,0.0,
2.147,54.51343690028361,146.81858577438194,-0.85,-4.19,-0.12,0.0,0.0,1.0,0.0,2.0,0.0,0.0,0.69,0.1,0.0,
2.17,54.80734369002836,146.7208585774382,-2.37,-3.53,3.09,0.0,0.0,1.0,0.0,2.0,0.0,0.0,0.69,0.0,0.0,
2.194,55.18773436900283,146.47708585774382,-1.45,0.42,2.88,0.0,0.0,1.0,0.0,2.0,0.0,0.0,0.69,0.0,0.0,
2.217,55.37877343690028,146.30870858577438,-0.59,4.09,1.83,0.0,0.0,1.0,0.0,2.0,0.0,0.0,0.69,0.0,0.0,
2.241,55.35287734369003,146.39087085857744,-1.64,2.07,0.78,0.0,0.0,1.0,0.0,2.0,0.0,0.0,0.69,0.1,0.0,
2.265,55.251287734369,146.33608708585774,-4.63,-3.5,1.31,0.0,0.0,1.0,0.0,2.0,0.0,0.0,0.69,0.0,0.0,
2.288,55.1421287734369,146.01560870858577,-2.55,-1.89,-0.98,0.0,0.0,1.0,0.0,2.0,0.0,0.0,0.69,0.0,0.0,
2.313,55.284212877343684,145.95656087085857,-0.68,3.23,-3.02,0.0,0.0,1.0,0.0,2.0,0.0,0.0,0.59,0.1,0.0,
2.336,55.45142128773437,146.01365608708585,-5.84,-0.21,1.29,0.0,0.0,1.0,0.0,2.0,0.0,0.0,0.59,0.1,0.0,
2.36,55.31514212877343,146.0373656087086,-5.68,-0.94,4.08,0.0,0.0,1.0,0.0,2.0,0.0,0.0,0.69,0.0,0.0,
2.383,54.75251421287734,146.26473656087086,-4.19,-0.72,-0.28,0.0,0.0,1.0,0.0,2.0,0.0,0.0,0.69,0.0,0.0,
2.407,54.34525142128773,146.3594736560871,-2.19,-1.25,-4.26,0.0,0.0,1.0,0.0,2.0,0.0,0.0,0.69,0.1,0.0,
2.432,54.664525142128774,146.21594736560868,-2.63,0.77,-4.15,0.0,0.0,1.0,0.0,2.0,0.0,0.0,0.69,0.0,0.0,
2.455,54.82245251421288,146.07559473656087,-6.45,-2.04,0.35,0.0,0.0,1.0,0.0,2.0,0.0,0.0,0.69,0.0,0.0,
2.479,54.43324525142128,146.3495594736561,-6.2,-2.09,-0.96,0.0,0.0,1.0,0.0,2.0,0.0,0.0,0.59,0.0,0.0,
2.502,54.025324525142125,146.5209559473656,-3.28,-3.31,-2.53,0.0,0.0,1.0,0.0,2.0,0.0,0.0,0.69,0.1,0.0,
2.526,54.24553245251421,146.47509559473656,-2.93,-0.94,-1.69,0.0,0.0,1.0,0.0,2.0,0.0,0.0,0.59,0.2,0.0,
2.55,54.681553245251415,146.39850955947367,-3.95,1.73,-2.53,0.0,0.0,1.0,0.0,2.0,0.0,0.0,0.59,0.1,0.0,
2.574,54.27515532452514,146.72385095594737,-4.6,-2.34,-1.61,0.0,0.0,1.0,0.0,2.0,0.0,0.0,0.49,0.1,0.0,
2.597,53.83851553245251,146.76538509559475,-5.53,-5.82,-5.03,0.0,0.0,2.0,0.0,3.0,0.0,0.0,0.39,0.1,0.0,
2.621,54.02885155324525,146.56253850955946,-7.75,5.35,-10.07,0.0,0.0,2.0,0.0,3.0,0.0,0.0,0.2,0.1,0.0,
2.646,54.47088515532453,146.26325385095595,-15.92,8.59,-2.18,0.0,0.0,2.0,0.0,3.0,0.0,0.0,0.0,0.2,0.0,
2.669,54.97408851553245,145.6933253850956,-23.96,1.73,8.25,0.0,0.0,2.0,0.0,3.0,0.0,0.0,0.0,0.29,0.0,
2.693,56.78840885155325,143.71933253850955,-40.28,12.2,22.28,0.0,0.0,2.0,0.0,3.0,0.0,0.0,0.0,0.29,0.0,
2.716,59.37284088515532,140.15593325385095,-78.2,6.77,32.52,0.0,0.0,3.0,0.0,3.0,0.0,0.0,0.0,0.39,0.0,
2.741,60.171284088515534,134.9215933253851,-124.44,-16.53,39.24,0.0,0.0,3.0,0.0,3.0,0.0,0.0,0.0,0.39,0.0,
2.764,60.10712840885156,127.97215933253851,-155.32,-5.81,22.48,0.0,0.0,4.0,0.0,3.0,0.0,0.0,0.0,0.49,0.0,
2.789,59.29971284088516,119.83421593325386,-163.95,-17.79,-19.95,0.0,0.0,4.0,0.0,3.0,0.0,0.0,0.0,0.0,0.0,
2.812,58.228971284088516,112.3874215933254,-181.88,-40.87,-60.89,0.0,0.0,4.0,0.0,3.0,0.0,0.0,0.0,0.0,0.0,
2.837,55.97089712840885,103.89374215933253,-155.34,-44.7,-96.99,0.0,0.0,5.0,0.0,3.0,0.0,0.0,0.0,0.0,0.0,
2.861,54.557089712840884,97.01437421593326,-133.87,-27.75,-127.07,0.0,0.0,5.0,0.0,3.0,0.0,0.0,0.0,0.1,0.0,
2.885,53.21870897128409,91.50243742159333,-131.2,-35.97,-134.23,0.0,0.0,4.0,0.0,3.0,0.0,0.0,0.0,7.16,0.0,
2.909,51.30287089712841,88.13424374215934,-123.11,-40.79,-146.16,0.0,0.0,4.0,0.0,3.0,0.0,0.0,0.0,37.77,0.0,
2.933,49.98628708971284,87.04142437421594,-110.14,-5.31,-152.22,0.0,0.0,3.0,0.0,2.0,0.0,0.0,0.0,25.02,0.0,
2.958,48.936628708971284,83.8541424374216,-99.84,23.52,-138.2,0.0,0.0,2.0,0.0,2.0,0.0,0.0,0.0,9.71,0.0,
2.981,49.605662870897135,86.16341424374217,-62.56,3.21,-138.63,0.0,0.0,3.0,0.0,2.0,0.0,0.0,0.0,4.51,0.0,
3.005,50.92356628708971,89.51734142437421,-87.08,7.27,-116.11,0.0,0.0,3.0,0.0,1.0,0.0,0.0,0.0,4.51,0.0,
3.03,52.20735662870897,93.07473414243742,-105.61,44.21,-101.09,0.0,0.0,3.0,0.0,1.0,0.0,0.0,0.0,4.41,0.0,
3.053,52.16473566287089,98.55147341424374,-130.48,-13.15,-79.41,0.0,0.0,3.0,0.0,1.0,0.0,0.0,0.0,3.92,0.0,
3.078,49.658473566287086,105.14714734142437,-137.24,-58.05,-73.11,0.0,0.0,2.0,0.0,1.0,0.0,0.0,0.0,3.63,0.0,
3.101,39.84984735662871,81.09271473414243,-26.5,-21.02,-19.51,0.0,0.0,5.0,0.0,0.0,0.0,0.0,0.0,3.04,0.0,
3.126,40.95698473566287,87.68727147341424,177.44,56.33,38.32,0.0,0.0,4.0,0.0,1.0,0.0,0.0,3.04,4.41,0.0,
3.149,48.96969847356629,93.29672714734143,-236.88,-57.36,224.55,0.0,0.0,4.0,2.0,2.0,0.0,0.0,4.81,14.13,0.0,
3.174,48.64596984735663,97.16067271473415,-8.51,1.39,-84.88,0.0,0.0,4.0,0.0,2.0,0.0,0.0,5.98,0.98,0.0,
3.197,46.390596984735666,92.66006727147342,-18.11,-56.66,-36.27,0.0,0.0,4.0,0.0,2.0,0.0,0.0,4.91,0.0,0.0,
3.221,48.97305969847356,89.07800672714735,46.44,200.98,-96.04,0.0,0.0,4.0,0.0,2.0,0.0,0.0,3.43,7.06,0.0,
3.246,66.65530596984736,98.04380067271474,9.71,24.68,-5.85,0.0,0.0,4.0,0.0,2.0,0.0,0.0,3.14,31.88,0.0,
3.269,69.37753059698474,95.77238006727147,17.15,8.53,38.4,0.0,0.0,4.0,0.0,3.0,0.0,0.0,3.14,46.89,0.0,
3.293,69.11875305969848,97.50723800672715,-32.05,21.29,35.37,0.0,0.0,4.0,0.0,3.0,0.0,0.0,3.53,44.24,0.0,
3.317,64.99787530596986,92.85672380067273,-17.76,-101.72,29.07,0.0,0.0,4.0,0.0,2.0,0.0,0.0,4.02,34.53,0.0,
3.341,62.92078753059698,91.42867238006727,18.8,45.12,-28.08,0.0,0.0,3.0,0.0,2.0,0.0,0.0,3.92,34.63,0.0,
3.365,64.1260787530597,90.93486723800673,18.73,15.4,-22.22,0.0,0.0,3.0,0.0,2.0,0.0,0.0,3.14,34.73,0.0,
3.389,64.27360787530597,90.49848672380067,-6.19,-15.71,5.35,0.0,0.0,3.0,1.0,2.0,0.0,0.0,2.84,33.45,0.0,
3.412,63.2713607875306,89.54584867238006,-16.62,-8.58,14.89,0.0,0.0,3.0,1.0,2.0,0.0,0.0,2.84,35.71,0.0,
3.437,61.83013607875306,87.48858486723802,-10.46,-2.21,12.92,0.0,0.0,3.0,1.0,2.0,0.0,0.0,2.75,35.61,0.0,
3.461,60.9030136078753,86.51785848672381,-4.59,-2.05,7.2,0.0,0.0,3.0,0.0,1.0,0.0,0.0,2.65,33.45,0.0,
3.485,60.27930136078753,85.80878584867239,-5.39,-1.21,8.33,0.0,0.0,2.0,0.0,1.0,0.0,0.0,2.35,32.96,0.0,
3.509,59.70393013607875,85.38687858486725,-6.76,2.6,9.5,0.0,0.0,2.0,0.0,1.0,0.0,0.0,1.86,33.26,0.0,
3.532,59.45739301360788,85.29968785848673,-10.72,5.21,8.89,0.0,0.0,2.0,0.0,1.0,0.0,0.0,1.67,28.45,0.0,
3.556,59.36973930136079,84.78696878584867,-13.39,5.15,11.55,0.0,0.0,2.0,0.0,1.0,0.0,0.0,1.57,31.1,0.0,
3.58,58.82097393013608,84.09669687858486,-11.66,8.21,11.73,0.0,0.0,2.0,0.0,1.0,0.0,0.0,1.67,31.1,0.0,
3.604,58.54109739301361,83.18166968785849,-1.5,4.19,0.82,0.0,0.0,2.0,0.0,1.0,0.0,0.0,1.37,29.92,0.0,
3.628,57.550109739301355,82.46916696878584,11.89,-9.16,-15.27,0.0,0.0,2.0,0.0,1.0,0.0,0.0,1.28,28.45,0.0,
3.652,56.13701097393013,83.17191669687858,31.15,-74.12,-35.13,0.0,0.0,2.0,0.0,2.0,0.0,0.0,1.57,28.15,0.0,
3.676,55.87870109739301,84.24119166968786,12.16,-74.67,-18.27,0.0,0.0,2.0,0.0,1.0,0.0,0.0,1.77,28.55,0.0,
3.699,53.6478701097393,79.39811916696878,-46.56,-11.93,1.31,0.0,0.0,1.0,0.0,0.0,0.0,0.0,1.47,28.55,0.0,
3.724,51.435787010973925,73.58581191669688,-17.18,-11.15,-31.4,0.0,0.0,0.0,0.0,0.0,0.0,0.0,0.59,32.37,0.0,
3.747,51.421578701097395,69.8815811916697,16.58,-14.41,-48.76,0.0,0.0,0.0,0.0,0.0,0.0,0.0,0.29,34.92,0.0,
3.772,52.53615787010973,68.43115811916697,12.15,-9.0,-37.84,0.0,0.0,0.0,0.0,0.0,0.0,0.0,0.1,38.16,0.0,
3.795,54.870615787010976,71.04011581191669,24.63,5.9,-18.84,0.0,0.0,0.0,0.0,0.0,0.0,0.0,0.2,36.2,0.0,
3.819,56.98506157870109,77.18701158119168,28.24,31.67,-11.42,0.0,0.0,0.0,0.0,0.0,0.0,0.0,0.39,35.41,0.0,
3.844,55.92750615787011,86.59470115811916,45.47,17.32,-14.61,0.0,0.0,1.0,0.0,0.0,0.0,0.0,0.78,34.43,0.0,
3.867,56.73975061578701,91.45947011581191,-76.79,-39.0,59.58,0.0,0.0,1.0,0.0,0.0,0.0,0.0,1.08,26.88,0.0,
3.891,54.6339750615787,89.05694701158119,26.72,-40.07,-28.53,0.0,0.0,1.0,0.0,0.0,0.0,0.0,1.47,8.44,0.0,
3.915,53.721397506157864,84.78469470115812,26.64,69.03,-33.69,0.0,0.0,1.0,0.0,0.0,0.0,0.0,2.16,7.26,0.0,
3.939,54.66513975061579,85.12246947011582,20.25,26.1,-17.64,0.0,0.0,1.0,0.0,0.0,0.0,0.0,2.06,19.52,0.0,
3.962,55.632513975061585,85.15624694701158,-3.44,6.13,2.38,0.0,0.0,1.0,0.0,0.0,0.0,0.0,2.06,18.25,0.0,
3.987,56.25125139750616,85.20462469470115,-13.26,1.67,11.75,0.0,0.0,1.0,0.0,0.0,0.0,0.0,2.16,15.4,0.0,
4.011,55.85412513975062,84.34546246947012,-15.92,7.92,7.78,0.0,0.0,1.0,0.0,0.0,0.0,0.0,2.45,14.13,0.0,
4.034,55.82341251397506,83.377546246947,-5.5,24.52,0.18,0.0,0.0,1.0,0.0,0.0,0.0,0.0,2.45,13.93,0.0,
4.058,56.450341251397504,83.23575462469469,-3.65,10.9,2.34,0.0,0.0,1.0,0.0,0.0,0.0,0.0,2.45,14.42,0.0,
4.081,57.01703412513975,83.36557546246947,-5.47,4.64,4.03,0.0,0.0,1.0,0.0,0.0,0.0,0.0,2.45,14.13,0.0,
4.105,57.33470341251397,83.26155754624695,-7.2,0.32,6.65,0.0,0.0,1.0,0.0,0.0,0.0,0.0,2.55,12.95,0.0,
4.129,57.3124703412514,83.1341557546247,-5.92,-0.57,4.89,0.0,0.0,1.0,0.0,0.0,0.0,0.0,2.45,12.75,0.0,
4.153,57.25624703412514,83.03141557546247,-4.85,1.36,3.34,0.0,0.0,1.0,0.0,0.0,0.0,0.0,2.55,12.85,0.0,
4.176,57.304624703412514,82.92214155754624,-4.48,1.3,1.7,0.0,0.0,1.0,0.0,0.0,0.0,0.0,2.55,12.56,0.0,
4.2,57.48046247034125,82.93821415575462,-5.17,0.96,2.35,0.0,0.0,1.0,0.0,0.0,0.0,0.0,2.45,12.56,0.0,
4.224,57.58804624703413,82.91282141557546,-3.64,2.28,2.63,0.0,0.0,1.0,0.0,0.0,0.0,0.0,2.55,12.85,0.0,
4.247,57.62580462470341,82.95528214155755,-3.37,2.84,2.06,0.0,0.0,1.0,0.0,0.0,0.0,0.0,2.65,12.75,0.0,
4.271,57.73758046247034,82.84252821415575,-3.82,3.93,0.34,0.0,0.0,1.0,0.0,0.0,0.0,0.0,2.65,11.97,0.0,
4.294,57.83875804624704,82.72325282141557,-3.85,2.99,0.79,0.0,0.0,1.0,0.0,0.0,0.0,0.0,2.55,11.28,0.0,
4.318,58.0108758046247,82.80132528214156,-3.29,3.11,0.67,0.0,0.0,1.0,0.0,0.0,0.0,0.0,2.65,11.38,0.0,
4.341,58.163087580462474,82.75513252821416,-4.42,2.84,1.34,0.0,0.0,1.0,0.0,0.0,0.0,0.0,2.45,11.28,0.0,
4.365,58.277308758046246,82.75951325282142,-4.18,3.01,0.38,0.0,0.0,1.0,0.0,0.0,0.0,0.0,2.55,11.09,0.0,
4.388,58.42373087580462,82.72395132528214,-4.18,2.05,0.48,0.0,0.0,1.0,0.0,0.0,0.0,0.0,2.55,11.09,0.0,
4.413,58.43837308758046,82.63039513252822,-3.65,0.43,0.4,0.0,0.0,1.0,0.0,0.0,0.0,0.0,2.55,10.99,0.0,
4.436,58.45783730875805,82.58503951325282,-2.71,-1.02,0.1,0.0,0.0,1.0,0.0,0.0,0.0,0.0,2.55,10.79,0.0,
4.46,58.4957837308758,82.57150395132528,-3.02,-1.44,-0.36,0.0,0.0,1.0,0.0,0.0,0.0,0.0,2.55,10.79,0.0,
4.484,58.55357837308758,82.57015039513253,-3.06,-2.76,0.09,0.0,0.0,1.0,0.0,0.0,0.0,0.0,2.55,10.5,0.0,
4.507,58.59535783730876,82.56101503951325,-2.82,-2.69,-0.43,0.0,0.0,1.0,0.0,0.0,0.0,0.0,2.55,10.5,0.0,
4.532,58.59953578373088,82.60510150395133,-2.48,-1.92,-0.76,0.0,0.0,1.0,0.0,0.0,0.0,0.0,2.55,10.59,0.0,
4.555,58.56395357837309,82.58251015039514,-2.79,-2.68,-0.41,0.0,0.0,1.0,0.0,0.0,0.0,0.0,2.55,10.4,0.0,
4.579,58.524395357837314,82.59825101503952,-2.17,-1.98,-1.02,0.0,0.0,1.0,0.0,0.0,0.0,0.0,2.45,10.89,0.0,
4.602,58.54743953578373,82.64482510150395,-2.84,-1.98,-0.78,0.0,0.0,1.0,0.0,0.0,0.0,0.0,2.55,10.79,0.0,
4.626,58.61274395357837,82.6854825101504,-3.6,-1.91,-0.4,0.0,0.0,1.0,0.0,0.0,0.0,0.0,2.55,10.79,0.0,
4.651,58.619274395357834,82.63554825101504,-3.76,-1.24,-0.4,0.0,0.0,1.0,0.0,0.0,0.0,0.0,2.55,10.5,0.0,
4.674,58.556927439535784,82.62155482510151,-3.11,-2.05,-0.1,0.0,0.0,1.0,0.0,0.0,0.0,0.0,2.55,9.03,0.0,
4.698,58.559692743953576,82.63815548251016,-2.5,-2.83,-0.28,0.0,0.0,1.0,0.0,0.0,0.0,0.0,2.55,8.24,0.0,
4.721,58.532969274395356,82.65781554825102,-2.82,-3.08,0.24,0.0,0.0,1.0,0.0,0.0,0.0,0.0,2.65,8.14,0.0,
4.745,58.61129692743953,82.6507815548251,-3.69,-5.68,1.66,0.0,0.0,1.0,0.0,0.0,0.0,0.0,2.55,8.14,0.0,
4.768,58.50212969274396,82.61407815548252,-4.17,-6.15,1.95,0.0,0.0,1.0,0.0,0.0,0.0,0.0,2.45,8.14,0.0,
4.793,58.4102129692744,82.57440781554826,-3.26,-4.85,1.42,0.0,0.0,1.0,0.0,1.0,0.0,0.0,2.35,8.14,0.0,
4.816,58.37402129692744,82.59744078155482,-2.27,-4.18,0.48,0.0,0.0,1.0,0.0,1.0,0.0,0.0,2.35,8.24,0.0,
4.84,58.32540212969274,82.67174407815548,-2.47,-2.69,0.69,0.0,0.0,1.0,0.0,0.0,0.0,0.0,2.35,8.24,0.0,
4.864,58.275540212969275,82.76017440781554,-2.84,-2.4,0.84,0.0,0.0,1.0,0.0,0.0,0.0,0.0,2.35,8.24,0.0,
4.887,58.24355402129693,82.80501744078157,-3.6,-0.02,0.69,0.0,0.0,1.0,0.0,0.0,0.0,0.0,2.35,7.95,0.0,
4.911,58.19535540212969,82.83650174407816,-3.7,0.19,0.53,0.0,0.0,1.0,0.0,0.0,0.0,0.0,2.35,8.14,0.0,
4.934,58.18153554021297,82.83065017440781,-3.7,1.67,0.04,0.0,0.0,1.0,0.0,0.0,0.0,0.0,2.26,8.73,0.0,
4.958,58.22515355402129,82.81206501744079,-3.33,1.73,-0.17,0.0,0.0,1.0,0.0,0.0,0.0,0.0,2.35,8.63,0.0,
4.981,58.22051535540213,82.81920650174408,-3.4,1.27,0.24,0.0,0.0,1.0,0.0,0.0,0.0,0.0,2.35,8.24,0.0,
5.005,58.22905153554021,82.76592065017442,-2.89,0.26,-0.73,0.0,0.0,1.0,0.0,0.0,0.0,0.0,2.35,8.14,0.0,
5.028,58.24790515355402,82.82359206501744,-2.72,0.18,-1.02,0.0,0.0,1.0,0.0,0.0,0.0,0.0,2.35,8.24,0.0,
5.052,58.3127905153554,82.89235920650175,-2.56,-1.55,-0.58,0.0,0.0,1.0,0.0,0.0,0.0,0.0,2.35,8.24,0.0,
5.075,58.31927905153554,82.89023592065017,-2.91,-0.9,0.56,0.0,0.0,1.0,0.0,0.0,0.0,0.0,2.45,8.63,0.0,
5.1,58.32892790515355,82.82702359206502,-2.76,-1.37,-0.82,0.0,0.0,1.0,0.0,0.0,0.0,0.0,2.45,8.83,0.0,
5.124,58.32089279051535,82.7937023592065,-2.59,-1.27,-0.93,0.0,0.0,1.0,0.0,0.0,0.0,0.0,2.26,8.83,0.0,
5.147,58.35608927905153,82.78137023592066,-3.04,-0.65,-0.46,0.0,0.0,1.0,0.0,0.0,0.0,0.0,2.45,8.24,0.0,
5.171,58.41360892790515,82.78913702359208,-3.53,-0.05,-0.45,0.0,0.0,1.0,0.0,0.0,0.0,0.0,2.55,9.03,0.0,
5.195,58.428360892790515,82.69091370235921,-3.69,-1.08,0.04,0.0,0.0,1.0,0.0,0.0,0.0,0.0,2.45,9.22,0.0,
5.219,58.555836089279055,82.58209137023593,-3.48,0.27,-0.9,0.0,0.0,1.0,0.0,0.0,0.0,0.0,2.45,9.42,0.0,
5.242,58.5595836089279,82.2022091370236,-0.27,5.44,-3.47,0.0,0.0,1.0,0.0,0.0,0.0,0.0,2.65,9.52,0.0,
5.266,58.55095836089279,82.19122091370237,2.15,1.41,-3.89,0.0,0.0,1.0,0.0,0.0,0.0,0.0,2.35,9.71,0.0,
5.289,58.73909583608928,82.29812209137025,-0.53,0.44,-0.4,0.0,0.0,1.0,0.0,0.0,0.0,0.0,2.26,10.01,0.0,
5.314,58.685909583608925,82.35381220913702,-3.11,-2.71,0.11,0.0,0.0,1.0,0.0,0.0,0.0,0.0,1.96,10.1,0.0,
5.338,58.55459095836089,82.2423812209137,-3.27,-5.65,-0.98,0.0,0.0,1.0,0.0,0.0,0.0,0.0,1.77,10.2,0.0,
5.361,58.50545909583609,82.30323812209137,-1.97,-3.22,-1.47,0.0,0.0,1.0,0.0,0.0,0.0,0.0,1.77,10.01,0.0,
5.386,58.473545909583606,82.46232381220914,-2.66,-4.55,-2.2,0.0,0.0,1.0,0.0,0.0,0.0,0.0,1.77,9.91,0.0,
5.409,58.47935459095836,82.4962323812209,-3.03,-4.73,-2.73,0.0,0.0,1.0,0.0,0.0,0.0,0.0,1.86,9.91,0.0,
5.433,58.39893545909584,82.17562323812209,-2.18,-4.95,-1.9,0.0,0.0,1.0,0.0,0.0,0.0,0.0,1.96,9.61,0.0,
5.456,58.12989354590958,81.95456232381221,0.5,-6.34,-1.66,0.0,0.0,0.0,0.0,0.0,0.0,0.0,1.96,9.32,0.0,
5.481,57.949989354590954,82.24745623238123,6.55,-7.98,-6.46,0.0,0.0,0.0,0.0,0.0,0.0,0.0,1.86,9.61,0.0,
5.505,58.03999893545909,82.60074562323813,7.95,-10.29,-6.09,0.0,0.0,0.0,0.0,0.0,0.0,0.0,1.77,9.22,0.0,
5.528,57.535999893545906,81.86207456232381,18.42,-21.18,-9.92,0.0,0.0,0.0,0.0,0.0,0.0,0.0,1.77,9.03,0.0,
5.552,57.044599989354595,82.76020745623238,27.25,-28.92,-16.56,0.0,0.0,0.0,0.0,0.0,0.0,0.0,1.67,8.93,0.0,
5.576,57.19345999893546,83.76802074562325,9.91,-28.15,-11.66,0.0,0.0,0.0,0.0,0.0,0.0,0.0,1.37,8.73,0.0,
5.6,57.001345999893545,84.55280207456232,-2.5,-31.31,-11.05,0.0,0.0,1.0,0.0,0.0,0.0,0.0,1.28,8.53,0.0,
5.624,56.26213459998935,83.63228020745623,-7.53,-30.63,-3.62,0.0,0.0,1.0,0.0,1.0,0.0,0.0,1.86,8.44,0.0,
5.648,55.79221345999894,83.19822802074563,4.17,-15.61,-9.05,0.0,0.0,1.0,0.0,1.0,0.0,0.0,2.26,8.83,0.0,
5.671,55.772221345999895,82.15582280207457,-6.95,-6.2,-8.08,0.0,0.0,1.0,0.0,0.0,0.0,0.0,2.26,9.71,0.0,
5.696,56.193222134599985,83.54558228020746,-10.62,15.85,-2.23,0.0,0.0,1.0,0.0,1.0,0.0,0.0,2.55,10.3,0.0,
5.72,56.91032221346,87.60855822802075,-19.76,58.4,9.94,0.0,0.0,1.0,0.0,0.0,0.0,0.0,2.75,10.79,0.0,
5.743,56.892032221346,84.49585582280208,-42.95,21.5,29.47,0.0,0.0,1.0,0.0,0.0,0.0,0.0,2.94,10.59,0.0,
5.768,55.89120322213461,83.95058558228021,4.27,-20.83,12.08,0.0,0.0,1.0,0.0,0.0,0.0,0.0,3.04,10.5,0.0,
5.791,56.05212032221346,84.20205855822802,4.65,13.85,-4.94,0.0,0.0,0.0,0.0,0.0,0.0,0.0,2.75,10.99,0.0,
5.816,56.55421203222134,84.18220585582282,-8.4,14.98,1.63,0.0,0.0,0.0,0.0,0.0,0.0,0.0,2.55,11.09,0.0,
5.839,56.61342120322213,83.91922058558228,-9.76,2.69,4.84,0.0,0.0,0.0,0.0,0.0,0.0,0.0,2.35,11.48,0.0,
5.863,56.67334212032221,82.97492205855823,-9.15,2.7,7.15,0.0,0.0,0.0,0.0,0.0,0.0,0.0,2.35,11.77,0.0,
5.886,56.292334212032216,82.48449220585583,13.0,-13.27,-5.1,0.0,0.0,0.0,0.0,0.0,0.0,0.0,2.55,11.48,0.0,
5.911,56.434233421203224,83.23644922058558,8.01,4.73,-12.09,0.0,0.0,0.0,0.0,0.0,0.0,0.0,2.55,11.38,0.0,
5.935,57.105423342120325,83.75264492205856,-6.07,11.04,-4.7,0.0,0.0,0.0,0.0,0.0,0.0,0.0,2.45,11.58,0.0,
5.958,57.35254233421203,83.53426449220586,-11.02,4.24,1.44,0.0,0.0,0.0,0.0,0.0,0.0,0.0,2.35,11.67,0.0,
5.983,57.6292542334212,83.23342644922059,-16.04,9.35,9.04,0.0,0.0,0.0,0.0,0.0,0.0,0.0,2.45,11.58,0.0,
6.006,57.35992542334212,82.44734264492206,-4.21,-2.35,4.08,0.0,0.0,0.0,0.0,0.0,0.0,0.0,2.45,11.87,0.0,
6.03,57.368992542334205,82.50373426449221,-1.35,0.86,0.1,0.0,0.0,0.0,0.0,0.0,0.0,0.0,2.35,11.87,0.0,
6.053,57.84689925423342,82.82437342644921,-9.05,9.85,2.41,0.0,0.0,0.0,0.0,0.0,0.0,0.0,1.96,11.87,0.0,
6.077,57.759689925423345,82.54143734264493,-10.85,2.33,6.16,0.0,0.0,0.0,0.0,0.0,0.0,0.0,2.26,11.67,0.0,
6.102,57.606968992542335,82.34214373426448,-6.13,-1.48,1.19,0.0,0.0,0.0,0.0,0.0,0.0,0.0,2.26,12.07,0.0,
6.125,57.65469689925423,82.08821437342644,-7.08,0.37,2.65,0.0,0.0,0.0,0.0,0.0,0.0,0.0,2.35,12.07,0.0,
6.149,57.66846968992543,81.83782143734265,-2.73,-0.5,-0.54,0.0,0.0,0.0,0.0,0.0,0.0,0.0,2.55,11.77,0.0,
6.173,57.76884696899254,81.76778214373427,-2.56,-1.47,-0.69,0.0,0.0,0.0,0.0,0.0,0.0,0.0,2.45,11.18,0.0,
6.197,57.787884696899255,81.93177821437344,-1.73,-1.38,-0.54,0.0,0.0,0.0,0.0,0.0,0.0,0.0,2.45,10.79,0.0,
6.22,57.82578846968992,82.05617782143734,-1.73,-2.66,-0.4,0.0,0.0,0.0,0.0,0.0,0.0,0.0,2.45,10.69,0.0,
6.245,57.991578846968984,82.17661778214374,-0.82,-0.51,-1.27,0.0,0.0,0.0,0.0,0.0,0.0,0.0,2.35,10.4,0.0,
6.268,58.1431578846969,82.35066177821439,-2.6,0.34,-1.26,0.0,0.0,0.0,0.0,0.0,0.0,0.0,2.35,10.4,0.0,
6.292,58.22131578846968,82.47606617782144,-3.05,-1.04,2.47,0.0,0.0,0.0,0.0,0.0,0.0,0.0,2.26,10.2,0.0,
6.317,58.157131578846965,82.47960661778214,-3.37,-3.63,0.56,0.0,0.0,0.0,0.0,0.0,0.0,0.0,2.26,9.91,0.0,
6.34,58.27671315788469,82.56096066177821,-2.14,0.89,-0.32,0.0,0.0,0.0,0.0,0.0,0.0,0.0,2.26,9.81,0.0,
6.364,58.360671315788466,82.53309606617782,-2.0,-0.47,-0.99,0.0,0.0,0.0,0.0,0.0,0.0,0.0,2.26,9.71,0.0,
6.387,58.43206713157884,82.60230960661778,-2.6,-0.76,-0.6,0.0,0.0,0.0,0.0,0.0,0.0,0.0,2.26,9.71,0.0,
6.411,58.44820671315789,82.55523096066177,-3.89,2.77,1.19,0.0,0.0,0.0,0.0,0.0,0.0,0.0,2.26,9.81,0.0,
6.435,58.494820671315786,82.46952309606617,-4.65,4.19,0.76,0.0,0.0,1.0,0.0,0.0,0.0,0.0,2.26,9.71,0.0,
6.459,58.84148206713158,82.67695230960662,-6.15,11.69,3.44,0.0,0.0,0.0,0.0,0.0,0.0,0.0,2.26,9.42,0.0,
6.482,59.14614820671316,82.60769523096066,-9.46,8.98,4.49,0.0,0.0,0.0,0.0,0.0,0.0,0.0,2.26,9.81,0.0,
6.506,58.86161482067132,82.35776952309605,-6.02,1.76,3.64,0.0,0.0,0.0,0.0,0.0,0.0,0.0,2.35,10.5,0.0,
6.53,59.32816148206713,82.4767769523096,-2.94,10.53,6.13,0.0,0.0,0.0,0.0,0.0,0.0,0.0,2.65,10.89,0.0,
6.553,59.19481614820671,82.54267769523096,-0.39,-0.3,6.34,0.0,0.0,0.0,0.0,0.0,0.0,0.0,2.55,11.28,0.0,
6.577,59.04648161482067,82.6302677695231,5.11,-6.68,-4.24,0.0,0.0,0.0,0.0,0.0,0.0,0.0,2.35,11.48,0.0,
6.601,59.04964816148206,82.66602677695232,4.85,-9.62,-7.26,0.0,0.0,0.0,0.0,0.0,0.0,0.0,2.06,11.48,0.0,
6.625,58.698964816148205,82.85860267769523,8.49,-16.85,-11.85,0.0,0.0,0.0,0.0,0.0,0.0,0.0,1.96,11.67,0.0,
6.648,58.681896481614814,83.02186026776953,6.67,-19.43,-8.92,0.0,0.0,0.0,0.0,0.0,0.0,0.0,1.77,11.67,0.0,
6.672,58.86918964816149,82.92118602677695,7.63,-12.8,-7.57,0.0,0.0,0.0,0.0,0.0,0.0,0.0,1.47,11.38,0.0,
6.696,58.63591896481615,83.1001186026777,6.82,-21.51,-2.88,0.0,0.0,0.0,0.0,0.0,0.0,0.0,1.37,11.48,0.0,
6.72,58.360591896481615,83.51401186026777,1.17,-11.54,-3.48,0.0,0.0,0.0,0.0,0.0,0.0,0.0,1.28,11.67,0.0,
6.744,58.17105918964816,83.81640118602678,-4.07,-13.62,0.73,0.0,0.0,0.0,0.0,0.0,0.0,0.0,1.18,11.87,0.0,
6.767,57.810105918964815,84.01764011860269,-10.3,-22.18,2.29,0.0,0.0,0.0,0.0,0.0,0.0,0.0,1.18,11.87,0.0,
6.792,57.28801059189648,83.32676401186026,-11.04,-22.15,4.28,0.0,0.0,0.0,0.0,0.0,0.0,0.0,1.47,11.67,0.0,
6.815,56.98380105918965,83.24867640118602,-7.56,-3.55,3.47,0.0,0.0,0.0,0.0,0.0,0.0,0.0,1.57,11.58,0.0,
6.839,56.917380105918966,83.3578676401186,-6.52,0.64,3.49,0.0,0.0,0.0,0.0,0.0,0.0,0.0,1.57,11.38,0.0,
6.863,56.829738010591896,83.28778676401186,-7.6,0.78,4.43,0.0,0.0,0.0,0.0,0.0,0.0,0.0,1.37,11.48,0.0,
6.887,56.55997380105919,83.27177867640118,-7.77,-0.07,2.51,0.0,0.0,0.0,0.0,0.0,0.0,0.0,1.47,11.28,0.0,
6.91,56.36199738010592,83.03617786764012,-5.45,7.99,-0.25,0.0,0.0,0.0,0.0,0.0,0.0,0.0,1.57,11.09,0.0,
6.934,56.65719973801059,83.13861778676402,-2.95,23.81,-3.44,0.0,0.0,0.0,0.0,0.0,0.0,0.0,1.57,10.79,0.0,
6.959,57.23571997380106,83.1758617786764,-5.08,32.34,1.19,0.0,0.0,0.0,0.0,0.0,0.0,0.0,1.57,10.4,0.0,
6.982,57.50957199738011,83.48558617786763,-7.22,19.78,-0.74,0.0,0.0,0.0,0.0,0.0,0.0,0.0,1.47,10.2,0.0,
7.006,57.51895719973801,82.88655861778676,-11.36,8.66,-1.97,0.0,0.0,0.0,0.0,0.0,0.0,0.0,1.77,9.81,0.0,
7.03,57.717895719973804,82.55665586177868,-2.09,35.17,-6.04,0.0,0.0,0.0,0.0,0.0,0.0,0.0,1.96,9.61,0.0,
7.054,58.61078957199738,83.01866558617786,-6.84,34.74,-6.61,0.0,0.0,0.0,0.0,0.0,0.0,0.0,1.86,9.71,0.0,
7.077,59.393078957199734,82.86686655861779,-16.67,-3.41,9.7,0.0,0.0,0.0,0.0,0.0,0.0,0.0,2.16,9.52,0.0,
7.101,59.516307895719976,82.96868665586177,-11.42,-15.27,-1.02,0.0,0.0,0.0,0.0,0.0,0.0,0.0,2.65,9.52,0.0,
7.126,59.654630789571996,82.70886866558618,-20.63,4.44,3.01,0.0,0.0,1.0,0.0,0.0,0.0,0.0,2.94,9.61,0.0,
7.149,58.6874630789572,77.0848868665586,21.85,24.56,17.69,0.0,0.0,2.0,0.0,0.0,0.0,0.0,3.53,10.01,0.0,
7.173,58.60874630789572,76.74748868665586,-13.83,-4.45,4.92,0.0,0.0,2.0,0.0,1.0,0.0,0.0,4.91,9.91,0.0,
7.197,58.52887463078957,76.29074886866559,-11.26,3.51,-5.49,0.0,0.0,3.0,0.0,1.0,0.0,0.0,5.98,9.12,0.0,
7.221,59.078887463078956,76.80307488686657,-9.1,8.56,-0.8,0.0,0.0,3.0,0.0,2.0,0.0,1.0,6.87,8.24,0.0,
7.245,60.429888746307896,77.23230748868666,17.91,-3.09,-61.92,0.0,0.0,3.0,0.0,2.0,0.0,1.0,7.36,7.26,0.0,
7.269,60.69098887463079,78.36423074886865,-5.92,-31.38,13.4,0.0,0.0,3.0,0.0,1.0,0.0,1.0,7.75,6.77,0.0,
7.293,60.393098887463076,78.93642307488687,-6.45,-34.69,15.94,0.0,0.0,3.0,0.0,1.0,0.0,0.0,7.55,6.57,0.0,
7.317,59.346309888746305,78.95764230748868,-20.78,-54.75,39.44,0.0,0.0,3.0,0.0,1.0,0.0,0.0,7.46,6.57,0.0,
7.342,59.16963098887463,79.35576423074887,3.95,-11.26,2.15,0.0,0.0,3.0,0.0,1.0,0.0,0.0,7.16,6.67,0.0,
7.365,58.58496309888747,79.82757642307489,3.15,-30.82,7.61,0.0,0.0,3.0,0.0,1.0,0.0,0.0,6.97,6.77,0.0,
7.389,58.202496309888744,80.40575764230749,3.57,-32.47,7.02,0.0,0.0,3.0,0.0,1.0,0.0,0.0,6.67,6.77,0.0,
7.412,57.62424963098888,80.96757576423076,1.6,-38.98,2.54,0.0,0.0,3.0,0.0,1.0,0.0,0.0,6.47,6.47,0.0,
7.437,56.97242496309889,81.62675757642307,2.96,-32.36,4.03,0.0,0.0,3.0,0.0,1.0,0.0,0.0,6.77,6.47,0.0,
7.46,56.26824249630989,81.67467575764232,7.53,-35.92,-5.81,0.0,0.0,3.0,0.0,2.0,0.0,0.0,7.16,6.28,0.0,
7.484,55.80182424963099,82.18346757576423,7.92,-28.18,-1.85,0.0,0.0,4.0,0.0,2.0,0.0,0.0,7.65,5.89,0.0,
7.508,55.0891824249631,82.47734675757643,6.27,-37.52,1.79,0.0,0.0,3.0,0.0,2.0,0.0,0.0,7.75,5.3,0.0,
7.532,54.234918242496306,82.65073467575765,11.2,-34.44,0.95,0.0,0.0,3.0,0.0,2.0,0.0,0.0,7.55,5.1,0.0,
7.556,53.59149182424964,83.05507346757575,11.22,-34.4,2.43,0.0,0.0,3.0,0.0,2.0,0.0,0.0,7.26,4.81,0.0,
7.58,52.987149182424965,83.16750734675759,9.49,-39.34,1.46,0.0,0.0,2.0,0.0,2.0,0.0,0.0,6.57,4.91,0.0,
7.604,52.3867149182425,83.05275073467575,9.44,-38.38,1.65,0.0,0.0,2.0,0.0,1.0,0.0,0.0,6.08,5.0,0.0,
7.627,51.69667149182425,83.25727507346757,13.34,-32.63,2.37,0.0,0.0,1.0,0.0,1.0,0.0,0.0,5.4,5.4,0.0,
7.651,51.07866714918242,83.92572750734676,7.47,-24.12,4.16,0.0,0.0,1.0,0.0,1.0,0.0,0.0,4.91,6.08,0.0,
7.674,50.20686671491825,84.21757275073467,7.68,-25.12,0.87,0.0,0.0,0.0,0.0,0.0,0.0,0.0,4.61,6.87,0.0,
7.698,49.489686671491825,84.39075727507345,3.82,-34.74,3.44,0.0,0.0,0.0,0.0,0.0,0.0,0.0,4.51,7.36,0.0,
7.721,48.84196866714918,84.92107572750734,-2.51,-28.44,2.6,0.0,0.0,0.0,0.0,1.0,0.0,0.0,4.41,7.65,0.0,
7.746,47.74219686671491,85.10910757275073,-7.47,-30.96,4.69,0.0,0.0,1.0,0.0,1.0,0.0,0.0,4.91,7.85,0.0,
7.77,46.95721968667149,85.03791075727507,-6.92,-16.73,3.92,0.0,0.0,1.0,0.0,1.0,0.0,0.0,5.4,7.75,0.0,
7.793,46.419721968667154,85.3457910757275,-1.02,-12.58,2.98,0.0,0.0,1.0,0.0,1.0,0.0,0.0,5.69,7.46,0.0,
7.817,46.24897219686672,85.47557910757276,-11.27,-9.85,5.96,0.0,0.0,1.0,0.0,1.0,0.0,0.0,5.79,6.97,0.0,
7.841,45.83589721968667,85.42555791075728,-13.34,-13.89,5.71,0.0,0.0,1.0,0.0,1.0,0.0,0.0,5.89,6.38,0.0,
7.865,45.40758972196866,85.35755579107573,-11.15,-3.98,4.27,0.0,0.0,1.0,0.0,1.0,0.0,0.0,6.08,5.69,0.0,
7.888,44.932758972196865,85.00875557910757,-6.69,6.52,-0.65,0.0,0.0,1.0,0.0,1.0,0.0,0.0,6.47,5.0,0.0,
7.912,44.903275897219686,85.03687555791076,-1.17,15.89,-8.27,0.0,0.0,2.0,0.0,1.0,0.0,0.0,7.06,4.71,0.0,
7.937,44.90032758972197,85.22868755579108,-0.74,14.31,-6.95,0.0,0.0,2.0,0.0,1.0,0.0,0.0,7.85,4.41,0.0,
7.96,45.0260327589722,85.39186875557911,-4.01,9.78,-1.53,0.0,0.0,2.0,1.0,2.0,0.0,0.0,8.34,4.02,0.0,
7.984,45.13760327589722,85.4441868755579,-6.11,10.88,-1.74,0.0,0.0,2.0,1.0,2.0,0.0,0.0,8.63,3.34,0.0,
8.007,45.40076032758972,85.44041868755579,-6.05,19.12,-4.95,0.0,0.0,2.0,1.0,2.0,0.0,0.0,9.12,2.94,0.0,
8.032,45.54407603275898,85.37704186875558,-8.0,20.86,-4.56,0.0,0.0,3.0,1.0,2.0,0.0,0.0,9.71,2.55,0.0,
8.055,45.8644076032759,85.31670418687557,-5.63,21.95,-5.65,0.0,0.0,3.0,1.0,2.0,0.0,0.0,10.3,2.84,0.0,
8.079,46.166440760327596,85.21167041868756,-7.56,15.0,-4.15,0.0,0.0,4.0,1.0,2.0,0.0,0.0,10.79,2.94,0.0,
8.103,46.376644076032754,85.08416704186875,-6.6,11.37,-3.26,0.0,0.0,4.0,1.0,2.0,0.0,0.0,11.09,3.14,0.0,
8.127,46.478664407603276,85.03541670418687,-5.45,7.3,-1.14,0.0,0.0,4.0,1.0,2.0,0.0,0.0,11.38,2.84,0.0,
8.151,46.479866440760325,84.8865416704187,-2.22,-2.53,-4.53,0.0,0.0,4.0,1.0,3.0,0.0,0.0,11.67,2.16,0.0,
8.175,46.65998664407603,84.80865416704187,-4.78,6.04,-3.55,0.0,0.0,4.0,1.0,3.0,0.0,0.0,11.87,1.77,0.0,
8.199,46.884998664407604,85.1788654167042,-9.87,-9.61,9.08,0.0,0.0,3.0,1.0,3.0,0.0,0.0,11.38,0.88,0.0,
8.222,46.75449986644076,85.25188654167043,-10.08,-29.77,15.69,0.0,0.0,2.0,0.0,3.0,0.0,0.0,10.4,0.0,0.0,
8.247,46.507449986644076,85.16918865416704,0.82,-28.34,11.77,0.0,0.0,2.0,0.0,3.0,0.0,0.0,9.61,0.0,0.0,
8.27,46.34774499866441,85.1519188654167,6.13,-18.5,4.58,0.0,0.0,1.0,0.0,2.0,0.0,0.0,8.63,0.0,0.0,
8.294,46.22377449986644,85.15019188654168,5.36,-14.44,3.92,0.0,0.0,1.0,0.0,2.0,0.0,0.0,7.55,0.0,0.0,
8.317,46.19337744998664,85.26701918865417,-1.79,-16.31,3.73,0.0,0.0,0.0,0.0,2.0,0.0,0.0,6.57,0.0,0.0,
8.341,46.09133774499867,85.31470191886541,-4.67,-11.43,1.21,0.0,0.0,0.0,0.0,2.0,0.0,0.0,5.79,0.0,0.0,
8.365,45.96413377449987,85.42747019188654,-6.64,-5.34,2.44,0.0,0.0,1.0,0.0,2.0,0.0,0.0,5.59,0.0,0.0,
8.388,45.708413377449986,85.24074701918866,-5.76,-9.81,0.99,0.0,0.0,1.0,0.0,2.0,0.0,0.0,5.69,0.0,0.0,
8.413,45.36784133774499,85.27607470191887,-4.27,-8.41,-2.31,0.0,0.0,2.0,0.0,2.0,0.0,0.0,6.28,0.0,0.0,
8.436,45.0637841337745,85.07260747019188,-0.98,-7.24,-2.11,0.0,0.0,2.0,0.0,2.0,0.0,0.0,7.06,0.0,0.0,
8.46,44.80837841337745,85.35826074701919,0.66,-9.22,-0.18,0.0,0.0,3.0,0.0,2.0,0.0,0.0,7.65,0.0,0.0,
8.483,44.404837841337745,85.53082607470192,-2.68,-15.21,1.47,0.0,0.0,3.0,0.0,2.0,0.0,0.0,8.04,0.0,0.0,
8.508,44.05848378413378,85.59308260747018,-2.8,-19.33,3.09,0.0,0.0,3.0,0.0,2.0,0.0,0.0,8.53,0.0,0.0,
8.531,43.86184837841338,85.80630826074702,-2.43,-10.67,3.95,0.0,0.0,3.0,0.0,2.0,0.0,0.0,8.44,0.0,0.0,
8.555,43.626184837841336,85.8366308260747,-4.44,-9.69,3.47,0.0,0.0,3.0,0.0,2.0,0.0,1.0,8.24,0.0,0.0,
8.579,43.48561848378413,85.74966308260747,-4.35,-7.31,2.6,0.0,0.0,3.0,0.0,1.0,0.0,1.0,8.14,0.0,0.0,
8.603,43.34556184837841,85.52496630826074,-6.95,-1.88,1.24,0.0,0.0,3.0,0.0,1.0,0.0,1.0,8.04,0.0,0.0,
8.627,43.169556184837845,85.32249663082607,-1.43,0.76,-2.09,0.0,0.0,3.0,0.0,2.0,0.0,1.0,8.44,0.0,0.0,
8.65,43.08895561848378,85.38324966308261,-0.94,2.84,-3.12,0.0,0.0,4.0,0.0,2.0,0.0,1.0,8.73,0.0,0.0,
8.674,43.06289556184838,85.45232496630825,-0.95,4.43,-3.06,0.0,0.0,4.0,0.0,2.0,0.0,1.0,9.03,0.0,0.0,
8.698,43.078289556184835,85.45023249663083,-2.84,0.57,-1.17,0.0,0.0,4.0,0.0,2.0,0.0,1.0,9.22,0.0,0.0,
8.722,43.13382895561848,85.39602324966307,-1.23,2.02,-1.73,0.0,0.0,4.0,0.0,2.0,0.0,1.0,9.42,0.0,0.0,
8.745,43.07638289556185,85.43560232496631,0.99,2.95,-3.32,0.0,0.0,4.0,0.0,2.0,0.0,1.0,9.32,0.0,0.0,
8.77,43.10663828955619,85.41256023249663,2.82,2.07,-4.24,0.0,0.0,4.0,0.0,2.0,0.0,1.0,9.32,0.0,0.0,
8.794,43.19066382895562,85.55425602324965,0.38,5.5,-3.37,0.0,0.0,4.0,0.0,2.0,0.0,1.0,9.32,0.0,0.0,
8.817,43.28006638289556,85.75742560232496,0.84,2.26,-2.44,0.0,0.0,4.0,0.0,2.0,0.0,1.0,9.32,0.0,0.0,
8.841,43.29800663828956,85.7957425602325,-0.16,3.31,-1.34,0.0,0.0,3.0,0.0,2.0,0.0,0.0,9.32,0.0,0.0,
8.865,43.37180066382896,85.78157425602325,1.39,2.37,-2.34,0.0,0.0,3.0,0.0,1.0,0.0,0.0,9.03,0.0,0.0,
8.889,43.424180066382895,85.87015742560233,1.89,2.68,-2.85,0.0,0.0,2.0,0.0,1.0,0.0,0.0,8.73,0.0,0.0,
8.912,43.51941800663829,85.96001574256023,2.55,2.07,-3.66,0.0,0.0,2.0,0.0,1.0,0.0,0.0,8.83,0.0,0.0,
8.936,43.63694180066383,86.07700157425603,0.5,3.41,-2.02,0.0,0.0,2.0,0.0,1.0,0.0,0.0,8.44,0.0,0.0,
8.96,43.71169418006638,85.9897001574256,2.95,2.48,-4.32,0.0,0.0,1.0,0.0,1.0,0.0,0.0,8.24,0.0,0.0,
8.983,43.83616941800664,86.25097001574255,3.34,7.32,-4.95,0.0,0.0,0.0,1.0,1.0,0.0,0.0,8.04,0.0,0.0,
9.007,43.99261694180066,86.25009700157426,0.75,4.86,-4.56,0.0,0.0,0.0,1.0,1.0,0.0,0.0,7.75,0.0,0.0,
9.03,44.071261694180066,86.34900970015742,1.76,3.43,-2.13,0.0,0.0,0.0,1.0,0.0,0.0,0.0,7.55,0.0,0.0,
9.054,44.20512616941801,86.49390097001574,2.34,5.44,-3.72,0.0,0.0,0.0,1.0,0.0,0.0,0.0,7.46,0.0,0.0,
9.077,44.4165126169418,86.67939009700157,3.88,7.56,-5.01,0.0,0.0,0.0,1.0,0.0,0.0,0.0,7.36,0.0,0.0,
9.101,44.73465126169418,86.92293900970017,1.23,6.34,-3.5,0.0,0.0,0.0,1.0,0.0,0.0,0.0,6.97,0.0,0.0,
9.124,45.000465126169416,87.19029390097002,0.32,2.63,-2.96,0.0,0.0,0.0,1.0,0.0,0.0,0.0,6.87,0.0,0.0,
9.148,45.06304651261694,87.27102939009701,-4.41,-1.76,-0.98,0.0,0.0,0.0,1.0,1.0,0.0,0.0,6.77,0.0,0.0,
9.172,45.14130465126169,87.24310293900969,-5.16,-3.72,-0.73,0.0,0.0,0.0,1.0,1.0,0.0,0.0,7.36,0.0,0.0,
9.196,45.077130465126174,86.96131029390098,-8.08,-5.5,3.24,0.0,0.0,0.0,1.0,1.0,0.0,0.0,7.95,0.0,0.0,
9.22,44.99871304651262,86.8071310293901,-4.77,-4.47,1.81,0.0,0.0,1.0,1.0,1.0,0.0,0.0,8.24,0.0,0.0,
9.243,44.89187130465126,86.56671310293902,-1.36,-2.89,-0.66,0.0,0.0,1.0,1.0,1.0,0.0,0.0,8.24,0.0,0.0,
9.267,44.971187130465125,86.6506713102939,-0.31,-4.97,-0.52,0.0,0.0,2.0,0.0,1.0,0.0,0.0,8.14,0.0,0.0,
9.291,44.96111871304651,86.74906713102939,-1.79,-4.61,0.43,0.0,0.0,2.0,0.0,1.0,0.0,0.0,8.14,0.0,0.0,
9.315,44.84311187130465,86.66890671310294,-5.13,-2.05,1.5,0.0,0.0,2.0,0.0,1.0,0.0,0.0,8.24,0.0,0.0,
9.338,44.77731118713047,86.65189067131031,-1.89,-0.95,-0.4,0.0,0.0,2.0,0.0,1.0,0.0,0.0,8.34,0.0,0.0,
9.363,44.806731118713046,86.56918906713103,-2.45,2.98,-1.43,0.0,0.0,2.0,0.0,1.0,0.0,0.0,8.14,0.0,0.0,
9.387,44.84567311187131,86.56091890671311,-3.32,0.88,-0.6,0.0,0.0,2.0,0.0,1.0,0.0,1.0,8.24,0.0,0.0,
9.41,44.88556731118713,86.53309189067132,-3.36,-0.01,0.6,0.0,0.0,2.0,0.0,1.0,0.0,0.0,8.14,0.0,0.0,
9.435,44.835556731118714,86.49430918906712,-2.82,0.69,-1.09,0.0,0.0,2.0,0.0,2.0,0.0,1.0,8.04,0.0,0.0,
9.458,44.93855567311188,86.43643091890672,-3.42,3.55,-2.07,0.0,0.0,2.0,0.0,2.0,0.0,1.0,8.14,0.0,0.0,
9.482,45.01185556731119,86.40364309189067,0.01,3.67,-2.55,0.0,0.0,2.0,0.0,2.0,0.0,1.0,8.34,0.0,0.0,
9.505,45.09118555673112,86.40036430918907,-3.63,1.11,-0.71,0.0,0.0,2.0,0.0,2.0,0.0,1.0,8.44,0.0,0.0,
9.53,45.18911855567312,86.44503643091892,-3.48,-0.2,-1.22,0.0,0.0,2.0,0.0,2.0,0.0,2.0,8.53,0.0,0.0,
9.553,45.19891185556732,86.3865036430919,-2.74,0.29,-1.3,0.0,0.0,2.0,0.0,2.0,0.0,2.0,8.83,0.0,0.0,
9.577,45.22689118555673,86.45265036430918,-3.27,0.69,-1.21,0.0,0.0,3.0,0.0,2.0,0.0,2.0,8.83,0.0,0.0,
9.602,45.32868911855567,86.55826503643091,-3.46,0.96,-1.41,0.0,0.0,3.0,0.0,2.0,0.0,2.0,8.93,0.0,0.0,
9.625,45.43786891185557,86.67682650364308,-3.66,1.41,-1.27,0.0,0.0,3.0,0.0,2.0,0.0,3.0,9.12,0.0,0.0,
9.649,45.51178689118556,86.62568265036433,-3.93,-0.5,-1.11,0.0,0.0,3.0,0.0,2.0,0.0,3.0,9.32,0.0,0.0,
9.673,45.57317868911855,86.61156826503642,-3.05,1.02,-1.76,0.0,0.0,3.0,0.0,2.0,0.0,3.0,9.42,0.0,0.0,
9.697,45.64231786891185,86.51115682650365,-4.62,1.15,-0.96,0.0,0.0,3.0,0.0,2.0,0.0,3.0,9.61,0.0,0.0,
9.72,45.71223178689119,86.50111568265038,-4.58,0.66,-0.86,0.0,0.0,3.0,0.0,2.0,0.0,3.0,9.71,0.0,0.0,
9.744,45.73722317868912,86.39211156826504,-5.87,0.69,-0.18,0.0,0.0,3.0,0.0,2.0,0.0,4.0,9.91,0.0,0.0,
9.768,45.78472231786891,86.32721115682651,-4.81,0.2,-0.44,0.0,0.0,3.0,0.0,2.0,0.0,4.0,9.91,0.0,0.0,
9.792,45.82547223178689,86.32072111568266,-5.1,-0.22,-0.26,0.0,0.0,3.0,0.0,2.0,0.0,4.0,10.1,0.0,0.0,
9.816,45.86554722317869,86.24807211156826,-5.62,-1.07,0.89,0.0,0.0,3.0,0.0,2.0,0.0,3.0,10.1,0.0,0.0,
9.84,45.96855472231786,86.25880721115682,-6.49,0.4,0.82,0.0,0.0,3.0,0.0,2.0,0.0,3.0,10.1,0.0,0.0,
9.864,45.95185547223179,86.21488072111568,-4.8,3.56,-0.85,0.0,0.0,3.0,1.0,2.0,0.0,2.0,10.1,0.0,0.0,
9.888,45.96818554722317,86.20148807211156,-5.34,0.5,-1.0,0.0,0.0,3.0,1.0,2.0,0.0,3.0,10.3,0.0,0.0,
9.912,45.942818554722315,86.09214880721115,-5.2,0.34,-0.82,0.0,0.0,3.0,1.0,2.0,0.0,3.0,10.3,0.0,0.0,
9.935,46.04828185547223,86.0542148807211,-5.3,-0.92,-0.21,0.0,0.0,3.0,1.0,2.0,0.0,3.0,10.69,0.0,0.0,
9.96,46.07682818554722,85.98742148807212,-5.54,-2.28,0.47,0.0,0.0,3.0,1.0,2.0,0.0,3.0,10.69,0.0,0.0,
9.984,46.106682818554724,85.95374214880721,-5.03,-2.8,0.31,0.0,0.0,3.0,1.0,2.0,0.0,3.0,10.69,0.0,0.0,
10.007,46.10066828185548,85.94137421488072,-5.15,-1.02,1.11,0.0,0.0,3.0,1.0,2.0,0.0,3.0,10.79,0.0,0.0,
10.032,46.16306682818555,85.85913742148807,-5.29,-2.24,1.5,0.0,0.0,3.0,1.0,2.0,0.0,2.0,10.79,0.0,0.0,
10.055,46.22330668281855,85.69791374214881,-5.5,0.02,-0.17,0.0,0.0,3.0,1.0,2.0,0.0,2.0,10.59,0.0,0.0,
10.08,46.16633066828185,85.59179137421489,-6.37,-1.05,-0.79,0.0,0.0,3.0,1.0,2.0,0.0,3.0,10.79,0.0,0.0,
10.103,46.14263306682819,85.52717913742148,-5.15,0.99,-0.25,0.0,0.0,3.0,1.0,2.0,0.0,3.0,10.99,0.0,0.0,
10.128,46.17626330668281,85.60171791374215,-3.89,1.25,-1.8,0.0,0.0,3.0,1.0,2.0,0.0,3.0,11.18,0.0,0.0,
10.151,46.21562633066828,85.60917179137422,-5.19,-0.82,0.17,0.0,0.0,3.0,1.0,2.0,0.0,3.0,11.28,0.0,0.0,
10.176,46.28256263306683,85.60091717913741,-6.75,-3.94,2.31,0.0,0.0,3.0,1.0,2.0,0.0,3.0,11.38,0.0,0.0,
10.2,46.26225626330668,85.60009171791373,-6.05,-2.93,1.71,0.0,0.0,3.0,1.0,2.0,0.0,3.0,11.38,0.0,0.0,
10.224,46.12522562633067,85.42000917179138,-4.08,-2.59,1.0,0.0,0.0,3.0,1.0,2.0,0.0,3.0,11.38,0.0,0.0,
10.248,46.13852256263307,85.36600091717914,-3.26,-1.33,-0.56,0.0,0.0,3.0,1.0,2.0,0.0,3.0,11.48,0.0,0.0,
10.272,46.08585225626331,85.27060009171792,-4.5,-2.66,0.5,0.0,0.0,3.0,1.0,2.0,0.0,4.0,11.48,0.0,0.0,
10.296,46.05358522562633,85.2880600091718,-5.86,-5.29,2.21,0.0,0.0,3.0,1.0,2.0,0.0,4.0,11.38,0.0,0.0,
10.32,45.942358522562635,85.29880600091718,-5.46,-5.35,2.8,0.0,0.0,3.0,1.0,2.0,0.0,4.0,11.48,0.0,0.0,
10.344,45.85923585225626,85.18288060009172,-4.89,-3.5,1.43,0.0,0.0,3.0,1.0,2.0,0.0,4.0,11.48,0.0,0.0,
10.369,45.80592358522563,85.17128806000918,-3.21,-0.02,-0.73,0.0,0.0,3.0,1.0,2.0,0.0,4.0,11.48,0.0,0.0,
10.392,45.845592358522566,85.31412880600091,-2.56,-0.07,-1.01,0.0,0.0,3.0,1.0,2.0,0.0,4.0,11.58,0.0,0.0,
10.417,45.80455923585225,85.32841288060008,-3.02,-1.05,-0.54,0.0,0.0,3.0,1.0,2.0,0.0,4.0,11.67,0.0,0.0,
10.44,45.791455923585225,85.29384128806002,-2.57,1.3,-1.4,0.0,0.0,3.0,1.0,2.0,0.0,4.0,11.77,0.0,0.0,
10.465,45.89814559235852,85.30838412880601,-2.7,2.35,-1.64,0.0,0.0,3.0,1.0,2.0,0.0,4.0,11.87,0.0,0.0,
10.488,45.88181455923585,85.2738384128806,-3.21,0.14,-0.76,0.0,0.0,3.0,1.0,2.0,0.0,4.0,11.97,0.0,0.0,
10.512,45.916181455923585,85.25238384128807,-2.07,2.27,-2.04,0.0,0.0,4.0,1.0,2.0,0.0,4.0,12.16,0.0,0.0,
10.536,46.027618145592356,85.26823838412881,-1.91,1.78,-2.16,0.0,0.0,3.0,1.0,2.0,0.0,4.0,12.26,0.0,0.0,
10.56,46.07476181455924,85.3598238384129,-2.45,-0.37,-0.85,0.0,0.0,4.0,1.0,2.0,0.0,4.0,12.16,0.0,0.0,
10.585,46.03447618145592,85.30598238384128,-2.07,0.0,-0.96,0.0,0.0,4.0,1.0,2.0,0.0,4.0,12.16,0.0,0.0,
10.608,46.08444761814559,85.35459823838413,-1.24,1.01,-1.44,0.0,0.0,4.0,1.0,2.0,0.0,4.0,12.16,0.0,0.0,
10.633,46.19744476181456,85.43145982383841,-1.11,-0.28,-0.88,0.0,0.0,4.0,1.0,2.0,0.0,4.0,12.07,0.0,0.0,
10.656,46.24474447618145,85.37614598238385,-1.79,-0.33,-0.65,0.0,0.0,4.0,1.0,2.0,0.0,4.0,11.87,0.0,0.0,
10.681,46.25847444761814,85.37961459823838,-1.21,0.08,-1.37,0.0,0.0,4.0,1.0,2.0,0.0,4.0,11.87,0.0,0.0,
10.704,46.29584744476182,85.35296145982383,-0.85,0.02,-2.46,0.0,0.0,3.0,1.0,2.0,0.0,4.0,11.77,0.0,0.0,
10.729,46.34458474447619,85.41329614598239,0.53,0.06,-2.16,0.0,0.0,4.0,1.0,2.0,0.0,4.0,11.67,0.0,0.0,
10.753,46.412458474447625,85.54532961459824,-1.31,-1.82,-0.73,0.0,0.0,4.0,1.0,2.0,0.0,4.0,11.67,0.0,0.0,
10.777,46.33824584744477,85.52253296145983,-0.65,-2.47,-0.55,0.0,0.0,4.0,1.0,2.0,0.0,4.0,11.58,0.0,0.0,
10.801,46.294824584744475,85.52925329614598,0.16,-1.33,-2.55,0.0,0.0,4.0,1.0,2.0,0.0,4.0,11.58,0.0,0.0,
10.825,46.25448245847445,85.5839253296146,1.08,-0.34,-2.37,0.0,0.0,4.0,1.0,2.0,0.0,4.0,11.67,0.0,0.0,
10.849,46.34944824584745,85.66139253296147,0.96,-1.25,-1.08,0.0,0.0,4.0,1.0,2.0,0.0,4.0,11.48,0.0,0.0,
10.873,46.322944824584745,85.73213925329614,0.09,-5.24,-0.67,0.0,0.0,4.0,1.0,2.0,0.0,4.0,11.38,0.0,0.0,
10.897,46.36529448245847,85.82921392532961,-1.17,-3.87,-0.61,0.0,0.0,4.0,1.0,2.0,0.0,4.0,11.38,0.0,0.0,
10.921,46.477529448245846,85.92892139253297,-2.24,-2.37,-0.92,0.0,0.0,4.0,1.0,2.0,0.0,4.0,11.28,0.0,0.0,
10.945,46.40775294482458,85.78589213925329,-5.86,-4.63,0.5,0.0,0.0,4.0,1.0,2.0,0.0,5.0,11.28,0.0,0.0,
10.97,46.23877529448246,85.77158921392532,-2.91,-1.24,-0.03,0.0,0.0,4.0,1.0,2.0,0.0,5.0,11.67,0.0,0.0,
10.993,46.068877529448244,85.68915892139253,-1.59,1.44,-0.34,0.0,0.0,4.0,1.0,2.0,0.0,5.0,11.97,0.0,0.0,
11.018,46.09688775294482,85.68991589213925,1.56,-1.39,-0.85,0.0,0.0,4.0,1.0,2.0,0.0,5.0,11.97,0.0,0.0,
11.041,46.28868877529448,85.68099158921393,0.4,-1.54,-2.15,0.0,0.0,4.0,1.0,2.0,0.0,5.0,11.67,0.0,0.0,
11.066,46.57786887752945,86.1750991589214,-5.2,1.21,-3.31,0.0,0.0,4.0,1.0,2.0,0.0,5.0,11.58,0.0,0.0,
11.089,46.68778688775294,86.01750991589215,-9.77,4.5,-4.24,0.0,0.0,4.0,1.0,2.0,0.0,5.0,12.07,0.0,0.0,
11.113,46.90577868877529,85.82175099158921,-13.0,9.49,0.41,0.0,0.0,4.0,2.0,2.0,0.0,5.0,12.95,0.0,0.0,
11.138,46.72057786887753,85.43317509915892,-10.46,-1.65,2.32,0.0,0.0,4.0,2.0,2.0,0.0,5.0,13.54,0.0,0.0,
11.161,46.51305778688776,85.1783175099159,-2.79,1.5,-1.31,0.0,0.0,4.0,2.0,2.0,0.0,5.0,13.64,0.0,0.0,
11.186,46.681305778688774,85.1258317509916,-0.98,4.92,-0.63,0.0,0.0,4.0,2.0,2.0,0.0,5.0,13.34,0.0,0.0,
11.209,46.887130577868874,85.24658317509916,-6.33,-6.68,5.99,0.0,0.0,4.0,2.0,2.0,0.0,5.0,13.05,0.0,0.0,
11.234,46.79071305778689,85.35765831750993,-5.98,-10.15,9.07,0.0,0.0,4.0,2.0,2.0,0.0,4.0,12.56,0.0,0.0,
11.257,46.55607130577869,85.395765831751,-3.0,-3.97,2.99,0.0,0.0,4.0,2.0,2.0,0.0,4.0,11.97,0.0,0.0,
11.282,46.568607130577874,85.56157658317511,-2.83,2.32,-3.33,0.0,0.0,4.0,2.0,2.0,0.0,4.0,11.58,0.0,0.0,
11.305,46.82186071305779,85.6771576583175,-4.66,4.63,-2.52,0.0,0.0,5.0,2.0,2.0,0.0,4.0,11.18,0.0,0.0,
11.33,47.04518607130578,85.67071576583176,-10.95,-3.78,2.58,0.0,0.0,5.0,2.0,2.0,0.0,4.0,10.99,0.0,0.0,
11.354,47.02251860713058,85.73307157658317,-12.55,-6.41,4.21,0.0,0.0,5.0,1.0,2.0,0.0,4.0,10.69,0.0,0.0,
11.378,46.84025186071305,85.18130715765832,-12.15,-3.98,2.15,0.0,0.0,5.0,1.0,2.0,0.0,4.0,10.59,0.0,0.0,
11.402,46.8220251860713,85.00013071576583,-16.05,3.17,1.48,0.0,0.0,5.0,1.0,2.0,0.0,4.0,10.4,0.0,0.0,
11.426,47.17120251860713,85.08101307157659,-25.43,14.69,5.09,0.0,0.0,5.0,0.0,2.0,0.0,3.0,9.91,0.0,0.0,
11.45,48.241120251860714,85.53010130715766,-38.47,52.31,8.48,0.0,0.0,4.0,0.0,1.0,0.0,2.0,8.93,0.0,0.0,
11.474,49.82411202518607,85.80901013071576,-57.15,89.27,9.4,0.0,0.0,3.0,0.0,1.0,0.0,2.0,7.16,0.0,0.0,
11.498,52.52041120251861,87.46590101307157,-17.48,56.29,-17.63,0.0,0.0,2.0,0.0,1.0,0.0,1.0,4.61,0.0,0.0,
11.522,56.46204112025186,88.75659010130715,-7.47,-13.12,-43.27,0.0,0.0,1.0,0.0,1.0,0.0,0.0,2.55,0.39,0.0,
11.546,58.17920411202519,92.26965901013072,-50.89,26.98,19.36,0.0,0.0,1.0,0.0,0.0,0.0,0.0,0.59,0.88,0.0,
11.57,57.51392041120251,95.74396590101307,-43.31,13.44,34.53,0.0,0.0,0.0,0.0,0.0,0.0,0.0,0.49,1.57,0.0,
11.594,54.77439204112025,99.88039659010131,-4.3,-56.72,22.56,0.0,0.0,0.0,0.0,0.0,0.0,0.0,0.2,1.86,0.0,
11.618,53.21343920411202,104.13703965901013,-10.11,51.31,31.96,0.0,0.0,1.0,0.0,1.0,0.0,0.0,0.29,1.96,0.0,
11.641,52.616343920411204,108.72970396590101,-5.37,76.78,21.97,0.0,0.0,1.0,0.0,1.0,0.0,0.0,0.2,8.73,0.0,
11.666,50.972634392041115,111.77197039659009,-11.73,28.02,25.91,0.0,0.0,2.0,0.0,1.0,0.0,0.0,0.1,8.14,0.0,
11.689,47.98226343920411,111.896197039659,-9.47,-15.24,-0.52,0.0,0.0,2.0,0.0,1.0,0.0,0.0,0.0,7.75,0.0,
11.714,42.43622634392041,109.19061970396591,-5.46,-143.6,7.15,0.0,0.0,2.0,0.0,1.0,0.0,0.0,0.0,9.71,0.0,
11.738,40.549622634392044,106.09406197039658,46.86,-30.76,21.77,0.0,0.0,2.0,0.0,1.0,0.0,0.0,0.0,10.59,0.0,
11.761,40.918962263439205,105.84740619703966,76.5,-1.6,19.39,0.0,0.0,3.0,0.0,1.0,0.0,0.0,0.0,10.89,0.0,
11.786,41.144896226343924,104.89574061970397,44.98,-81.3,23.35,0.0,0.0,3.0,0.0,1.0,0.0,0.0,0.0,10.01,0.0,
11.809,70.5524896226344,87.9075740619704,120.76,-107.96,41.79,0.0,0.0,3.0,0.0,1.0,0.0,0.0,0.0,8.83,0.0,
11.834,69.38024896226344,89.77275740619703,-23.27,11.99,55.16,0.0,0.0,3.0,0.0,1.0,0.0,0.0,0.0,9.61,0.0,
11.857,65.90602489622634,87.28627574061971,79.27,53.35,37.98,0.0,0.0,4.0,0.0,1.0,0.0,0.0,0.0,12.56,0.0,
11.881,63.092602489622635,85.84062757406198,55.36,-13.81,64.24,0.0,0.0,4.0,0.0,1.0,0.0,0.0,0.0,7.46,0.0,
11.906,60.80426024896226,84.96706275740621,20.43,-3.57,48.66,0.0,0.0,4.0,0.0,1.0,0.0,0.0,0.0,6.57,0.0,
11.929,58.82042602489623,83.66470627574061,-8.33,-11.76,34.43,0.0,0.0,4.0,0.0,1.0,0.0,0.0,0.0,9.61,0.0,
11.953,56.273042602489625,80.22247062757407,-42.19,-26.27,19.66,0.0,0.0,4.0,0.0,1.0,0.0,0.0,0.0,10.79,0.0,
11.977,53.20130426024896,75.45924706275741,-46.99,-64.15,12.88,0.0,0.0,4.0,0.0,1.0,0.0,0.0,0.0,9.42,0.0,
12.001,51.7331304260249,72.63392470627574,-14.82,-24.48,-15.0,0.0,0.0,4.0,0.0,1.0,0.0,0.0,0.0,8.44,0.0,
12.025,51.10931304260249,71.59539247062759,0.41,-0.11,-12.85,0.0,0.0,4.0,0.0,1.0,0.0,0.0,0.0,10.01,0.0,
12.049,50.09293130426025,70.42053924706276,7.98,-0.85,4.15,0.0,0.0,4.0,0.0,1.0,0.0,0.0,0.0,8.53,0.0,
12.072,49.73929313042603,68.04405392470628,25.98,9.33,-3.57,0.0,0.0,3.0,0.0,1.0,0.0,0.0,0.0,2.16,0.0,
12.096,48.93892931304261,66.52840539247063,-8.25,-8.66,-48.98,0.0,0.0,2.0,0.0,1.0,0.0,0.0,0.0,2.45,0.0,
12.12,47.12189293130426,61.31884053924706,-99.66,64.07,-104.79,0.0,0.0,2.0,0.0,1.0,0.0,0.0,0.0,2.16,0.0,
12.144,46.058189293130425,63.49788405392471,26.25,-47.56,-46.34,0.0,0.0,3.0,0.0,1.0,0.0,0.0,0.0,2.35,0.0,
12.169,45.05181892931304,67.67578840539247,-6.97,38.58,-27.69,0.0,0.0,3.0,0.0,2.0,0.0,0.0,3.24,21.29,0.0,
12.192,44.123181892931306,71.00957884053925,-10.49,49.5,-25.18,0.0,0.0,3.0,1.0,2.0,0.0,0.0,5.49,97.61,0.0,
12.217,44.96631818929313,73.72795788405394,-2.41,132.96,-34.69,0.0,0.0,4.0,1.0,2.0,0.0,0.0,6.77,96.24,0.0,
12.241,47.228631818929316,77.42879578840541,-9.59,79.83,-31.64,0.0,0.0,5.0,2.0,2.0,0.0,0.0,7.85,94.08,0.0,
12.265,47.64386318189293,78.85187957884055,-23.75,3.69,-2.27,0.0,0.0,5.0,3.0,3.0,0.0,2.0,9.61,95.45,0.0,
12.29,47.76638631818929,79.25518795788406,-24.71,25.1,8.33,0.0,0.0,6.0,4.0,4.0,0.0,3.0,12.36,94.37,0.0,
12.314,47.91363863181893,79.8805187957884,-9.59,40.89,-6.91,0.0,0.0,6.0,5.0,4.0,0.0,3.0,15.21,89.57,0.0,
12.339,49.01736386318189,81.11305187957883,-10.98,72.96,-12.17,0.0,0.0,7.0,6.0,5.0,0.0,4.0,17.27,88.78,0.0,
12.363,50.072736386318184,81.56030518795788,-9.82,39.37,-10.76,0.0,0.0,8.0,6.0,5.0,0.0,5.0,20.5,86.72,0.0,
12.388,51.34827363863182,82.15403051879579,-7.18,55.02,-10.47,0.0,0.0,8.0,7.0,5.0,0.0,5.0,23.15,85.05,0.0,
12.411,52.645827363863184,82.50140305187958,-6.02,53.77,-8.37,0.0,0.0,8.0,7.0,6.0,0.0,5.0,25.7,83.58,0.0,
12.436,53.71158273638632,82.87814030518796,-6.04,42.47,-5.29,0.0,0.0,9.0,8.0,6.0,0.0,5.0,26.98,83.97,0.0,
12.461,55.12315827363863,83.1138140305188,-2.32,45.38,-5.44,0.0,0.0,9.0,8.0,6.0,0.0,5.0,27.37,83.78,0.0,
12.485,56.362315827363865,83.41638140305189,-3.5,34.7,-2.54,0.0,0.0,9.0,8.0,5.0,0.0,4.0,26.68,82.89,0.0,
12.51,57.557231582736385,83.9416381403052,-6.6,23.45,-3.97,0.0,0.0,9.0,8.0,5.0,0.0,4.0,25.11,82.6,0.0,
12.533,58.49572315827364,83.75116381403052,-5.53,16.34,-6.83,1.0,0.0,8.0,8.0,4.0,0.0,4.0,25.6,83.48,0.0,
12.558,58.75157231582736,83.46211638140305,-10.73,-1.63,8.23,1.0,0.0,8.0,8.0,3.0,0.0,5.0,27.86,83.68,0.0,
12.582,59.08315723158273,83.6672116381403,-4.97,10.49,-5.24,1.0,0.0,7.0,9.0,3.0,0.0,5.0,31.0,84.07,0.0,
12.607,60.36731572315827,81.91472116381404,-2.91,-24.89,6.88,1.0,0.0,7.0,9.0,2.0,0.0,5.0,34.04,85.94,0.0,
12.632,60.38773157231582,82.0184721163814,-1.85,7.07,-6.51,1.0,0.0,7.0,10.0,1.0,0.0,5.0,37.87,87.11,0.0,
12.656,60.704773157231585,82.25384721163815,-4.85,12.83,-6.59,1.0,0.0,6.0,10.0,1.0,0.0,6.0,40.52,88.49,0.0,
12.681,60.71847731572316,82.27738472116383,-6.53,3.68,-2.81,1.0,0.0,7.0,11.0,1.0,0.0,6.0,43.75,88.58,0.0,
12.705,60.692847731572314,82.53173847211639,-6.44,2.89,-2.56,2.0,0.0,7.0,11.0,2.0,0.0,6.0,47.09,88.29,0.0,
12.73,60.87928477315723,83.07017384721163,-10.92,15.06,-1.86,2.0,0.0,7.0,12.0,2.0,0.0,7.0,50.23,88.98,0.0,
12.754,61.140928477315725,82.98901738472117,-10.0,0.1,-3.0,2.0,0.0,8.0,1.0,2.0,0.0,8.0,53.86,89.17,0.0,
12.778,61.27509284773157,83.0889017384721,-11.89,0.28,-3.09,2.0,0.0,8.0,2.0,2.0,1.0,9.0,59.84,87.51,0.0,
12.803,61.41450928477315,82.9998901738472,-10.29,3.6,0.34,2.0,0.0,9.0,4.0,3.0,1.0,10.0,63.18,86.82,0.0,
12.827,61.320450928477314,82.65798901738472,-15.53,5.95,-3.56,2.0,0.0,9.0,6.0,3.0,1.0,10.0,66.51,85.94,0.0,
12.852,61.518045092847736,82.95679890173847,-15.74,-12.31,0.98,2.0,0.0,10.0,6.0,4.0,2.0,11.0,69.26,86.23,0.0,
12.876,61.44780450928477,83.20267989017385,-16.28,-1.63,0.64,2.0,0.0,10.0,8.0,5.0,2.0,12.0,71.22,86.52,0.0,
12.901,61.57578045092848,82.93926798901738,-15.83,0.64,-1.78,2.0,0.0,11.0,10.0,5.0,3.0,2.0,75.14,88.0,0.0,
12.925,61.75957804509285,82.73292679890173,-16.86,-6.76,-4.7,2.0,0.0,11.0,11.0,5.0,3.0,4.0,77.79,89.07,0.0,
12.951,61.84095780450928,82.49629267989017,-18.11,-9.91,-5.3,2.0,0.0,12.0,11.0,6.0,3.0,5.0,80.64,89.96,0.0,
12.976,61.57909578045092,82.57162926798902,-26.65,-20.87,-2.24,1.0,0.0,12.0,10.0,6.0,3.0,7.0,82.6,88.68,0.0,
13.0,61.345909578045095,82.4981629267989,-27.79,-39.12,-12.72,1.0,0.0,0.0,4.0,6.0,3.0,7.0,84.37,87.21,0.0,
13.025,61.664590957804506,82.93181629267988,-67.15,-37.71,-25.24,1.0,0.0,0.0,12.0,6.0,3.0,7.0,86.03,87.6,0.0,
13.049,61.63345909578045,84.091181629268,-84.86,-61.62,-45.2,1.0,0.0,0.0,7.0,6.0,2.0,7.0,85.94,71.71,0.0,
13.074,59.95634590957805,84.4771181629268,-120.26,-64.37,-44.27,1.0,0.0,1.0,0.0,6.0,2.0,2.0,86.92,65.14,0.0,
13.099,59.230634590957806,82.54471181629268,-133.7,-61.12,-64.6,1.0,0.0,1.0,0.0,7.0,3.0,6.0,86.92,0.0,0.0,
13.123,58.564063459095784,81.33447118162927,-147.15,-15.37,-85.83,1.0,0.0,0.0,0.0,7.0,3.0,12.0,85.35,0.0,0.0,
13.148,57.67840634590958,81.92444711816292,-172.16,-124.69,-97.23,1.0,0.0,11.0,0.0,7.0,4.0,12.0,78.38,7.36,0.0,
13.172,54.340840634590954,78.0684447118163,-190.32,-224.02,-58.82,1.0,0.0,10.0,0.0,6.0,5.0,11.0,43.36,3.24,0.0,
13.197,49.084084063459095,70.68084447118163,-205.74,-151.46,-48.82,1.0,0.0,8.0,0.0,4.0,4.0,6.0,19.52,6.97,0.0,
13.221,46.16440840634591,65.87408444711816,-143.92,47.23,-85.32,1.0,0.0,5.0,0.0,2.0,1.0,4.0,14.91,1.18,0.0,
13.246,47.303440840634586,59.98440844471181,-92.12,76.47,-67.06,1.0,0.0,4.0,0.0,1.0,1.0,0.0,9.32,5.98,0.0,
13.27,44.59134408406345,57.77544084447118,58.11,134.14,-19.31,1.0,0.0,3.0,0.0,0.0,1.0,0.0,5.59,6.08,0.0,
13.294,47.98313440840634,72.82754408444711,157.88,63.44,-22.71,1.0,0.0,3.0,0.0,0.0,1.0,0.0,2.65,4.41,0.0,
13.318,49.22231344084064,82.45075440844471,117.11,-1.49,27.97,1.0,0.0,3.0,0.0,1.0,1.0,0.0,1.77,1.86,0.0,
13.341,50.43523134408406,88.48007544084449,82.15,35.31,41.74,1.0,0.0,4.0,0.0,1.0,1.0,0.0,1.67,77.01,0.0,
13.366,52.2845231344084,89.97400754408446,86.89,39.58,69.66,1.0,0.0,4.0,0.0,1.0,1.0,0.0,1.08,142.54,0.0,
13.389,53.43245231344084,89.23240075440846,117.76,18.21,88.57,1.0,0.0,5.0,0.0,1.0,1.0,0.0,0.88,141.95,0.0,
13.414,54.258245231344084,86.81824007544084,110.98,11.53,111.7,1.0,0.0,5.0,0.0,1.0,1.0,0.0,0.59,48.56,0.0,
13.437,54.87182452313441,84.66882400754409,117.4,19.85,105.21,1.0,0.0,5.0,0.0,1.0,1.0,0.0,0.29,12.26,0.0,
13.462,54.85218245231344,82.04188240075442,105.23,-9.33,99.25,1.0,0.0,5.0,0.0,1.0,1.0,0.0,0.0,52.39,0.0,
13.486,55.26421824523135,78.87218824007543,80.63,-22.34,97.54,1.0,0.0,5.0,0.0,1.0,1.0,0.0,0.0,37.87,0.0,
13.509,54.37842182452314,75.54921882400755,97.65,-2.37,84.82,1.0,0.0,5.0,0.0,2.0,1.0,0.0,0.0,9.52,0.0,
13.534,54.370842182452314,72.69692188240074,121.85,25.89,44.16,1.0,0.0,5.0,0.0,2.0,1.0,0.0,0.0,9.52,0.0,
13.557,55.603084218245236,71.35869218824007,106.01,43.27,22.72,1.0,0.0,5.0,0.0,2.0,1.0,0.0,0.0,5.2,0.0,
13.581,56.635308421824526,69.89286921882402,83.49,28.28,11.66,1.0,0.0,5.0,0.0,2.0,1.0,0.0,0.0,5.4,0.0,
13.604,57.04453084218246,67.8202869218824,38.32,7.11,14.98,1.0,0.0,5.0,0.0,2.0,1.0,0.0,0.0,5.3,0.0,
13.629,56.176453084218245,64.58902869218824,5.82,-30.18,2.34,1.0,0.0,5.0,0.0,2.0,1.0,0.0,0.0,5.49,0.0,
13.652,55.207645308421824,61.34090286921882,1.28,-6.95,-39.16,1.0,0.0,5.0,0.0,2.0,1.0,0.0,0.0,7.16,0.0,
13.676,54.75076453084218,60.45809028692188,-28.01,-12.61,-31.13,1.0,0.0,5.0,0.0,2.0,1.0,0.0,0.0,10.2,0.0,
13.7,52.041076453084216,58.20980902869219,-48.03,-22.76,-26.45,1.0,0.0,5.0,0.0,1.0,1.0,0.0,0.1,9.03,0.0,
13.724,48.485107645308425,61.05398090286921,67.76,-56.28,-42.44,1.0,0.0,4.0,0.0,1.0,1.0,0.0,1.18,10.5,0.0,
13.749,48.62451076453085,66.03639809028692,14.45,-14.09,-26.07,1.0,0.0,4.0,1.0,1.0,1.0,0.0,1.77,11.38,0.0,
13.772,49.23245107645308,67.98363980902869,22.4,46.47,-16.01,1.0,0.0,5.0,1.0,1.0,1.0,0.0,2.75,10.99,0.0,
13.797,50.50824510764531,71.28336398090288,13.28,30.4,-14.81,1.0,0.0,6.0,1.0,2.0,1.0,0.0,4.12,10.01,0.0,
13.82,51.53582451076453,73.60233639809029,-0.33,-7.11,-7.95,1.0,0.0,6.0,2.0,2.0,1.0,0.0,5.0,9.22,0.0,
13.845,52.73658245107645,75.54423363980904,-5.48,0.65,2.21,1.0,0.0,5.0,2.0,2.0,1.0,0.0,5.79,8.83,0.0,
13.869,52.78465824510765,76.6564233639809,-14.71,-34.04,20.74,1.0,0.0,6.0,2.0,2.0,1.0,0.0,6.38,8.73,0.0,
13.893,52.15046582451076,77.33464233639809,-0.52,-20.47,7.93,1.0,0.0,6.0,2.0,1.0,1.0,0.0,6.87,9.03,0.0,
13.917,51.763046582451075,78.06846423363982,8.79,-4.63,2.6,1.0,0.0,5.0,2.0,1.0,1.0,0.0,7.26,8.44,0.0,
13.941,51.74230465824511,79.29384642336399,10.69,3.99,1.54,1.0,0.0,5.0,2.0,1.0,1.0,1.0,7.55,8.04,0.0,
13.965,52.1182304658245,80.4963846423364,10.56,-3.99,-3.76,1.0,0.0,5.0,2.0,2.0,1.0,1.0,7.55,7.55,0.0,
13.988,52.18282304658244,81.40863846423365,6.25,-12.29,1.34,1.0,0.0,5.0,2.0,1.0,1.0,1.0,7.16,6.47,0.0,
14.013,52.063282304658244,82.03986384642336,1.99,-12.03,3.38,1.0,0.0,5.0,1.0,2.0,1.0,1.0,7.06,5.89,0.0,
14.036,51.87132823046582,82.60698638464234,-0.39,-14.5,6.74,1.0,0.0,5.0,1.0,1.0,1.0,1.0,6.77,5.59,0.0,
14.061,51.58213282304658,83.06869863846424,3.44,-15.85,3.69,1.0,0.0,5.0,1.0,1.0,1.0,1.0,6.47,5.49,0.0,
14.085,51.391213282304655,83.87086986384642,2.76,-10.38,3.04,1.0,0.0,5.0,1.0,1.0,1.0,1.0,6.28,5.2,0.0,
14.108,51.30012132823047,84.50908698638465,-0.84,-2.19,4.02,1.0,0.0,5.0,1.0,1.0,1.0,1.0,5.98,4.91,0.0,
14.133,51.201012132823045,84.83390869863847,-2.69,1.61,4.52,1.0,0.0,5.0,0.0,1.0,1.0,1.0,5.49,4.61,0.0,
14.156,51.0201012132823,85.14539086986385,-8.27,10.62,5.02,1.0,0.0,5.0,0.0,1.0,1.0,1.0,5.3,4.22,0.0,
14.18,51.164010121328225,85.63553908698638,-0.18,5.02,1.08,1.0,0.0,4.0,0.0,1.0,1.0,1.0,5.1,4.12,0.0,
14.204,51.27740101213282,85.91855390869864,2.3,6.76,-5.92,1.0,0.0,4.0,0.0,1.0,1.0,1.0,4.91,3.83,0.0,
14.228,51.450740101213285,86.20785539086987,-3.8,8.24,-1.93,1.0,0.0,4.0,0.0,1.0,1.0,1.0,4.81,3.83,0.0,
14.252,51.441074010121326,86.09278553908698,-2.82,7.17,-1.95,1.0,0.0,4.0,0.0,1.0,1.0,1.0,4.91,3.83,0.0,
14.276,51.55710740101213,86.0182785539087,-1.47,11.66,-6.51,1.0,0.0,4.0,0.0,1.0,1.0,1.0,4.81,3.92,0.0,
14.3,51.667710740101214,85.84882785539087,1.03,11.24,-5.27,1.0,0.0,4.0,0.0,1.0,1.0,1.0,4.91,3.92,0.0,
14.324,51.921771074010124,86.56088278553908,-2.78,8.81,3.05,1.0,0.0,4.0,0.0,1.0,1.0,1.0,5.0,3.63,0.0,
14.348,52.12717710740101,86.5780882785539,-1.05,4.92,-5.98,1.0,0.0,4.0,0.0,1.0,1.0,1.0,4.91,3.34,0.0,
14.371,52.3727177107401,86.33680882785539,1.08,7.31,-8.11,1.0,0.0,4.0,0.0,1.0,1.0,1.0,4.91,3.04,0.0,
14.396,52.856271771074006,86.98768088278554,1.18,5.66,-8.82,1.0,0.0,4.0,0.0,1.0,1.0,1.0,4.91,2.94,0.0,
14.419,52.7876271771074,86.95376808827857,-4.04,12.69,-4.04,1.0,0.0,5.0,1.0,1.0,1.0,1.0,4.91,2.84,0.0,
14.443,52.76276271771074,87.07637680882786,-1.93,12.12,-4.97,1.0,0.0,5.0,1.0,1.0,1.0,1.0,5.3,2.45,0.0,
14.468,53.59727627177107,87.17863768088279,-1.83,14.24,-17.92,1.0,0.0,5.0,1.0,1.0,1.0,1.0,5.69,2.06,0.0,
14.492,53.78872762717711,86.56786376808829,-0.19,13.34,-7.22,1.0,0.0,6.0,2.0,2.0,1.0,2.0,6.67,1.77,0.0,
14.516,53.86187276271771,85.75078637680882,-7.24,4.54,-3.18,1.0,0.0,6.0,3.0,2.0,1.0,2.0,7.75,1.37,0.0,
14.539,53.60818727627177,85.13807863768088,2.32,2.66,-7.95,1.0,0.0,7.0,3.0,2.0,1.0,2.0,8.93,0.59,0.0,
14.564,54.18581872762718,87.24580786376808,-4.45,15.02,-6.37,1.0,0.0,7.0,3.0,3.0,1.0,2.0,10.5,0.0,0.0,
14.587,54.80158187276271,86.6375807863768,-6.15,9.09,-9.09,1.0,0.0,8.0,4.0,3.0,1.0,3.0,11.58,0.0,0.0,
14.612,55.25015818727626,86.79275807863769,-7.04,1.42,0.31,1.0,0.0,8.0,4.0,3.0,1.0,3.0,12.26,0.0,0.0,
14.636,55.34901581872762,86.61927580786377,-4.28,-1.56,1.12,1.0,0.0,8.0,4.0,3.0,1.0,3.0,12.75,0.0,0.0,
14.66,55.25990158187276,86.66492758078638,0.79,-7.54,0.6,1.0,0.0,9.0,4.0,4.0,1.0,3.0,12.75,0.0,0.0,
14.684,55.58399015818728,87.02049275807863,-1.58,-2.07,1.11,1.0,0.0,9.0,4.0,4.0,1.0,3.0,12.75,0.0,0.0,
14.707,55.82339901581873,86.84004927580786,-4.11,-11.79,2.17,1.0,0.0,9.0,4.0,4.0,1.0,3.0,12.75,0.0,0.0,
14.732,55.64033990158187,86.83100492758079,-9.13,-22.51,7.51,1.0,0.0,9.0,3.0,4.0,1.0,3.0,12.56,0.0,0.0,
14.755,55.35203399015819,86.67710049275807,-6.77,-14.44,4.3,1.0,0.0,9.0,3.0,4.0,1.0,3.0,12.16,0.0,0.0,
14.78,55.08020339901582,86.89571004927582,-3.82,-8.66,3.05,1.0,0.0,9.0,3.0,4.0,1.0,3.0,11.97,0.0,0.0,
14.804,54.90002033990159,86.8995710049276,-1.76,-12.7,3.35,1.0,0.0,9.0,2.0,4.0,1.0,3.0,11.48,0.0,0.0,
14.828,54.93600203399016,87.00795710049276,-4.68,-7.21,1.82,1.0,0.0,9.0,2.0,4.0,1.0,3.0,11.18,0.0,0.0,
14.853,54.80460020339901,86.80279571004928,-10.95,-17.05,7.7,1.0,0.0,9.0,2.0,4.0,1.0,3.0,10.99,0.0,0.0,
14.876,54.2784600203399,86.44027957100494,-7.75,-16.17,7.03,1.0,0.0,9.0,2.0,4.0,1.0,3.0,11.09,0.0,0.0,
14.901,54.05484600203399,86.3950279571005,-5.53,-6.89,3.73,1.0,0.0,9.0,2.0,4.0,1.0,3.0,11.28,0.0,0.0,
14.924,53.9154846002034,86.45350279571004,-4.85,-8.08,2.92,1.0,0.0,9.0,2.0,4.0,1.0,3.0,11.18,0.0,0.0,
14.949,53.73054846002034,86.45035027957101,-9.6,-10.73,6.74,1.0,0.0,9.0,2.0,4.0,1.0,3.0,11.18,0.0,0.0,
14.972,53.49605484600203,86.50403502795712,-10.27,-11.22,9.33,1.0,0.0,10.0,2.0,4.0,1.0,3.0,11.09,0.0,0.0,
14.997,53.2566054846002,86.64440350279571,-12.7,-7.07,8.52,1.0,0.0,10.0,1.0,3.0,1.0,3.0,10.99,0.0,0.0,
15.022,52.80066054846002,86.50544035027957,-10.31,-1.37,6.01,1.0,0.0,9.0,1.0,3.0,1.0,3.0,11.09,0.0,0.0,
15.045,52.62906605484601,86.41954403502797,-5.31,-6.14,2.86,1.0,0.0,9.0,1.0,3.0,1.0,3.0,10.79,0.0,0.0,
15.07,52.611906605484606,86.45595440350279,-4.93,-2.32,2.31,1.0,0.0,9.0,1.0,3.0,1.0,3.0,10.1,0.0,0.0,
15.093,52.59219066054846,86.55859544035027,-6.84,-3.02,4.49,1.0,0.0,9.0,1.0,3.0,1.0,3.0,9.61,0.0,0.0,
15.117,52.41921906605484,86.38885954403503,-7.59,-4.86,4.38,1.0,0.0,9.0,0.0,3.0,1.0,3.0,8.93,0.0,0.0,
15.141,52.22192190660549,86.1288859544035,-8.06,-4.2,3.42,1.0,0.0,9.0,0.0,2.0,1.0,3.0,8.34,0.0,0.0,
15.165,52.00419219066055,85.87788859544035,-0.05,-7.4,0.11,1.0,0.0,8.0,0.0,2.0,1.0,3.0,8.04,0.0,0.0,
15.188,51.91941921906606,86.05078885954403,0.95,-6.26,-1.44,1.0,0.0,8.0,0.0,2.0,1.0,2.0,7.75,0.0,0.0,
15.213,51.865941921906604,86.3380788859544,-3.88,-6.25,1.88,1.0,0.0,8.0,0.0,2.0,1.0,2.0,7.36,0.0,0.0,
15.237,51.79759419219066,86.33980788859544,-7.9,-5.07,5.05,1.0,0.0,8.0,0.0,2.0,1.0,2.0,7.16,0.0,0.0,
15.261,51.66475941921907,86.40298078885955,-7.37,-5.53,3.62,1.0,0.0,8.0,0.0,2.0,1.0,2.0,6.67,0.0,0.0,
15.285,51.49847594192191,86.50829807888594,-6.41,-3.85,3.11,1.0,0.0,8.0,0.0,2.0,1.0,2.0,6.47,0.0,0.0,
15.308,51.28384759419219,86.3838298078886,-3.25,-7.32,0.89,1.0,0.0,7.0,0.0,2.0,1.0,2.0,6.28,0.0,0.0,
15.333,51.22638475941922,86.48838298078887,-2.83,-6.07,0.37,1.0,0.0,7.0,0.0,2.0,1.0,2.0,6.18,0.0,0.0,
15.356,51.28363847594192,86.51683829807888,-7.15,-7.53,3.77,1.0,0.0,7.0,0.0,2.0,1.0,2.0,6.08,0.0,0.0,
15.381,51.1453638475942,86.5826838298079,-10.12,-11.65,8.2,1.0,0.0,7.0,0.0,2.0,1.0,2.0,5.98,0.0,0.0,
15.405,50.82553638475942,86.3732683829808,-10.22,-10.21,7.56,1.0,0.0,7.0,0.0,2.0,1.0,2.0,6.08,0.0,0.0,
15.429,50.51455363847594,86.25332683829808,-6.25,-10.31,4.72,1.0,0.0,7.0,0.0,2.0,1.0,2.0,5.98,0.0,0.0,
15.453,50.2044553638476,86.1153326838298,-3.03,-6.8,1.32,1.0,0.0,7.0,0.0,2.0,1.0,2.0,5.98,0.0,0.0,
15.476,50.15544553638476,86.12853326838298,-1.98,-5.44,-0.32,1.0,0.0,7.0,0.0,2.0,1.0,2.0,5.89,0.0,0.0,
15.501,50.03354455363848,86.20185332683829,-4.63,-5.41,0.84,1.0,0.0,7.0,0.0,2.0,1.0,2.0,5.79,0.0,0.0,
15.524,49.940354455363845,86.23618533268383,-5.9,-6.66,1.82,1.0,0.0,7.0,0.0,2.0,1.0,2.0,5.79,0.0,0.0,
15.549,49.76903544553638,86.24861853326838,-6.03,-5.23,2.24,1.0,0.0,7.0,0.0,2.0,1.0,2.0,5.79,0.0,0.0,
15.572,49.62590354455364,86.15086185332683,-3.18,-4.03,-0.05,1.0,0.0,7.0,0.0,2.0,1.0,2.0,5.79,0.0,0.0,
15.596,49.49459035445536,86.1230861853327,-3.44,-1.24,0.0,1.0,0.0,7.0,0.0,2.0,1.0,2.0,5.79,0.0,0.0,
15.621,49.391459035445536,86.11130861853326,-3.64,-5.42,0.82,1.0,0.0,6.0,0.0,2.0,1.0,2.0,5.69,0.0,0.0,
15.644,49.246145903544544,86.16413086185332,-4.98,-3.73,1.71,1.0,0.0,6.0,0.0,1.0,1.0,2.0,5.59,0.0,0.0,
15.668,49.30361459035446,86.15141308618534,-4.33,-0.85,0.27,1.0,0.0,6.0,0.0,1.0,1.0,2.0,5.49,0.0,0.0,
15.692,49.327361459035444,86.15014130861854,-4.74,1.05,-0.69,1.0,0.0,6.0,0.0,1.0,1.0,2.0,5.3,0.0,0.0,
15.716,49.30273614590354,86.14101413086185,-4.65,-2.44,0.54,1.0,0.0,6.0,0.0,1.0,1.0,2.0,5.3,0.0,0.0,
15.739,49.201273614590356,86.1491014130862,-4.41,-4.34,0.4,1.0,0.0,6.0,0.0,1.0,1.0,2.0,5.3,0.0,0.0,
15.763,49.110127361459035,86.06891014130862,-2.28,-2.34,-1.29,1.0,0.0,6.0,0.0,1.0,1.0,2.0,5.4,0.0,0.0,
15.788,49.128012736145905,86.11489101413088,-3.62,-3.53,-0.89,1.0,0.0,6.0,0.0,1.0,1.0,2.0,5.4,0.0,0.0,
15.811,49.03080127361459,86.03848910141309,-2.08,-5.86,-0.02,1.0,0.0,6.0,0.0,2.0,1.0,2.0,5.49,0.0,0.0,
15.836,48.976080127361456,86.03984891014132,-1.45,-4.4,-1.21,1.0,0.0,6.0,0.0,2.0,1.0,2.0,5.79,0.0,0.0,
15.859,48.95260801273615,86.15698489101413,-1.34,-4.42,-0.98,1.0,0.0,7.0,0.0,2.0,1.0,2.0,5.79,0.0,0.0,
15.884,48.84226080127362,86.24069848910142,-4.02,-5.5,1.37,1.0,0.0,7.0,0.0,2.0,1.0,2.0,5.89,0.0,0.0,
15.907,48.78622608012736,86.30306984891014,-4.85,-5.96,1.58,1.0,0.0,7.0,0.0,2.0,1.0,2.0,5.89,0.0,0.0,
15.932,48.780622608012735,86.48030698489102,-7.4,-2.75,3.01,1.0,0.0,7.0,0.0,2.0,1.0,2.0,5.98,0.0,0.0,
15.955,48.69906226080127,86.3720306984891,-6.89,-4.23,2.19,1.0,0.0,7.0,0.0,2.0,1.0,2.0,6.18,0.0,0.0,
15.979,48.53790622608013,86.1902030698489,-6.8,-3.07,1.73,1.0,0.0,7.0,0.0,2.0,1.0,2.0,6.38,0.0,0.0,
16.004,48.53979062260801,86.14502030698489,-5.88,-0.69,-0.46,1.0,0.0,7.0,0.0,2.0,1.0,2.0,6.28,0.0,0.0,
16.027,48.485979062260796,86.08650203069848,-7.19,-3.15,1.6,1.0,0.0,7.0,0.0,2.0,1.0,2.0,6.47,0.0,0.0,
16.051,48.39059790622608,86.10765020306984,-4.19,-3.34,0.39,1.0,0.0,7.0,0.0,2.0,1.0,2.0,6.57,0.0,0.0,
16.075,48.462059790622604,86.10976502030698,-5.05,0.2,-0.16,1.0,0.0,7.0,0.0,2.0,1.0,2.0,6.67,0.0,0.0,
16.099,48.406205979062264,86.05597650203069,-6.25,-2.6,2.23,1.0,0.0,7.0,0.0,2.0,1.0,2.0,6.77,0.0,0.0,
16.123,48.27462059790622,85.94259765020307,-7.05,-3.77,2.71,1.0,0.0,7.0,0.0,2.0,1.0,2.0,6.87,0.0,0.0,
16.147,48.234462059790616,85.85025976502031,-4.65,-0.36,-0.31,1.0,0.0,7.0,0.0,2.0,1.0,2.0,6.97,0.0,0.0,
16.171,48.32044620597906,85.84102597650202,-4.63,0.47,-0.2,1.0,0.0,7.0,0.0,2.0,1.0,2.0,7.06,0.0,0.0,
16.195,48.27504462059791,85.8671025976502,-5.5,-3.16,1.72,1.0,0.0,7.0,0.0,2.0,1.0,2.0,7.16,0.0,0.0,
16.219,48.189504462059794,85.72571025976501,-5.26,-2.18,0.97,1.0,0.0,7.0,0.0,2.0,1.0,2.0,7.16,0.0,0.0,
16.242,48.18095044620598,85.70257102597651,-4.52,-0.79,-0.38,1.0,0.0,7.0,0.0,2.0,1.0,2.0,7.26,0.0,0.0,
16.267,48.1890950446206,85.74525710259765,-3.96,-2.06,0.83,1.0,0.0,7.0,0.0,2.0,1.0,2.0,7.36,0.0,0.0,
16.29,48.13590950446206,85.74052571025976,-5.79,-2.64,1.88,1.0,0.0,7.0,0.0,2.0,1.0,2.0,7.26,0.0,0.0,
16.315,48.0855909504462,85.69505257102597,-5.18,-0.56,0.94,1.0,0.0,7.0,0.0,2.0,1.0,2.0,7.26,0.0,0.0,
16.338,47.981559095044624,85.66350525710259,-3.79,-0.33,0.11,1.0,0.0,7.0,0.0,2.0,1.0,2.0,7.26,0.0,0.0,
16.362,47.97115590950446,85.69635052571027,-4.69,-0.72,-0.24,1.0,0.0,7.0,0.0,2.0,1.0,2.0,7.36,0.0,0.0,
16.387,47.96111559095045,85.69063505257103,-2.97,-0.17,-0.89,1.0,0.0,7.0,0.0,2.0,1.0,2.0,7.46,0.0,0.0,
16.41,48.00511155909504,85.7980635052571,-3.76,0.02,-0.69,1.0,0.0,7.0,0.0,2.0,1.0,2.0,7.55,0.0,0.0,
16.435,47.9825111559095,85.70980635052572,-4.25,-1.58,0.29,1.0,0.0,7.0,0.0,2.0,1.0,2.0,7.55,0.0,0.0,
16.458,47.980251115590946,85.62898063505259,-2.43,-0.47,-1.2,1.0,0.0,7.0,0.0,2.0,1.0,2.0,7.55,0.0,0.0,
16.483,48.00702511155909,85.54889806350526,-2.01,1.6,-2.31,1.0,0.0,7.0,0.0,2.0,1.0,2.0,7.65,0.0,0.0,
16.506,48.00970251115591,85.54088980635053,-1.68,-0.1,-1.53,1.0,0.0,7.0,0.0,2.0,1.0,2.0,7.65,0.0,0.0,
16.53,47.99197025111559,85.56708898063505,-1.53,-0.96,-1.27,1.0,0.0,7.0,0.0,2.0,1.0,2.0,7.85,0.0,0.0,
16.555,48.080197025111566,85.56070889806351,-2.29,1.01,-1.54,1.0,0.0,7.0,0.0,2.0,1.0,2.0,7.85,0.0,0.0,
16.578,48.10701970251115,85.46107088980635,-2.29,-1.27,-0.58,1.0,0.0,7.0,0.0,2.0,1.0,2.0,8.04,0.0,0.0,
16.603,48.109701970251116,85.50510708898064,-3.24,-1.15,-0.08,1.0,0.0,7.0,0.0,2.0,1.0,2.0,7.95,0.0,0.0,
16.626,48.12797019702511,85.53651070889806,-1.78,-0.21,-1.27,1.0,0.0,7.0,0.0,2.0,1.0,2.0,8.04,0.0,0.0,
16.651,48.15679701970251,85.5846510708898,-1.6,-0.02,-1.37,1.0,0.0,7.0,0.0,2.0,1.0,2.0,8.14,0.0,0.0,
16.674,48.17767970197025,85.54446510708898,-2.42,-0.3,-1.03,1.0,0.0,7.0,0.0,2.0,1.0,2.0,8.14,0.0,0.0,
16.698,48.19776797019703,85.6124465107089,-2.33,1.21,-1.77,1.0,0.0,7.0,0.0,2.0,1.0,2.0,8.24,0.0,0.0,
16.722,48.2087767970197,85.60124465107089,-3.72,-0.34,-0.5,1.0,0.0,7.0,0.0,2.0,1.0,2.0,8.24,0.0,0.0,
16.746,48.209877679701975,85.5551244651071,-2.14,-0.81,-0.63,1.0,0.0,7.0,0.0,2.0,1.0,2.0,8.44,0.0,0.0,
16.771,48.2999877679702,85.58651244651071,-2.4,0.94,-1.44,1.0,0.0,7.0,0.0,2.0,1.0,2.0,8.44,0.0,0.0,
16.794,48.29999877679702,85.52665124465108,-2.64,-0.13,-1.0,1.0,0.0,7.0,0.0,2.0,1.0,2.0,8.53,0.0,0.0,
16.819,48.3449998776797,85.57466512446511,-3.89,-1.26,-0.18,1.0,0.0,7.0,0.0,2.0,1.0,2.0,8.63,0.0,0.0,
16.842,48.36749998776797,85.5704665124465,-2.51,-0.38,-1.39,1.0,0.0,7.0,0.0,2.0,1.0,2.0,8.73,0.0,0.0,
16.866,48.486749998776794,85.63304665124465,-2.93,0.44,-1.34,1.0,0.0,7.0,0.0,2.0,1.0,2.0,8.83,0.0,0.0,
16.89,48.50767499987768,85.64830466512447,-4.02,-2.32,0.48,1.0,0.0,7.0,0.0,2.0,1.0,2.0,8.83,0.0,0.0,
16.914,48.50976749998777,85.62283046651245,-4.11,-1.53,0.46,1.0,0.0,7.0,0.0,2.0,1.0,2.0,8.93,0.0,0.0,
16.939,48.491976749998784,85.53028304665125,-2.63,-0.14,-1.18,1.0,0.0,7.0,0.0,2.0,1.0,2.0,8.93,0.0,0.0,
16.962,48.481197674999876,85.57502830466512,-3.59,-0.74,-0.08,1.0,0.0,7.0,0.0,2.0,1.0,2.0,8.83,0.0,0.0,
16.987,48.42611976749999,85.56150283046651,-2.87,-1.72,-0.08,1.0,0.0,7.0,0.0,2.0,1.0,2.0,8.83,0.0,0.0,
17.01,48.47461197675,85.65015028304664,-2.34,0.78,-1.56,1.0,0.0,7.0,0.0,2.0,1.0,2.0,8.83,0.0,0.0,
17.034,48.51546119767501,85.65001502830467,-2.36,-1.37,-0.56,1.0,0.0,7.0,0.0,2.0,1.0,2.0,8.83,0.0,0.0,
17.058,48.483546119767496,85.69500150283048,-3.82,-2.18,0.91,1.0,0.0,7.0,0.0,2.0,1.0,2.0,8.73,0.0,0.0,
17.082,48.44435461197675,85.62750015028305,-2.4,-1.75,-0.4,1.0,0.0,7.0,0.0,2.0,1.0,2.0,8.83,0.0,0.0,
17.106,48.476435461197674,85.62975001502829,-2.84,-0.17,-0.82,1.0,0.0,7.0,0.0,2.0,1.0,2.0,8.63,0.0,0.0,
17.13,48.52464354611976,85.58497500150284,-3.26,-2.14,0.3,1.0,0.0,7.0,0.0,2.0,1.0,2.0,8.63,0.0,0.0,
17.154,48.529464354611974,85.53549750015029,-3.34,-1.82,0.02,1.0,0.0,7.0,0.0,2.0,1.0,2.0,8.63,0.0,0.0,
17.178,48.6019464354612,85.51254975001503,-3.36,-2.14,0.33,1.0,0.0,7.0,0.0,2.0,1.0,2.0,8.63,0.0,0.0,
17.202,48.537194643546115,85.4742549750015,-3.8,-3.14,0.99,1.0,0.0,7.0,0.0,2.0,1.0,2.0,8.63,0.0,0.0,
17.226,48.42271946435461,85.47042549750014,-3.21,-2.6,0.69,1.0,0.0,7.0,0.0,2.0,1.0,2.0,8.53,0.0,0.0,
17.25,48.447271946435464,85.46104254975002,-2.63,-1.73,-0.69,1.0,0.0,7.0,0.0,2.0,1.0,2.0,8.53,0.0,0.0,
17.273,48.35972719464355,85.46910425497501,-3.56,-2.21,0.17,1.0,0.0,7.0,0.0,2.0,1.0,2.0,8.53,0.0,0.0,
17.298,48.34197271946436,85.4609104254975,-3.82,-2.61,0.61,1.0,0.0,7.0,0.0,2.0,1.0,2.0,8.53,0.0,0.0,
17.321,48.28619727194644,85.46009104254975,-3.69,-2.27,0.15,1.0,0.0,7.0,0.0,2.0,1.0,2.0,8.44,0.0,0.0,
17.345,48.32561972719464,85.42400910425498,-3.04,-1.44,-0.08,1.0,0.0,7.0,0.0,2.0,1.0,2.0,8.53,0.0,0.0,
17.37,48.248561972719465,85.4564009104255,-3.43,-3.06,0.61,1.0,0.0,7.0,0.0,2.0,1.0,2.0,8.53,0.0,0.0,
17.393,48.19585619727195,85.41464009104254,-2.73,-1.74,-0.3,1.0,0.0,7.0,0.0,2.0,1.0,2.0,8.44,0.0,0.0,
17.418,48.2625856197272,85.44646400910426,-2.17,-1.95,-0.88,1.0,0.0,7.0,0.0,2.0,1.0,2.0,8.34,0.0,0.0,
17.441,48.24225856197272,85.49464640091043,-3.6,-2.43,0.78,1.0,0.0,7.0,0.0,2.0,1.0,2.0,8.34,0.0,0.0,
17.466,48.168225856197274,85.45446464009105,-3.13,-3.24,0.78,1.0,0.0,7.0,0.0,2.0,1.0,2.0,8.24,0.0,0.0,
17.489,48.17882258561973,85.4414464640091,-1.71,-1.06,-1.11,1.0,0.0,6.0,0.0,2.0,1.0,2.0,8.24,0.0,0.0,
17.513,48.13488225856197,85.44014464640091,-2.61,-2.72,0.02,1.0,0.0,6.0,0.0,2.0,1.0,2.0,8.14,0.0,0.0,
17.538,48.076488225856195,85.56601446464009,-2.85,-3.37,0.42,1.0,0.0,6.0,0.0,2.0,1.0,2.0,8.04,0.0,0.0,
17.561,48.07064882258562,85.578601446464,-2.13,-1.53,-0.85,1.0,0.0,6.0,0.0,2.0,1.0,2.0,8.04,0.0,0.0,
17.586,48.052064882258556,85.59786014464639,-2.08,-2.94,-0.28,1.0,0.0,6.0,0.0,2.0,1.0,2.0,7.85,0.0,0.0,
17.609,48.068206488225854,85.60878601446464,-2.08,-2.44,-0.38,1.0,0.0,6.0,0.0,2.0,1.0,2.0,7.85,0.0,0.0,
17.634,48.096820648822586,85.66387860144647,-1.81,-1.92,-0.63,1.0,0.0,6.0,0.0,2.0,1.0,2.0,7.75,0.0,0.0,
17.657,48.08168206488226,85.71438786014464,-2.53,-2.44,-0.12,1.0,0.0,6.0,0.0,2.0,1.0,2.0,7.55,0.0,0.0,
17.681,48.03516820648823,85.71943878601446,-2.8,-2.82,-0.02,1.0,0.0,6.0,0.0,2.0,1.0,2.0,7.55,0.0,0.0,
17.705,47.98551682064882,85.70194387860145,-2.25,-2.37,-0.16,1.0,0.0,6.0,0.0,2.0,1.0,2.0,7.55,0.0,0.0,
17.729,47.962551682064884,85.69119438786014,-1.83,-2.79,-0.4,1.0,0.0,6.0,0.0,2.0,1.0,2.0,7.46,0.0,0.0,
17.754,47.96025516820649,85.74411943878602,-2.17,-2.62,-0.25,1.0,0.0,6.0,0.0,2.0,1.0,2.0,7.36,0.0,0.0,
17.777,47.94202551682065,85.8574119438786,-1.95,-1.79,-0.79,1.0,0.0,6.0,0.0,2.0,1.0,2.0,7.26,0.0,0.0,
17.802,47.88620255168207,85.80574119438786,-2.53,-3.18,0.11,1.0,0.0,6.0,0.0,2.0,1.0,2.0,7.26,0.0,0.0,
17.825,47.8716202551682,85.89957411943878,-3.4,-3.18,0.63,1.0,0.0,6.0,0.0,2.0,1.0,2.0,7.16,0.0,0.0,
17.849,47.80716202551682,85.87295741194387,-2.7,-3.14,0.12,1.0,0.0,6.0,0.0,2.0,1.0,2.0,7.16,0.0,0.0,
17.873,47.818716202551684,85.89729574119438,-2.74,-2.82,-0.02,1.0,0.0,6.0,0.0,2.0,1.0,2.0,7.06,0.0,0.0,
17.897,47.81987162025517,85.97172957411944,-2.92,-3.61,0.47,1.0,0.0,6.0,0.0,2.0,1.0,2.0,7.06,0.0,0.0,
17.922,47.75698716202552,86.04217295741194,-3.4,-3.3,0.66,1.0,0.0,6.0,0.0,1.0,1.0,2.0,7.06,0.0,0.0,
17.945,47.678698716202554,85.9502172957412,-2.35,-2.47,-0.62,1.0,0.0,6.0,0.0,1.0,1.0,2.0,6.97,0.0,0.0,
17.969,47.661869871620254,85.97702172957412,-3.24,-2.02,-0.63,1.0,0.0,6.0,0.0,2.0,1.0,2.0,6.97,0.0,0.0,
17.993,47.570186987162025,85.9617021729574,-2.01,-2.82,-0.26,1.0,0.0,6.0,0.0,2.0,1.0,2.0,6.87,0.0,0.0,
18.017,47.5160186987162,85.92417021729574,-3.12,-3.31,0.24,1.0,0.0,6.0,0.0,1.0,1.0,2.0,6.97,0.0,0.0,
18.041,47.51060186987162,85.96541702172958,-2.63,-2.98,-0.08,1.0,0.0,6.0,0.0,1.0,1.0,2.0,6.87,0.0,0.0,
18.065,47.456060186987166,86.04154170217295,-3.48,-3.44,0.42,1.0,0.0,6.0,0.0,1.0,1.0,2.0,6.87,0.0,0.0,
18.089,47.40560601869871,86.0581541702173,-4.17,-3.51,1.18,1.0,0.0,6.0,0.0,1.0,1.0,2.0,6.77,0.0,0.0,
18.113,47.32856060186987,86.03281541702174,-3.6,-3.02,0.46,1.0,0.0,6.0,0.0,1.0,1.0,2.0,6.77,0.0,0.0,
18.137,47.32085606018698,85.99428154170216,-3.85,-1.89,-0.31,1.0,0.0,6.0,0.0,1.0,1.0,2.0,6.67,0.0,0.0,
18.161,47.3110856060187,85.91842815417021,-4.16,-3.13,0.72,1.0,0.0,6.0,0.0,1.0,1.0,2.0,6.77,0.0,0.0,
18.185,47.26510856060187,85.91984281541703,-4.59,-2.65,1.11,1.0,0.0,6.0,0.0,1.0,1.0,2.0,6.77,0.0,0.0,
18.209,47.233510856060185,85.9469842815417,-4.4,-2.5,0.75,1.0,0.0,6.0,0.0,1.0,1.0,2.0,6.77,0.0,0.0,
18.233,47.167351085606015,85.87769842815418,-4.16,-2.34,0.9,1.0,0.0,6.0,0.0,1.0,1.0,2.0,6.67,0.0,0.0,
18.256,47.1427351085606,85.84376984281542,-4.16,-2.39,0.39,1.0,0.0,6.0,0.0,1.0,1.0,2.0,6.67,0.0,0.0,
18.281,47.12227351085606,85.86737698428155,-4.2,-1.1,0.02,1.0,0.0,6.0,0.0,1.0,1.0,2.0,6.77,0.0,0.0,
18.305,47.1202273510856,85.81573769842815,-4.76,-1.81,0.5,1.0,0.0,6.0,0.0,1.0,1.0,2.0,6.67,0.0,0.0,
18.328,47.12002273510856,85.81057376984282,-4.94,-2.37,0.57,1.0,0.0,6.0,0.0,1.0,1.0,2.0,6.67,0.0,0.0,
18.353,47.03900227351086,85.73805737698429,-4.8,-1.75,0.55,1.0,0.0,6.0,0.0,1.0,1.0,2.0,6.67,0.0,0.0,
18.376,46.94090022735109,85.69480573769842,-3.76,-2.0,-0.02,1.0,0.0,6.0,0.0,1.0,1.0,2.0,6.87,0.0,0.0,
18.401,46.949090022735106,85.73548057376983,-4.44,-2.06,0.47,1.0,0.0,6.0,0.0,1.0,1.0,2.0,6.77,0.0,0.0,
18.424,46.91390900227351,85.73054805737699,-4.85,-2.33,1.32,1.0,0.0,6.0,0.0,1.0,1.0,2.0,6.87,0.0,0.0,
18.448,46.874390900227354,85.6310548057377,-5.16,-1.6,0.65,1.0,0.0,6.0,0.0,1.0,1.0,2.0,6.87,0.0,0.0,
18.472,46.84343909002274,85.63910548057378,-4.15,-1.81,0.29,1.0,0.0,6.0,0.0,1.0,1.0,2.0,6.87,0.0,0.0,
18.496,46.88534390900227,85.59491054805738,-4.24,-1.44,0.31,1.0,0.0,6.0,0.0,1.0,1.0,2.0,6.87,0.1,0.0,
18.52,46.907534390900224,85.60849105480574,-4.03,-1.72,0.46,1.0,0.0,6.0,0.0,1.0,1.0,2.0,6.97,0.2,0.0,
18.544,46.900753439090025,85.72684910548057,-3.11,-1.84,-0.1,1.0,0.0,6.0,0.0,1.0,1.0,2.0,6.97,0.29,0.0,
18.568,46.927075343909,85.76568491054806,-2.83,-1.58,-0.53,1.0,0.0,6.0,0.0,1.0,1.0,2.0,6.87,0.29,0.0,
18.592,46.9387075343909,85.8685684910548,-3.45,-1.71,-0.39,1.0,0.0,6.0,0.0,1.0,1.0,2.0,6.97,0.39,0.0,
18.616,46.97587075343908,85.95985684910548,-3.37,-1.72,-0.14,1.0,0.0,6.0,0.0,1.0,1.0,2.0,6.97,0.39,0.0,
18.64,46.93458707534391,86.00498568491055,-2.85,-2.0,-0.34,1.0,0.0,6.0,0.0,1.0,1.0,2.0,6.97,0.1,0.0,
18.664,46.93045870753439,85.93749856849105,-3.15,-1.07,-0.85,1.0,0.0,6.0,0.0,1.0,1.0,2.0,6.97,0.29,0.0,
18.689,46.93904587075344,85.9397498568491,-3.44,-1.95,-0.11,1.0,0.0,6.0,0.0,1.0,1.0,2.0,7.06,0.59,0.0,
18.712,46.912904587075346,85.94897498568491,-3.79,-2.21,0.29,1.0,0.0,6.0,0.0,1.0,1.0,2.0,6.97,0.69,0.0,
18.736,46.856290458707534,85.86889749856849,-3.25,-0.82,-0.56,1.0,0.0,6.0,0.0,1.0,1.0,2.0,6.97,0.59,0.0,
18.76,46.877629045870755,85.87888974985685,-2.69,-1.35,-0.7,1.0,0.0,6.0,0.0,1.0,1.0,2.0,7.06,0.69,0.0,
18.784,46.83476290458707,85.80788897498569,-3.68,-1.79,0.3,1.0,0.0,6.0,0.0,1.0,1.0,2.0,7.06,0.49,0.0,
18.808,46.830476290458705,85.88178889749857,-3.59,-1.01,-0.03,1.0,0.0,6.0,0.0,1.0,1.0,2.0,7.06,0.39,0.0,
18.832,46.83904762904588,85.83517888974986,-3.84,-1.28,0.13,1.0,0.0,6.0,0.0,1.0,1.0,2.0,7.16,0.39,0.0,
18.856,46.77690476290459,85.77651788897498,-4.21,-1.11,0.69,1.0,0.0,6.0,0.0,1.0,1.0,2.0,7.16,0.29,0.0,
18.88,46.75269047629046,85.7256517888975,-2.58,-0.67,-1.08,1.0,0.0,6.0,0.0,1.0,1.0,2.0,7.16,0.49,0.0,
18.904,46.79526904762904,85.68456517888976,-3.18,0.11,-0.85,1.0,0.0,6.0,0.0,1.0,1.0,2.0,7.26,0.2,0.0,
18.928,46.8805269047629,85.67145651788898,-3.89,-1.18,0.11,1.0,0.0,6.0,0.0,1.0,1.0,2.0,7.26,0.29,0.0,
18.952,46.88905269047629,85.6791456517889,-4.79,-1.16,0.59,1.0,0.0,6.0,0.0,1.0,1.0,2.0,7.36,0.39,0.0,
18.975,46.83590526904763,85.66191456517888,-3.31,-0.42,-0.35,1.0,0.0,6.0,0.0,1.0,1.0,2.0,7.36,0.39,0.0,
19.0,46.78559052690477,85.6961914565179,-3.47,-1.06,-0.3,1.0,0.0,6.0,0.0,1.0,1.0,2.0,7.36,0.59,0.0,
19.023,46.76255905269047,85.6996191456518,-4.02,-1.18,0.1,1.0,0.0,6.0,0.0,1.0,1.0,2.0,7.46,0.69,0.0,
19.048,46.77825590526905,85.68196191456519,-3.49,-0.99,-0.26,1.0,0.0,6.0,0.0,1.0,1.0,2.0,7.46,0.69,0.0,
19.072,46.7888255905269,85.64419619145653,-4.19,-1.22,-0.27,1.0,0.0,6.0,0.0,1.0,1.0,2.0,7.46,0.69,0.0,
19.096,46.78088255905269,85.63141961914565,-3.92,-0.79,-0.37,1.0,0.0,6.0,0.0,1.0,1.0,2.0,7.46,0.69,0.0,
19.12,46.78008825590527,85.61214196191457,-3.97,-0.81,-0.14,1.0,0.0,6.0,0.0,1.0,1.0,2.0,7.55,0.69,0.0,
19.144,46.82500882559052,85.66421419619147,-3.6,-0.7,-0.13,1.0,0.0,6.0,0.0,1.0,1.0,2.0,7.65,0.78,0.0,
19.168,46.89250088255905,85.60642141961914,-3.77,-0.48,-0.4,1.0,0.0,6.0,0.0,1.0,1.0,2.0,7.65,0.69,0.0,
19.192,46.899250088255904,85.61864214196191,-3.24,-1.24,-0.24,1.0,0.0,6.0,0.0,1.0,1.0,2.0,7.75,0.78,0.0,
19.216,46.95392500882559,85.6108642141962,-3.41,-0.73,-0.37,1.0,0.0,6.0,0.0,1.0,1.0,2.0,7.65,0.88,0.0,
19.239,47.02239250088256,85.51108642141962,-3.05,-0.17,-0.55,1.0,0.0,6.0,0.0,1.0,1.0,2.0,7.75,1.28,0.0,
19.264,47.04723925008825,85.47410864214196,-3.11,-1.25,-0.37,1.0,0.0,6.0,0.0,1.0,1.0,2.0,7.75,1.08,0.0,
19.288,47.07672392500882,85.43441086421421,-3.39,-0.39,-0.28,1.0,0.0,6.0,0.0,1.0,1.0,2.0,7.65,0.78,0.0,
19.312,47.133672392500884,85.35844108642142,-3.2,-0.69,-0.28,1.0,0.0,6.0,0.0,1.0,1.0,2.0,7.75,0.78,0.0,
19.336,47.07636723925009,85.31484410864215,-3.44,-0.92,-0.09,1.0,0.0,6.0,0.0,1.0,1.0,2.0,7.75,0.78,0.0,
19.36,47.09763672392501,85.2744844108642,-2.39,-1.13,-0.5,1.0,0.0,6.0,0.0,1.0,1.0,2.0,7.75,0.88,0.0,
19.384,47.1267636723925,85.32444844108642,-2.6,0.07,-0.95,1.0,0.0,6.0,0.0,1.0,1.0,2.0,7.75,0.88,0.0,
19.408,47.057676367239246,85.33844484410865,-3.05,-1.02,-0.46,1.0,0.0,6.0,0.0,1.0,1.0,2.0,7.75,0.88,0.0,
19.432,47.07776763672392,85.33084448441086,-3.12,-1.21,-0.55,1.0,0.0,6.0,0.0,1.0,1.0,2.0,7.75,0.78,0.0,
19.456,47.11577676367239,85.38408444844109,-2.21,-0.29,-1.13,1.0,0.0,6.0,0.0,1.0,1.0,2.0,7.85,0.88,0.0,
19.48,47.07457767636724,85.3624084448441,-2.47,-0.79,-0.64,1.0,0.0,6.0,0.0,1.0,1.0,2.0,7.75,0.69,0.0,
19.504,47.13345776763673,85.39624084448442,-3.08,-0.66,-0.46,1.0,0.0,6.0,0.0,1.0,1.0,3.0,7.75,0.59,0.0,
19.528,47.130345776763676,85.39062408444843,-3.15,-0.73,-0.48,1.0,0.0,6.0,0.0,1.0,1.0,3.0,7.85,0.69,0.0,
19.552,47.13903457767637,85.44406240844484,-3.46,-0.44,-0.43,1.0,0.0,6.0,0.0,1.0,1.0,3.0,7.85,0.69,0.0,
19.576,47.13090345776764,85.46740624084448,-3.45,-1.56,-0.18,1.0,0.0,6.0,0.0,1.0,1.0,3.0,7.85,0.69,0.0,
19.6,47.148090345776765,85.47874062408445,-3.41,-0.79,-0.45,1.0,0.0,6.0,0.0,1.0,1.0,3.0,7.85,0.59,0.0,
19.624,47.20380903457768,85.45287406240844,-3.47,-1.11,-0.18,1.0,0.0,6.0,0.0,1.0,1.0,3.0,7.95,0.78,0.0,
19.648,47.16438090345776,85.44128740624085,-3.18,-1.5,0.02,1.0,0.0,6.0,0.0,1.0,1.0,3.0,7.95,0.59,0.0,
19.673,47.13343809034578,85.46712874062409,-3.46,-1.37,-0.2,1.0,0.0,6.0,0.0,1.0,1.0,3.0,7.95,0.69,0.0,
19.696,47.094343809034584,85.45171287406241,-3.36,-1.13,0.04,1.0,0.0,6.0,0.0,1.0,1.0,3.0,7.95,0.59,0.0,
19.72,47.08143438090346,85.42317128740623,-3.42,-1.82,0.05,1.0,0.0,6.0,0.0,1.0,1.0,3.0,7.95,0.78,0.0,
19.744,47.10714343809035,85.46531712874062,-3.2,-1.28,-0.24,1.0,0.0,6.0,0.0,1.0,1.0,3.0,7.85,0.69,0.0,
19.768,47.217714343809035,85.52353171287406,-3.45,-1.21,-0.03,1.0,0.0,6.0,0.0,1.0,1.0,3.0,7.85,0.59,0.0,
19.792,47.1927714343809,85.52935317128741,-3.4,-1.65,0.29,1.0,0.0,6.0,0.0,1.0,1.0,3.0,7.85,0.69,0.0,
19.816,47.14527714343809,85.51193531712875,-3.94,-1.95,0.05,1.0,0.0,6.0,0.0,1.0,1.0,3.0,7.85,0.78,0.0,
19.84,47.10452771434381,85.49219353171287,-3.44,-1.48,-0.24,1.0,0.0,6.0,0.0,1.0,1.0,3.0,7.85,0.78,0.0,
19.864,47.10945277143438,85.53521935317129,-3.43,-1.16,-0.27,1.0,0.0,6.0,0.0,1.0,1.0,3.0,7.95,0.59,0.0,
19.888,47.11894527714344,85.45852193531712,-3.34,-1.25,-0.15,1.0,0.0,6.0,0.0,1.0,1.0,3.0,7.75,0.59,0.0,
19.912,47.09289452771435,85.47785219353172,-3.64,-2.16,0.18,1.0,0.0,6.0,0.0,1.0,1.0,3.0,7.75,0.78,0.0,
19.936,47.090289452771444,85.52478521935318,-3.5,-1.96,0.18,1.0,0.0,6.0,0.0,1.0,1.0,2.0,7.75,0.78,0.0,
19.96,47.07202894527714,85.51147852193532,-3.4,-0.87,-0.49,1.0,0.0,6.0,0.0,1.0,1.0,2.0,7.65,0.78,0.0,
19.984,47.05220289452771,85.52814785219354,-3.16,-2.18,0.05,1.0,0.0,6.0,0.0,1.0,1.0,2.0,7.75,0.88,0.0,
20.007,47.03222028945277,85.50281478521936,-3.5,-1.98,0.27,1.0,0.0,6.0,0.0,1.0,1.0,2.0,7.75,0.88,0.0,
20.032,47.039222028945275,85.51828147852194,-3.08,-2.33,-0.11,1.0,0.0,6.0,0.0,1.0,1.0,2.0,7.65,0.88,0.0,
20.056,47.04892220289452,85.5468281478522,-2.98,-1.78,0.3,1.0,0.0,6.0,0.0,1.0,1.0,2.0,7.55,0.88,0.0,
20.08,47.03189222028946,85.52268281478523,-3.37,-2.01,0.44,1.0,0.0,6.0,0.0,1.0,1.0,2.0,7.46,0.88,0.0,
20.104,47.084189222028954,85.43026828147852,-2.89,-1.82,-0.27,1.0,0.0,6.0,0.0,1.0,1.0,2.0,7.46,0.78,0.0,
20.127,47.0894189222029,85.48402682814785,-2.38,-1.72,-0.73,1.0,0.0,6.0,0.0,1.0,1.0,2.0,7.36,0.98,0.0,
20.152,47.089941892220295,85.52540268281479,-3.16,-1.69,-0.18,1.0,0.0,6.0,0.0,1.0,1.0,2.0,7.36,0.98,0.0,
20.175,47.080994189222025,85.50254026828148,-3.17,-2.16,0.15,1.0,0.0,6.0,0.0,1.0,1.0,2.0,7.36,1.18,0.0,
20.2,47.03509941892221,85.51825402682815,-3.02,-2.27,-0.04,1.0,0.0,6.0,0.0,1.0,1.0,2.0,7.36,1.18,0.0,
20.224,47.06650994189222,85.53782540268281,-3.06,-2.22,0.24,1.0,0.0,6.0,0.0,1.0,1.0,2.0,7.36,1.18,0.0,
20.248,47.02465099418923,85.54878254026829,-2.96,-2.52,0.33,1.0,0.0,6.0,0.0,1.0,1.0,2.0,7.26,1.08,0.0,
20.272,47.04746509941892,85.57687825402684,-2.89,-2.6,-0.07,1.0,0.0,6.0,0.0,1.0,1.0,2.0,7.16,0.98,0.0,
20.295,47.01374650994189,85.63368782540269,-2.73,-1.33,-0.73,1.0,0.0,6.0,0.0,1.0,1.0,2.0,7.06,1.08,0.0,
20.32,46.983374650994186,85.66636878254027,-2.76,-2.66,0.22,1.0,0.0,6.0,0.0,1.0,1.0,2.0,7.16,1.08,0.0,
20.343,46.94433746509942,85.66963687825404,-3.76,-3.35,0.76,1.0,0.0,6.0,0.0,1.0,1.0,2.0,7.16,1.08,0.0,
20.368,46.904433746509945,85.67896368782542,-2.66,-2.35,-0.01,1.0,0.0,6.0,0.0,1.0,1.0,2.0,7.16,0.78,0.0,
20.391,46.87344337465099,85.66189636878254,-3.11,-2.21,0.29,1.0,0.0,6.0,0.0,1.0,1.0,2.0,7.06,0.59,0.0,
20.415,46.771344337465095,85.59718963687826,-4.21,-3.62,0.79,1.0,0.0,6.0,0.0,1.0,1.0,2.0,6.97,0.78,0.0,
20.44,46.72513443374651,85.59971896368782,-3.15,-2.74,-0.12,1.0,0.0,6.0,0.0,1.0,1.0,2.0,6.97,0.78,0.0,
20.463,46.69351344337465,85.57297189636877,-1.79,-1.24,-1.25,1.0,0.0,6.0,0.0,1.0,1.0,2.0,6.97,0.78,0.0,
20.488,46.717351344337466,85.67829718963687,-3.13,-2.58,0.06,1.0,0.0,6.0,0.0,1.0,1.0,2.0,6.87,0.69,0.0,
20.511,46.647735134433745,85.60782971896367,-3.72,-3.4,0.73,1.0,0.0,6.0,0.0,1.0,1.0,2.0,6.77,0.69,0.0,
20.535,46.70377351344337,85.61878297189637,-3.3,-2.76,-0.03,1.0,0.0,6.0,0.0,1.0,1.0,2.0,6.77,0.98,0.0,
20.559,46.646377351344334,85.61987829718964,-3.54,-3.15,0.44,1.0,0.0,6.0,0.0,1.0,1.0,2.0,6.77,0.98,0.0,
20.583,46.55063773513444,85.62898782971895,-4.01,-3.8,1.25,1.0,0.0,6.0,0.0,1.0,1.0,2.0,6.77,1.08,0.0,
20.608,46.45106377351344,85.5938987829719,-3.02,-2.08,0.33,1.0,0.0,6.0,0.0,1.0,1.0,2.0,6.67,0.88,0.0,
20.631,46.423106377351345,85.62638987829718,-2.68,-1.63,-0.15,1.0,0.0,6.0,0.0,1.0,1.0,2.0,6.77,0.49,0.0,
20.656,46.38431063773514,85.66563898782972,-4.01,-1.82,0.37,1.0,0.0,6.0,0.0,1.0,1.0,2.0,6.67,0.39,0.0,
20.679,46.33543106377351,85.66956389878298,-4.15,-1.05,-0.06,1.0,0.0,6.0,0.0,1.0,1.0,2.0,6.67,0.2,0.0,
20.703,46.348543106377356,85.64295638987831,-4.17,-0.44,-0.38,1.0,0.0,6.0,0.0,1.0,1.0,2.0,6.77,0.29,0.0,
20.727,46.31385431063774,85.56829563898783,-4.18,0.05,-0.64,1.0,0.0,6.0,0.0,1.0,1.0,2.0,6.77,0.2,0.0,
20.751,46.30138543106378,85.56982956389878,-3.44,-0.58,-0.34,1.0,0.0,6.0,0.0,1.0,1.0,2.0,6.87,0.2,0.0,
20.775,46.29113854310638,85.52498295638988,-3.34,-0.38,-0.72,1.0,0.0,6.0,0.0,1.0,1.0,2.0,6.97,0.29,0.0,
20.799,46.362113854310635,85.59249829563898,-4.13,-0.57,-0.32,1.0,0.0,6.0,0.0,1.0,1.0,2.0,6.87,0.2,0.0,
20.824,46.33321138543106,85.59924982956389,-4.02,-1.52,0.02,1.0,0.0,6.0,0.0,1.0,1.0,2.0,6.77,0.29,0.0,
20.847,46.321321138543105,85.6179249829564,-4.36,-1.3,0.13,1.0,0.0,6.0,0.0,1.0,1.0,2.0,6.77,0.49,0.0,
20.871,46.29313211385431,85.65579249829563,-3.33,-1.74,-0.15,1.0,0.0,6.0,0.0,1.0,1.0,2.0,6.77,0.39,0.0,
20.895,46.24531321138543,85.62357924982956,-3.56,-2.57,0.36,1.0,0.0,6.0,0.0,1.0,1.0,2.0,6.87,0.59,0.0,
20.919,46.16853132113854,85.59335792498297,-3.73,-3.18,0.54,1.0,0.0,6.0,0.0,1.0,1.0,2.0,6.87,0.49,0.0,
20.943,46.16985313211386,85.57233579249828,-2.89,-2.11,-0.2,1.0,0.0,6.0,0.0,1.0,1.0,2.0,6.77,0.2,0.0,
20.967,46.16998531321139,85.52523357924983,-2.61,-2.29,-0.32,1.0,0.0,6.0,0.0,1.0,1.0,2.0,6.77,0.2,0.0,
20.992,46.151998531321134,85.58352335792499,-3.68,-3.79,0.73,1.0,0.0,6.0,0.0,1.0,1.0,2.0,6.77,0.59,0.0,
21.015,46.12319985313211,85.5533523357925,-3.47,-3.57,0.59,1.0,0.0,6.0,0.0,1.0,1.0,2.0,6.67,0.69,0.0,
21.039,46.102319985313216,85.57733523357925,-3.15,-3.17,0.36,1.0,0.0,6.0,0.0,1.0,1.0,2.0,6.67,0.78,0.0,
21.063,46.03723199853132,85.57073352335792,-3.68,-3.62,0.37,1.0,0.0,6.0,0.0,1.0,1.0,2.0,6.57,0.78,0.0,
21.087,46.03972319985313,85.6150733523358,-3.72,-3.0,0.57,1.0,0.0,6.0,0.0,1.0,1.0,2.0,6.57,0.69,0.0,
21.11,45.94997231998531,85.63750733523358,-3.57,-2.75,0.48,1.0,0.0,6.0,0.0,1.0,1.0,2.0,6.47,0.59,0.0,
21.135,45.93199723199854,85.67575073352336,-3.95,-2.82,0.83,1.0,0.0,6.0,0.0,1.0,1.0,2.0,6.57,0.59,0.0,
21.158,45.86719972319985,85.64357507335234,-4.75,-3.1,1.27,1.0,0.0,6.0,0.0,1.0,1.0,2.0,6.67,0.88,0.0,
