time,pitch,roll,gyrx,gyry,gyrz,f1,f2,f3,f4,f5,f6,f7,g1,g2,g3
0.376,54.01,15.87,0.0,-3.0,-2.0,0,2,0,0,0,0,0,0.49,0.00,0.00,
0.39,58.086999999999996,17.283,2.0,-3.0,-3.0,0,2,0,0,0,0,0,0.49,0.00,0.10,
0.403,61.45569999999999,18.5583,2.0,-2.0,-2.0,0,2,0,0,0,0,0,0.49,0.00,0.10,
0.416,64.00657,19.57683,0.0,-2.0,0.0,0,2,0,0,0,0,0,0.59,0.00,0.10,
0.43,66.349657,20.272683,-4.0,-3.0,2.0,0,2,0,0,0,0,0,0.59,0.00,0.00,
0.443,68.8519657,20.6392683,-9.0,-5.0,3.0,0,2,0,0,0,0,0,0.59,0.00,0.00,
0.457,71.10019657000001,21.10792683,-9.0,-6.0,2.0,0,2,0,0,0,0,0,0.49,0.00,0.00,
0.471,72.990019657,21.640792683,-7.0,-5.0,0.0,0,2,0,0,0,0,0,0.49,0.00,0.20,
0.484,74.70900196570001,22.1710792683,-6.0,-4.0,-3.0,0,2,0,0,0,0,0,0.39,0.00,0.20,
0.497,75.96990019657,22.638107926830003,-5.0,-4.0,-4.0,0,2,0,0,0,0,0,0.39,0.00,0.29,
0.51,77.20299001965701,22.792810792683,-6.0,-4.0,-2.0,0,2,0,0,0,0,0,0.29,0.00,0.20,
0.525,78.2802990019657,22.781281079268304,-7.0,-5.0,-1.0,0,2,0,0,0,0,0,0.29,0.00,0.10,
0.538,78.99102990019657,22.82512810792683,-8.0,-4.0,-1.0,0,2,0,0,0,0,0,0.29,0.00,0.10,
0.551,79.32310299001966,23.225512810792683,-8.0,-3.0,-2.0,0,2,0,0,0,0,0,0.39,0.00,0.00,
0.565,79.93231029900197,23.688551281079267,-7.0,-2.0,-1.0,0,2,0,0,0,0,0,0.29,0.00,0.00,
0.578,80.4612310299002,23.842855128107928,-10.0,-4.0,1.0,0,2,0,0,0,0,0,0.20,0.00,0.00,
0.591,80.62212310299003,23.876285512810792,-11.0,-6.0,3.0,0,2,0,0,0,0,0,0.20,0.00,0.00,
0.605,80.413212310299,23.735628551281078,-10.0,-9.0,3.0,0,2,0,0,0,0,0,0.00,0.00,0.00,
0.618,80.2753212310299,23.487562855128107,-10.0,-9.0,4.0,0,2,0,0,0,0,0,0.00,0.00,0.00,
0.631,80.234532123103,23.25575628551281,-9.0,-8.0,2.0,0,2,0,0,0,0,0,0.00,0.00,0.00,
0.646,80.38345321231031,23.187575628551283,-11.0,-7.0,1.0,0,2,0,0,0,0,0,0.00,0.00,0.00,
0.659,80.74034532123103,23.135757562855126,-12.0,-6.0,0.0,0,2,0,0,0,0,0,0.00,0.00,0.00,
0.672,81.1540345321231,23.238575756285513,-11.0,-4.0,-1.0,0,2,0,0,0,0,0,0.00,0.00,0.00,
0.686,81.67240345321231,23.149857575628552,-10.0,-2.0,-2.0,0,2,0,0,0,0,0,0.00,0.00,0.00,
0.699,81.86824034532124,23.086985757562854,-10.0,-3.0,-2.0,0,2,0,0,0,0,0,0.00,0.00,0.00,
0.712,82.06782403453212,22.927698575756285,-11.0,-5.0,-1.0,0,2,0,0,0,0,0,0.00,0.00,0.00,
0.726,82.2497824034532,22.821769857575628,-11.0,-6.0,0.0,0,2,0,0,0,0,0,0.00,0.00,0.00,
0.739,82.60097824034533,22.712176985757562,-9.0,-5.0,0.0,0,2,0,0,0,0,0,0.00,0.00,0.00,
0.752,82.99609782403454,22.64721769857576,-9.0,-4.0,0.0,0,2,0,0,0,0,0,0.00,0.00,0.00,
0.765,83.49460978240344,22.65872176985758,-8.0,-2.0,0.0,0,2,0,0,0,0,0,0.00,0.00,0.10,
0.779,83.88646097824035,22.785872176985755,-7.0,-1.0,-1.0,0,2,0,0,0,0,0,0.00,0.00,0.10,
0.793,84.08764609782403,22.960587217698578,-5.0,0.0,-1.0,0,2,0,0,0,0,0,0.00,0.00,0.00,
0.806,84.4407646097824,22.87905872176986,-3.0,0.0,0.0,0,2,0,0,0,0,0,0.00,0.00,0.10,
0.819,84.40407646097825,22.717905872176985,-4.0,0.0,0.0,0,2,0,0,0,0,0,0.00,0.00,0.00,
0.832,84.22040764609783,22.4857905872177,-6.0,0.0,0.0,0,2,0,0,0,0,0,0.00,0.00,0.00,
0.845,83.87804076460978,22.51657905872177,-6.0,-1.0,0.0,0,2,0,0,0,0,0,0.00,0.00,0.00,
0.859,83.91580407646099,22.672657905872178,-6.0,-1.0,0.0,0,2,0,0,0,0,0,0.00,0.00,0.00,
0.872,84.1715804076461,22.76926579058722,-5.0,0.0,-1.0,0,2,0,0,0,0,0,0.00,0.00,0.00,
0.885,84.42215804076461,22.877926579058723,-5.0,0.0,-2.0,0,2,0,0,0,0,0,0.00,0.00,0.00,
0.899,84.35721580407645,22.81679265790587,-5.0,0.0,-2.0,0,2,0,0,0,0,0,0.00,0.00,0.00,
0.912,83.99972158040764,23.107679265790587,-5.0,0.0,-4.0,0,2,0,0,0,0,0,0.00,0.00,0.00,
0.925,84.02697215804078,23.082767926579056,-1.0,0.0,-2.0,0,2,0,0,0,0,0,0.00,0.00,0.00,
0.939,83.86769721580409,23.053276792657904,-1.0,0.0,-2.0,0,2,0,0,0,0,0,0.00,0.00,0.00,
0.952,83.67176972158042,22.83432767926579,-1.0,1.0,-2.0,0,2,0,0,0,0,0,0.00,0.00,0.00,
0.965,83.29217697215803,22.65943276792658,-2.0,1.0,0.0,0,2,0,0,0,0,0,0.00,0.00,0.00,
0.978,82.5882176972158,22.74994327679266,-2.0,3.0,0.0,0,2,0,0,0,0,0,0.00,0.00,0.00,
0.992,81.85182176972158,22.722994327679267,-1.0,3.0,0.0,0,2,0,0,0,0,0,0.00,0.00,0.00,
1.005,81.51718217697217,22.801299432767927,-1.0,2.0,0.0,0,2,0,0,0,0,0,0.00,0.00,0.00,
1.018,81.69971821769721,22.782129943276793,0.0,0.0,0.0,0,2,0,0,0,0,0,0.00,0.00,0.00,
1.032,82.14097182176972,22.816212994327678,0.0,-1.0,0.0,0,2,0,0,0,0,0,0.00,0.00,0.00,
1.045,82.39209718217697,22.720621299432768,0.0,-1.0,-1.0,0,2,0,0,0,0,0,0.00,0.00,0.00,
1.058,82.3182097182177,22.639062129943277,0.0,0.0,-2.0,0,2,0,0,0,0,0,0.00,0.00,0.00,
1.072,81.65382097182177,22.486906212994327,0.0,1.0,-2.0,0,2,0,0,0,0,0,0.00,0.00,0.00,
1.084,80.98438209718218,22.57969062129943,-1.0,2.0,-2.0,0,2,0,0,0,0,0,0.00,0.00,0.00,
1.097,80.92643820971821,22.66996906212994,-1.0,2.0,0.0,0,2,0,0,0,0,0,0.00,0.00,0.00,
1.111,81.14564382097181,22.651996906212993,-1.0,0.0,0.0,0,2,0,0,0,0,0,0.00,0.00,0.00,
1.124,81.28456438209719,22.6591996906213,0.0,0.0,0.0,0,2,0,0,0,0,0,0.00,0.00,0.00,
1.137,81.42445643820972,22.68691996906213,0.0,0.0,0.0,0,2,0,0,0,0,0,0.00,0.00,0.00,
1.15,81.72644564382097,22.752691996906215,2.0,1.0,0.0,0,2,0,0,0,0,0,0.00,0.00,0.00,
1.164,81.8556445643821,22.75026919969062,0.0,1.0,-1.0,0,2,0,0,0,0,0,0.00,0.00,0.00,
1.177,81.70656445643822,22.696026919969064,0.0,1.0,-2.0,0,2,0,0,0,0,0,0.00,0.00,0.00,
1.19,81.77265644564382,22.690602691996908,0.0,1.0,-2.0,0,2,0,0,0,0,0,0.00,0.00,0.00,
1.203,82.13026564456439,22.70806026919969,0.0,0.0,-3.0,0,2,0,0,0,0,0,0.00,0.00,0.00,
1.216,82.68802656445645,22.754806026919972,0.0,0.0,-4.0,0,2,0,0,0,0,0,0.00,0.00,0.00,
1.229,82.91480265644564,22.714480602691996,-1.0,-1.0,-4.0,0,2,0,0,0,0,0,0.00,0.00,0.00,
1.243,82.98248026564457,22.764448060269196,-2.0,0.0,-4.0,0,2,0,0,0,0,0,0.00,0.00,0.00,
1.256,83.04324802656446,22.86844480602692,0.0,0.0,-4.0,0,2,0,0,0,0,0,0.00,0.00,0.00,
1.269,82.90532480265644,22.950844480602694,0.0,1.0,-3.0,0,2,0,0,0,0,0,0.00,0.00,0.00,
1.283,82.89153248026564,22.887084448060268,1.0,1.0,-1.0,0,2,0,0,0,0,0,0.00,0.00,0.00,
1.296,82.98915324802657,22.91670844480603,0.0,0.0,0.0,0,2,0,0,0,0,0,0.00,0.00,0.00,
1.309,83.19691532480265,22.865670844480604,0.0,0.0,0.0,0,2,0,0,0,0,0,0.00,0.00,0.00,
1.323,83.49669153248027,22.96856708444806,1.0,1.0,-1.0,0,2,0,0,0,0,0,0.00,0.00,0.00,
1.336,83.67966915324803,23.08685670844481,2.0,1.0,-3.0,0,2,0,0,0,0,0,0.00,0.00,0.00,
1.349,83.8509669153248,23.15268567084448,2.0,1.0,-4.0,0,2,0,0,0,0,0,0.00,0.00,0.00,
1.361,84.02109669153249,23.195268567084447,3.0,1.0,-3.0,0,2,0,0,0,0,0,0.00,0.00,0.00,
1.375,84.23610966915325,23.28052685670844,4.0,2.0,-3.0,0,2,0,0,0,0,0,0.00,0.00,0.00,
1.388,84.36561096691531,23.361052685670845,5.0,2.0,-4.0,0,2,0,0,0,0,0,0.00,0.00,0.00,
1.401,84.38756109669154,23.612105268567085,5.0,3.0,-3.0,0,2,0,0,0,0,0,0.00,0.00,0.00,
1.415,84.62375610966916,23.94321052685671,5.0,3.0,-3.0,0,2,0,0,0,0,0,0.00,0.00,0.00,
1.428,85.10637561096692,24.246321052685673,6.0,4.0,-3.0,0,2,0,0,0,0,0,0.00,0.00,0.00,
1.441,85.73063756109669,24.51963210526857,8.0,5.0,-2.0,0,2,0,0,0,0,0,0.00,0.00,0.00,
1.455,86.21606375610966,24.825963210526854,10.0,5.0,-4.0,0,2,0,0,0,0,0,0.00,0.00,0.00,
1.468,86.49860637561098,24.955596321052685,10.0,5.0,-4.0,0,2,0,0,0,0,0,0.00,0.00,0.00,
1.481,86.27486063756109,24.914559632105266,8.0,5.0,-3.0,0,2,0,0,0,0,0,0.00,0.00,0.00,
1.495,85.20848606375611,24.829455963210528,6.0,4.0,-2.0,0,2,0,0,0,0,0,0.00,0.00,0.00,
1.508,83.94984860637561,24.56894559632105,5.0,4.0,-2.0,0,2,0,0,0,0,0,0.00,0.00,0.00,
1.521,83.04998486063757,24.443894559632106,3.0,3.0,-2.0,0,2,0,0,0,0,0,0.00,0.00,0.00,
1.534,82.88799848606376,24.395389455963212,2.0,0.0,-3.0,0,2,0,0,0,0,0,0.00,0.00,0.00,
1.548,83.24979984860639,24.381538945596322,0.0,0.0,-5.0,0,2,0,0,0,0,0,0.00,0.00,0.00,
1.56,83.87097998486064,24.569153894559633,1.0,0.0,-7.0,0,2,0,0,0,0,0,0.00,0.00,0.00,
1.573,84.86009799848605,25.019915389455967,2.0,1.0,-10.0,0,2,0,0,0,0,0,0.00,0.00,0.00,
1.587,86.0570097998486,25.559991538945596,6.0,2.0,-11.0,0,2,0,0,0,0,0,0.00,0.00,0.00,
1.6,87.24770097998486,26.12699915389456,9.0,5.0,-12.0,0,2,0,0,0,0,0,0.00,0.00,0.00,
1.613,88.23077009799849,26.750699915389458,13.0,7.0,-12.0,0,2,0,0,0,0,0,0.00,0.00,0.00,
1.627,89.10307700979985,27.27206999153894,16.0,9.0,-12.0,0,2,0,0,0,0,0,0.00,0.00,0.00,
1.641,89.63130770097999,27.585206999153893,19.0,10.0,-9.0,0,2,0,0,0,0,0,0.00,0.00,0.00,
1.654,89.756130770098,27.679520699915393,19.0,11.0,-6.0,0,2,0,0,0,0,0,0.00,0.00,0.00,
1.668,89.71461307700979,27.74295206999154,19.0,12.0,-4.0,0,2,0,0,0,0,0,0.00,0.00,0.00,
1.681,89.88146130770099,27.776295206999155,17.0,12.0,-4.0,0,2,0,0,0,0,0,0.00,0.00,0.00,
1.694,90.46514613077011,27.968629520699913,16.0,10.0,-5.0,0,2,0,0,0,0,0,0.00,0.00,0.00,
1.708,91.684514613077,28.50086295206999,16.0,9.0,-8.0,0,2,0,0,0,0,0,0.00,0.00,0.00,
1.721,93.1744514613077,29.301086295207,18.0,9.0,-10.0,0,2,0,0,0,0,0,0.00,0.00,0.00,
1.734,94.78144514613076,30.173108629520698,22.0,11.0,-14.0,0,2,0,0,0,0,0,0.00,0.00,0.00,
1.747,96.27414451461308,31.16031086295207,26.0,13.0,-18.0,0,2,0,0,0,0,0,0.00,0.00,0.00,
1.761,97.42241445146131,32.240031086295204,29.0,16.0,-20.0,0,2,0,0,0,0,0,0.00,0.00,0.00,
1.775,98.20324144514615,33.11300310862952,34.0,20.0,-20.0,0,2,0,0,0,0,0,0.00,0.00,0.00,
1.788,98.69532414451461,33.929300310862956,38.0,22.0,-19.0,0,2,0,0,0,0,0,0.00,0.00,0.00,
1.802,99.14053241445146,34.4069300310863,39.0,23.0,-18.0,0,2,0,0,0,0,0,0.10,0.00,0.00,
1.815,99.57205324144515,34.91369300310863,38.0,23.0,-18.0,0,2,0,0,0,0,0,0.00,0.00,0.00,
1.828,99.93020532414451,35.79236930031087,39.0,22.0,-19.0,0,2,0,0,0,0,0,0.00,0.00,0.00,
1.842,100.54202053241445,37.00523693003109,43.0,22.0,-20.0,0,2,0,0,0,0,0,0.00,0.00,0.00,
1.856,101.42220205324143,38.47652369300311,49.0,22.0,-21.0,0,2,0,0,0,0,0,0.00,0.00,0.00,
1.869,102.35622020532414,39.892652369300315,57.0,24.0,-21.0,0,2,0,0,0,0,0,0.00,0.00,0.00,
1.883,102.9536220205324,40.83526523693003,63.0,28.0,-23.0,0,2,0,0,0,0,0,0.00,0.00,0.00,
1.896,103.49036220205323,41.217526523693,65.0,32.0,-27.0,0,2,0,0,0,0,0,0.00,0.00,0.00,
1.91,103.91303622020531,41.345752652369306,62.0,33.0,-32.0,0,2,0,0,0,0,0,0.00,0.00,0.00,
1.924,104.09030362202053,41.313575265236935,56.0,34.0,-35.0,0,2,0,0,0,0,0,0.00,0.00,0.00,
1.937,104.18003036220205,41.58935752652369,50.0,31.0,-41.0,0,2,0,0,0,0,0,0.00,0.00,0.00,
1.95,104.3240030362202,42.363935752652374,47.0,29.0,-44.0,0,2,0,0,0,0,0,0.00,0.00,0.00,
1.965,104.50940030362202,43.25139357526524,50.0,28.0,-48.0,0,2,0,0,0,0,0,0.00,0.00,0.00,
1.978,104.6449400303622,44.23113935752653,55.0,29.0,-50.0,0,2,0,0,0,0,0,0.00,0.00,0.00,
1.991,104.90149400303623,45.03111393575265,61.0,27.0,-53.0,0,2,0,0,0,0,0,0.00,0.00,0.00,
2.004,105.17914940030361,45.78611139357527,63.0,27.0,-53.0,0,2,0,0,0,0,0,0.00,0.00,0.00,
2.019,105.44091494003035,46.50961113935753,64.0,26.0,-51.0,0,2,0,0,0,0,0,0.00,0.00,0.00,
2.032,105.56609149400303,47.37396111393575,65.0,26.0,-48.0,0,2,0,0,0,0,0,0.00,0.00,0.00,
2.045,105.7046091494003,48.00939611139357,67.0,27.0,-43.0,0,2,0,0,0,0,0,0.00,0.00,0.00,
2.059,105.67346091494004,48.71193961113936,67.0,27.0,-40.0,0,2,0,0,0,0,0,0.00,0.00,0.00,
2.072,105.814346091494,49.49319396111393,66.0,26.0,-37.0,0,2,0,0,0,0,0,0.00,0.00,0.00,
2.086,106.07143460914939,50.44431939611139,66.0,24.0,-34.0,0,2,0,0,0,0,0,0.00,0.00,0.00,
2.1,106.39414346091495,51.39443193961114,69.0,22.0,-30.0,0,2,0,0,0,0,0,0.00,0.00,0.00,
2.113,106.79541434609149,52.31744319396112,72.0,23.0,-28.0,0,2,0,0,0,0,0,0.00,0.00,0.00,
2.126,107.21354143460916,52.967744319396104,75.0,23.0,-28.0,0,2,0,0,0,0,0,0.00,0.00,0.00,
2.141,107.76835414346091,53.401774431939614,74.0,23.0,-29.0,0,2,0,0,0,0,0,0.00,0.00,0.00,
2.154,108.3188354143461,53.625177443193955,70.0,23.0,-30.0,0,2,0,0,0,0,0,0.00,0.00,0.00,
2.167,108.87788354143461,53.863517744319395,65.0,22.0,-32.0,0,2,0,0,0,0,0,0.00,0.00,0.00,
2.181,109.52778835414345,54.34635177443194,61.0,22.0,-33.0,0,2,0,0,0,0,0,0.00,0.00,0.00,
2.195,109.95277883541434,55.33963517744319,59.0,21.0,-34.0,0,2,0,0,0,0,0,0.00,0.00,0.00,
2.208,110.36427788354143,56.48296351774432,63.0,21.0,-33.0,0,2,0,0,0,0,0,0.00,0.00,0.00,
2.222,110.63942778835415,57.821296351774436,68.0,22.0,-32.0,0,2,0,0,0,0,0,0.00,0.00,0.00,
2.235,110.9549427788354,59.134129635177445,74.0,23.0,-30.0,0,2,0,0,0,0,0,0.00,0.00,0.00,
2.249,111.31949427788354,60.25541296351775,77.0,24.0,-29.0,0,2,0,0,0,0,0,0.00,0.00,0.00,
2.263,111.79694942778835,61.294541296351774,74.0,23.0,-27.0,0,2,0,0,0,0,0,0.00,0.00,0.00,
2.276,112.13269494277884,61.89345412963518,66.0,22.0,-25.0,0,2,0,0,0,0,0,0.00,0.00,0.00,
2.289,112.38226949427788,62.52934541296352,61.0,20.0,-26.0,0,2,0,0,0,0,0,0.00,0.00,0.00,
2.302,112.51522694942778,63.14193454129635,59.0,19.0,-22.0,0,2,0,0,0,0,0,0.00,0.00,0.00,
2.317,112.70852269494279,63.73419345412964,59.0,19.0,-21.0,0,2,0,0,0,0,0,0.00,0.00,0.00,
2.33,113.06085226949426,64.46841934541297,60.0,19.0,-19.0,0,2,0,0,0,0,0,0.00,0.00,0.00,
2.343,113.48308522694943,65.2528419345413,60.0,17.0,-20.0,0,2,0,0,0,0,0,0.00,0.00,0.00,
2.357,113.89430852269494,66.38428419345414,61.0,16.0,-17.0,0,2,0,0,0,0,0,0.00,0.00,0.00,
2.371,114.21443085226949,67.44242841934542,61.0,15.0,-16.0,0,2,0,0,0,0,0,0.00,0.00,0.00,
2.384,114.50744308522695,68.21424284193454,59.0,15.0,-14.0,0,2,0,0,0,0,0,0.00,0.00,0.00,
2.398,114.89674430852268,68.48942428419345,57.0,14.0,-14.0,0,2,0,0,0,0,0,0.00,0.00,0.00,
2.411,115.08867443085227,68.30994242841935,55.0,14.0,-16.0,0,2,0,0,0,0,0,0.00,0.00,0.00,
2.425,115.26086744308523,68.07599424284193,51.0,14.0,-14.0,0,2,0,0,0,0,0,0.00,0.00,0.00,
2.439,115.44908674430852,68.0165994242842,47.0,15.0,-12.0,0,2,0,0,0,0,0,0.00,0.00,0.00,
2.452,115.51290867443085,68.01065994242842,44.0,15.0,-10.0,0,2,0,0,0,0,0,0.00,0.00,0.00,
2.465,115.48329086744309,68.17206599424284,41.0,16.0,-8.0,0,2,0,0,0,0,0,0.00,0.00,0.00,
2.479,115.4983290867443,68.28720659942428,38.0,16.0,-6.0,0,2,0,0,0,0,0,0.00,0.00,0.00,
2.493,115.61683290867443,68.43372065994242,35.0,17.0,-5.0,0,2,0,0,0,0,0,0.00,0.00,0.00,
2.506,115.78168329086743,68.64637206599424,31.0,16.0,-4.0,0,2,0,0,0,0,0,0.00,0.00,0.00,
2.52,115.86116832908674,69.00063720659944,26.0,15.0,-5.0,0,2,0,0,0,0,0,0.00,0.00,0.00,
2.533,115.71611683290868,69.70206372065994,23.0,12.0,-6.0,0,2,0,0,0,0,0,0.00,0.00,0.00,
2.546,115.62061168329087,70.546206372066,22.0,9.0,-8.0,0,2,0,0,0,0,0,0.00,0.00,0.00,
2.56,115.55706116832908,71.42262063720659,21.0,7.0,-10.0,0,2,0,0,0,0,0,0.00,0.00,0.00,
2.573,115.55070611683291,72.32926206372068,21.0,3.0,-12.0,0,2,0,0,0,0,0,0.00,0.00,0.00,
2.587,115.5590706116833,73.19392620637208,21.0,0.0,-13.0,0,2,0,0,0,0,0,0.00,0.00,0.00,
2.6,115.69490706116832,74.2343926206372,22.0,0.0,-12.0,0,2,0,0,0,0,0,0.00,0.00,0.00,
2.614,115.67249070611683,75.16643926206372,21.0,-1.0,-12.0,0,2,0,0,0,0,0,0.00,0.00,0.00,
2.627,115.84124907061168,76.09664392620637,19.0,-1.0,-10.0,0,2,0,0,0,0,0,0.00,0.00,0.00,
2.64,116.07412490706116,76.87366439262063,16.0,-2.0,-8.0,0,2,0,0,0,0,0,0.00,0.00,0.00,
2.655,116.4214124907061,77.24836643926207,14.0,-2.0,-8.0,0,2,0,0,0,0,0,0.00,0.00,0.00,
2.668,116.6091412490706,77.41183664392622,12.0,0.0,-9.0,0,2,0,0,0,0,0,0.00,0.00,0.00,
2.681,116.89791412490706,77.37418366439263,10.0,0.0,-10.0,0,2,0,0,0,0,0,0.00,0.00,0.00,
2.695,117.0707914124907,77.31641836643927,7.0,1.0,-10.0,0,2,0,0,0,0,0,0.00,0.00,0.00,
2.708,117.18707914124907,77.36464183664394,4.0,0.0,-10.0,0,2,0,0,0,0,0,0.00,0.00,0.00,
2.721,117.15370791412491,77.4594641836644,2.0,0.0,-10.0,0,2,0,0,0,0,0,0.00,0.00,0.00,
2.735,117.0243707914125,77.86494641836644,0.0,-2.0,-8.0,0,2,0,0,0,0,0,0.00,0.00,0.00,
2.748,116.88543707914125,78.42749464183663,0.0,-3.0,-5.0,0,2,0,0,0,0,0,0.00,0.00,0.00,
2.761,116.91654370791413,79.11374946418366,1.0,-3.0,-1.0,0,2,0,0,0,0,0,0.00,0.00,0.00,
2.775,117.09065437079141,80.10037494641836,2.0,-2.0,1.0,0,2,0,0,0,0,0,0.00,0.00,0.00,
3.205,116.81106543707914,82.85403749464183,-5.0,0.0,5.0,0,2,0,0,0,0,0,0.00,0.00,0.00,
3.218,116.37810654370791,82.94940374946418,-6.0,-2.0,2.0,0,2,0,0,0,0,0,0.00,0.00,0.00,
3.231,116.24481065437078,82.84194037494642,-7.0,-3.0,2.0,0,2,0,0,0,0,0,0.00,0.00,0.00,
3.245,116.15048106543708,82.81319403749465,-7.0,-4.0,2.0,0,2,0,0,0,0,0,0.00,0.00,0.00,
3.258,116.30304810654371,82.84631940374946,-6.0,-4.0,4.0,0,2,0,0,0,0,0,0.00,0.00,0.39,
3.271,116.55230481065436,82.72363194037494,-4.0,-3.0,6.0,0,2,0,0,0,0,0,0.00,0.00,0.59,
3.286,116.79323048106542,82.28836319403749,-4.0,-3.0,5.0,0,2,0,0,0,0,0,0.00,0.00,1.08,
3.299,117.05132304810654,81.64183631940375,-4.0,-2.0,3.0,0,2,0,0,0,0,0,0.00,0.00,1.37,
3.312,117.19413230481064,81.03718363194038,-5.0,-3.0,0.0,0,2,0,0,0,0,0,0.00,0.00,1.57,
3.325,117.30741323048106,80.59871836319404,-5.0,-3.0,-3.0,0,2,0,0,0,0,0,0.00,0.00,1.57,
3.339,117.30974132304812,80.5998718363194,-5.0,-2.0,-4.0,0,2,0,0,0,0,0,0.00,0.00,1.57,
3.353,117.19297413230481,80.71698718363194,-5.0,-2.0,-4.0,0,2,0,0,0,0,0,0.00,0.00,1.86,
3.366,117.11829741323048,80.9176987183632,-5.0,-1.0,-3.0,0,2,0,0,0,0,0,0.00,0.00,2.06,
3.381,117.02982974132304,81.11776987183632,-5.0,-1.0,-2.0,0,2,0,0,0,0,0,0.00,0.00,2.16,
3.394,116.92198297413229,81.25477698718363,-5.0,-1.0,-2.0,0,2,0,0,0,0,0,0.00,0.00,2.26,
3.407,116.82119829741323,81.26847769871836,-4.0,-1.0,-1.0,0,2,0,0,0,0,0,0.00,0.00,2.65,
3.422,116.66711982974134,81.28784776987183,-4.0,-1.0,-1.0,0,2,0,0,0,0,0,0.00,0.00,2.84,
3.435,116.62471198297415,81.21778477698717,-3.0,0.0,-2.0,0,2,0,0,0,0,0,0.00,0.00,3.14,
3.448,116.66547119829741,81.12977847769872,-3.0,0.0,-2.0,0,2,0,0,0,0,0,0.00,0.00,3.24,
3.463,116.82254711982975,81.20197784776987,-3.0,0.0,-2.0,0,2,0,0,0,0,0,0.00,0.00,3.53,
3.476,117.05425471198298,81.17319778477699,-4.0,-1.0,-2.0,0,2,0,0,0,0,0,0.00,0.00,3.63,
3.49,117.1314254711983,81.2963197784777,-5.0,-2.0,-2.0,0,2,0,0,0,0,0,0.00,0.00,3.63,
3.504,117.22914254711982,81.33563197784777,-4.0,-3.0,-1.0,0,2,0,0,0,0,0,0.00,0.00,3.73,
3.517,116.81591425471198,81.30356319778478,-4.0,-3.0,-2.0,0,2,0,0,0,0,0,0.00,0.00,3.83,
3.531,116.6845914254712,81.16535631977848,-4.0,-2.0,-2.0,0,2,0,0,0,0,0,0.00,0.00,4.12,
3.545,116.46445914254713,81.03453563197783,-4.0,-2.0,-3.0,0,2,0,0,0,0,0,0.00,0.00,4.32,
3.559,116.24444591425471,81.17445356319777,-3.0,0.0,-2.0,0,2,0,0,0,0,0,0.00,0.00,4.51,
3.572,116.24944459142547,81.09844535631979,-3.0,0.0,-2.0,0,2,0,0,0,0,0,0.00,0.00,4.61,
3.586,116.29494445914254,81.06384453563199,-2.0,0.0,-2.0,0,2,0,0,0,0,0,0.00,0.00,4.81,
3.599,116.39849444591425,81.0333844535632,-2.0,0.0,-2.0,0,2,0,0,0,0,0,0.00,0.00,4.91,
3.613,116.46284944459143,81.04833844535631,-2.0,1.0,-2.0,0,2,0,0,0,0,0,0.00,0.00,5.10,
3.627,116.47828494445915,81.06783384453563,-2.0,1.0,-3.0,0,2,0,0,0,0,0,0.00,0.00,5.10,
3.64,116.40782849444592,81.17778338445356,-3.0,1.0,-3.0,0,2,0,0,0,0,0,0.00,0.00,5.10,
3.654,116.3557828494446,81.26977833844535,-3.0,1.0,-3.0,0,2,0,0,0,0,0,0.00,0.00,5.30,
3.667,116.38657828494446,81.30597783384454,-3.0,0.0,-2.0,0,2,0,0,0,0,0,0.00,0.00,5.49,
3.681,116.36265782849445,81.34559778338445,-3.0,0.0,-2.0,0,2,0,0,0,0,0,0.00,0.00,5.59,
3.695,116.40526578284945,81.20555977833844,-3.0,0.0,-2.0,0,2,0,0,0,0,0,0.00,0.00,5.69,
3.708,116.55352657828495,81.09255597783384,-2.0,0.0,-2.0,0,2,0,0,0,0,0,0.00,0.00,6.08,
3.723,116.59535265782849,81.0452555977834,-1.0,0.0,-3.0,0,2,0,0,0,0,0,0.00,0.00,5.98,
3.736,116.67153526578286,81.05852555977835,-1.0,0.0,-3.0,0,2,0,0,0,0,0,0.00,0.00,5.98,
3.749,116.8411535265783,81.16785255597784,-1.0,0.0,-2.0,0,2,0,0,0,0,0,0.00,0.00,6.08,
3.764,116.92111535265784,81.22378525559779,-1.0,0.0,-1.0,0,2,0,0,0,0,0,0.00,-2403.94,6.08,
3.786,116.91111153526577,81.29237852555978,-1.0,-1.0,-1.0,0,2,0,0,0,0,0,0.00,0.00,6.08,
3.8,116.89211115352659,81.24523785255597,-1.0,-1.0,-2.0,0,2,0,0,0,0,0,0.00,0.00,6.18,
3.814,116.97121111535267,81.23152378525559,-1.0,0.0,-2.0,0,2,0,0,0,0,0,0.00,0.00,6.18,
3.827,116.97012111153526,81.21215237852556,-1.0,-1.0,-2.0,0,2,0,0,0,0,0,0.00,0.00,6.28,
3.842,116.91601211115352,81.29121523785255,-1.0,0.0,-2.0,0,2,0,0,0,0,0,0.00,0.00,6.67,
3.855,116.84760121111536,81.33512152378526,-1.0,0.0,-2.0,0,2,0,0,0,0,0,0.00,0.00,6.77,
3.868,116.86776012111154,81.31251215237853,-1.0,0.0,-2.0,0,2,0,0,0,0,0,0.00,0.00,6.97,
3.883,116.87877601211115,81.35525121523786,-1.0,0.0,-2.0,0,2,0,0,0,0,0,0.00,0.00,7.06,
3.896,116.83487760121112,81.42252512152379,-1.0,0.0,-3.0,0,2,0,0,0,0,0,0.00,0.00,7.16,
3.91,116.85748776012112,81.47425251215239,-1.0,0.0,-2.0,0,2,0,0,0,0,0,0.00,0.00,7.16,
3.923,116.81474877601211,81.56942525121524,-1.0,0.0,-1.0,0,2,0,0,0,0,0,0.00,0.00,7.26,
3.937,116.88247487760121,81.52494252512152,-1.0,-1.0,-1.0,0,2,0,0,0,0,0,0.00,0.00,7.26,
3.951,116.90724748776012,81.46649425251215,-2.0,0.0,-2.0,0,2,0,0,0,0,0,0.00,0.00,7.46,
3.964,116.87372474877601,81.53264942525122,-2.0,0.0,-3.0,0,2,0,0,0,0,0,0.00,0.00,7.55,
3.979,116.77137247487761,81.57526494252512,-2.0,0.0,-3.0,0,2,0,0,0,0,0,0.00,0.00,7.65,
3.992,116.73413724748777,81.6065264942525,-2.0,0.0,-3.0,0,2,0,0,0,0,0,0.00,0.00,7.55,
4.006,116.74841372474877,81.70865264942525,-3.0,0.0,-3.0,0,2,0,0,0,0,0,0.00,0.00,7.75,
4.02,116.73184137247488,81.63786526494252,-3.0,0.0,-3.0,0,2,0,0,0,0,0,0.00,0.00,8.04,
4.033,116.66718413724749,81.71178652649425,-3.0,0.0,-2.0,0,2,0,0,0,0,0,0.00,0.00,8.14,
4.047,116.67871841372477,81.72817865264943,-3.0,0.0,-2.0,0,2,0,0,0,0,0,0.00,0.00,8.24,
4.061,116.71587184137248,81.68481786526496,-3.0,0.0,-2.0,0,2,0,0,0,0,0,0.00,0.00,8.24,
4.075,116.82758718413726,81.6084817865265,-3.0,0.0,-2.0,0,2,0,0,0,0,0,0.00,0.00,8.44,
4.088,116.76675871841373,81.56484817865265,-3.0,0.0,-2.0,0,2,0,0,0,0,0,0.00,0.00,8.44,
4.103,116.81467587184136,81.51548481786527,-3.0,0.0,-2.0,0,2,0,0,0,0,0,0.00,0.00,8.63,
4.116,116.70246758718413,81.59154848178652,-3.0,0.0,-2.0,0,2,0,0,0,0,0,0.00,0.00,8.73,
4.129,116.6642467587184,81.64415484817866,-3.0,0.0,-2.0,0,2,0,0,0,0,0,0.00,0.00,8.73,
4.144,116.64242467587184,81.64941548481788,-3.0,0.0,-2.0,0,2,0,0,0,0,0,0.00,0.00,8.83,
4.157,116.70324246758719,81.66794154848179,-2.0,0.0,-2.0,0,2,0,0,0,0,0,0.00,0.00,9.03,
4.171,117.12332424675871,81.79579415484818,-3.0,0.0,-3.0,0,2,0,0,0,0,0,0.00,0.00,9.12,
4.185,116.99433242467587,81.80857941548481,-3.0,0.0,-2.0,0,2,0,0,0,0,0,0.00,0.00,9.32,
4.198,116.7474332424676,81.79185794154849,-3.0,0.0,-2.0,0,2,0,0,0,0,0,0.00,0.00,9.42,
4.212,116.66874332424676,81.71818579415485,-3.0,1.0,-2.0,0,2,0,0,0,0,0,0.00,0.00,9.42,
4.226,116.69687433242467,81.67481857941549,-3.0,1.0,-2.0,0,2,0,0,0,0,0,0.00,0.00,9.52,
4.24,116.78968743324246,81.71548185794155,-3.0,1.0,-2.0,0,2,0,0,0,0,0,0.00,0.00,9.61,
4.253,116.82596874332425,81.68354818579417,-3.0,0.0,-2.0,0,2,0,0,0,0,0,0.00,0.00,9.71,
4.267,116.92859687433241,81.64435481857942,-3.0,0.0,-2.0,0,2,0,0,0,0,0,0.00,0.00,9.81,
4.281,116.94785968743325,81.57743548185793,-3.0,0.0,-2.0,0,2,0,0,0,0,0,0.00,0.00,9.81,
4.294,116.94978596874333,81.5887435481858,-3.0,0.0,-2.0,0,2,0,0,0,0,0,0.00,0.00,9.81,
4.307,116.95897859687433,81.56287435481859,-3.0,0.0,-1.0,0,2,0,0,0,0,0,0.00,0.00,9.91,
4.321,116.98689785968743,81.57828743548185,-3.0,0.0,-1.0,0,2,0,0,0,0,0,0.00,0.00,9.91,
4.335,116.98068978596875,81.51682874354819,-3.0,0.0,-1.0,0,2,0,0,0,0,0,0.00,0.00,9.81,
4.348,116.91706897859686,81.56468287435482,-2.0,-2.0,0.0,0,2,0,0,0,0,0,0.00,0.00,9.71,
4.363,116.95570689785968,81.49746828743548,-2.0,0.0,-1.0,0,2,0,0,0,0,0,0.00,0.00,9.71,
4.376,117.00457068978598,81.47274682874355,-2.0,0.0,-2.0,0,2,0,0,0,0,0,0.00,0.00,9.71,
4.39,116.99145706897859,81.49727468287436,-2.0,0.0,-2.0,0,2,0,0,0,0,0,0.00,0.00,9.71,
4.404,117.07114570689785,81.49072746828743,-2.0,0.0,-2.0,0,2,0,0,0,0,0,0.00,0.00,9.61,
4.417,117.16011457068979,81.48107274682874,-2.0,0.0,-2.0,0,2,0,0,0,0,0,0.00,0.00,9.81,
4.431,117.21401145706898,81.40810727468288,-2.0,0.0,-1.0,0,2,0,0,0,0,0,0.00,0.00,9.71,
4.445,117.26440114570688,81.4188107274683,-2.0,0.0,-1.0,0,2,0,0,0,0,0,0.00,0.00,9.71,
4.459,117.22444011457068,81.41988107274683,-1.0,0.0,-1.0,0,2,0,0,0,0,0,0.00,0.00,9.71,
4.472,117.23844401145706,81.42898810727469,-2.0,0.0,-1.0,0,2,0,0,0,0,0,0.00,0.00,9.71,
4.487,117.23984440114569,81.45689881072747,-2.0,-1.0,-1.0,0,2,0,0,0,0,0,0.00,0.00,9.71,
4.5,117.17698444011457,81.49568988107275,-2.0,0.0,-1.0,0,2,0,0,0,0,0,0.00,0.00,9.71,
4.513,117.14369844401145,81.48156898810728,-2.0,0.0,-1.0,0,2,0,0,0,0,0,0.00,0.00,9.81,
4.528,117.13136984440115,81.50715689881073,-2.0,0.0,-1.0,0,2,0,0,0,0,0,0.00,0.00,9.71,
4.541,117.10313698444011,81.52771568988108,-2.0,0.0,-1.0,0,2,0,0,0,0,0,0.00,0.00,9.61,
4.555,117.11831369844401,81.52977156898811,-2.0,0.0,-2.0,0,2,0,0,0,0,0,0.00,0.00,9.61,
4.569,117.1198313698444,81.50297715689882,-3.0,0.0,-2.0,0,2,0,0,0,0,0,0.00,0.00,9.71,
4.583,117.23698313698445,81.77929771568989,-2.0,-3.0,0.0,0,2,0,0,0,0,0,0.00,0.00,9.61,
4.596,117.16769831369845,81.76192977156899,-2.0,0.0,-1.0,0,2,0,0,0,0,0,0.00,0.00,9.71,
4.61,117.10676983136985,81.7421929771569,-2.0,0.0,-1.0,0,2,0,0,0,0,0,0.00,0.00,9.61,
4.624,117.06467698313698,81.7042192977157,-2.0,0.0,-1.0,0,2,0,0,0,0,0,0.00,0.00,9.71,
4.637,117.00646769831368,81.73642192977157,-2.0,-1.0,-1.0,0,2,0,0,0,0,0,0.00,0.00,9.71,
4.652,117.01864676983136,81.67664219297716,-2.0,-1.0,-1.0,0,2,0,0,0,0,0,0.00,0.00,9.81,
4.665,117.00186467698313,81.65266421929773,-2.0,0.0,-1.0,0,2,0,0,0,0,0,0.00,0.00,9.71,
4.679,117.00018646769831,81.65926642192977,-2.0,0.0,-1.0,0,2,0,0,0,0,0,0.00,0.00,9.52,
4.692,117.00001864676983,81.63292664219297,-2.0,0.0,-1.0,0,2,0,0,0,0,0,0.00,0.00,9.52,
4.707,116.95500186467699,81.7112926642193,-2.0,0.0,-1.0,0,2,0,0,0,0,0,0.00,0.00,9.71,
4.72,117.0585001864677,81.70112926642193,-2.0,0.0,-1.0,0,2,0,0,0,0,0,0.00,0.00,9.71,
4.733,117.05985001864677,81.6281129266422,-2.0,0.0,-1.0,0,2,0,0,0,0,0,0.00,0.00,9.71,
4.748,117.06898500186468,81.63881129266422,-2.0,0.0,-1.0,0,2,0,0,0,0,0,0.00,0.00,9.71,
4.761,117.08789850018647,81.60388112926641,-2.0,0.0,-2.0,0,2,0,0,0,0,0,0.00,0.00,9.71,
4.775,117.09878985001865,81.57338811292664,-2.0,0.0,-2.0,0,2,0,0,0,0,0,0.00,0.00,9.71,
4.789,117.04587898500188,81.57933881129266,-2.0,0.0,-1.0,0,2,0,0,0,0,0,0.00,0.00,9.71,
4.803,117.07658789850018,81.61593388112928,-3.0,0.0,-1.0,0,2,0,0,0,0,0,0.00,0.00,9.81,
4.816,117.08865878985002,81.54759338811294,-3.0,0.0,-2.0,0,2,0,0,0,0,0,0.00,0.00,9.91,
4.83,117.062865878985,81.4867593388113,-3.0,0.0,-2.0,0,2,0,0,0,0,0,0.00,0.00,9.91,
4.844,116.99728658789849,81.41767593388113,-3.0,0.0,-2.0,0,2,0,0,0,0,0,0.00,0.00,9.91,
4.857,117.42272865878985,81.41076759338812,-4.0,1.0,-4.0,0,2,0,0,0,0,0,0.00,0.00,10.01,
4.872,117.33927286587898,81.44607675933882,-3.0,0.0,-1.0,0,2,0,0,0,0,0,0.00,0.00,10.01,
4.885,117.24992728658789,81.40460767593389,-3.0,0.0,-1.0,0,2,0,0,0,0,0,0.00,0.00,9.91,
4.899,117.2769927286588,81.31046076759338,-3.0,0.0,-1.0,0,2,0,0,0,0,0,0.00,0.00,10.01,
4.913,117.28869927286588,81.29204607675933,-2.0,0.0,-1.0,0,2,0,0,0,0,0,0.00,0.00,10.10,
4.927,117.28086992728659,81.26320460767593,-2.0,0.0,-1.0,0,2,0,0,0,0,0,0.00,0.00,10.01,
4.94,117.27108699272864,81.26932046076759,-2.0,0.0,-1.0,0,2,0,0,0,0,0,0.00,0.00,9.91,
4.955,117.18010869927286,81.30593204607676,-2.0,0.0,-1.0,0,2,0,0,0,0,0,0.00,0.00,9.91,
4.968,117.07201086992728,81.30059320460768,-2.0,0.0,-1.0,0,2,0,0,0,0,0,0.00,0.00,9.91,
4.981,117.06120108699272,81.30905932046076,-2.0,0.0,0.0,0,2,0,0,0,0,0,0.00,0.00,9.91,
4.996,117.07812010869927,81.28290593204608,-2.0,0.0,0.0,0,2,0,0,0,0,0,0.00,0.00,9.91,
5.009,117.06181201086993,81.24429059320461,-2.0,0.0,-1.0,0,2,0,0,0,0,0,0.00,0.00,9.91,
5.022,117.042181201087,81.24042905932046,-2.0,0.0,-1.0,0,2,0,0,0,0,0,0.00,0.00,10.01,
5.037,117.07621812010869,81.22204290593204,-2.0,0.0,-1.0,0,2,0,0,0,0,0,0.00,0.00,10.10,
5.051,117.11562181201087,81.2292042905932,-2.0,0.0,-1.0,0,2,0,0,0,0,0,0.00,0.00,10.20,
5.064,117.13756218120109,81.22092042905932,-2.0,0.0,-1.0,0,2,0,0,0,0,0,0.00,0.00,10.20,
5.079,117.19375621812011,81.25609204290593,-3.0,0.0,-1.0,0,2,0,0,0,0,0,0.00,0.00,10.20,
5.092,117.15437562181201,81.2506092042906,-3.0,0.0,-1.0,0,2,0,0,0,0,0,0.00,0.00,10.20,
5.106,117.1324375621812,81.21406092042906,-3.0,0.0,-1.0,0,2,0,0,0,0,0,0.00,0.00,10.30,
5.12,117.14824375621812,81.2194060920429,-3.0,0.0,-1.0,0,2,0,0,0,0,0,0.00,0.00,10.40,
5.134,117.26682437562181,81.1299406092043,-3.0,0.0,-1.0,0,2,0,0,0,0,0,0.00,0.00,10.40,
5.147,117.34168243756217,81.10299406092042,-2.0,0.0,-1.0,0,2,0,0,0,0,0,0.00,0.00,10.30,
5.161,117.34016824375622,81.10029940609203,-2.0,0.0,-1.0,0,2,0,0,0,0,0,0.00,0.00,10.30,
5.175,117.38501682437561,81.12702994060919,-2.0,0.0,-1.0,0,2,0,0,0,0,0,0.00,0.00,10.30,
5.189,117.39850168243757,81.11170299406092,-2.0,0.0,-1.0,0,2,0,0,0,0,0,0.00,0.00,10.30,
5.202,117.39085016824374,81.1101702994061,-2.0,0.0,-2.0,0,2,0,0,0,0,0,0.00,0.00,10.30,
5.217,117.75008501682439,81.04701702994062,-3.0,2.0,-3.0,0,2,0,0,0,0,0,0.00,0.00,10.40,
5.23,117.62400850168244,81.09470170299406,-2.0,0.0,-1.0,0,2,0,1,0,0,0,0.00,0.00,10.30,
5.244,117.53940085016825,81.0544701702994,-2.0,0.0,-2.0,0,2,0,1,0,0,0,0.00,0.00,10.40,
5.258,117.46794008501682,81.00544701702995,-2.0,0.0,-2.0,0,2,0,1,0,0,0,0.00,0.00,10.50,
5.272,117.33479400850167,81.01854470170298,-1.0,0.0,-1.0,0,2,0,1,0,0,0,0.00,0.00,10.59,
5.285,117.29447940085018,81.09185447017029,-1.0,0.0,-2.0,0,2,0,1,0,0,0,0.00,0.00,10.79,
5.3,117.380447940085,81.10818544701702,-1.0,1.0,-2.0,0,2,0,1,0,0,0,0.00,0.00,10.79,
5.313,117.3530447940085,81.2178185447017,-1.0,1.0,-2.0,0,2,0,1,0,0,0,0.00,0.00,10.89,
5.327,117.30530447940085,81.23778185447017,-1.0,1.0,-2.0,0,2,0,1,0,0,0,0.00,0.00,11.09,
5.341,117.28253044794009,81.25777818544702,-1.0,1.0,-2.0,0,2,0,1,0,0,0,0.00,0.00,11.28,
5.355,117.325253044794,81.2507778185447,0.0,1.0,-2.0,0,2,0,1,0,0,0,0.00,0.00,11.38,
5.368,117.41952530447941,81.30407778185447,0.0,0.0,-1.0,0,2,0,1,0,0,0,0.00,0.00,11.58,
5.382,117.46495253044793,81.37240777818545,0.0,0.0,-1.0,0,2,0,1,0,0,0,0.00,0.00,11.67,
5.396,117.46949525304478,81.38824077781855,0.0,0.0,-2.0,0,2,0,1,0,0,0,0.00,0.00,11.87,
5.409,117.43394952530448,81.38982407778185,-1.0,0.0,-2.0,0,2,0,1,0,0,0,0.00,0.00,11.87,
5.424,117.48439495253045,81.41698240777819,-1.0,0.0,-2.0,0,2,0,0,0,0,1,0.00,0.00,11.97,
5.438,117.45343949525304,81.52769824077782,-1.0,0.0,-3.0,0,2,0,0,0,0,1,0.00,0.00,12.26,
5.451,117.3963439495253,81.52976982407779,-1.0,1.0,-2.0,0,2,0,0,0,0,1,0.00,0.00,12.36,
5.466,117.46263439495253,81.46697698240777,-2.0,1.0,-2.0,0,2,0,0,0,0,1,0.00,0.00,12.36,
5.48,117.54126343949525,81.43369769824078,-2.0,1.0,-2.0,0,2,0,0,0,0,1,0.00,0.00,12.46,
5.494,117.65712634394953,81.44836976982408,-2.0,1.0,-3.0,0,2,0,0,0,0,1,0.00,0.00,12.56,
5.508,117.66871263439495,81.57583697698242,-2.0,1.0,-3.0,0,2,0,0,0,0,1,0.00,0.00,12.75,
5.522,117.6878712634395,81.64258369769826,-2.0,0.0,-3.0,0,2,0,0,0,0,1,0.00,0.00,12.75,
5.536,117.68978712634396,81.68525836976983,-2.0,0.0,-2.0,0,2,0,0,0,0,1,0.00,0.00,12.65,
5.551,117.70797871263439,81.77952583697699,-3.0,0.0,-2.0,0,2,0,0,0,0,1,0.00,0.00,12.65,
5.564,117.70979787126343,81.88795258369771,-3.0,0.0,-2.0,0,2,0,0,0,0,1,0.00,0.00,12.56,
5.578,117.70997978712633,81.88079525836976,-3.0,0.0,-1.0,0,2,0,0,0,0,1,0.00,0.00,12.46,
5.593,117.62899797871263,81.83507952583697,-3.0,0.0,-1.0,0,2,0,0,0,0,1,0.00,0.00,12.36,
5.606,117.61189979787126,81.7765079525837,-3.0,0.0,-1.0,0,2,0,0,0,0,1,0.00,0.00,12.36,
5.62,117.56518997978712,81.72565079525837,-3.0,0.0,-1.0,0,2,0,0,0,0,1,0.00,0.00,12.36,
5.635,117.56951899797872,81.65756507952585,-3.0,0.0,-1.0,0,2,0,0,0,0,1,0.00,0.00,12.26,
5.648,117.63295189979787,81.60575650795258,-4.0,0.0,-1.0,0,2,0,0,0,0,1,0.00,0.00,12.07,
5.662,117.60329518997979,81.60957565079525,-4.0,1.0,-2.0,0,2,0,0,0,0,1,0.00,0.00,11.87,
5.677,117.58232951899798,81.62795756507953,-4.0,1.0,-2.0,0,2,0,0,0,0,1,0.00,0.00,11.67,
5.69,117.6432329518998,81.78279575650795,-5.0,1.0,-1.0,0,2,0,0,0,0,1,0.00,0.00,11.58,
5.704,117.67632329518999,81.7532795756508,-5.0,1.0,0.0,0,2,0,0,0,0,1,0.00,0.00,11.48,
5.718,117.77863232951901,81.62432795756507,-5.0,0.0,-1.0,0,2,0,0,0,0,1,0.00,0.00,11.38,
5.732,117.8518632329519,81.5034327957565,-5.0,0.0,-1.0,0,2,0,0,0,0,1,0.00,0.00,11.28,
5.745,117.8411863232952,81.37434327957565,-5.0,0.0,-1.0,0,2,0,0,0,0,1,0.00,0.00,11.18,
5.76,117.81311863232953,81.30743432795757,-5.0,0.0,-1.0,0,2,0,0,0,0,0,0.00,0.00,11.09,
5.773,117.78331186323297,81.20174343279575,-4.0,1.0,-1.0,0,2,0,0,0,0,0,0.00,0.00,11.09,
5.787,117.80733118632331,81.08317434327957,-4.0,0.0,-1.0,0,2,0,0,0,0,0,0.00,0.00,10.99,
5.8,117.74673311863232,81.08031743432795,-4.0,1.0,-2.0,0,2,0,0,0,0,0,0.00,0.00,10.99,
5.815,117.75867331186323,81.05303174343278,-4.0,1.0,-2.0,0,2,0,0,0,0,0,0.00,0.00,10.99,
5.828,117.79586733118632,81.01430317434328,-4.0,2.0,-2.0,0,2,0,0,0,0,0,0.00,0.00,10.89,
5.842,117.82658673311863,80.94743031743432,-4.0,2.0,-2.0,0,2,0,0,0,0,0,0.00,0.00,10.89,
5.856,117.89265867331187,80.94974303174344,-4.0,2.0,-2.0,0,2,0,0,0,0,0,0.00,0.00,10.89,
5.87,117.93526586733118,80.98597430317433,-4.0,2.0,-1.0,0,2,0,0,0,0,0,0.00,0.00,10.79,
5.883,117.96652658673312,80.96259743031742,-4.0,1.0,-1.0,0,2,0,0,0,0,0,0.00,0.00,10.79,
5.898,117.93365265867332,81.02325974303174,-3.0,1.0,0.0,0,2,0,0,0,0,0,0.00,0.00,10.79,
5.911,118.04736526586734,81.04732597430316,-3.0,0.0,0.0,0,2,0,0,0,0,0,0.00,0.00,10.69,
5.925,118.21173652658675,80.9687325974303,-3.0,0.0,0.0,0,2,0,0,0,0,0,0.00,0.00,10.59,
5.939,118.39917365265867,80.82587325974303,-3.0,0.0,0.0,0,2,0,0,0,0,0,0.00,0.00,10.30,
5.953,118.58891736526586,80.64058732597431,-2.0,-1.0,-1.0,0,2,0,0,0,0,0,0.00,0.00,10.01,
5.966,118.55389173652658,80.60405873259742,-2.0,-1.0,-1.0,0,2,0,0,0,0,0,0.00,0.00,9.91,
6.401,116.50738917365265,80.36640587325975,-7.0,-1.0,-1.0,0,2,0,0,0,0,0,0.00,0.00,1.37,
6.414,116.44673891736527,79.99164058732597,-6.0,0.0,-2.0,0,2,0,0,0,0,0,0.00,0.00,1.57,
6.427,116.68367389173653,79.78316405873261,-6.0,0.0,-2.0,0,2,0,0,0,0,0,0.00,0.00,1.96,
6.441,116.91436738917365,79.89731640587326,-7.0,-1.0,-2.0,0,2,0,0,0,0,0,0.00,0.00,2.16,
6.455,117.02743673891737,80.12473164058733,-8.0,-2.0,-2.0,0,2,0,0,0,0,0,0.00,0.00,2.35,
6.468,117.12874367389173,79.65247316405873,-8.0,-3.0,-2.0,0,2,0,0,0,0,0,0.00,0.00,2.55,
6.482,117.08487436738918,78.84924731640587,-6.0,-3.0,-3.0,0,2,0,0,0,0,0,0.00,0.00,2.75,
6.496,116.94548743673893,78.37292473164058,-4.0,-2.0,-5.0,0,2,0,0,0,0,0,0.00,0.00,3.34,
6.509,116.9225487436739,78.10029247316405,-2.0,-2.0,-7.0,0,2,0,0,0,0,0,0.00,0.00,3.73,
6.523,116.8122548743674,77.9020292473164,0.0,-1.0,-10.0,0,2,0,0,0,0,0,0.00,0.00,4.41,
6.537,116.37822548743674,77.79220292473165,1.0,0.0,-13.0,0,2,0,0,0,0,0,0.00,0.00,5.30,
6.551,115.92982254874367,77.89822029247317,3.0,4.0,-14.0,0,2,0,0,0,0,0,0.00,0.00,7.75,
6.564,116.10998225487435,78.07982202924731,5.0,5.0,-15.0,0,2,0,0,0,0,0,0.00,0.00,9.52,
6.579,116.60499822548744,78.38598220292474,6.0,4.0,-15.0,0,2,0,0,0,0,0,0.00,0.00,11.97,
6.593,116.79849982254873,78.74959822029247,9.0,1.0,-15.0,0,2,0,0,0,0,0,0.00,0.00,15.21,
6.606,116.84484998225486,79.15495982202924,11.0,0.0,-13.0,0,3,0,0,0,0,0,0.00,0.00,22.56,
6.621,116.78648499822549,79.78949598220292,13.0,0.0,-12.0,1,3,1,0,0,0,0,0.00,0.00,26.59,
6.635,116.75364849982255,80.16794959822029,13.0,0.0,-11.0,1,3,1,0,0,0,1,0.00,0.00,30.71,
6.649,116.66036484998227,80.78179495982202,12.0,0.0,-10.0,1,3,1,0,0,0,1,0.00,0.00,39.73,
6.664,116.49803648499824,81.39217949598219,10.0,1.0,-11.0,1,3,1,1,0,0,1,0.00,0.00,43.95,
6.677,116.32880364849983,81.83121794959821,10.0,2.0,-8.0,1,3,1,1,0,0,1,0.00,0.00,47.87,
6.691,116.29388036484998,82.44212179495982,6.0,3.0,-9.0,1,4,1,1,1,0,1,0.00,0.00,51.40,
6.706,116.434388036485,83.07021217949598,4.0,2.0,-8.0,1,4,1,1,1,0,1,0.00,0.00,57.98,
6.719,116.8174388036485,83.2050212179496,3.0,0.0,-7.0,1,4,1,1,1,0,1,0.00,0.00,60.72,
6.733,117.12574388036485,83.12850212179497,3.0,-2.0,-6.0,1,4,1,1,1,0,1,0.00,0.00,62.88,
6.748,117.2915743880365,83.21985021217951,2.0,-5.0,-5.0,1,4,1,1,1,0,1,0.00,0.00,64.35,
6.762,117.08315743880365,83.43598502121795,1.0,-6.0,-5.0,1,4,1,1,1,0,1,0.00,0.00,66.32,
6.775,116.97231574388036,83.6015985021218,0.0,-5.0,-5.0,1,4,1,1,1,0,1,0.00,0.00,66.51,
6.79,116.72723157438803,83.69015985021218,-1.0,-4.0,-6.0,1,4,1,1,1,0,1,0.00,0.00,66.41,
6.804,116.5227231574388,83.72601598502122,-3.0,-3.0,-6.0,1,4,1,1,1,0,1,0.00,0.00,66.12,
6.818,116.27727231574387,83.87360159850212,-5.0,-2.0,-6.0,1,3,1,1,0,0,1,0.00,0.00,65.33,
6.832,116.25272723157438,83.8523601598502,-7.0,-2.0,-6.0,1,3,1,1,0,0,1,0.00,0.00,64.75,
6.846,116.43027272315744,83.76023601598502,-8.0,-3.0,-7.0,1,3,1,1,0,0,1,0.00,0.00,63.96,
6.86,116.41202727231575,83.50802360159851,-8.0,-3.0,-7.0,1,3,1,1,0,0,1,0.00,0.00,62.10,
6.875,116.53620272723157,83.20380236015986,-7.0,-4.0,-7.0,1,3,1,1,0,0,1,0.00,0.00,61.31,
6.889,116.85462027272317,82.79538023601599,-5.0,-6.0,-6.0,1,3,1,1,0,0,1,0.00,0.00,60.53,
6.903,116.86846202727232,82.6375380236016,-2.0,-6.0,-7.0,1,3,1,1,0,0,1,0.00,0.00,60.04,
6.917,116.84284620272723,82.49575380236016,0.0,-6.0,-8.0,1,3,1,1,0,0,1,0.00,0.00,59.74,
6.931,116.58828462027273,82.42757538023601,2.0,-5.0,-8.0,1,3,1,1,0,0,1,0.00,0.00,59.84,
6.945,116.49082846202728,82.6007575380236,1.0,-4.0,-10.0,1,3,1,1,0,0,1,0.00,0.00,60.04,
6.96,116.40908284620274,82.73507575380236,0.0,-3.0,-11.0,1,3,1,1,0,0,1,0.00,0.00,60.53,
6.974,116.22990828462027,82.92850757538024,0.0,-3.0,-12.0,1,3,1,1,0,0,1,0.00,0.00,62.69,
6.987,116.12199082846202,83.06485075753803,0.0,-4.0,-11.0,1,3,1,1,0,0,1,0.00,0.00,63.96,
7.002,115.98519908284621,83.44748507575379,0.0,-6.0,-8.0,1,3,1,1,0,0,1,0.00,0.00,65.53,
7.016,116.01651990828461,83.87274850757538,0.0,-9.0,-4.0,1,3,1,1,0,0,1,0.00,0.00,67.59,
7.03,115.96565199082845,84.03227485075753,2.0,-13.0,-1.0,1,3,1,1,0,0,1,0.00,0.00,67.89,
7.044,115.88856519908285,84.07522748507574,4.0,-15.0,1.0,1,4,1,1,0,0,1,0.00,0.00,67.69,
7.058,115.57485651990828,84.22352274850758,4.0,-15.0,2.0,1,4,1,1,0,0,1,0.00,0.00,67.00,
7.072,115.23748565199084,84.47235227485075,3.0,-14.0,2.0,1,4,1,1,0,0,1,0.00,0.00,64.06,
7.087,114.71774856519909,84.60523522748508,1.0,-10.0,2.0,1,4,1,1,0,0,1,0.00,0.00,62.59,
7.1,114.2787748565199,84.69952352274849,0.0,-7.0,0.0,1,4,1,1,0,0,1,0.00,0.00,61.31,
7.114,114.261877485652,84.61895235227485,0.0,-5.0,-2.0,1,3,1,1,1,1,1,0.00,0.00,60.63,
7.129,114.34118774856519,84.57489523522749,0.0,-4.0,-2.0,1,3,1,1,1,1,1,0.00,0.00,60.53,
7.142,114.54711877485651,84.57048952352275,0.0,-4.0,-3.0,1,3,1,1,1,1,1,0.00,0.00,60.72,
7.156,115.06271187748565,84.35404895235229,-2.0,0.0,-3.0,1,3,1,1,1,1,1,0.00,0.00,61.21,
7.171,115.55527118774857,84.68340489523523,0.0,-7.0,-4.0,1,3,1,1,1,1,1,0.00,0.00,61.90,
7.185,115.55052711877485,84.62634048952353,0.0,-9.0,-5.0,1,3,1,1,1,1,1,0.00,0.00,62.39,
7.198,115.30705271187749,84.80063404895235,0.0,-9.0,-4.0,1,4,1,1,1,1,2,0.00,0.00,63.18,
7.213,115.03970527118774,84.87206340489523,0.0,-10.0,-2.0,1,4,1,1,1,1,2,0.00,0.00,63.67,
7.227,114.73397052711877,85.22120634048953,0.0,-9.0,-2.0,1,4,1,1,1,1,2,0.00,0.00,64.65,
7.241,114.43339705271188,85.24712063404895,0.0,-8.0,-1.0,1,4,1,1,1,1,2,0.00,0.00,64.94,
7.255,114.06133970527118,85.31271206340489,-1.0,-7.0,-1.0,1,4,1,1,1,1,2,0.00,0.00,65.14,
7.269,113.85313397052713,85.2112712063405,-2.0,-6.0,-2.0,1,4,1,1,1,1,2,0.00,0.00,65.14,
7.283,113.75131339705271,84.99412712063405,-1.0,-5.0,-4.0,1,4,1,1,1,1,2,0.00,0.00,64.55,
7.298,113.82213133970527,84.8734127120634,0.0,-5.0,-5.0,1,4,1,1,1,1,2,0.00,0.00,64.06,
7.312,113.79321313397053,84.78934127120634,1.0,-6.0,-6.0,1,4,1,1,1,1,2,0.00,0.00,63.57,
7.325,113.58332131339705,84.90693412712064,1.0,-6.0,-5.0,1,4,1,1,1,1,2,0.00,0.00,63.08,
7.34,113.3283321313397,84.99969341271206,1.0,-6.0,-4.0,1,4,1,1,1,1,2,0.00,0.00,61.51,
7.354,113.08683321313397,85.31496934127121,0.0,-5.0,-3.0,1,4,1,2,1,1,2,0.00,0.00,60.63,
7.368,112.9636833213134,85.58049693412713,-1.0,-5.0,-1.0,1,4,1,2,1,1,2,0.00,0.00,59.74,
7.382,112.89736833213134,85.6250496934127,-1.0,-5.0,0.0,1,4,1,2,1,1,2,0.00,0.00,57.88,
7.396,112.91773683321313,85.59350496934127,-1.0,-5.0,0.0,1,3,1,2,1,1,2,0.00,0.00,56.90,
7.41,113.00977368332131,85.45535049693413,-1.0,-7.0,-2.0,1,3,1,1,1,1,2,0.00,0.00,55.72,
7.425,113.09097736833212,85.31553504969341,0.0,-8.0,-4.0,1,3,1,1,1,1,2,0.00,0.00,54.05,
7.438,113.16209773683322,85.27455350496933,0.0,-10.0,-4.0,1,3,1,1,0,1,1,0.00,0.00,49.44,
7.452,113.07020977368333,85.41445535049695,1.0,-11.0,-4.0,1,2,1,1,0,1,1,0.00,0.00,46.21,
7.467,113.15102097736832,85.3024455350497,2.0,-12.0,-5.0,1,2,0,1,0,1,1,0.00,0.00,42.58,
7.481,113.54610209773683,85.70524455350497,3.0,-18.0,-4.0,1,2,0,1,0,0,1,0.00,0.00,38.75,
7.495,113.72961020977368,86.06952445535049,2.0,-21.0,-2.0,0,2,0,1,0,0,1,0.00,0.00,29.43,
7.508,113.78396102097737,85.23295244553505,6.0,-24.0,2.0,0,2,0,1,0,0,0,0.00,0.00,23.94,
7.523,114.41039610209775,85.50029524455351,5.0,-25.0,6.0,0,1,0,1,0,0,0,0.00,0.00,18.84,
7.536,114.99503961020977,85.42802952445535,-2.0,-27.0,7.0,0,1,0,0,0,0,0,0.00,0.00,14.32,
7.55,115.51250396102097,85.60980295244553,-9.0,-23.0,4.0,0,1,0,0,0,0,0,0.00,0.00,6.97,
7.564,116.22125039610209,86.74398029524455,-14.0,-21.0,-1.0,0,1,0,0,0,0,0,0.00,0.00,4.02,
7.578,116.91312503961021,87.23539802952446,-16.0,-14.0,-3.0,0,1,0,0,0,0,0,0.00,0.00,2.16,
7.591,116.87431250396102,88.05853980295245,-14.0,0.0,2.0,0,1,0,0,0,0,0,0.00,0.00,1.08,
7.605,116.5014312503961,88.37485398029524,-12.0,13.0,16.0,0,1,0,0,0,0,0,0.00,0.00,0.00,
7.618,115.60014312503961,87.59648539802953,-10.0,27.0,20.0,0,1,0,0,0,0,0,0.00,0.00,0.00,
7.631,114.51101431250396,85.60164853980295,-6.0,36.0,15.0,0,1,0,0,0,0,0,0.00,0.00,0.00,
7.646,112.8361014312504,81.9371648539803,-4.0,32.0,0.0,0,1,0,0,0,0,0,0.00,0.00,0.00,
7.659,108.88861014312504,77.69171648539803,-10.0,8.0,-30.0,0,2,0,0,0,0,0,0.00,0.00,0.00,
7.672,103.2378610143125,77.41117164853979,4.0,-11.0,-73.0,0,2,0,0,0,0,0,0.00,-2403.94,1.67,
7.695,101.01678610143125,80.74011716485397,12.0,-19.0,-26.0,0,2,0,0,0,0,0,0.00,0.00,4.32,
7.709,101.65867861014313,81.82901171648541,-9.0,5.0,-12.0,0,2,0,0,0,0,0,0.00,0.00,5.89,
7.723,102.49686786101431,82.24390117164855,-12.0,22.0,-8.0,0,2,0,1,0,0,1,0.00,0.00,7.75,
7.737,103.63368678610144,82.92439011716486,-15.0,33.0,-2.0,1,2,0,1,0,0,1,0.00,0.00,12.07,
7.751,105.61036867861014,82.62343901171648,-11.0,25.0,-5.0,1,2,0,1,0,0,1,0.00,0.00,14.42,
7.766,108.02203686786102,81.82834390117165,0.0,17.0,-4.0,1,2,0,1,0,0,1,0.00,0.00,16.58,
7.78,110.5042036867861,81.67683439011716,3.0,10.0,-10.0,1,3,1,1,0,0,1,0.00,0.00,18.64,
7.793,111.76042036867861,81.61668343901171,8.0,6.0,-10.0,1,3,1,1,1,0,1,0.00,0.00,22.86,
7.808,111.95804203686787,82.48366834390117,10.0,5.0,-9.0,1,3,1,1,1,0,1,0.00,0.00,24.92,
7.822,111.60880420368679,83.4613668343901,4.0,7.0,-5.0,1,3,1,1,2,0,2,0.00,0.00,26.88,
7.836,111.42988042036868,84.13513668343901,1.0,4.0,-5.0,1,3,1,1,2,1,2,0.00,0.00,28.65,
7.849,111.32198804203686,84.67951366834389,0.0,6.0,0.0,1,3,1,1,3,1,2,0.00,0.00,31.49,
7.864,111.38319880420369,85.03095136683439,1.0,6.0,2.0,1,4,1,1,3,1,2,0.00,0.00,33.06,
7.877,111.71331988042037,85.13809513668345,1.0,6.0,1.0,1,4,1,1,3,1,2,0.00,0.00,34.63,
7.891,112.36733198804203,85.03180951366835,3.0,4.0,-1.0,1,4,1,2,3,1,2,0.00,0.00,36.49,
7.906,112.9547331988042,84.94918095136683,5.0,2.0,-2.0,1,4,1,2,4,1,2,0.00,0.00,39.93,
7.919,113.13047331988042,85.03091809513668,6.0,0.0,-4.0,1,4,1,2,4,1,3,0.00,0.00,41.40,
7.933,113.00404733198805,85.38109180951366,5.0,1.0,-4.0,1,5,1,2,4,1,3,0.00,0.00,42.67,
7.948,112.72140473319881,85.88410918095137,3.0,2.0,-3.0,1,4,1,2,4,1,3,0.00,0.00,43.85,
7.961,112.54914047331988,86.25841091809514,0.0,3.0,-1.0,1,5,1,2,4,1,3,0.00,0.00,45.62,
7.975,112.51391404733198,86.58384109180952,0.0,4.0,-1.0,1,5,1,2,4,1,3,0.00,0.00,46.50,
7.99,112.6183914047332,86.80538410918095,-1.0,5.0,0.0,1,5,1,2,4,2,3,0.00,0.00,47.38,
8.003,112.83583914047331,86.84553841091808,-2.0,4.0,0.0,1,5,1,2,4,2,3,0.00,0.00,49.44,
8.017,113.10058391404732,86.79555384109182,-3.0,3.0,-1.0,1,5,1,2,4,2,3,0.00,0.00,50.62,
8.032,113.47805839140472,86.65555538410918,-3.0,3.0,-2.0,1,5,1,2,4,2,3,0.00,0.00,51.60,
8.045,113.62380583914046,86.51555553841092,-3.0,3.0,-3.0,1,5,1,2,4,2,3,0.00,0.00,52.48,
8.059,113.65638058391404,86.54655555384109,-2.0,3.0,-3.0,1,5,1,2,4,2,3,0.00,0.00,54.45,
8.074,113.5426380583914,86.62165555538411,-2.0,4.0,-2.0,1,5,1,2,4,2,3,0.00,0.00,55.33,
8.088,113.54926380583913,86.67416555553842,-3.0,4.0,-2.0,1,5,1,2,4,2,3,0.00,0.00,56.51,
8.101,113.5499263805839,86.71541655555384,-4.0,4.0,-1.0,1,5,1,2,4,2,3,0.00,0.00,57.49,
8.116,113.71199263805839,86.67454165555539,-5.0,4.0,0.0,1,5,1,2,4,2,3,0.00,0.00,59.94,
8.13,113.88119926380584,86.58045416555554,-5.0,4.0,0.0,1,5,1,2,4,2,3,0.00,0.00,61.12,
8.143,113.92511992638059,86.54404541655556,-6.0,3.0,-1.0,1,5,1,2,4,2,3,0.00,0.00,62.29,
8.158,114.01951199263806,86.51340454165556,-6.0,3.0,-1.0,1,5,1,2,4,2,3,0.00,0.00,63.37,
8.172,114.0649511992638,86.50134045416556,-7.0,2.0,-1.0,1,5,1,2,4,2,3,0.00,0.00,64.94,
8.186,114.11449511992639,86.51813404541655,-8.0,3.0,-1.0,1,5,1,2,3,1,3,0.00,0.00,65.63,
8.2,114.20044951199264,86.33081340454166,-8.0,3.0,-1.0,1,5,1,2,3,1,2,0.00,0.00,66.22,
8.214,114.24504495119926,86.21308134045417,-8.0,3.0,-1.0,1,5,1,2,3,1,2,0.00,0.00,443.80,
8.237,114.33950449511991,86.08430813404541,-7.0,2.0,-1.0,1,5,1,2,3,1,2,0.00,0.00,68.87,
8.251,114.465950449512,85.87343081340454,-5.0,2.0,-1.0,1,4,1,2,2,1,2,0.00,0.00,69.65,
8.264,114.5415950449512,85.69934308134046,-3.0,2.0,-1.0,1,4,1,2,2,1,2,0.00,0.00,70.44,
8.279,114.48615950449513,85.69093430813405,-3.0,1.0,-1.0,1,4,1,2,2,1,2,0.00,0.00,71.22,
8.293,114.5256159504495,85.80709343081341,-3.0,1.0,0.0,1,5,1,2,2,1,2,0.00,0.00,72.10,
8.306,114.48456159504497,85.89070934308134,-3.0,1.0,0.0,1,5,1,2,2,1,2,0.00,0.00,72.40,
8.321,114.60645615950449,85.82707093430813,-4.0,0.0,0.0,1,5,1,2,2,1,2,0.00,0.00,72.50,
8.335,114.69064561595044,85.82970709343081,-5.0,0.0,0.0,1,5,1,2,2,1,2,0.00,0.00,72.69,
8.348,114.75306456159505,85.79397070934309,-5.0,0.0,0.0,1,5,1,2,2,1,2,0.00,0.00,72.99,
8.363,114.6873064561595,85.65539707093431,-5.0,-1.0,0.0,1,5,1,2,2,1,2,0.00,0.00,72.99,
8.377,114.71673064561595,85.55153970709344,-5.0,-2.0,0.0,1,5,1,2,2,1,2,0.00,0.00,72.89,
8.39,114.64767306456159,85.49615397070934,-6.0,-2.0,0.0,1,4,1,2,2,1,2,0.00,0.00,72.79,
8.404,114.60476730645615,85.42761539707094,-6.0,-3.0,0.0,1,4,1,2,2,1,2,0.00,0.00,71.61,
8.419,114.56447673064561,85.2767615397071,-4.0,-3.0,0.0,1,4,1,2,2,1,1,0.00,0.00,70.63,
8.433,114.54244767306457,85.0726761539707,-2.0,-2.0,0.0,1,4,1,2,1,1,1,0.00,0.00,69.55,
8.446,114.45924476730646,85.16926761539708,-3.0,-2.0,0.0,1,4,1,2,1,1,1,0.00,0.00,68.38,
8.461,114.39692447673065,85.24192676153972,-4.0,-2.0,0.0,1,4,1,2,1,0,1,0.00,0.00,66.61,
8.475,114.46269244767306,85.24019267615397,-5.0,-2.0,0.0,1,4,1,2,1,0,1,0.00,0.00,65.92,
8.489,114.5142692447673,85.19501926761541,-5.0,-2.0,0.0,1,4,1,2,1,0,1,0.00,0.00,65.33,
8.503,114.39342692447673,85.12750192676154,-5.0,-2.0,-1.0,1,4,1,2,1,0,1,0.00,0.00,64.35,
8.517,114.36334269244767,85.12075019267616,-5.0,-2.0,-1.0,1,4,1,1,1,0,1,0.00,0.00,63.86,
8.531,114.42333426924478,85.11107501926762,-5.0,-2.0,0.0,1,4,1,1,0,0,1,0.00,0.00,63.27,
8.546,114.36633342692448,85.11910750192676,-5.0,-3.0,0.0,1,4,1,1,0,0,1,0.00,0.00,62.88,
8.559,114.35163334269244,85.06591075019267,-4.0,-3.0,0.0,1,4,1,1,0,0,1,0.00,0.00,62.29,
8.573,114.26916333426925,84.98859107501926,-3.0,-3.0,0.0,1,4,1,1,0,0,1,0.00,0.00,61.70,
8.588,114.32391633342692,84.79185910750192,-1.0,-3.0,0.0,1,4,1,1,0,0,1,0.00,0.00,61.31,
8.602,114.3653916333427,84.8621859107502,0.0,-3.0,0.0,1,4,1,1,0,0,1,0.00,0.00,60.92,
8.615,114.36053916333427,84.84221859107502,0.0,-3.0,-1.0,1,4,1,1,0,0,1,0.00,0.00,60.72,
8.63,114.25205391633342,84.81322185910751,0.0,-3.0,-1.0,1,4,1,2,0,0,1,0.00,0.00,60.53,
8.644,114.10620539163335,84.92732218591075,0.0,-2.0,-1.0,1,4,1,2,0,0,1,0.00,0.00,60.23,
8.657,113.94762053916334,85.09173221859108,-1.0,-2.0,-1.0,1,4,1,2,0,0,1,0.00,0.00,59.84,
8.672,113.82376205391634,85.24317322185911,-2.0,-2.0,-1.0,1,4,1,2,1,0,1,0.00,0.00,58.96,
8.686,113.78437620539164,85.24931732218592,-3.0,-2.0,-1.0,1,4,1,2,1,0,1,0.00,0.00,58.37,
8.7,113.76243762053916,85.21393173221858,-3.0,-2.0,-1.0,1,4,1,2,1,0,1,0.00,0.00,57.78,
8.715,113.81424376205392,85.18339317322186,-3.0,-2.0,0.0,1,4,1,2,1,0,1,0.00,0.00,56.90,
8.728,113.77442437620539,85.09033931732219,-3.0,-2.0,0.0,1,4,1,2,1,0,1,0.00,0.00,56.51,
8.742,113.76144243762053,84.99103393173222,-2.0,-2.0,-1.0,1,4,1,2,1,0,1,0.00,0.00,56.21,
8.757,113.72414424376205,84.98110339317321,-3.0,-2.0,-1.0,1,4,1,2,1,0,1,0.00,0.00,55.72,
8.771,113.7114144243762,84.91711033931732,-3.0,-2.0,-2.0,1,4,1,1,1,0,1,0.00,0.00,55.23,
8.785,113.68314144243763,84.86571103393173,-3.0,-2.0,-2.0,1,4,1,1,0,0,1,0.00,0.00,54.84,
8.8,113.60831414424375,84.86057110339317,-3.0,-2.0,-3.0,1,4,1,1,0,0,1,0.00,0.00,54.45,
8.813,113.51083141442437,84.86005711033931,-3.0,-1.0,-3.0,1,4,1,1,0,0,1,0.00,0.00,54.05,
8.827,113.45608314144243,84.85100571103392,-3.0,-1.0,-3.0,1,4,1,1,0,0,1,0.00,0.00,53.07,
8.842,113.46860831414425,84.93110057110339,-3.0,-1.0,-3.0,1,4,1,1,0,0,1,0.00,0.00,52.68,
8.856,113.51486083141441,84.93911005711034,-4.0,-1.0,-3.0,1,4,1,1,0,0,1,0.00,0.00,52.29,
8.87,113.47448608314144,85.02091100571103,-4.0,-1.0,-3.0,1,4,1,1,0,0,1,0.00,0.00,51.70,
8.884,113.44344860831414,84.9930911005711,-4.0,-1.0,-3.0,1,4,1,1,0,0,1,0.00,0.00,51.50,
8.898,113.5123448608314,84.8643091100571,-4.0,-1.0,-4.0,1,4,1,1,0,0,1,0.00,0.00,51.40,
8.912,113.53723448608315,84.79743091100572,-3.0,-2.0,-3.0,1,4,1,1,0,0,1,0.00,0.00,51.31,
8.927,113.51272344860831,84.70074309110058,-2.0,-2.0,-3.0,1,4,1,1,0,0,1,0.00,0.00,51.11,
8.941,113.55527234486084,84.64607430911006,0.0,-2.0,-2.0,1,4,1,1,0,0,1,0.00,0.00,51.11,
8.954,113.53252723448608,84.649607430911,0.0,-2.0,-3.0,1,4,1,1,0,0,1,0.00,0.00,50.91,
8.969,113.51225272344861,84.7129607430911,0.0,-2.0,-2.0,1,4,1,1,0,0,1,0.00,0.00,50.82,
8.983,113.52822527234487,84.7642960743091,0.0,-3.0,-3.0,1,4,1,1,0,0,1,0.00,0.00,50.62,
8.997,113.44882252723448,84.87742960743091,0.0,-3.0,-2.0,1,4,1,1,0,0,1,0.00,0.00,50.62,
9.011,113.39588225272345,84.93374296074309,0.0,-3.0,-3.0,1,4,1,1,0,0,1,0.00,0.00,50.62,
9.025,113.32758822527234,85.02937429607431,0.0,-3.0,-2.0,1,4,1,1,0,0,1,0.00,0.00,50.33,
9.039,113.24875882252722,85.20993742960744,0.0,-3.0,-2.0,1,4,1,1,0,0,1,0.00,0.00,50.13,
9.054,113.14187588225272,85.22799374296075,0.0,-3.0,-2.0,1,4,1,1,0,0,1,0.00,0.00,49.83,
9.067,113.04118758822527,85.28379937429608,0.0,-3.0,-2.0,1,4,1,1,0,0,1,0.00,0.00,49.44,
9.081,112.98611875882253,85.3523799374296,-1.0,-3.0,-2.0,1,4,1,1,0,0,1,0.00,0.00,48.66,
9.096,112.91761187588224,85.42223799374297,-1.0,-3.0,-3.0,1,4,1,1,0,0,1,0.00,0.00,48.27,
9.11,112.91076118758822,85.4562237993743,-2.0,-3.0,-3.0,1,4,1,1,0,0,1,0.00,0.00,47.87,
9.124,112.91907611875882,85.38762237993743,-2.0,-3.0,-3.0,1,4,1,1,0,0,1,0.00,0.00,47.38,
9.138,112.86590761187588,85.45276223799374,-2.0,-2.0,-2.0,1,4,1,1,0,0,1,0.00,0.00,46.79,
9.152,112.80659076118758,85.45927622379938,-2.0,-2.0,-3.0,1,4,1,1,0,0,1,0.00,0.00,46.60,
9.166,112.77365907611875,85.39692762237993,-2.0,-2.0,-3.0,1,4,1,1,0,0,1,0.00,0.00,46.11,
9.181,112.72536590761187,85.399692762238,-2.0,-1.0,-3.0,1,4,1,1,0,0,1,0.00,0.00,45.62,
9.195,112.72053659076118,85.4089692762238,-3.0,-1.0,-3.0,1,4,1,1,0,0,1,0.00,0.00,45.52,
9.209,112.76505365907612,85.45489692762239,-2.0,-1.0,-3.0,1,4,1,1,0,0,1,0.00,0.00,45.52,
9.223,112.80550536590762,85.44148969276223,-3.0,-1.0,-3.0,1,4,1,1,0,0,1,0.00,0.00,45.42,
9.237,112.79155053659076,85.41314896927622,-3.0,-1.0,-3.0,1,4,1,1,0,0,1,0.00,0.00,45.03,
9.251,112.70015505365907,85.38331489692762,-3.0,-1.0,-3.0,1,4,1,1,0,0,1,0.00,0.00,44.73,
9.266,112.62801550536591,85.36233148969276,-3.0,-1.0,-3.0,1,4,1,1,0,0,1,0.00,0.00,44.34,
9.28,112.5218015505366,85.30623314896927,-3.0,-2.0,-3.0,1,4,1,1,0,0,1,0.00,0.00,43.95,
9.294,112.49318015505365,85.30962331489694,-3.0,-2.0,-3.0,1,4,1,1,0,0,1,0.00,0.00,43.07,
9.308,112.48131801550537,85.34596233148969,-3.0,-2.0,-3.0,1,4,1,1,0,0,1,0.00,0.00,42.48,
9.322,112.51613180155053,85.38559623314896,-4.0,-2.0,-3.0,1,4,1,1,0,0,1,0.00,0.00,41.89,
9.336,112.52861318015505,85.0565596233149,0.0,-2.0,-3.0,1,4,1,1,0,0,1,0.00,0.00,40.61,
9.351,112.60186131801551,85.07765596233149,0.0,-2.0,-2.0,1,4,1,1,0,0,1,0.00,0.00,40.02,
9.365,112.68118613180155,85.11576559623315,1.0,-2.0,-2.0,1,4,1,1,0,0,1,0.00,0.00,39.83,
9.378,112.65311861318015,85.19157655962331,1.0,-3.0,-2.0,1,4,1,1,0,0,1,0.00,0.00,39.73,
9.393,112.52431186131801,85.23515765596233,1.0,-3.0,-2.0,1,4,1,1,0,0,1,0.00,0.00,38.46,
9.407,112.3494311861318,85.32951576559624,2.0,-3.0,-2.0,1,4,1,1,0,0,1,0.00,0.00,37.67,
9.421,112.18794311861318,85.44695157655963,1.0,-2.0,-2.0,1,4,1,1,0,0,1,0.00,0.00,36.89,
9.435,112.16279431186132,85.64769515765597,0.0,-2.0,-2.0,1,4,1,1,0,0,1,0.00,0.00,35.90,
9.449,112.20527943118611,85.73076951576559,0.0,-1.0,-2.0,1,4,1,1,0,0,1,0.00,0.00,34.53,
9.463,112.17352794311861,85.85607695157655,-1.0,-2.0,-2.0,1,4,1,1,0,0,1,0.00,0.00,33.75,
9.478,112.16135279431187,85.88660769515765,-2.0,-2.0,-2.0,1,4,1,1,0,0,1,0.00,0.00,33.06,
9.491,112.12413527943119,86.03366076951576,-3.0,-3.0,-2.0,1,3,1,1,0,0,1,0.00,0.00,31.39,
9.505,112.01241352794311,86.07536607695157,-5.0,-3.0,-2.0,1,3,1,1,0,0,1,0.00,0.00,30.51,
9.52,111.82124135279432,86.19653660769515,-7.0,-3.0,-2.0,1,3,1,1,0,0,1,0.00,0.00,29.53,
9.534,111.63112413527942,86.11865366076951,-7.0,-1.0,-1.0,1,3,1,1,0,0,1,0.00,0.00,28.45,
9.967,114.23111241352794,85.66986536607696,-4.0,10.0,1.0,2,6,2,2,3,1,3,0.00,0.00,63.08,
9.981,114.67111124135279,85.5979865366077,-4.0,9.0,1.0,2,6,2,2,3,1,3,0.00,0.00,66.51,
9.996,114.84111112413527,85.60879865366077,-4.0,8.0,1.0,2,6,2,2,4,1,3,0.00,0.00,67.79,
10.009,115.00211111241353,85.60987986536608,-4.0,7.0,2.0,2,6,2,2,3,1,3,0.00,0.00,68.96,
10.023,115.15321111124136,85.5109879865366,-4.0,7.0,2.0,2,6,2,2,3,1,3,0.00,0.00,70.04,
10.038,115.25832111112413,85.40209879865365,-5.0,6.0,2.0,2,6,2,2,3,1,3,0.00,0.00,71.42,
10.052,115.38583211111242,85.29220987986537,-4.0,6.0,2.0,2,6,2,2,3,1,3,0.00,0.00,71.91,
10.065,115.44358321111125,85.20922098798654,-5.0,6.0,3.0,2,6,2,2,3,1,3,0.00,0.00,72.10,
10.08,115.47635832111112,85.35392209879866,-6.0,6.0,3.0,2,6,2,2,3,1,3,0.00,0.00,71.71,
10.094,115.49763583211111,85.32339220987986,-8.0,6.0,4.0,2,6,2,2,3,1,3,0.00,0.00,71.42,
10.107,115.67976358321111,85.03233922098798,-5.0,8.0,4.0,2,6,2,2,3,1,2,0.00,0.00,70.93,
10.122,115.94997635832111,84.7332339220988,-3.0,9.0,2.0,2,6,2,1,3,1,3,0.00,0.00,70.83,
10.136,116.31899763583212,84.43332339220989,-1.0,8.0,2.0,2,6,2,2,4,1,3,0.00,0.00,72.01,
10.15,116.45489976358321,84.49333233922098,0.0,8.0,1.0,2,6,2,2,4,1,3,0.00,0.00,72.69,
10.164,116.57648997635833,84.47233323392209,0.0,8.0,1.0,2,6,2,2,4,1,3,0.00,0.00,73.18,
10.178,116.58864899763584,84.3352333233922,0.0,9.0,2.0,2,6,2,2,4,1,3,0.00,0.00,73.77,
10.192,116.6708648997636,84.30352333233922,3.0,10.0,1.0,2,7,2,2,5,2,3,0.00,0.00,74.95,
10.206,116.87708648997636,84.20135233323393,6.0,11.0,0.0,2,7,2,2,5,2,4,0.00,0.00,75.44,
10.22,117.19470864899763,83.98413523332339,10.0,10.0,1.0,1,7,2,2,5,2,4,0.00,0.00,75.93,
10.234,117.43347086489976,84.34941352333234,12.0,9.0,2.0,1,8,2,2,6,2,4,0.00,0.00,76.52,
10.249,117.61934708648998,84.70994135233323,11.0,7.0,2.0,1,8,2,2,6,2,5,0.00,0.00,76.03,
10.262,117.682934708649,85.11499413523333,8.0,7.0,2.0,1,8,2,2,6,3,5,0.00,0.00,75.14,
10.276,117.5722934708649,85.49749941352334,5.0,7.0,2.0,1,9,2,2,7,3,5,0.00,0.00,74.16,
10.291,117.42622934708649,85.71574994135233,3.0,7.0,0.0,1,9,2,2,7,3,5,0.00,0.00,73.08,
10.304,117.42062293470865,85.83657499413523,2.0,7.0,0.0,1,9,2,2,7,3,5,0.00,0.00,73.08,
10.318,117.46506229347087,85.95665749941352,0.0,7.0,0.0,1,9,2,2,7,3,5,0.00,0.00,73.28,
10.333,117.6585062293471,85.96866574994135,0.0,6.0,0.0,1,10,2,2,7,3,5,0.00,0.00,73.67,
10.346,117.87585062293472,85.89786657499414,-1.0,5.0,0.0,1,10,2,2,7,3,5,0.00,0.00,74.36,
10.36,117.97858506229348,85.87278665749942,-1.0,5.0,0.0,1,10,2,2,7,3,5,0.00,0.00,74.26,
10.375,118.35785850622935,85.83427866574993,0.0,3.0,4.0,1,10,2,2,7,3,6,0.20,0.00,73.87,
10.389,118.55778585062292,85.695427866575,1.0,2.0,10.0,1,10,2,2,7,3,6,3.04,0.00,73.08,
10.403,118.60477858506229,85.79854278665749,3.0,0.0,8.0,1,11,2,2,7,3,6,5.40,0.00,67.89,
10.417,118.64547785850624,85.72785427866575,3.0,-1.0,6.0,1,11,2,2,7,3,6,8.63,0.00,63.57,
10.431,118.73954778585062,85.34278542786657,6.0,0.0,5.0,1,11,2,2,7,3,6,12.16,0.00,59.15,
10.445,118.48795477858505,85.40327854278665,6.0,1.0,2.0,1,11,2,2,7,3,6,19.13,0.00,55.23,
10.46,118.5617954778585,85.23832785427867,5.0,0.0,0.0,1,11,2,2,7,3,6,22.86,0.00,49.54,
10.474,118.38917954778584,85.53683278542786,4.0,1.0,0.0,1,12,2,3,6,3,6,26.59,0.00,47.48,
10.487,118.29091795477858,86.17868327854279,3.0,2.0,0.0,1,12,2,3,6,3,6,30.12,0.00,45.81,
10.502,118.18209179547786,86.6298683278543,1.0,2.0,1.0,1,12,2,3,6,3,6,36.20,0.00,43.07,
10.516,118.25220917954779,86.86398683278543,0.0,2.0,0.0,1,12,2,3,5,3,6,38.16,0.00,42.38,
10.53,117.78222091795479,87.39139868327854,-5.0,3.0,-2.0,1,12,2,3,5,3,6,39.44,0.00,41.99,
10.545,117.29422209179546,87.29113986832786,-9.0,6.0,-12.0,1,12,2,3,5,3,6,39.73,0.00,42.18,
10.559,116.51642220917955,87.57811398683279,-19.0,10.0,-31.0,1,11,2,3,5,4,6,35.12,0.00,45.81,
10.573,116.17764222091795,86.86881139868328,-21.0,14.0,-26.0,1,11,2,3,5,4,6,28.55,0.00,51.01,
10.589,116.7647642220918,86.93288113986833,-21.0,13.0,-20.0,1,9,2,3,5,5,5,19.42,0.00,59.55,
10.603,118.14647642220918,85.79628811398683,-14.0,7.0,-3.0,2,8,2,3,5,5,5,10.89,0.00,82.80,
10.617,119.14864764222092,84.92662881139867,-5.0,2.0,-6.0,2,8,2,3,6,5,5,1.28,0.00,94.08,
10.632,119.7708647642221,84.84866288113987,-1.0,-1.0,-7.0,2,8,2,4,6,6,5,1.37,0.00,102.12,
10.646,119.5180864764222,85.28186628811399,0.0,-2.0,-4.0,2,8,2,4,6,6,6,2.35,0.00,107.03,
10.659,118.92580864764221,85.6941866288114,-2.0,0.0,-4.0,2,9,2,4,6,7,6,4.22,0.00,111.54,
10.674,118.52458086476422,85.92441866288114,-6.0,4.0,-4.0,2,8,2,4,6,7,5,4.81,0.00,113.11,
10.688,118.07045808647642,86.46044186628811,-11.0,10.0,-8.0,2,8,2,4,5,8,5,5.10,0.00,115.56,
10.702,117.98904580864765,86.66704418662881,-16.0,15.0,-11.0,1,7,1,4,5,8,5,5.20,0.00,124.00,
10.717,118.34090458086476,86.69670441866288,-17.0,16.0,-8.0,1,7,1,4,5,7,5,5.20,0.00,131.06,
10.732,119.63609045808649,85.61967044186629,-12.0,10.0,-3.0,1,6,1,4,5,7,5,5.98,0.00,139.20,
10.746,120.70160904580865,85.13396704418663,-6.0,5.0,0.0,1,6,1,4,5,7,4,7.36,0.00,151.66,
10.76,121.65416090458086,84.56339670441866,-1.0,-2.0,0.0,1,6,1,4,5,7,4,8.53,0.00,154.31,
10.774,121.74041609045808,84.64133967044187,0.0,-5.0,0.0,1,6,1,4,5,7,4,8.93,0.00,155.10,
10.788,121.1910416090458,84.82913396704419,0.0,-5.0,1.0,1,6,1,4,5,7,4,8.44,0.00,154.41,
10.803,120.70410416090459,84.98291339670442,-2.0,-2.0,0.0,1,6,1,4,4,7,4,7.85,0.00,152.06,
10.817,120.41241041609045,85.27729133967046,-4.0,0.0,0.0,1,6,1,4,4,7,4,7.46,0.00,151.86,
10.831,120.42824104160906,85.38772913396706,-5.0,-1.0,0.0,1,6,1,4,4,6,4,7.16,0.00,152.35,
10.846,120.6818241041609,84.7057729133967,-4.0,-2.0,0.0,1,6,1,4,3,6,4,6.87,0.00,153.13,
10.86,121.11218241041608,84.23257729133968,-1.0,-5.0,-1.0,1,6,1,4,3,6,4,6.57,0.00,154.61,
10.874,121.0652182410416,84.02325772913397,1.0,-7.0,-3.0,1,6,1,4,3,6,4,6.38,0.00,154.90,
10.888,120.74552182410416,84.2363257729134,2.0,-7.0,-4.0,1,6,1,4,3,6,4,5.98,0.00,154.41,
10.902,120.45255218241041,84.57263257729134,1.0,-7.0,-3.0,1,6,1,4,4,6,4,5.79,0.00,151.47,
10.916,120.18925521824104,84.58826325772914,2.0,-7.0,-4.0,1,6,1,4,4,6,4,5.59,0.00,149.80,
10.931,120.1449255218241,84.58082632577292,3.0,-7.0,-4.0,1,6,1,4,4,6,4,5.30,0.00,148.03,
10.945,120.15849255218241,84.8680826325773,3.0,-8.0,-4.0,1,7,1,4,5,5,4,4.71,0.00,145.87,
10.959,120.16884925521825,85.17580826325772,1.0,-11.0,-3.0,1,7,1,3,5,5,4,4.22,0.00,139.20,
10.974,120.52088492552183,85.34158082632577,0.0,-18.0,-1.0,2,7,2,3,5,5,4,3.43,0.00,135.08,
10.988,120.52908849255218,85.55615808263258,0.0,-23.0,-1.0,2,7,2,3,5,4,4,2.55,0.00,130.47,
11.002,119.82790884925522,85.60461580826326,5.0,-13.0,-5.0,2,7,2,3,6,4,4,0.00,0.00,118.31,
11.017,119.12779088492552,85.68146158082632,6.0,-7.0,-8.0,2,8,2,3,6,4,5,0.00,0.00,113.21,
11.031,118.46377908849254,85.90514615808263,6.0,-4.0,-9.0,2,8,2,3,6,5,5,0.00,0.00,110.36,
11.045,118.22637790884926,86.32351461580826,3.0,-2.0,-10.0,2,8,2,3,6,5,5,0.00,0.00,108.60,
11.06,118.26563779088492,86.45535146158083,1.0,-2.0,-11.0,2,8,2,3,6,5,5,0.00,0.00,106.63,
11.074,118.2605637790885,86.72053514615808,0.0,-3.0,-11.0,2,8,2,3,6,5,5,0.00,0.00,106.24,
11.088,118.27805637790884,86.87305351461582,0.0,-5.0,-11.0,2,8,2,3,6,5,5,0.00,0.00,106.34,
11.103,118.28880563779089,86.69030535146157,1.0,-5.0,-11.0,2,8,2,3,6,5,5,1.47,0.00,107.32,
11.117,118.11888056377907,86.72603053514615,2.0,-5.0,-13.0,2,8,2,3,7,5,5,2.16,0.00,107.91,
11.131,117.97588805637791,86.55860305351462,3.0,-3.0,-17.0,2,8,2,3,7,6,5,2.75,0.00,108.69,
11.146,117.96158880563779,86.26286030535147,6.0,-4.0,-17.0,2,8,2,3,7,6,5,3.63,0.00,111.83,
11.16,118.19415888056378,86.28728603053514,9.0,-6.0,-18.0,2,8,2,4,7,6,5,6.08,0.00,113.31,
11.174,118.43341588805636,86.47872860305353,11.0,-8.0,-18.0,2,8,2,4,7,7,6,7.75,0.00,113.60,
11.189,118.54734158880564,87.19987286030536,12.0,-11.0,-16.0,2,8,2,4,7,7,6,9.32,0.00,112.52,
11.203,118.16273415888057,87.65898728603052,12.0,-12.0,-14.0,1,9,2,4,7,7,6,10.89,0.00,106.34,
11.217,117.73727341588805,88.16389872860304,11.0,-11.0,-12.0,1,9,2,4,7,8,6,13.73,0.00,102.02,
11.232,117.5777273415888,88.1873898728603,12.0,-10.0,-14.0,1,9,2,4,6,8,6,15.60,0.00,97.71,
11.247,117.49877273415888,88.21673898728602,14.0,-9.0,-15.0,1,9,2,4,6,8,7,17.95,0.00,88.88,
11.261,117.46387727341589,88.49867389872861,14.0,-11.0,-18.0,1,10,2,4,5,8,7,25.60,0.00,83.29,
11.276,117.58638772734159,88.55386738987286,13.0,-8.0,-23.0,1,10,2,4,4,8,7,31.00,0.00,77.01,
11.29,117.45463877273416,89.08138673898728,15.0,-12.0,-23.0,1,10,2,4,3,8,7,36.59,0.00,65.24,
11.304,117.0724638772734,89.08913867389873,15.0,-12.0,-24.0,0,10,2,4,4,8,8,42.08,0.00,60.04,
11.32,116.88124638772734,89.13491386738987,14.0,-11.0,-28.0,1,10,2,4,4,9,8,52.19,0.00,55.33,
11.334,116.70912463877274,89.41849138673899,17.0,-13.0,-29.0,1,10,1,4,4,9,8,56.70,0.00,442.63,
11.357,116.46691246387728,89.71684913867391,20.0,-11.0,-33.0,1,10,1,4,4,9,8,60.43,0.00,43.56,
11.371,116.28969124638772,89.86368491386739,28.0,-13.0,-38.0,1,9,1,4,4,9,8,66.81,0.00,41.69,
11.385,112.77996912463877,88.96036849138675,33.0,4.0,-54.0,1,9,1,4,4,9,8,70.34,0.00,40.12,
11.4,112.79799691246387,89.81503684913866,41.0,-6.0,-36.0,0,8,1,4,4,9,8,70.93,0.00,38.65,
11.414,113.11479969124639,90.15250368491387,47.0,-5.0,-41.0,0,7,0,4,4,9,8,70.73,0.00,35.02,
11.428,113.64147996912463,90.3752503684914,54.0,-5.0,-44.0,0,6,0,4,4,9,8,70.24,0.00,32.67,
11.443,113.90114799691247,90.90152503684912,57.0,-2.0,-48.0,0,6,0,3,3,9,8,68.18,0.00,29.53,
11.457,113.36011479969125,92.25015250368492,61.0,2.0,-49.0,0,5,0,3,2,8,8,66.32,0.00,22.37,
11.471,112.98201147996912,93.33901525036848,62.0,6.0,-48.0,0,5,0,3,2,8,8,63.96,0.00,18.54,
11.486,112.05320114799692,94.62690152503684,63.0,13.0,-47.0,0,5,0,3,2,7,8,61.02,0.00,14.72,
11.5,110.7273201147997,96.26769015250369,65.0,15.0,-41.0,0,4,0,3,2,7,8,52.68,0.00,11.28,
11.513,109.35273201147997,98.35776901525037,68.0,20.0,-32.0,0,4,0,3,3,7,8,47.58,0.00,6.57,
11.528,108.71127320114799,100.50177690152503,70.0,21.0,-21.0,0,3,0,3,3,7,8,42.38,0.00,5.10,
11.542,109.3221273201148,101.7691776901525,69.0,19.0,-10.0,0,3,0,4,3,7,8,37.38,0.00,4.22,
11.556,110.48121273201149,103.24591776901525,70.0,18.0,-13.0,0,3,0,4,2,7,8,26.98,0.00,2.84,
11.571,111.80312127320116,104.39259177690153,72.0,21.0,-14.0,0,3,0,4,2,7,8,21.29,0.00,2.45,
11.585,113.41131212732012,104.86725917769014,74.0,26.0,-14.0,0,3,0,4,3,8,8,15.60,0.00,2.16,
11.598,115.111131212732,105.76072591776901,74.0,23.0,-19.0,0,3,0,3,3,8,8,10.69,0.00,2.06,
11.613,116.3701131212732,105.42707259177689,76.0,23.0,-26.0,0,3,0,3,3,8,8,4.12,0.00,1.96,
11.627,116.91901131212732,106.1047072591777,78.0,25.0,-24.0,0,3,0,2,3,7,8,2.35,0.00,1.96,
11.641,117.60390113121274,107.09047072591777,79.0,25.0,-26.0,0,2,0,2,3,6,8,1.37,0.00,1.96,
11.655,117.43839011312127,107.71104707259178,84.0,33.0,-30.0,0,3,0,2,3,6,8,0.78,0.00,1.86,
11.669,117.73683901131211,109.05110470725917,87.0,36.0,-34.0,0,2,0,2,3,5,8,0.00,0.00,1.67,
11.683,117.66768390113121,110.04011047072592,91.0,33.0,-30.0,0,2,0,2,4,4,8,0.00,0.00,1.57,
11.698,118.07476839011312,110.7600110470726,93.0,32.0,-31.0,0,2,0,2,4,3,7,0.00,0.00,1.28,
11.711,118.71847683901132,111.11100110470727,94.0,31.0,-34.0,0,2,0,2,5,3,7,0.00,0.00,0.69,
11.725,119.88084768390112,111.37110011047073,95.0,23.0,-35.0,0,2,0,2,6,2,6,0.00,0.00,0.39,
11.74,121.54508476839011,111.54111001104708,91.0,28.0,-39.0,0,1,0,2,5,1,5,0.00,0.00,0.00,
11.754,124.16850847683901,113.52011100110471,81.0,20.0,-46.0,0,1,0,1,5,0,4,0.00,0.00,0.00,
11.767,126.8698508476839,114.82501110011047,74.0,26.0,-39.0,0,1,0,0,4,0,3,0.00,0.00,0.00,
11.782,130.0199850847684,117.32250111001105,56.0,22.0,-48.0,0,1,0,0,0,0,1,956.87,0.00,0.00,
11.796,134.84399850847683,120.22725011100111,11.0,7.0,-63.0,0,1,0,0,0,0,1,83.68,0.00,0.00,
11.809,136.89239985084768,119.40172501110011,-33.0,-33.0,-98.0,0,1,0,0,0,0,1,0.00,0.00,0.00,
11.823,133.92023998508478,117.34817250111001,-50.0,-31.0,-65.0,0,1,0,0,0,0,1,0.00,0.00,0.00,
11.837,128.57402399850847,114.32581725011099,-62.0,-46.0,-45.0,0,1,0,0,0,0,1,0.00,0.00,0.00,
11.85,124.14240239985085,110.87358172501109,-69.0,-47.0,-30.0,0,1,0,0,0,0,1,0.00,0.00,0.00,
11.865,120.63924023998509,108.85435817250111,-72.0,-45.0,-13.0,0,1,0,0,0,0,1,0.00,0.00,0.00,
11.878,116.19392402399852,108.13943581725012,-75.0,-43.0,4.0,0,1,0,0,0,0,1,0.00,0.00,0.00,
11.892,113.76039240239984,108.58094358172501,-81.0,-43.0,27.0,0,1,0,0,0,0,1,0.00,0.00,0.00,
11.906,111.43803924023999,108.9850943581725,-89.0,-27.0,46.0,0,1,0,0,0,0,1,0.00,0.00,0.00,
11.919,110.05380392402401,107.40550943581725,-88.0,-19.0,55.0,0,1,0,0,0,0,1,0.00,0.00,0.00,
11.933,110.1943803924024,106.54555094358173,-90.0,-21.0,50.0,0,1,0,0,0,0,1,0.00,0.00,0.00,
11.947,110.44243803924024,106.00055509435818,-94.0,-21.0,56.0,0,1,0,0,0,0,1,0.00,0.00,0.00,
11.96,110.90824380392401,105.43305550943583,-95.0,-23.0,50.0,0,1,0,0,0,0,1,0.00,0.00,0.00,
11.974,111.61182438039239,105.51130555094359,-96.0,-23.0,46.0,0,1,0,0,0,0,1,0.00,0.00,0.00,
11.987,111.53818243803924,105.43813055509438,-94.0,-23.0,43.0,0,1,0,0,0,0,1,0.00,0.00,0.00,
12.001,111.17081824380392,105.76381305550943,-94.0,-24.0,43.0,0,1,0,0,0,0,1,0.00,0.00,0.00,
12.015,110.71108182438039,106.28238130555094,-95.0,-28.0,45.0,0,1,0,0,0,0,1,0.00,0.00,0.00,
12.028,109.96310818243803,106.1632381305551,-93.0,-30.0,50.0,0,1,0,0,0,0,1,0.00,0.00,0.00,
12.043,109.1143108182438,106.2953238130555,-90.0,-31.0,59.0,0,1,0,0,0,0,1,0.00,0.00,0.00,
12.056,108.53443108182438,106.26353238130555,-85.0,-30.0,67.0,0,1,0,0,0,0,1,0.00,0.00,0.00,
12.069,108.26944310818243,106.04435323813054,-83.0,-30.0,73.0,0,1,0,0,0,0,1,0.00,0.00,0.00,
12.084,108.39594431081824,105.41043532381306,-84.0,-29.0,77.0,0,1,0,0,0,0,1,0.00,0.00,0.00,
12.097,108.91259443108183,104.2040435323813,-85.0,-28.0,76.0,0,1,0,0,0,0,1,0.00,0.00,0.00,
12.11,109.64825944310819,102.67940435323813,-87.0,-26.0,72.0,0,1,0,0,0,0,1,0.00,0.00,0.00,
12.125,110.16282594431082,101.2579404353238,-89.0,-24.0,67.0,0,1,0,0,0,0,1,0.00,0.00,0.00,
12.138,110.52028259443108,99.94579404353237,-89.0,-23.0,63.0,0,1,0,0,0,0,1,0.00,0.00,0.00,
12.152,110.8440282594431,98.80657940435324,-87.0,-22.0,63.0,0,1,0,0,0,0,1,0.00,0.00,0.00,
12.166,111.30840282594431,97.80165794043533,-88.0,-22.0,64.0,0,1,0,0,0,0,1,0.00,0.00,0.00,
12.179,111.61584028259445,96.82816579404353,-90.0,-21.0,64.0,0,1,0,0,0,0,1,0.00,0.00,0.00,
12.192,112.04258402825944,95.71381657940435,-93.0,-21.0,64.0,0,2,0,0,0,0,1,0.00,0.00,0.00,
12.207,112.49925840282594,94.48638165794043,-94.0,-19.0,61.0,0,2,0,0,0,0,1,0.00,0.00,0.00,
12.22,113.06692584028258,93.05863816579405,-96.0,-17.0,56.0,0,2,0,0,0,0,1,0,0,1,
12.652,108.41669258402827,76.9948638165794,4.0,18.0,7.0,0,2,0,0,0,0,1,0.00,0.00,0.00,
12.665,108.66266925840281,76.09948638165794,7.0,18.0,4.0,0,2,0,0,0,0,1,0.00,0.00,0.00,
12.679,109.68626692584027,76.4059486381658,8.0,16.0,2.0,0,2,0,0,0,0,1,0.00,0.00,0.00,
12.692,110.18462669258402,77.38159486381657,5.0,12.0,0.0,0,2,0,0,0,0,1,0.00,0.00,0.00,
12.705,109.85646266925839,79.11715948638167,-2.0,8.0,-2.0,0,2,0,0,0,0,1,0.00,0.00,0.00,
12.719,109.65264626692584,80.18171594863816,13.0,3.0,-3.0,0,1,0,0,0,0,1,0.00,0.00,0.00,
12.732,108.97526462669259,81.34117159486382,18.0,13.0,-5.0,0,1,0,0,0,0,1,0.00,0.00,0.00,
12.745,110.19452646266926,82.08711715948638,22.0,21.0,-6.0,0,1,0,0,0,0,1,0.00,0.00,0.00,
12.759,110.82945264626693,79.08371171594864,19.0,25.0,-14.0,0,1,0,0,0,0,1,0.00,0.00,0.00,
12.772,109.9929452646267,75.96637117159487,27.0,26.0,-19.0,0,1,0,0,0,0,0,0.00,0.00,0.00,
12.786,110.67429452646266,76.92363711715949,33.0,36.0,-10.0,0,1,0,0,0,0,0,0.00,0.00,0.00,
12.8,111.39042945264627,76.11036371171593,43.0,37.0,-28.0,0,1,0,0,0,0,0,0.00,0.00,0.00,
12.822,111.28204294526462,75.7230363711716,62.0,44.0,-25.0,0,1,0,0,0,0,0,0.00,0.00,0.00,
12.835,113.49420429452645,76.53930363711716,59.0,40.0,-32.0,0,1,0,0,0,0,0,0.00,0.00,0.00,
12.849,115.34442042945264,78.49293036371171,48.0,43.0,-31.0,0,1,0,0,0,0,0,0.00,0.00,0.00,
12.863,116.30344204294526,81.08229303637117,35.0,24.0,-24.0,0,1,0,0,0,0,0,0.00,0.00,0.88,
12.876,116.31834420429453,81.93522930363712,24.0,21.0,-16.0,0,1,0,0,0,0,0,0.00,0.00,4.91,
12.891,116.58983442042947,82.35352293036372,16.0,18.0,-7.0,0,1,0,0,0,0,0,0.00,0.00,12.65,
12.904,116.88698344204295,82.01735229303638,12.0,14.0,-6.0,0,1,0,1,0,0,0,0.00,0.00,15.99,
12.918,116.97069834420431,81.36273522930364,13.0,13.0,-4.0,0,2,0,1,0,0,0,0.00,0.00,18.74,
12.933,117.30306983442044,81.67527352293037,14.0,14.0,-2.0,0,2,0,1,0,0,0,0.00,0.00,20.99,
12.946,117.84930698344203,81.79652735229304,8.0,11.0,0.0,0,2,0,1,0,0,0,0.00,0.00,26.00,
12.96,118.0209306983442,81.5386527352293,5.0,8.0,0.0,0,2,0,1,0,0,0,0.00,0.00,29.33,
12.974,118.20909306983442,80.49586527352292,7.0,9.0,0.0,0,2,0,1,0,0,1,0.00,0.00,32.67,
12.988,118.37190930698344,79.8605865273523,9.0,7.0,-3.0,0,2,0,1,0,0,1,0.00,0.00,35.61,
13.002,118.73919093069834,79.43705865273523,13.0,6.0,-2.0,0,3,1,1,0,0,1,0.00,0.00,40.52,
13.016,118.97391909306984,79.43070586527352,18.0,2.0,-1.0,0,3,1,1,1,0,1,0.00,0.00,42.38,
13.03,118.88939190930698,79.38507058652735,22.0,0.0,0.0,1,4,1,1,1,0,1,0.00,0.00,44.05,
13.044,118.61993919093071,80.01950705865274,21.0,1.0,1.0,1,4,1,1,1,0,1,0.00,0.00,47.19,
13.058,118.21499391909308,80.67695070586527,17.0,1.0,2.0,1,4,1,1,2,0,1,0.00,0.00,48.76,
13.072,117.9494993919093,81.02169507058653,14.0,2.0,1.0,1,4,1,1,2,0,1,0.00,0.00,50.03,
13.085,117.46394993919093,81.30816950705865,13.0,5.0,2.0,1,5,2,1,2,0,1,0.00,0.00,51.01,
13.1,117.3073949939191,81.51681695070587,6.0,5.0,3.0,1,5,2,1,3,0,1,0.00,0.00,51.80,
13.114,116.9947394993919,81.8526816950706,1.0,7.0,2.0,1,5,2,1,3,0,1,0.00,0.00,52.48,
13.127,116.7834739499392,81.91326816950706,0.0,6.0,2.0,1,5,2,1,3,0,1,0.00,0.00,53.76,
13.142,116.80734739499393,81.81132681695071,0.0,8.0,0.0,1,5,2,1,3,0,1,0.00,0.00,55.62,
13.155,117.23273473949939,81.48613268169508,0.0,8.0,0.0,1,5,2,1,3,0,1,0.00,0.00,60.14,
13.169,117.59027347394994,81.21961326816951,1.0,6.0,0.0,1,5,2,1,3,0,1,0.00,0.00,62.78,
13.182,117.93202734739499,81.14796132681694,1.0,5.0,0.0,1,5,2,1,3,0,1,0.00,0.00,65.33,
13.197,118.0202027347395,81.15879613268169,1.0,5.0,0.0,1,5,2,1,3,0,1,0.00,0.00,67.30,
13.21,117.62402027347395,81.45687961326816,0.0,6.0,-1.0,1,6,2,1,3,0,1,0.00,0.00,69.85,
13.224,117.38640202734739,81.66668796132682,-4.0,8.0,-2.0,1,6,2,1,3,0,1,0.00,0.00,70.83,
13.239,117.44364020273474,81.32766879613268,-5.0,9.0,-3.0,1,6,2,1,3,0,1,0.00,0.00,72.10,
13.253,117.82736402027348,80.93376687961327,-4.0,8.0,-5.0,2,6,2,1,3,0,1,0.00,0.00,73.77,
13.267,118.28873640202734,80.49837668796133,-3.0,6.0,-10.0,2,6,2,1,3,0,1,0.00,0.00,78.48,
13.282,118.60487364020273,80.27483766879614,-3.0,3.0,-13.0,2,6,2,1,3,0,1,0.00,0.00,81.62,
13.296,118.96048736402028,80.75648376687961,-1.0,0.0,-11.0,2,5,2,2,3,0,1,0.00,0.00,85.45,
13.309,119.44604873640202,80.16564837668797,1.0,-1.0,-9.0,2,5,2,2,3,0,1,0.00,0.00,89.76,
13.324,119.5216048736402,80.1515648376688,1.0,-2.0,-10.0,2,5,2,2,3,1,1,0.00,0.00,96.14,
13.338,119.52016048736401,80.00615648376687,2.0,-3.0,-11.0,2,5,2,2,3,1,1,0.00,0.00,98.00,
13.352,119.2590160487364,80.12661564837668,3.0,-1.0,-12.0,2,6,2,2,3,1,1,0.00,0.00,99.08,
13.367,119.14290160487363,80.46266156483767,2.0,-1.0,-13.0,2,6,2,2,3,1,1,0.00,0.00,100.26,
13.381,119.05029016048736,80.49626615648377,2.0,0.0,-14.0,2,6,2,2,3,1,1,0.00,0.00,100.94,
13.395,118.94202901604874,80.76062661564839,2.0,0.0,-14.0,2,6,2,2,3,1,1,0.00,0.00,102.02,
13.41,118.36420290160487,81.41706266156483,0.0,2.0,-14.0,2,6,2,2,3,2,1,0.00,0.00,103.10,
13.424,117.88342029016049,82.06770626615648,-4.0,5.0,-10.0,1,6,2,2,3,2,1,0.00,0.00,107.03,
13.438,117.75434202901604,82.52877062661565,-7.0,5.0,-8.0,1,5,2,2,2,2,1,0.00,0.00,110.17,
13.453,118.02943420290161,82.36787706266156,-8.0,5.0,-7.0,1,5,2,2,2,2,1,0.00,0.00,114.38,
13.466,118.53394342029017,81.87478770626615,-5.0,5.0,-7.0,1,5,2,2,1,2,1,0.59,0.00,123.80,
13.48,118.77339434202902,81.66347877062661,-3.0,4.0,-6.0,1,5,1,2,0,2,1,1.37,0.00,128.51,
13.495,119.0043394342029,81.55234787706267,-2.0,3.0,-6.0,1,4,1,2,0,3,1,2.75,0.00,133.12,
13.509,119.01843394342028,81.85623478770627,-4.0,3.0,-3.0,1,4,1,2,0,2,0,3.43,0.00,137.34,
13.523,119.42484339434202,81.88662347877063,-4.0,2.0,-2.0,1,4,1,2,0,2,0,3.92,0.00,145.09,
13.538,119.5554843394342,81.69166234787706,-4.0,3.0,-3.0,1,4,1,2,0,2,0,4.32,0.00,148.52,
13.552,119.77554843394341,81.5641662347877,-3.0,3.0,-3.0,1,4,1,2,0,2,0,4.91,0.00,151.37,
13.565,119.75255484339435,81.68641662347878,-3.0,4.0,-4.0,0,4,1,2,0,2,0,5.10,0.00,155.78,
13.58,119.86725548433942,81.58164166234788,-3.0,4.0,-7.0,0,4,1,2,0,2,0,5.20,0.00,157.74,
13.594,119.96872554843394,81.57116416623478,-4.0,4.0,-6.0,0,4,1,2,0,2,0,5.40,0.00,159.61,
13.608,120.0328725548434,81.51611641662349,-4.0,3.0,-8.0,0,4,1,2,0,2,0,5.79,0.00,161.47,
13.623,120.12028725548434,81.24061164166234,-1.0,3.0,-9.0,0,4,1,2,0,2,0,6.08,0.00,165.10,
13.636,120.31802872554844,81.26706116416624,0.0,2.0,-8.0,0,4,1,2,0,2,0,6.67,0.00,166.57,
13.65,120.11280287255485,81.73770611641663,-1.0,1.0,-8.0,0,4,1,2,0,2,0,7.26,0.00,167.75,
13.665,120.11928028725549,81.70377061164166,0.0,1.0,-7.0,0,4,1,2,0,2,0,8.14,0.00,168.54,
13.679,120.02992802872555,81.94337706116416,0.0,2.0,-7.0,0,4,1,2,0,2,0,8.53,0.00,170.20,
13.692,120.02999280287256,82.08433770611641,0.0,1.0,-6.0,0,4,1,2,0,2,0,8.73,0.00,171.09,
13.707,120.20999928028726,81.96343377061164,0.0,0.0,-6.0,0,4,1,3,0,2,0,9.22,0.00,171.58,
13.721,120.42599992802873,81.85234337706117,2.0,-1.0,-7.0,0,4,1,3,0,2,0,9.91,0.00,450.38,
13.735,120.51059999280287,81.95823433770612,3.0,-3.0,-7.0,0,4,1,3,0,2,0,10.40,0.00,1780.81,
13.749,120.67205999928028,81.8878234337706,3.0,-5.0,-8.0,0,4,1,3,0,2,0,10.99,0.00,172.07,
13.763,120.22020599992803,82.34878234337707,2.0,-3.0,-9.0,0,4,1,3,0,3,0,11.28,0.00,171.38,
13.777,119.8960205999928,82.6648782343377,1.0,-1.0,-7.0,0,4,1,3,0,3,0,11.87,0.00,169.91,
13.792,119.73760205999928,82.87648782343378,0.0,0.0,-8.0,0,4,1,3,0,3,0,12.16,0.00,169.42,
13.806,119.65876020599993,83.00564878234339,0.0,0.0,-7.0,0,4,1,3,0,3,1,12.65,0.00,168.93,
13.82,119.7678760206,83.04556487823434,0.0,0.0,-7.0,0,4,1,3,0,3,1,13.05,0.00,168.54,
13.834,119.80578760206001,83.22055648782343,0.0,0.0,-6.0,0,4,1,3,0,3,1,13.73,0.00,168.24,
13.848,119.86357876020601,83.49005564878233,0.0,-1.0,-6.0,0,4,1,3,0,3,1,14.03,0.00,168.14,
13.862,119.8063578760206,83.78700556487823,0.0,-3.0,-4.0,0,4,1,3,0,3,1,14.22,0.00,168.05,
13.877,119.80063578760205,83.79870055648783,0.0,-4.0,-3.0,0,4,1,3,0,3,1,14.32,0.00,167.65,
13.891,119.6830635787602,84.01587005564879,0.0,-2.0,-1.0,0,4,1,3,0,3,1,14.42,0.00,167.26,
13.905,119.71630635787602,83.82158700556488,0.0,-3.0,-2.0,0,4,1,3,0,3,1,14.42,0.00,167.16,
13.92,119.71963063578761,83.67615870055648,0.0,-3.0,-3.0,0,5,1,3,0,3,1,14.42,0.00,167.26,
13.933,119.74696306357876,83.65261587005566,0.0,-4.0,-4.0,0,4,1,3,0,3,1,14.42,0.00,167.06,
13.947,119.78569630635788,83.72226158700556,1.0,-5.0,-6.0,0,4,1,3,0,3,1,14.22,0.00,166.18,
13.962,119.97856963063579,83.82822615870056,0.0,-9.0,-8.0,0,4,1,3,0,3,1,14.03,0.00,165.00,
13.976,120.21385696306356,83.63182261587005,1.0,-13.0,-7.0,0,4,1,3,0,3,1,13.93,0.00,163.24,
13.99,120.07538569630636,83.801182261587,2.0,-16.0,-6.0,0,4,1,3,0,3,1,13.64,0.00,157.74,
14.005,119.75553856963063,83.8091182261587,3.0,-16.0,-6.0,0,4,1,3,0,3,1,12.65,0.00,153.62,
14.019,119.39955385696307,84.00791182261588,2.0,-16.0,-5.0,0,4,1,3,0,2,1,12.07,0.00,149.41,
14.033,118.84195538569631,84.28879118226158,2.0,-14.0,-4.0,1,4,1,2,0,2,1,11.48,0.00,140.77,
14.048,118.40819553856963,84.56887911822616,0.0,-12.0,-4.0,1,4,1,2,0,2,1,10.99,0.00,136.75,
14.062,118.20281955385697,84.73188791182262,-1.0,-11.0,-3.0,1,4,1,2,0,2,1,10.01,0.00,133.12,
14.076,118.1552819553857,84.83818879118226,-1.0,-12.0,-3.0,0,4,1,2,0,2,1,9.71,0.00,127.04,
14.091,118.17752819553857,84.73181887911824,-1.0,-14.0,-4.0,0,4,1,2,0,2,1,9.22,0.00,124.19,
14.105,118.06275281955386,84.76618188791181,0.0,-15.0,-5.0,0,4,1,2,0,2,1,8.73,0.00,121.06,
14.119,117.9162752819554,84.67961818879118,1.0,-17.0,-4.0,1,4,1,2,0,2,1,7.55,0.00,117.52,
14.133,117.57762752819553,84.86896181887911,2.0,-18.0,-5.0,1,4,1,1,0,1,1,6.87,0.00,109.58,
14.147,117.16576275281955,85.03189618188792,2.0,-18.0,-4.0,1,4,1,2,0,1,1,6.18,0.00,105.46,
14.161,116.75557627528195,85.24618961818878,1.0,-17.0,-3.0,1,4,1,1,0,1,1,4.61,0.00,101.14,
14.176,116.4085576275282,85.46561896181888,1.0,-16.0,-2.0,1,4,1,1,0,1,1,3.73,0.00,96.63,
14.19,116.13985576275282,85.55956189618188,0.0,-16.0,-3.0,1,4,1,1,0,1,1,2.94,0.00,88.19,
14.204,115.84298557627528,85.59595618961818,0.0,-14.0,-3.0,1,4,1,1,0,1,1,2.16,0.00,84.37,
14.218,115.64229855762753,85.55459561896183,0.0,-14.0,-4.0,1,4,1,1,0,1,1,1.37,0.00,80.74,
14.232,115.44222985576275,85.3884595618962,2.0,-12.0,-4.0,1,4,1,1,0,1,1,0.00,0.00,74.46,
14.246,115.35922298557627,85.52484595618962,3.0,-12.0,-4.0,1,4,1,1,0,1,1,0.00,0.00,71.71,
14.261,115.22492229855762,85.59248459561896,3.0,-11.0,-4.0,1,4,1,2,0,1,1,0.00,0.00,69.45,
14.275,115.01349222985576,85.8512484595619,2.0,-10.0,-4.0,1,4,1,1,0,1,1,0.00,0.00,67.39,
14.289,114.67734922298557,85.9851248459562,1.0,-9.0,-4.0,1,4,1,1,0,1,1,0.00,0.00,63.77,
14.304,114.40973492229855,86.06151248459561,0.0,-8.0,-5.0,1,4,1,1,0,1,1,0.00,0.00,62.20,
14.317,114.22097349222986,86.09615124845955,0.0,-6.0,-5.0,1,4,1,2,0,1,1,0.00,0.00,60.63,
14.331,114.31009734922297,86.03661512484597,0.0,-6.0,-5.0,1,4,1,2,0,1,1,0.00,0.00,58.08,
14.346,114.2560097349223,86.12066151248459,0.0,-6.0,-6.0,1,4,1,2,0,1,1,0.00,0.00,57.00,
14.36,114.17860097349222,86.21906615124846,0.0,-6.0,-5.0,1,4,1,2,0,1,1,0.00,0.00,55.92,
14.374,114.11686009734922,86.34590661512485,0.0,-6.0,-5.0,1,4,1,2,0,1,1,0.00,0.00,54.84,
14.388,113.94868600973493,86.5385906615125,-1.0,-5.0,-5.0,1,4,1,2,0,1,1,0.00,0.00,52.68,
14.402,113.70686860097351,86.63885906615127,-1.0,-5.0,-5.0,1,4,1,2,0,1,1,0.00,0.00,51.70,
14.416,113.61068686009735,86.72088590661512,-1.0,-3.0,-4.0,1,4,1,2,0,1,1,0.00,0.00,50.91,
14.431,113.57406868600972,86.70208859066152,-1.0,-3.0,-4.0,1,4,1,2,0,1,1,0.00,0.00,50.13,
14.445,113.58840686860098,86.70020885906615,-1.0,-3.0,-4.0,1,4,1,2,0,1,1,0.00,0.00,49.05,
14.459,113.59884068686009,86.8620208859066,-1.0,-3.0,-4.0,1,4,1,2,0,1,1,0.00,0.00,48.56,
14.474,113.581884068686,86.95020208859066,-1.0,-3.0,-4.0,1,4,1,2,0,1,1,0.00,0.00,48.17,
14.488,113.5891884068686,87.01302020885906,-1.0,-3.0,-4.0,1,4,1,2,0,1,1,0.00,0.00,47.48,
14.502,113.57191884068685,86.9923020208859,-1.0,-3.0,-4.0,1,4,1,2,0,1,1,0.00,0.00,47.09,
14.517,113.49819188406867,87.04423020208858,-1.0,-3.0,-4.0,1,4,1,2,0,1,1,0.00,0.00,46.70,
14.53,113.42781918840687,87.13942302020885,-1.0,-3.0,-4.0,1,4,1,2,0,1,1,0.00,0.00,46.11,
14.544,113.33978191884069,87.19394230202089,-2.0,-2.0,-3.0,1,4,1,2,0,1,1,0.00,0.00,45.13,
14.559,113.24997819188407,87.33439423020208,-1.0,-2.0,-3.0,1,4,1,2,0,1,1,0.00,0.00,44.73,
14.573,113.17799781918842,87.3844394230202,-2.0,-2.0,-2.0,1,4,1,2,0,1,1,0.00,0.00,44.44,
14.587,113.13479978191883,87.38044394230201,-1.0,-3.0,-2.0,1,4,1,2,0,1,1,0.00,0.00,44.24,
14.602,113.12147997819189,87.4520443942302,-2.0,-3.0,-1.0,1,4,1,2,0,1,1,0.00,0.00,43.95,
14.616,113.17414799781919,87.46820443942302,-2.0,-3.0,-1.0,1,4,1,2,0,1,1,0.00,0.00,43.85,
14.63,113.17041479978192,87.4158204439423,-2.0,-2.0,-2.0,1,4,1,2,0,1,1,0.00,0.00,43.65,
14.645,113.06204147997819,87.39258204439423,-2.0,-3.0,-2.0,1,4,1,2,0,1,1,0.00,0.00,43.36,
14.659,112.94320414799783,87.40825820443942,-2.0,-2.0,-2.0,1,4,1,2,0,1,1,0.00,0.00,43.16,
14.673,112.84132041479978,87.40082582044396,-2.0,-1.0,-2.0,1,4,1,2,0,1,1,0.00,0.00,43.16,
14.687,112.81313204147999,87.38208258204439,-2.0,-1.0,-1.0,1,4,1,2,1,1,1,0.00,0.00,43.26,
14.701,112.90031320414799,87.37120825820445,-2.0,-1.0,-1.0,1,4,1,2,1,1,1,0.00,0.00,43.36,
14.715,112.9360313204148,87.35212082582044,-2.0,-1.0,-1.0,1,4,1,2,1,1,1,0.00,0.00,43.46,
14.73,112.9306031320415,87.34121208258205,-2.0,-1.0,-2.0,1,4,1,2,1,1,1,0.00,0.00,43.56,
14.744,112.93006031320417,87.4031212082582,-2.0,-1.0,-2.0,1,4,1,2,1,1,1,0.00,0.00,43.56,
14.758,112.92100603132042,87.32831212082581,-2.0,-1.0,-2.0,1,4,1,2,1,1,1,0.00,0.00,43.56,
14.773,112.87510060313205,87.37483121208257,-2.0,-1.0,-2.0,1,4,1,2,1,1,1,0.00,0.00,43.75,
14.787,112.8075100603132,87.39748312120827,-2.0,0.0,-2.0,1,4,1,2,1,1,1,0.00,0.00,44.05,
14.801,112.79175100603133,87.42674831212084,-2.0,0.0,-1.0,1,4,1,2,1,1,1,0.00,0.00,44.24,
14.815,112.81717510060312,87.4296748312121,-2.0,0.0,-1.0,1,4,1,2,1,1,1,0.00,0.00,44.34,
14.829,112.79271751006031,87.3579674831212,-2.0,0.0,-1.0,1,4,1,2,1,1,1,0.00,0.00,44.44,
14.843,112.77227175100603,87.33279674831212,-2.0,0.0,-1.0,1,4,1,2,1,1,1,0.00,0.00,44.83,
14.858,112.77922717510062,87.3572796748312,-2.0,0.0,-1.0,1,3,1,2,1,1,2,0.00,0.00,45.03,
14.872,112.79792271751006,87.35072796748311,-2.0,0.0,-1.0,1,3,1,2,1,1,1,0.00,0.00,45.13,
14.886,112.78179227175102,87.3320727967483,-2.0,0.0,-1.0,1,4,1,2,1,1,1,0.00,0.00,45.13,
14.9,112.76217922717511,87.33020727967482,-2.0,0.0,-1.0,1,3,1,2,1,1,2,0.00,0.00,45.42,
14.914,112.7422179227175,87.32102072796748,-3.0,0.0,0.0,1,4,1,1,1,1,2,0.00,0.00,45.62,
14.928,112.77622179227176,87.29310207279676,-3.0,0.0,0.0,1,4,1,1,1,1,2,0.00,0.00,45.91,
14.943,112.77962217922718,87.26331020727969,-3.0,0.0,-1.0,1,3,1,1,1,1,2,0.00,0.00,46.50,
14.956,112.74396221792271,87.27833102072798,-3.0,0.0,-1.0,1,3,1,1,1,1,2,0.00,0.00,46.70,
14.97,112.74039622179227,87.35183310207279,-3.0,0.0,0.0,1,3,1,2,1,1,2,0.00,0.00,46.99,
14.985,112.84803962217921,87.30518331020727,-3.0,0.0,0.0,1,3,1,2,1,1,2,0.00,0.00,47.28,
14.999,112.86780396221793,87.29151833102074,-2.0,0.0,0.0,1,4,1,2,1,1,2,0.00,0.00,47.58,
15.012,112.8697803962218,87.28115183310209,-3.0,0.0,0.0,1,4,1,2,1,1,2,0.00,0.00,47.68,
15.027,112.77997803962216,87.2171151833102,-2.0,0.0,0.0,1,4,1,2,1,1,2,0.00,0.00,47.77,
15.041,112.7169978039622,87.12971151833102,-2.0,0.0,0.0,1,4,1,2,1,1,2,0.00,0.00,47.97,
15.055,112.72869978039623,87.0849711518331,-2.0,0.0,-1.0,1,4,1,2,1,1,2,0.00,0.00,48.66,
15.069,112.71186997803962,87.0894971151833,-2.0,0.0,-1.0,1,4,1,2,1,1,2,0.00,0.00,48.95,
15.083,112.77318699780398,87.06294971151833,-2.0,0.0,-1.0,1,4,1,2,1,1,2,0.00,0.00,49.25,
15.097,112.77031869978039,87.06029497115183,-2.0,0.0,-1.0,1,4,1,2,1,1,2,0.00,0.00,49.54,
15.112,112.76103186997804,87.07802949711518,-2.0,0.0,-1.0,1,4,1,2,1,1,2,0.00,0.00,50.03,
15.126,112.7421031869978,87.15180294971152,-2.0,0.0,0.0,1,4,1,2,1,1,2,0.00,0.00,50.23,
15.139,112.76721031869977,87.20418029497114,-2.0,0.0,0.0,1,4,1,2,1,1,2,0.00,0.00,50.42,
15.154,112.76072103186998,87.2094180294971,-2.0,0.0,0.0,1,4,1,2,1,1,2,0.00,0.00,50.72,
15.168,112.706072103187,87.17394180294971,-2.0,0.0,0.0,1,4,1,2,1,1,2,0.00,0.00,50.91,
15.182,112.72760721031871,87.09839418029497,-2.0,0.0,0.0,1,4,1,2,1,1,2,0.00,0.00,51.31,
15.196,112.71176072103187,87.0728394180295,-2.0,0.0,0.0,1,4,1,2,1,1,2,0.00,0.00,51.60,
15.21,112.6741760721032,87.02528394180294,-1.0,0.0,-1.0,1,4,1,2,1,1,2,0.00,0.00,52.09,
15.224,112.65241760721032,87.04752839418029,-1.0,0.0,-1.0,1,4,1,2,1,1,2,0.00,0.00,52.39,
15.239,112.69524176072103,87.04975283941803,-1.0,0.0,0.0,1,4,1,2,1,1,2,0.00,0.00,52.68,
15.252,112.73552417607209,87.15797528394181,-1.0,0.0,0.0,1,4,1,2,1,1,2,0.00,0.00,52.78,
15.266,112.72155241760721,87.16879752839418,-1.0,0.0,0.0,1,4,1,2,1,1,2,0.00,0.00,53.27,
15.281,112.71115524176071,87.18787975283942,-1.0,0.0,0.0,1,4,1,2,1,1,2,0.00,0.00,53.56,
15.295,112.72811552417608,87.13578797528395,-1.0,0.0,0.0,1,4,1,2,1,1,2,0.00,0.00,53.76,
15.308,112.72081155241762,87.1035787975284,-2.0,0.0,0.0,1,4,1,2,1,1,2,0.00,0.00,54.05,
15.323,112.75608115524177,87.02835787975283,-2.0,0.0,0.0,1,4,1,2,1,1,2,0.00,0.00,54.15,
15.337,112.81360811552418,86.9128357879753,-1.0,0.0,-2.0,1,4,1,2,1,1,2,0.00,0.00,54.25,
15.351,112.83736081155243,86.96428357879752,-1.0,0.0,-2.0,1,4,1,2,1,1,2,0.00,0.00,54.25,
15.365,112.93873608115524,86.97842835787976,-1.0,0.0,-2.0,1,4,1,2,2,1,2,0.00,0.00,53.96,
15.379,112.97587360811552,87.08784283578798,-1.0,0.0,-1.0,1,4,1,2,2,1,2,0.00,0.00,53.86,
15.393,112.97958736081155,87.1887842835788,-2.0,0.0,-1.0,1,4,1,2,2,1,2,0.00,0.00,53.66,
15.408,112.98895873608116,87.24387842835789,-2.0,0.0,-1.0,1,4,1,2,2,1,2,0.00,0.00,53.46,
15.422,112.98089587360812,87.27638784283579,-2.0,0.0,-1.0,1,4,1,2,2,1,2,0.00,0.00,53.37,
15.436,113.02508958736081,87.27963878428358,-2.0,0.0,0.0,1,4,1,2,2,1,2,0.00,0.00,53.46,
15.45,113.07450895873609,87.32496387842835,-2.0,0.0,0.0,1,4,1,2,2,1,2,0.00,0.00,53.66,
15.464,113.0884508958736,87.30249638784282,-2.0,0.0,0.0,1,4,1,2,2,1,2,0.00,0.00,53.96,
15.478,113.07184508958736,87.23724963878429,-2.0,0.0,-1.0,1,4,1,2,2,1,2,0.00,0.00,54.25,
15.493,113.14218450895874,87.19472496387843,-1.0,0.0,-1.0,1,4,1,2,2,1,2,0.00,0.00,54.35,
15.506,113.12221845089587,87.23547249638783,-1.0,0.0,-1.0,1,4,1,2,2,1,2,0.00,0.00,54.45,
15.52,113.07522184508957,87.22154724963879,-1.0,0.0,-1.0,1,4,1,2,2,1,2,0.00,0.00,54.45,
15.535,113.06152218450896,87.24715472496388,-1.0,0.0,-1.0,1,4,1,2,2,1,2,0.00,0.00,54.54,
15.549,113.0151522184509,87.27671547249639,-1.0,0.0,0.0,1,4,1,2,2,1,2,0.00,0.00,54.64,
15.563,113.0015152218451,87.30667154724965,-2.0,0.0,-1.0,1,4,1,2,2,1,2,0.00,0.00,-2,
15.9,113.16215152218452,87.12966715472497,-2.0,0.0,-1.0,1,4,1,2,2,1,2,0.00,0.00,55.72,
16.001,113.16021515221844,87.09396671547249,-3.0,0.0,-1.0,1,4,1,2,2,1,2,0.00,0.00,55.62,
16.015,113.17802151522184,87.08139667154725,-3.0,0.0,-1.0,1,4,1,2,2,1,2,0.00,0.00,55.72,
16.029,113.18880215152218,87.07113966715472,-3.0,0.0,-1.0,1,4,1,2,2,1,2,0.00,0.00,55.72,
16.044,113.15388021515223,87.02511396671547,-3.0,0.0,-1.0,1,4,1,2,2,1,2,0.00,0.00,55.52,
16.057,113.08738802151522,87.00251139667154,-3.0,0.0,-1.0,1,4,1,2,2,1,2,0.00,0.00,55.52,
16.071,113.05373880215153,87.00025113966714,-3.0,0.0,-1.0,1,4,1,2,2,1,2,0.00,0.00,55.52,
16.086,113.05037388021515,86.96402511396671,-3.0,0.0,-1.0,1,4,1,2,1,1,2,0.00,0.00,55.43,
16.1,113.11303738802152,86.95140251139668,-3.0,0.0,-2.0,1,4,1,2,1,1,2,0.00,0.00,55.33,
16.114,113.03830373880216,87.02214025113966,-3.0,0.0,-2.0,1,4,1,2,1,1,2,0.00,0.00,55.33,
16.128,113.02183037388022,86.97521402511396,-3.0,0.0,-2.0,1,4,1,2,1,1,2,0.00,0.00,55.33,
16.142,113.03818303738802,86.9615214025114,-4.0,0.0,-2.0,1,4,1,2,1,1,2,0.00,0.00,55.23,
16.156,113.0578183037388,86.97815214025115,-3.0,0.0,-2.0,1,4,1,2,1,1,2,0.00,0.00,55.23,
16.171,113.10478183037388,86.97081521402511,-3.0,0.0,-2.0,1,4,1,2,1,1,2,0.00,0.00,55.23,
16.185,113.10047818303738,86.9700815214025,-3.0,0.0,-2.0,1,4,1,2,1,1,2,0.00,0.00,55.33,
16.199,113.10004781830372,86.95200815214025,-3.0,0.0,-2.0,1,4,1,2,1,1,2,0.00,0.00,55.23,
16.212,113.08200478183038,86.94120081521402,-3.0,0.0,-2.0,1,4,1,2,1,1,2,0.00,0.00,55.23,
16.227,113.02620047818304,86.9671200815214,-3.0,0.0,-2.0,1,4,1,2,1,1,2,0.00,0.00,55.13,
16.241,113.0476200478183,86.93371200815214,-2.0,0.0,-2.0,1,4,1,2,1,1,2,0.00,0.00,55.13,
16.256,113.07676200478183,86.9123712008152,-2.0,0.0,-2.0,1,4,1,2,1,1,2,0.00,0.00,55.03,
16.27,113.08867620047819,86.82023712008153,-2.0,0.0,-2.0,1,4,1,2,1,1,2,0.00,0.00,54.84,
16.283,113.05386762004782,86.80202371200815,-1.0,0.0,-2.0,1,4,1,2,1,1,2,0.00,0.00,54.74,
16.297,113.08638676200479,86.83620237120081,-1.0,0.0,-2.0,1,4,1,2,1,1,2,0.00,0.00,54.64,
16.312,113.08063867620048,86.90262023712008,-2.0,0.0,-2.0,1,4,1,2,1,1,2,0.00,0.00,54.54,
16.326,113.06206386762005,86.92726202371202,-2.0,0.0,-2.0,1,4,1,2,1,1,2,0.00,0.00,54.45,
16.34,113.114206386762,87.02872620237122,-2.0,0.0,-1.0,1,4,1,2,1,1,2,0.00,0.00,54.54,
16.355,113.10142063867619,87.02987262023711,-3.0,0.0,-1.0,1,4,1,2,1,1,2,0.00,0.00,54.25,
16.368,113.11814206386762,87.02998726202371,-3.0,0.0,-2.0,1,4,1,2,1,1,2,0.00,0.00,54.25,
16.382,113.15581420638675,87.01199872620238,-3.0,0.0,-2.0,1,4,1,2,1,1,2,0.00,0.00,54.15,
16.397,113.10558142063866,86.99219987262023,-2.0,0.0,-2.0,1,4,1,2,1,1,2,0.00,0.00,53.96,
16.411,113.06455814206387,86.97221998726202,-2.0,0.0,-2.0,1,4,1,2,1,1,2,0.00,0.00,53.96,
16.425,113.0784558142064,86.9882219987262,-2.0,0.0,-2.0,1,4,1,2,1,1,2,0.00,0.00,53.86,
16.439,113.05284558142064,86.95382219987263,-2.0,0.0,-1.0,1,4,1,2,1,1,2,0.00,0.00,53.76,
16.453,113.05928455814207,86.95938221998726,-2.0,0.0,-1.0,1,4,1,2,1,1,2,0.00,0.00,53.86,
16.467,113.0419284558142,86.98693822199873,-2.0,0.0,-1.0,1,4,1,2,1,1,2,0.00,0.00,53.76,
16.482,113.04019284558142,86.97169382219987,-2.0,0.0,-1.0,1,4,1,2,1,1,2,0.00,0.00,53.66,
16.496,113.10301928455814,86.93416938221999,-3.0,0.0,-1.0,1,4,1,2,1,1,2,0.00,0.00,53.66,
16.509,113.09130192845582,86.93041693822201,-3.0,0.0,-1.0,1,4,1,2,1,1,1,0.00,0.00,53.66,
16.524,113.08113019284559,86.9030416938222,-3.0,0.0,-1.0,1,4,1,2,1,1,1,0.00,0.00,53.66,
16.538,113.08911301928457,86.83730416938222,-3.0,0.0,-1.0,1,4,1,2,1,1,1,0.00,0.00,53.56,
16.552,113.03591130192845,86.80373041693822,-3.0,0.0,-1.0,1,4,1,2,1,1,2,0.00,0.00,53.76,
16.567,113.03059113019285,86.73737304169383,-2.0,0.0,-1.0,1,4,1,2,1,1,1,0.00,0.00,53.66,
16.581,113.04805911301929,86.76673730416938,-2.0,0.0,-1.0,1,4,1,2,1,1,1,0.00,0.00,53.76,
16.594,113.07680591130193,86.77867373041694,-2.0,0.0,-1.0,1,4,1,2,1,1,1,0.00,0.00,53.76,
16.609,113.07068059113018,86.7888673730417,-2.0,0.0,-1.0,1,4,1,2,1,1,1,0.00,0.00,53.66,
16.623,113.06106805911303,86.76288673730417,-2.0,0.0,-1.0,1,4,1,2,1,1,1,0.00,0.00,53.56,
16.637,113.0421068059113,86.71528867373041,-2.0,0.0,-1.0,1,4,1,2,1,1,1,0.00,0.00,53.56,
16.652,113.02221068059113,86.68352886737306,-2.0,0.0,-1.0,1,4,1,2,1,1,2,0.00,0.00,53.66,
16.665,113.02022106805912,86.64435288673731,-2.0,0.0,-1.0,1,4,1,2,1,1,2,0.00,0.00,53.76,
16.679,113.02902210680591,86.62243528867374,-2.0,0.0,-1.0,1,4,1,2,1,1,2,0.00,0.00,53.86,
16.694,113.05690221068059,86.59324352886739,-1.0,0.0,-1.0,1,4,1,2,1,1,2,0.00,0.00,54.05,
16.708,113.02369022106807,86.59932435288674,-1.0,0.0,-1.0,1,4,1,2,1,1,2,0.00,0.00,54.05,
16.722,113.0293690221068,86.62693243528867,-1.0,0.0,-1.0,1,4,1,2,1,1,2,0.00,0.00,54.15,
16.736,113.02993690221068,86.62069324352888,-1.0,0.0,-1.0,1,4,1,2,1,1,2,0.00,0.00,54.25,
16.75,113.03899369022108,86.5930693243529,-1.0,0.0,-1.0,1,4,1,2,1,1,2,0.00,0.00,54.15,
16.764,113.03989936902211,86.6173069324353,-1.0,0.0,-1.0,1,4,1,2,1,1,2,0.00,0.00,54.05,
16.779,113.02198993690222,86.70973069324353,-1.0,0.0,-1.0,1,4,1,2,1,1,2,0.00,0.00,54.05,
16.793,113.04719899369022,86.79997306932435,-1.0,0.0,-1.0,1,4,1,2,1,1,2,0.00,0.00,54.15,
16.807,113.14871989936901,86.86299730693244,-2.0,0.0,-1.0,1,4,1,2,1,1,2,0.00,0.00,54.25,
16.821,113.1588719899369,86.88729973069326,-2.0,0.0,-1.0,1,4,1,2,1,1,2,0.00,0.00,54.45,
16.835,113.0878871989937,86.90772997306932,-2.0,0.0,-1.0,1,4,1,2,1,1,2,0.00,0.00,54.64,
16.849,113.02678871989937,86.85577299730693,-2.0,0.0,-1.0,1,4,1,2,1,1,2,0.00,0.00,54.94,
16.864,113.02967887198994,86.8325772997307,-2.0,0.0,0.0,1,4,1,2,1,1,2,0.00,0.00,55.43,
16.878,112.95796788719899,86.90225772997306,-2.0,0.0,0.0,1,4,1,2,1,1,2,0.00,0.00,55.72,
16.891,112.9147967887199,86.97222577299732,-3.0,0.0,0.0,1,4,1,2,1,1,2,0.00,0.00,56.11,
16.906,112.96447967887198,87.07822257729973,-3.0,0.0,0.0,1,4,1,2,1,1,2,0.00,0.00,56.41,
16.92,113.0954479678872,87.05282225772997,-4.0,0.0,0.0,1,4,1,2,1,1,2,0.00,0.00,57.00,
16.933,113.08154479678872,87.014282225773,-4.0,0.0,0.0,1,4,1,2,1,1,2,0.00,0.00,57.49,
16.948,112.98115447967888,86.87542822257731,-4.0,0.0,0.0,1,4,1,2,1,1,2,0.00,0.00,57.98,
16.962,112.95311544796789,86.78954282225773,-5.0,1.0,0.0,1,4,1,2,1,1,2,0.00,0.00,58.37,
16.976,112.94131154479679,86.72695428222578,-5.0,0.0,0.0,1,4,1,2,1,1,2,0.00,0.00,59.55,
16.99,113.00313115447968,86.69369542822258,-6.0,1.0,0.0,1,4,1,2,1,1,2,0.00,0.00,59.94,
17.004,113.13531311544797,86.64536954282225,-6.0,1.0,0.0,1,4,1,2,1,1,2,0.00,0.00,60.14,
17.018,113.2205313115448,86.51453695428224,-6.0,0.0,0.0,1,4,1,2,1,1,1,0.00,0.00,60.43,
17.033,113.21105313115447,86.42045369542822,-5.0,0.0,0.0,1,4,1,2,1,1,1,0.00,0.00,60.63,
17.046,113.12010531311545,86.39304536954282,-5.0,0.0,0.0,1,4,1,2,1,1,1,0.00,0.00,60.63,
17.06,113.04801053131155,86.33630453695429,-6.0,0.0,0.0,1,4,1,2,1,1,1,0.00,0.00,60.43,
17.075,113.04980105313116,86.15063045369543,-6.0,0.0,0.0,1,4,1,2,1,1,1,0.00,0.00,60.63,
17.088,113.05898010531311,86.04206304536955,-5.0,0.0,0.0,1,4,1,2,1,1,1,0.00,0.00,60.72,
17.102,113.11389801053132,86.00420630453696,-5.0,0.0,0.0,1,4,1,2,0,1,1,0.00,0.00,60.82,
17.117,113.13738980105313,85.9734206304537,-5.0,0.0,0.0,1,4,1,2,0,1,1,0.00,0.00,60.72,
17.131,113.04073898010532,85.97934206304538,-4.0,0.0,0.0,1,4,1,2,0,1,1,0.00,0.00,60.53,
17.144,113.12107389801052,85.97093420630455,-3.0,0.0,0.0,1,4,1,2,0,1,1,0.00,0.00,60.43,
17.159,113.22810738980104,85.85309342063046,-3.0,0.0,0.0,1,4,1,2,0,1,1,0.00,0.00,60.33,
17.173,113.3108107389801,85.78730934206304,-3.0,0.0,0.0,1,4,1,2,0,1,1,0.00,0.00,60.43,
17.186,113.319081073898,85.7177309342063,-2.0,-1.0,0.0,1,4,1,2,0,1,1,0.00,0.00,60.53,
17.201,113.22990810738979,85.66577309342063,-2.0,-1.0,0.0,1,4,1,2,0,1,1,0.00,0.00,60.53,
17.215,113.17599081073898,85.67857730934207,-2.0,-1.0,-1.0,1,4,1,2,0,1,1,0.00,0.00,60.23,
17.229,113.18859908107389,85.7608577309342,-2.0,0.0,0.0,1,4,1,2,0,1,1,0.00,0.00,59.55,
17.244,113.20785990810738,85.71508577309342,-3.0,-1.0,-1.0,1,4,1,2,0,1,1,0.00,0.00,58.96,
17.258,113.24578599081073,85.62950857730935,-3.0,-1.0,-1.0,1,4,1,2,0,1,1,0.00,0.00,58.37,
17.272,113.25857859908108,85.58495085773095,-3.0,-1.0,-2.0,1,4,1,2,0,1,1,0.00,0.00,57.78,
17.286,113.25085785990811,85.5444950857731,-3.0,-1.0,-2.0,1,3,1,2,0,1,1,0.00,0.00,56.51,
17.3,113.2500857859908,85.54944950857731,-3.0,-1.0,-3.0,1,3,1,2,0,1,1,0.00,0.00,56.02,
17.314,113.20500857859909,85.54994495085774,-3.0,-1.0,-3.0,1,3,1,2,0,1,1,0.00,0.00,55.33,
17.329,113.23650085785991,85.45999449508577,-3.0,-1.0,-2.0,1,3,1,1,0,1,1,0.00,0.00,54.74,
17.343,113.203650085786,85.46899944950857,-2.0,-1.0,-2.0,1,3,1,1,0,1,1,0.00,0.00,53.37,
17.357,113.20936500857859,85.49689994495085,-2.0,-1.0,-2.0,1,3,1,1,0,1,1,0.00,0.00,52.78,
17.372,113.21893650085785,85.51768999449509,-2.0,-1.0,-2.0,1,3,1,1,0,0,1,0.00,0.00,51.99,
17.386,113.2288936500858,85.51976899944951,-1.0,-2.0,-2.0,1,3,1,1,0,0,1,0.00,0.00,50.42,
17.4,113.22988936500859,85.59197689994494,-2.0,-2.0,-2.0,1,3,1,1,0,0,1,0.00,0.00,49.54,
17.415,113.22098893650085,85.6081976899945,-3.0,-2.0,-2.0,1,3,1,1,0,0,1,0.00,0.00,48.85,
17.429,113.07609889365008,85.65481976899945,-3.0,-2.0,-2.0,1,3,1,1,0,0,1,0.00,0.00,48.07,
17.442,113.04360988936502,85.69548197689996,-4.0,-2.0,-2.0,1,3,1,1,0,0,1,0.00,0.00,46.79,
17.457,112.9683609889365,85.71754819769,-4.0,-2.0,-2.0,1,3,1,1,0,0,1,0.00,0.00,46.01,
17.471,112.97883609889365,85.647754819769,-4.0,-2.0,-1.0,1,3,1,1,0,0,1,0.00,0.00,45.32,
17.485,112.95288360988937,85.5417754819769,-3.0,-2.0,-1.0,1,3,1,1,0,0,1,0.00,0.00,43.75,
17.5,112.90528836098895,85.47717754819769,-2.0,-1.0,-1.0,1,3,1,1,0,0,1,0.00,0.00,42.97,
17.514,112.89152883609889,85.50671775481977,-2.0,-1.0,-1.0,1,3,1,1,0,0,1,0.00,0.00,42.28,
17.528,112.88115288360989,85.59067177548197,-2.0,-1.0,0.0,1,3,1,1,0,0,1,0.00,0.00,41.79,
17.543,112.80811528836098,85.6260671775482,-2.0,-1.0,0.0,1,3,1,1,0,0,1,0.00,0.00,41.30,
17.556,112.7828115288361,85.66560671775483,-2.0,-1.0,-1.0,1,3,1,1,0,0,1,0.00,0.00,41.10,
17.57,112.83428115288362,85.67856067177549,-2.0,-1.0,-1.0,1,3,1,1,0,0,1,0.00,0.00,40.91,
17.585,112.79442811528837,85.61685606717755,-2.0,-1.0,-1.0,1,3,1,1,0,0,1,0.00,0.00,40.42,
17.599,112.76344281152885,85.57468560671775,-2.0,-1.0,-1.0,1,3,1,1,0,0,1,0.00,0.00,40.22,
17.613,112.7333442811529,85.57046856067177,-1.0,-1.0,-1.0,1,3,1,1,0,0,1,0.00,0.00,40.02,
17.628,112.7213344281153,85.60604685606718,-1.0,-1.0,-1.0,1,3,1,1,0,0,1,0.00,0.00,39.93,
17.642,112.74713344281153,85.60960468560673,-2.0,-1.0,-1.0,1,3,1,1,0,0,1,0.00,0.00,39.73,
17.656,112.66871334428116,85.67296046856067,-2.0,-1.0,-1.0,1,3,1,1,0,0,1,0.00,0.00,39.63,
17.671,112.66987133442812,85.67029604685608,-2.0,-1.0,-1.0,1,3,1,1,0,0,1,0.00,0.00,39.63,
17.685,112.66098713344282,85.67002960468561,-2.0,-1.0,-1.0,1,3,1,1,0,0,1,0.00,0.00,39.73,
17.699,112.67809871334428,85.70600296046855,-2.0,0.0,-1.0,1,3,1,1,0,0,1,0.00,0.00,39.63,
17.713,112.63480987133443,85.74560029604685,-2.0,0.0,-1.0,1,3,1,1,0,0,1,0.00,0.00,39.63,
17.727,112.59448098713344,85.7585600296047,-2.0,0.0,-1.0,1,3,1,1,0,0,1,0.00,0.00,39.73,
17.741,112.58144809871334,85.77785600296046,-2.0,0.0,0.0,1,3,1,1,0,0,1,0.00,0.00,39.83,
17.756,112.58014480987133,85.80678560029604,-2.0,0.0,-1.0,1,3,1,1,0,0,1,0.00,0.00,40.02,
17.769,112.61601448098713,85.7556785600296,-2.0,0.0,-1.0,1,3,1,1,0,0,1,0.00,0.00,40.22,
17.783,112.64660144809872,85.74156785600296,-2.0,0.0,-1.0,1,3,1,1,0,0,1,0.00,0.00,40.52,
17.798,112.68566014480987,85.72215678560029,-2.0,0.0,-1.0,1,3,1,1,0,0,1,0.00,0.00,40.81,
17.812,112.71656601448099,85.72021567856002,-1.0,0.0,-1.0,1,3,1,1,0,0,1,0.00,0.00,41.10,
17.826,112.7646566014481,85.657021567856,-1.0,0.0,-1.0,1,3,1,1,0,0,1,0.00,0.00,41.40,
17.841,112.7154656601448,85.7407021567856,-1.0,0.0,-1.0,1,3,1,1,0,0,1,0.00,0.00,42.08,
17.854,112.69254656601449,85.83007021567856,-2.0,0.0,0.0,1,3,1,1,0,0,1,0.00,0.00,42.38,
17.868,112.71725465660145,85.87500702156785,-2.0,0.0,0.0,1,3,1,1,0,0,1,0.00,0.00,42.67,
17.883,112.69272546566015,85.88850070215679,-3.0,0.0,0.0,1,3,1,1,0,0,1,0.00,0.00,42.87,
17.896,112.69027254656602,85.85385007021569,-3.0,0.0,0.0,1,3,1,1,0,0,1,0.00,0.00,43.07,
17.91,112.71702725465661,85.86838500702157,-3.0,0.0,-1.0,1,3,1,1,0,0,1,0.00,0.00,43.07,
17.925,112.68370272546566,85.75283850070215,-3.0,0.0,0.0,1,3,1,1,0,0,1,0.00,0.00,42.97,
17.939,112.65337027254657,85.7232838500702,-3.0,0.0,0.0,1,3,1,1,0,0,1,0.00,0.00,42.87,
17.952,112.58733702725466,85.72032838500701,-3.0,0.0,0.0,1,3,1,1,0,0,1,0.00,0.00,42.87,
17.967,112.60773370272547,85.7650328385007,-3.0,0.0,0.0,1,3,1,1,0,0,1,0.00,0.00,42.77,
17.981,112.62777337027255,85.74250328385007,-3.0,0.0,0.0,1,3,1,1,0,0,1,0.00,0.00,42.87,
17.995,112.64777733702726,85.65025032838501,-3.0,0.0,0.0,1,3,1,1,0,0,1,0.00,0.00,42.87,
18.009,112.62277773370273,85.56002503283851,-3.0,0.0,0.0,1,3,1,1,0,0,1,0.00,0.00,42.97,
18.023,112.64727777337028,85.51500250328385,-3.0,0.0,-1.0,1,3,1,1,0,0,1,0.00,0.00,43.07,
18.037,112.68572777733704,85.47450025032839,-3.0,0.0,0.0,1,3,1,1,0,0,1,0.00,0.00,43.16,
18.052,112.6715727777337,85.42545002503283,-2.0,0.0,-1.0,1,3,1,1,0,0,1,0.00,0.00,43.26,
18.065,112.68815727777337,85.42954500250329,-2.0,0.0,0.0,1,3,1,1,0,0,1,0.00,0.00,43.46,
18.079,112.66281572777734,85.40295450025035,-2.0,0.0,0.0,1,3,1,1,0,0,1,0.00,0.00,43.56,
18.094,112.56128157277773,85.36429545002503,-2.0,0.0,0.0,1,3,1,1,0,0,1,0.00,0.00,43.56,
18.108,112.54212815727777,85.3874295450025,-3.0,0.0,-1.0,1,3,1,1,0,0,1,0.00,0.00,43.56,
18.121,112.54921281572777,85.39874295450026,-3.0,0.0,0.0,1,3,1,1,0,0,1,0.00,0.00,43.56,
18.136,112.57692128157278,85.31887429545003,-2.0,0.0,0.0,1,3,1,1,0,0,1,0.00,0.00,43.56,
18.15,112.61569212815728,85.30188742954499,-2.0,0.0,-1.0,1,3,1,1,0,0,1,0.00,0.00,43.65,
18.164,112.62856921281573,85.2911887429545,-2.0,0.0,0.0,1,3,1,1,0,0,1,0.00,0.00,43.85,
18.178,112.67485692128157,85.29011887429546,-2.0,0.0,0.0,1,3,1,1,0,0,1,0.00,0.00,43.95,
18.192,112.71548569212817,85.28101188742956,-2.0,0.0,0.0,1,3,1,1,0,0,1,0.00,0.00,44.05,
18.206,112.69254856921282,85.28910118874296,-3.0,0.0,0.0,1,3,1,1,0,0,1,0.00,0.00,44.15,
18.221,112.65425485692128,85.2539101188743,-2.0,0.0,-1.0,1,3,1,1,0,0,1,0.00,0.00,44.15,
18.234,112.68642548569213,85.21439101188741,-2.0,0.0,-1.0,1,3,1,1,0,0,1,0.00,0.00,44.24,
18.248,112.69864254856921,85.18343910118875,-2.0,0.0,-1.0,1,3,1,1,0,0,1,0.00,0.00,44.15,
18.263,112.65486425485692,85.17134391011888,-2.0,0.0,-1.0,1,3,1,1,0,0,1,0.00,0.00,44.05,
18.277,112.6504864254857,85.2511343910119,-2.0,0.0,-1.0,1,3,1,1,0,0,1,0.00,0.00,44.05,
18.291,112.70404864254856,85.24111343910118,-2.0,0.0,-1.0,1,3,1,1,0,0,1,0.00,0.00,43.85,
18.305,112.71840486425486,85.24911134391013,-2.0,0.0,-1.0,1,3,1,1,0,0,1,0.00,0.00,43.85,
18.319,112.7468404864255,85.27691113439101,-1.0,0.0,-1.0,1,3,1,1,0,0,1,0.00,0.00,43.65,
18.333,112.74068404864254,85.2976911134391,-1.0,0.0,-1.0,1,3,1,1,0,0,1,0.00,0.00,43.56,
18.348,112.75806840486426,85.2457691113439,-1.0,0.0,-1.0,1,3,1,1,0,0,1,0.00,0.00,43.56,
18.362,112.82280684048642,85.1865769111344,-1.0,0.0,-1.0,1,3,1,1,0,0,1,0.00,0.00,43.65,
18.375,112.79328068404865,85.12665769111344,-1.0,0.0,-1.0,1,3,1,1,0,0,1,0.00,0.00,43.56,
18.39,112.77232806840486,85.21066576911134,-1.0,0.0,-1.0,1,3,1,1,0,0,1,0.00,0.00,43.65,
18.404,112.7342328068405,85.30006657691115,-1.0,0.0,-1.0,1,3,1,1,0,0,1,0.00,0.00,43.65,
18.842,112.76642328068404,85.51600665769112,-1.0,0.0,-1.0,1,3,1,1,0,0,1,0.00,0.00,43.07,
18.856,112.7696423280684,85.52860066576912,-2.0,0.0,-1.0,1,3,1,1,0,0,1,0.00,0.00,43.16,
18.871,112.77896423280684,85.57486006657692,-2.0,0.0,-1.0,1,3,1,1,1,0,1,0.00,0.00,43.07,
18.885,112.76189642328069,85.5614860066577,-2.0,0.0,-1.0,1,3,1,1,1,0,1,0.00,0.00,43.46,
18.898,112.74218964232806,85.53314860066577,-2.0,0.0,-1.0,1,3,1,1,1,0,1,0.00,0.00,43.46,
18.913,112.68621896423281,85.52131486006658,-2.0,0.0,-1.0,1,3,1,1,1,0,1,0.00,0.00,43.46,
18.927,112.68962189642329,85.54713148600666,-2.0,0.0,-1.0,1,3,1,1,1,0,1,0.00,0.00,43.36,
18.941,112.66296218964233,85.56771314860066,-2.0,0.0,-1.0,1,3,1,1,1,0,1,0.00,0.00,43.16,
18.956,112.66929621896423,85.56977131486005,-2.0,0.0,-1.0,1,3,1,1,1,0,1,0.00,0.00,43.07,
18.969,112.65192962189643,85.596977131486,-2.0,0.0,-1.0,1,3,1,1,1,0,1,0.00,0.00,43.16,
18.983,112.65019296218965,85.57269771314859,-2.0,0.0,-1.0,1,3,1,1,1,0,1,0.00,0.00,43.07,
18.998,112.63201929621897,85.54326977131487,-2.0,0.0,-1.0,1,3,1,1,1,1,1,0.00,0.00,43.07,
19.012,112.6302019296219,85.50432697713148,-2.0,0.0,-1.0,1,3,1,1,1,1,1,0.00,0.00,43.07,
19.026,112.6750201929622,85.49143269771315,-2.0,0.0,-1.0,1,4,1,1,1,1,1,0.00,0.00,43.07,
19.041,112.75150201929623,85.49914326977131,-2.0,0.0,-1.0,1,3,1,1,1,1,1,0.00,0.00,43.07,
19.054,112.76815020192961,85.55391432697714,-2.0,0.0,-1.0,1,3,1,1,1,1,1,0.00,0.00,43.07,
19.068,112.77881502019297,85.59539143269771,-2.0,0.0,-1.0,1,3,1,1,1,1,1,0.00,0.00,43.07,
19.083,112.78888150201931,85.65353914326977,-2.0,0.0,-1.0,1,4,1,1,1,1,1,0.00,0.00,43.16,
19.097,112.76288815020193,85.65035391432698,-2.0,0.0,-1.0,1,3,1,1,1,1,1,0.00,0.00,43.46,
19.111,112.76928881502019,85.66803539143271,-2.0,0.0,0.0,1,4,1,1,1,1,1,0.00,0.00,43.65,
19.125,112.82392888150201,85.65180353914327,-2.0,0.0,-1.0,1,4,1,1,1,1,1,0.00,0.00,43.95,
19.139,112.8473928881502,85.68618035391432,-2.0,0.0,-1.0,1,3,1,1,1,1,1,0.00,0.00,44.64,
19.153,112.86773928881503,85.66261803539143,-2.0,0.0,-1.0,1,3,1,1,1,1,1,0.00,0.00,44.93,
19.168,112.8787739288815,85.66026180353913,-2.0,0.0,-1.0,1,3,1,1,1,1,1,0.00,0.00,45.22,
19.182,112.85287739288815,85.68702618035391,-2.0,0.0,-1.0,1,3,1,1,1,1,1,0.00,0.00,45.42,
19.195,112.8322877392888,85.68970261803538,-2.0,0.0,-1.0,1,3,1,1,1,1,1,0.00,0.00,45.81,
19.21,112.90222877392888,85.68097026180355,-2.0,0.0,-1.0,1,3,1,1,1,1,1,0.00,0.00,45.91,
19.224,112.90922287739289,85.63509702618035,-2.0,0.0,-1.0,1,3,1,1,1,1,1,0.00,0.00,46.01,
19.238,112.90992228773929,85.63050970261803,-2.0,0.0,-1.0,1,3,1,1,1,1,1,0.00,0.00,46.01,
19.253,112.92799222877395,85.60305097026179,-2.0,0.0,-1.0,1,3,1,1,1,1,1,0.00,0.00,46.11,
19.266,112.89379922287739,85.59130509702618,-2.0,0.0,-1.0,1,3,1,1,1,1,1,0.00,0.00,46.21,
19.28,112.93537992228774,85.61713050970262,-2.0,0.0,-1.0,1,3,1,1,1,1,1,0.00,0.00,46.30,
19.295,112.97553799222877,85.58371305097026,-2.0,0.0,-1.0,1,3,1,1,1,1,1,0.00,0.00,46.60,
19.309,113.06955379922287,85.59837130509702,-2.0,0.0,-1.0,1,3,1,1,1,1,1,0.00,0.00,46.79,
19.323,113.07895537992229,85.59083713050971,-2.0,0.0,-1.0,1,3,1,1,1,1,1,0.00,0.00,46.99,
19.337,113.07089553799221,85.59908371305096,-2.0,0.0,-1.0,1,3,1,1,1,1,1,0.00,0.00,47.19,
19.351,113.05208955379922,85.5819083713051,-2.0,0.0,-1.0,1,3,1,1,1,1,1,0.00,0.00,47.19,
19.365,113.01420895537993,85.56219083713052,-2.0,0.0,-1.0,1,3,1,1,1,1,1,0.00,0.00,47.19,
19.38,113.05542089553799,85.47021908371305,-2.0,0.0,-1.0,1,3,1,1,1,1,1,0.00,0.00,47.28,
19.394,113.0505420895538,85.48802190837131,-1.0,0.0,-1.0,1,3,1,1,1,1,1,0.00,0.00,47.28,
19.407,113.05905420895539,85.48980219083714,-1.0,0.0,-1.0,1,3,1,1,1,1,1,0.00,0.00,47.77,
19.422,113.05090542089555,85.52598021908372,-1.0,0.0,-1.0,1,3,1,1,1,1,1,0.00,0.00,47.87,
19.436,113.06809054208955,85.57459802190837,-1.0,0.0,-1.0,1,3,1,1,1,1,1,0.00,0.00,48.07,
19.45,113.11480905420896,85.56145980219084,-1.0,0.0,-1.0,1,3,1,1,1,1,1,0.00,0.00,48.66,
19.465,113.15548090542089,85.56914598021908,-1.0,0.0,0.0,1,3,1,1,1,1,1,0.00,0.00,48.85,
19.478,113.15954809054207,85.57891459802191,-2.0,0.0,0.0,1,3,1,1,1,1,1,0.00,0.00,49.15,
19.492,113.2049548090542,85.5528914598022,-2.0,0.0,0.0,1,3,1,1,1,1,1,0.00,0.00,49.54,
19.507,113.19149548090542,85.58628914598023,-1.0,1.0,0.0,1,3,1,1,1,1,1,0.00,0.00,50.42,
19.521,113.14514954809054,85.57162891459801,-1.0,1.0,-1.0,1,3,1,1,1,1,1,0.00,0.00,50.91,
19.534,113.16751495480906,85.6421628914598,-1.0,1.0,-1.0,1,3,1,1,1,1,1,0.00,0.00,51.50,
19.549,113.2147514954809,85.64921628914598,-1.0,1.0,-1.0,1,4,1,2,1,1,2,0.00,0.00,52.09,
19.563,113.2284751495481,85.6679216289146,-2.0,0.0,-1.0,1,4,1,2,1,1,2,0.00,0.00,53.07,
19.577,113.2208475149548,85.68779216289145,-2.0,0.0,-1.0,1,4,1,2,1,1,2,0.00,0.00,53.56,
19.592,113.2560847514955,85.69877921628915,-3.0,0.0,-1.0,1,4,1,2,1,1,2,0.00,0.00,54.05,
19.605,113.27760847514955,85.66387792162891,-3.0,0.0,-1.0,1,4,1,2,1,1,2,0.00,0.00,54.94,
19.619,113.28876084751496,85.60638779216288,-3.0,0.0,-1.0,1,4,1,2,1,1,2,0.00,0.00,55.13,
19.634,113.2808760847515,85.6186387792163,-2.0,0.0,-1.0,1,4,1,2,1,1,2,0.00,0.00,55.13,
19.648,113.24408760847514,85.66486387792163,-3.0,0.0,0.0,1,4,1,2,1,1,2,0.00,0.00,55.33,
19.662,113.29440876084752,85.68748638779216,-3.0,0.0,0.0,1,4,1,2,1,1,2,0.00,0.00,55.82,
19.676,113.38944087608475,85.6357486387792,-3.0,0.0,0.0,1,4,1,2,1,1,2,0.00,0.00,56.11,
19.69,113.38094408760847,85.65757486387791,-3.0,0.0,-1.0,1,4,1,2,1,1,2,0.00,0.00,56.41,
19.704,113.43409440876084,85.68675748638779,-3.0,0.0,-1.0,1,4,1,2,1,1,1,0.00,0.00,56.60,
19.719,113.41240944087609,85.65367574863879,-3.0,0.0,-1.0,1,4,1,2,1,1,1,0.00,0.00,56.70,
19.732,113.3652409440876,85.62336757486389,-3.0,0.0,-1.0,1,4,1,2,1,1,1,0.00,0.00,56.51,
19.746,113.37852409440876,85.6653367574864,-3.0,0.0,-1.0,1,4,1,2,1,1,1,0.00,0.00,56.70,
19.761,113.41585240944087,85.62453367574865,-3.0,0.0,-1.0,1,4,1,2,1,1,1,0.00,0.00,56.90,
19.775,113.41058524094409,85.64745336757487,-3.0,0.0,-1.0,1,4,1,2,1,1,1,0.00,0.00,56.90,
19.789,113.47305852409441,85.66774533675749,-2.0,0.0,-1.0,1,4,1,2,1,1,1,0.00,0.00,56.90,
19.804,113.47930585240944,85.57977453367573,-2.0,0.0,-1.0,1,4,1,2,1,1,1,0.00,0.00,57.00,
19.817,113.47993058524095,85.52597745336757,-2.0,0.0,-1.0,1,4,1,2,1,1,1,0.00,0.00,57.19,
19.831,113.4709930585241,85.51159774533676,-2.0,0.0,-1.0,1,4,1,2,1,1,1,0.00,0.00,57.19,
19.846,113.49709930585242,85.49215977453368,-2.0,0.0,-1.0,1,4,1,2,1,1,1,0.00,0.00,57.19,
19.86,113.54470993058523,85.43621597745339,-2.0,0.0,-1.0,1,4,1,2,1,1,1,0.00,0.00,57.19,
19.874,113.51347099305852,85.41262159774534,-2.0,0.0,-1.0,1,4,1,2,1,1,1,0.00,0.00,57.29,
19.888,113.48334709930586,85.40126215977455,-2.0,0.0,-1.0,1,4,1,2,1,1,1,0.00,0.00,57.39,
19.902,113.43533470993059,85.40912621597745,-2.0,0.0,-1.0,1,4,1,2,1,1,1,0.00,0.00,57.29,
19.916,113.47553347099306,85.37391262159775,-2.0,0.0,-1.0,1,4,1,2,1,1,1,0.00,0.00,57.39,
19.931,113.4615533470993,85.36139126215977,-2.0,0.0,-1.0,1,4,1,2,1,1,1,0.00,0.00,57.49,
19.945,113.54115533470991,85.34213912621598,-2.0,0.0,-1.0,1,4,1,2,1,1,1,0.00,0.00,57.58,
19.958,113.56711553347098,85.3762139126216,-2.0,0.0,-1.0,1,4,1,2,1,1,1,0.00,0.00,57.58,
19.973,113.5607115533471,85.36162139126216,-2.0,0.0,-1.0,1,4,1,2,1,1,1,0.00,0.00,57.58,
19.987,113.5510711553347,85.36916213912623,-2.0,0.0,-1.0,1,4,1,2,1,1,1,0.00,0.00,57.49,
20.001,113.52310711553346,85.33391621391262,-2.0,0.0,-1.0,1,4,1,2,1,1,1,0.00,0.00,57.39,
20.016,113.54731071155334,85.31239162139127,-2.0,0.0,-1.0,1,4,1,2,1,1,1,0.00,0.00,57.29,
20.029,113.55873107115534,85.35523916213913,-2.0,0.0,-1.0,1,4,1,2,1,1,1,0.00,0.00,57.19,
20.043,113.58687310711554,85.40452391621392,-2.0,0.0,-1.0,1,4,1,2,1,1,1,0.00,0.00,57.19,
20.058,113.58068731071154,85.43645239162139,-2.0,0.0,-1.0,1,4,1,1,1,1,1,0.00,0.00,57.19,
20.072,113.53506873107116,85.48464523916213,-2.0,0.0,-1.0,1,4,1,1,1,1,1,0.00,0.00,57.19,
20.086,113.51250687310711,85.48046452391621,-2.0,0.0,-1.0,1,4,1,1,1,1,1,0.00,0.00,57.09,
20.101,113.51025068731072,85.46204645239162,-2.0,0.0,-1.0,1,4,1,1,1,1,1,0.00,0.00,57.00,
20.114,113.61802506873107,85.50520464523916,-3.0,0.0,-1.0,1,4,1,1,1,1,1,0.00,0.00,56.90,
20.128,113.61980250687311,85.50052046452392,-2.0,0.0,-1.0,1,4,1,1,1,1,1,0.00,0.00,56.70,
20.143,113.6559802506873,85.5000520464524,-2.0,0.0,-1.0,1,4,1,1,1,1,1,0.00,0.00,56.60,
20.157,113.65959802506873,85.46400520464525,-2.0,0.0,-1.0,1,4,1,1,1,1,1,0.00,0.00,56.60,
20.171,113.65095980250688,85.50540052046452,-2.0,0.0,-1.0,1,4,1,1,1,1,1,0.00,0.00,56.51,
20.185,113.66809598025068,85.48254005204646,-2.0,0.0,-2.0,1,4,1,1,1,1,1,0.00,0.00,56.21,
20.199,113.69680959802507,85.53425400520464,-1.0,0.0,-1.0,1,4,1,1,1,1,1,0.00,0.00,56.11,
20.213,113.6366809598025,85.49442540052047,-2.0,0.0,-1.0,1,4,1,1,1,1,1,0.00,0.00,56.02,
20.228,113.62166809598025,85.49944254005204,-2.0,0.0,-1.0,1,4,1,1,1,1,1,0.00,0.00,55.82,
20.242,113.60216680959802,85.4819442540052,-2.0,0.0,-1.0,1,4,1,1,1,1,1,0.00,0.00,55.72,
20.255,113.60021668095979,85.50719442540053,-1.0,0.0,-1.0,1,4,1,1,1,1,1,0.00,0.00,55.52,
20.27,113.56402166809599,85.51871944254006,-1.0,0.0,-1.0,1,4,1,1,1,1,1,0.00,0.00,55.43,
20.284,113.61440216680961,85.456871944254,-1.0,0.0,-1.0,1,4,1,1,1,1,1,0.00,0.00,55.13,
20.298,113.60144021668096,85.4956871944254,-1.0,0.0,-1.0,1,4,1,1,1,1,1,0.00,0.00,55.13,
20.313,113.5641440216681,85.46356871944253,-1.0,0.0,-1.0,1,4,1,1,1,1,1,0.00,0.00,54.94,
20.326,113.6054144021668,85.41535687194425,-1.0,0.0,-1.0,1,4,1,1,1,1,1,0.00,0.00,54.84,
20.34,113.63654144021667,85.45553568719443,-1.0,0.0,-1.0,1,4,1,1,1,1,1,0.00,0.00,54.74,
20.355,113.63065414402166,85.45955356871944,-1.0,0.0,-1.0,1,4,1,1,1,1,1,0.00,0.00,54.74,
20.369,113.59406541440217,85.49595535687195,-1.0,0.0,-1.0,1,4,1,1,1,1,1,0.00,0.00,54.74,
20.383,113.59040654144022,85.50859553568719,-1.0,0.0,-1.0,1,4,1,1,1,1,1,0.00,0.00,54.74,
20.397,113.59004065414403,85.50985955356872,-1.0,0.0,-1.0,1,4,1,1,1,1,1,0.00,0.00,54.74,
20.411,113.5450040654144,85.50098595535687,-1.0,0.0,-1.0,1,4,1,1,1,1,1,0.00,0.00,54.64,
20.425,113.51350040654144,85.55409859553569,-2.0,0.0,-1.0,1,4,1,2,1,1,1,0.00,0.00,54.54,
20.44,113.51035004065415,85.52340985955357,-2.0,0.0,-1.0,1,4,1,2,1,1,1,0.00,0.00,54.45,
20.454,113.4920350040654,85.53834098595536,-2.0,0.0,-1.0,1,4,1,2,1,1,1,0.00,0.00,54.15,
20.467,113.51720350040652,85.56683409859552,-2.0,0.0,-1.0,1,4,1,2,1,1,1,0.00,0.00,53.86,
20.482,113.50172035004066,85.59668340985954,-2.0,0.0,-1.0,1,4,1,2,1,1,1,0.00,0.00,53.66,
20.496,113.50917203500407,85.59066834098596,-2.0,0.0,-1.0,1,4,1,2,1,1,1,0.00,0.00,53.56,
20.51,113.49191720350039,85.59906683409858,-2.0,0.0,-1.0,1,4,1,2,1,1,1,0.00,0.00,53.27,
20.525,113.46319172035003,85.60890668340986,-2.0,0.0,-1.0,1,4,1,2,1,1,1,0.00,0.00,53.17,
20.539,113.451319172035,85.60089066834098,-2.0,0.0,-1.0,1,4,1,2,1,1,1,0.00,0.00,53.07,
20.552,113.46813191720351,85.5370890668341,-2.0,0.0,-1.0,1,4,1,2,1,1,1,0.00,0.00,52.88,
20.567,113.46081319172033,85.49470890668341,-2.0,0.0,-1.0,1,4,1,2,1,1,1,0.00,0.00,52.68,
20.581,113.46008131917202,85.43647089066836,-2.0,0.0,-1.0,1,4,1,2,1,1,1,0.00,0.00,52.58,
20.595,113.4060081319172,85.46664708906684,-2.0,0.0,-1.0,1,4,1,2,1,1,1,0.00,0.00,52.29,
20.61,113.35560081319171,85.43366470890669,-2.0,0.0,-1.0,1,4,1,2,1,1,1,0.00,0.00,52.09,
20.623,113.35056008131917,85.43936647089066,-2.0,0.0,-1.0,1,4,1,2,1,1,1,0.00,0.00,52.09,
20.637,113.36805600813192,85.45793664708907,-2.0,0.0,-1.0,1,4,1,2,1,1,1,0.00,0.00,51.99,
20.652,113.4148056008132,85.53179366470891,-2.0,0.0,-1.0,1,4,1,2,1,1,1,0.00,0.00,51.80,
20.666,113.39248056008132,85.55717936647089,-2.0,0.0,-1.0,1,4,1,2,1,1,1,0.00,0.00,51.60,
20.68,113.36324805600813,85.49671793664709,-2.0,0.0,-1.0,1,4,1,2,1,1,1,0.00,0.00,51.50,
20.694,113.34232480560081,85.45467179366472,-2.0,0.0,-1.0,1,4,1,2,1,1,1,0.00,0.00,51.31,
20.708,113.39423248056008,85.45946717936647,-2.0,0.0,-1.0,1,4,1,2,1,1,1,0.00,0.00,51.11,
20.722,113.43542324805601,85.51394671793665,-2.0,0.0,-1.0,1,4,1,2,1,1,1,0.00,0.00,50.91,
20.737,113.4755423248056,85.47439467179366,-2.0,0.0,-1.0,1,4,1,2,1,1,1,0.00,0.00,50.72,
20.751,113.50655423248057,85.51543946717936,-1.0,-1.0,-1.0,1,4,1,2,1,1,1,0.00,0.00,50.13,
20.765,113.51865542324805,85.48354394671793,-1.0,-1.0,-1.0,1,4,1,2,1,1,1,0.00,0.00,49.64,
20.779,113.4298655423248,85.48935439467179,-1.0,-1.0,-1.0,1,4,1,2,1,1,1,0.00,0.00,49.15,
20.793,113.38498655423248,85.54393543946718,-2.0,-1.0,-1.0,1,4,1,1,1,1,1,0.00,0.00,47.58,
20.807,113.38949865542325,85.55839354394672,-3.0,-1.0,-1.0,1,3,1,1,1,1,1,0.00,0.00,46.70,
20.822,113.37194986554232,85.56883935439467,-3.0,-1.0,-1.0,1,3,1,1,1,1,1,0.00,0.00,45.91,
20.836,113.37919498655423,85.63288393543948,-3.0,-1.0,-1.0,1,3,1,1,1,1,1,0.00,0.00,45.13,
20.85,113.38891949865543,85.47728839354394,-2.0,-1.0,-1.0,1,3,1,1,1,1,1,0.00,0.00,43.26,
20.865,113.35389194986554,85.4617288393544,-1.0,0.0,-1.0,1,3,1,1,1,1,1,0.00,0.00,42.28,
20.879,113.30538919498655,85.52317288393544,-1.0,0.0,-1.0,1,3,1,1,1,1,1,0.00,0.00,41.59,
20.892,113.30053891949865,85.57431728839354,-1.0,0.0,0.0,1,3,1,1,1,1,1,0.00,0.00,41.40,
20.907,113.23705389194987,85.57043172883934,-2.0,0.0,0.0,1,3,1,1,1,1,1,0.00,0.00,41.30,
20.921,113.21270538919498,85.57904317288394,-2.0,0.0,0.0,1,3,1,1,1,1,1,0.00,0.00,41.20,
20.935,113.13827053891949,85.57090431728838,-2.0,0.0,0.0,1,4,1,1,1,1,1,0.00,0.00,41.10,
20.948,113.13082705389193,85.56109043172884,-2.0,1.0,0.0,1,4,1,1,1,1,1,0.00,0.00,41.30,
20.963,113.13008270538919,85.56910904317287,-2.0,1.0,0.0,1,4,1,1,1,1,1,0.00,0.00,41.40,
20.977,113.17500827053892,85.5879109043173,-2.0,1.0,0.0,1,4,1,1,1,1,1,0.00,0.00,41.79,
20.992,113.1795008270539,85.54479109043173,-3.0,1.0,0.0,1,4,1,1,1,1,1,0.00,0.00,42.28,
21.005,113.24295008270539,85.47747910904317,-2.0,1.0,0.0,1,4,1,1,1,1,1,0.00,0.00,43.26,
21.019,113.27629500827054,85.50674791090432,-2.0,1.0,0.0,1,4,1,1,1,1,1,0.00,0.00,43.65,
21.033,113.31562950082704,85.55467479109043,-2.0,2.0,0.0,1,4,1,1,1,1,1,0.00,0.00,44.15,
21.048,113.3645629500827,85.52346747910904,-3.0,2.0,0.0,1,4,1,1,1,1,1,0.00,0.00,44.73,
21.061,113.38745629500826,85.5113467479109,-2.0,2.0,0.0,1,4,1,1,1,1,1,0.00,0.00,46.21,
21.075,113.43474562950082,85.50113467479109,-2.0,2.0,0.0,1,4,1,1,1,1,1,0.00,0.00,46.89,
21.09,113.47547456295008,85.53611346747911,-2.0,2.0,0.0,1,4,1,1,1,1,1,0.00,0.00,47.68,
21.104,113.587547456295,85.48561134674792,-2.0,2.0,0.0,1,4,1,1,1,1,1,0.00,0.00,48.46,
21.117,113.60775474562949,85.47156113467479,-2.0,3.0,0.0,1,4,1,1,1,1,1,0.00,0.00,50.03,
21.132,113.62777547456294,85.49715611346748,-2.0,3.0,0.0,1,4,1,1,1,1,1,0.00,0.00,50.91,
21.146,113.69277754745629,85.49071561134674,-2.0,3.0,0.0,1,4,1,1,1,1,2,0.00,0.00,51.89,
21.159,113.79827775474563,85.42707156113467,-2.0,3.0,0.0,1,4,1,2,1,1,2,0.00,0.00,54.15,
21.174,113.81782777547457,85.43870715611347,-3.0,4.0,0.0,1,4,1,2,1,1,2,0.00,0.00,55.43,
21.188,113.91878277754746,85.42187071561135,-3.0,4.0,0.0,1,4,1,2,1,1,2,0.00,0.00,56.90,
21.202,114.00087827775475,85.39318707156113,-3.0,4.0,0.0,1,4,1,2,1,1,2,0.00,0.00,58.47,
21.216,114.07208782777548,85.38131870715611,-3.0,5.0,0.0,1,4,1,2,1,1,2,0.00,0.00,61.61,
21.23,114.14220878277756,85.42513187071563,-3.0,5.0,0.0,1,4,1,2,1,1,2,0.00,0.00,63.18,
21.244,114.18522087827776,85.42051318707156,-3.0,5.0,0.0,1,4,1,2,1,1,2,0.00,0.00,64.84,
21.259,114.22552208782777,85.37505131870716,-2.0,5.0,0.0,1,4,1,2,2,1,2,0.00,0.00,66.41,
21.272,114.36455220878277,85.29850513187073,-2.0,5.0,0.0,1,4,1,2,2,1,2,0.00,0.00,69.65,
21.286,114.45945522087827,85.22785051318708,-2.0,5.0,0.0,1,4,1,2,2,1,2,0.00,0.00,71.22,
21.301,114.60394552208783,85.22978505131871,-2.0,5.0,0.0,1,4,1,2,2,1,2,0.00,0.00,72.59,
21.315,114.71739455220879,85.29297850513187,-2.0,5.0,0.0,1,4,1,2,2,1,2,0.00,0.00,74.16,
21.328,114.77373945522088,85.2632978505132,-2.0,4.0,0.0,1,4,1,2,2,1,2,0.00,0.00,77.01,
21.343,114.87837394552209,85.21532978505131,-2.0,3.0,-1.0,1,5,1,2,2,1,2,0.00,0.00,78.38,
21.357,114.9698373945522,85.18353297850514,-3.0,4.0,-1.0,1,4,1,2,2,1,2,0.00,0.00,79.56,
21.371,114.96998373945522,85.21635329785052,-3.0,4.0,-1.0,1,5,1,2,2,1,2,0.00,0.00,81.42,
21.385,115.00599837394552,85.23763532978505,-3.0,3.0,-1.0,1,5,1,2,2,1,2,0.29,0.00,82.31,
21.399,115.08159983739455,85.13176353297851,-3.0,3.0,-1.0,1,5,1,2,2,1,2,0.49,0.00,83.19,
21.413,115.16115998373945,85.12117635329786,-3.0,3.0,-1.0,1,5,1,2,2,1,2,0.59,0.00,83.88,
21.428,115.26811599837396,85.08411763532979,-3.0,2.0,-1.0,1,5,1,2,2,1,2,0.69,0.00,84.56,
21.442,115.37781159983739,85.09841176353298,-2.0,2.0,-1.0,1,5,1,2,2,1,2,0.88,0.00,84.76,
21.456,115.36178115998374,85.0818411763533,-2.0,2.0,-1.0,1,5,1,2,2,1,2,0.88,0.00,84.76,
21.47,115.37817811599837,85.08018411763533,-2.0,2.0,-1.0,1,5,1,2,2,1,2,0.88,0.00,84.76,
21.484,115.39781781159985,85.10701841176353,-2.0,2.0,0.0,1,5,1,2,2,1,2,0.78,0.00,84.76,
21.498,115.48078178115999,85.07370184117636,-2.0,2.0,0.0,1,5,1,2,2,1,2,0.88,0.00,84.86,
21.513,115.552078178116,84.96237018411763,-2.0,1.0,0.0,1,5,1,2,2,1,2,0.88,0.00,85.05,
21.526,115.59520781781158,84.99623701841176,-2.0,1.0,0.0,1,5,1,2,2,2,2,0.98,0.00,85.45,
21.54,115.64452078178117,85.01762370184117,-2.0,0.0,0.0,1,5,1,2,2,2,2,0.88,0.00,85.64,
21.555,115.6584520781781,84.97476237018411,-3.0,0.0,0.0,1,5,1,2,2,2,2,0.88,0.00,85.74,
21.569,115.6328452078178,84.9884762370184,-3.0,0.0,0.0,1,5,1,2,2,2,2,0.78,0.00,85.64,
21.582,115.65728452078177,85.00784762370184,-3.0,0.0,0.0,1,5,1,2,2,2,2,0.78,0.00,85.84,
21.597,115.74072845207817,84.96478476237019,-4.0,0.0,0.0,1,5,1,2,2,2,2,0.69,0.00,85.94,
21.611,115.75807284520782,84.95147847623701,-4.0,0.0,0.0,1,5,1,2,2,1,2,0.39,0.00,86.03,
21.625,115.75080728452077,84.93214784762371,-4.0,0.0,0.0,1,5,1,2,2,1,2,0.39,0.00,86.03,
21.639,115.75908072845209,84.87621478476238,-4.0,0.0,0.0,1,4,1,2,2,1,2,0.29,0.00,85.94,
21.653,115.77790807284521,84.82562147847624,-5.0,0.0,0.0,1,4,1,2,2,1,2,0.10,0.00,85.94,
21.667,115.79779080728451,84.75756214784762,-4.0,0.0,0.0,1,4,1,2,2,1,2,0.00,0.00,85.84,
21.681,115.79077908072846,84.67875621478477,-4.0,0.0,0.0,1,4,1,2,2,1,2,0.00,0.00,85.64,
21.695,115.74507790807284,84.65287562147847,-4.0,0.0,0.0,1,4,1,2,1,1,2,0.00,0.00,85.35,
21.709,115.69550779080728,84.60528756214785,-3.0,0.0,0.0,1,4,1,2,1,1,2,0.00,0.00,85.15,
21.724,115.69955077908074,84.57352875621478,-3.0,0.0,0.0,1,4,1,2,1,1,2,0.00,0.00,85.25,
21.737,115.72695507790809,84.48035287562148,-3.0,0.0,0.0,1,4,1,2,1,1,2,0.00,0.00,84.95,
21.751,115.72069550779081,84.48003528756216,-3.0,-1.0,-1.0,1,4,1,2,1,1,2,0.00,0.00,84.95,
21.766,115.70206955077909,84.39000352875621,-2.0,-1.0,-1.0,1,4,1,2,1,1,2,0.00,0.00,84.76,
21.78,115.6912069550779,84.34500035287563,-2.0,-1.0,-1.0,1,4,1,2,1,1,2,0.00,0.00,84.46,
21.794,115.69012069550779,84.34950003528755,-1.0,-1.0,-1.0,1,4,1,2,1,1,2,0.00,0.00,83.88,
21.809,115.69901206955079,84.37695000352875,-1.0,-1.0,-1.0,1,4,1,2,1,1,2,0.00,0.00,83.48,
21.823,115.68190120695509,84.44269500035288,-2.0,-1.0,-1.0,1,4,2,2,1,1,2,0.00,0.00,83.19,
21.837,115.69819012069551,84.44026950003528,-2.0,-2.0,-1.0,1,4,2,2,1,1,2,0.00,0.00,82.43pitch,
22.264,114.22381901206955,84.51202695000353,-2.0,-4.0,-2.0,1,3,1,1,0,0,1,0.00,0.00,57.68,
22.279,114.00438190120695,84.54620269500035,-2.0,-3.0,-2.0,1,3,1,1,0,0,1,0.00,0.00,56.90,
22.293,113.9464381901207,84.55862026950004,-2.0,-3.0,-2.0,1,3,1,1,0,0,1,0.00,0.00,55.72,
22.307,113.89564381901207,84.49686202695,-2.0,-3.0,-2.0,1,3,1,1,0,0,1,0.00,0.00,55.13,
