time,pitch,roll,gyrx,gyry,gyrz,f1,f2,f3,f4,f5,f6,f7,g1,g2,g3
0.391,37.32,74.4,-4.35,0.48,-0.06,3.0,0.0,0.0,5.0,0.0,0.0,0.0,0.0,0.0,0.49,
0.415,42.558,85.623,-1.84,-2.25,-2.49,3.0,0.0,0.0,5.0,0.0,0.0,0.0,0.0,0.0,0.49,
0.439,48.031800000000004,95.9883,-3.03,-4.26,2.09,3.0,0.0,0.0,5.0,0.0,0.0,0.0,0.0,0.0,0.49,
0.462,52.98918,104.45883,-6.52,-1.81,2.98,3.0,0.0,0.0,5.0,0.0,0.0,0.0,0.0,0.0,0.39,
0.487,56.976918000000005,112.019883,-6.66,1.28,0.08,3.0,0.0,0.0,5.0,0.0,0.0,0.0,0.0,0.0,0.49,
0.51,60.0216918,118.8869883,-3.68,-0.85,0.56,3.0,0.0,0.0,5.0,0.0,0.0,0.0,0.0,0.0,0.69,
0.534,62.261169179999996,124.73069883,-0.52,-0.18,1.95,3.0,0.0,0.0,5.0,0.0,0.0,0.0,0.0,0.0,0.49,
0.559,64.501116918,129.284069883,-0.82,-4.02,0.88,3.0,0.0,0.0,5.0,0.0,0.0,0.0,0.0,0.0,0.49,
0.582,66.5431116918,133.0694069883,-3.66,-1.84,3.16,3.0,0.0,0.0,5.0,0.0,0.0,0.0,0.0,0.0,0.59,
0.606,67.83631116918,136.57994069883,-4.36,-2.54,-0.05,3.0,0.0,0.0,5.0,0.0,0.0,0.0,0.0,0.0,0.49,
0.63,69.15363111691799,139.765994069883,-2.86,-2.53,-2.19,3.0,0.0,0.0,5.0,0.0,0.0,0.0,0.0,0.2,0.69,
0.654,70.5543631116918,142.60459940698829,-0.57,-1.76,-1.43,3.0,0.0,0.0,5.0,0.0,0.0,0.0,0.0,0.1,0.69,
0.677,71.48643631116919,144.58045994069886,0.78,-0.21,1.37,3.0,0.0,0.0,5.0,0.0,0.0,0.0,0.0,0.29,0.59,
0.702,71.88564363111692,146.0650459940699,-0.24,-4.76,1.17,3.0,0.0,0.0,5.0,0.0,0.0,0.0,0.0,0.29,0.69,
0.726,72.6095643631117,147.455504599407,-0.05,-6.98,-0.4,3.0,0.0,0.0,5.0,0.0,0.0,0.0,0.0,0.2,0.78,
0.749,73.10495643631117,148.6925504599407,-0.28,-1.56,-2.07,3.0,0.0,0.0,5.0,0.0,0.0,0.0,0.0,0.29,0.88,
0.774,73.46049564363112,149.83325504599406,-1.37,0.73,1.85,3.0,0.0,0.0,5.0,0.0,0.0,0.0,0.0,0.29,0.88,
0.797,73.1090495643631,150.8563255045994,0.89,-1.68,-0.36,3.0,0.0,0.0,5.0,0.0,0.0,0.0,0.0,0.39,0.88,
0.821,73.3799049564363,151.97563255045992,2.18,-7.33,0.44,3.0,0.0,0.0,5.0,0.0,0.0,0.0,0.0,0.39,0.88,
0.845,73.53299049564362,152.717563255046,1.88,-1.06,0.02,3.0,0.0,0.0,5.0,0.0,0.0,0.0,0.0,0.49,0.59,
0.869,74.09729904956436,153.0437563255046,-0.89,-1.42,-6.18,3.0,0.0,0.0,5.0,0.0,0.0,0.0,0.0,0.39,0.69,
0.892,75.19772990495643,153.25637563255046,-0.45,-1.59,-0.11,3.0,0.0,0.0,5.0,0.0,0.0,0.0,0.0,0.49,1.08,
0.917,75.12777299049564,153.42163756325505,-2.14,0.49,0.51,3.0,0.0,0.0,5.0,0.0,0.0,0.0,0.0,0.59,0.88,
0.941,74.97677729904956,153.8251637563255,-2.51,-0.56,-4.69,3.0,0.0,0.0,5.0,0.0,0.0,0.0,0.0,0.59,0.78,
0.964,75.64567772990495,154.00951637563256,-4.4,-0.84,-2.03,3.0,0.0,0.0,5.0,0.0,0.0,0.0,0.0,0.59,0.88,
0.989,75.42456777299051,153.95595163756326,-4.98,4.13,0.37,3.0,0.0,0.0,5.0,0.0,0.0,0.0,0.0,0.59,0.78,
1.012,74.70945677729905,154.06759516375635,-5.58,0.44,-2.76,3.0,0.0,0.0,5.0,0.0,0.0,0.0,0.0,0.59,0.78,
1.036,74.7549456777299,154.34875951637565,-6.91,-4.96,-2.06,3.0,0.0,0.0,5.0,0.0,0.0,0.0,0.0,0.59,0.98,
1.06,75.03849456777299,154.71887595163756,-4.15,-0.72,-0.31,3.0,0.0,0.0,5.0,0.0,0.0,0.0,0.0,0.69,0.98,
1.084,74.78784945677731,154.94488759516378,-2.76,0.74,-0.82,3.0,0.0,0.0,5.0,0.0,0.0,0.0,0.0,0.59,0.98,
1.107,74.18678494567774,155.01248875951637,-3.22,0.53,0.36,3.0,0.0,0.0,5.0,0.0,0.0,0.0,0.0,0.59,0.88,
1.132,74.32467849456778,155.13624887595165,-4.0,-4.5,0.81,3.0,0.0,0.0,5.0,0.0,0.0,0.0,0.0,0.49,1.08,
1.156,74.15846784945677,155.10362488759517,-6.92,-0.42,-0.19,3.0,0.0,0.0,5.0,0.0,0.0,0.0,0.0,0.49,0.98,
1.179,74.65484678494566,155.4333624887595,-5.08,-0.19,-4.9,3.0,0.0,0.0,5.0,0.0,0.0,0.0,0.0,0.49,0.88,
1.204,74.54248467849456,155.77233624887597,-2.01,1.53,-0.41,3.0,0.0,0.0,5.0,0.0,0.0,0.0,0.0,0.49,0.59,
1.227,74.01824846784945,155.84223362488757,-2.59,-0.61,-0.73,3.0,0.0,0.0,5.0,0.0,0.0,0.0,0.0,0.39,0.39,
1.251,74.64982484678495,155.79522336248874,-3.98,-5.35,1.13,3.0,0.0,0.0,5.0,0.0,0.0,0.0,0.0,989.44,0.39,
1.275,75.0909824846785,155.6465223362489,-4.69,-1.63,2.82,3.0,0.0,0.0,5.0,0.0,0.0,0.0,0.0,0.1,0.39,
1.299,74.28009824846785,155.7936522336249,-3.75,1.11,-1.37,3.0,0.0,0.0,5.0,0.0,0.0,0.0,0.0,0.0,0.39,
1.324,74.24400982484678,155.84436522336247,-4.09,-3.53,-2.92,3.0,0.0,0.0,5.0,0.0,0.0,0.0,0.0,0.0,0.59,
1.347,75.50040098248468,155.82243652233623,-3.81,-4.31,-0.04,3.0,0.0,0.0,5.0,0.0,0.0,0.0,0.0,0.0,0.49,
1.372,75.81504009824846,155.7842436522336,-3.5,1.49,0.4,3.0,0.0,0.0,5.0,0.0,0.0,0.0,0.0,0.0,0.49,
1.395,75.44150400982485,155.90642436522336,-2.93,1.8,-2.79,3.0,0.0,0.0,5.0,0.0,0.0,0.0,0.0,0.0,0.69,
1.419,75.55715040098248,155.87364243652235,-3.17,-2.02,1.2,3.0,0.0,0.0,5.0,0.0,0.0,0.0,0.0,0.0,0.69,
1.442,75.53271504009825,155.5193642436522,-5.73,-1.87,4.12,3.0,0.0,0.0,5.0,0.0,0.0,0.0,0.0,0.0,0.49,
1.467,75.69227150400982,155.1779364243652,-8.31,-0.18,1.19,3.0,0.0,0.0,5.0,0.0,0.0,0.0,0.0,0.0,0.69,
1.49,76.51822715040097,154.8737936424365,-10.13,-0.08,0.06,3.0,0.0,0.0,5.0,0.0,0.0,0.0,0.0,0.0,0.78,
1.514,77.22182271504009,154.40237936424364,-13.37,3.54,2.67,3.0,0.0,0.0,4.0,0.0,0.0,0.0,0.0,0.0,0.78,
1.539,77.20218227150401,154.05823793642438,-15.42,5.16,-0.6,3.0,0.0,0.0,4.0,0.0,0.0,0.0,0.0,0.0,0.78,
1.562,77.4612182271504,153.68182379364242,-16.1,3.62,-0.84,3.0,0.0,0.0,4.0,0.0,0.0,0.0,0.0,0.0,0.78,
1.586,77.25312182271504,153.60818237936425,-14.92,4.29,0.76,3.0,0.0,0.0,4.0,0.0,0.0,0.0,0.0,0.0,0.88,
1.61,76.6383121822715,153.72681823793644,-13.17,2.26,-0.21,3.0,0.0,0.0,4.0,0.0,0.0,0.0,0.0,0.0,0.78,
1.634,75.91983121822715,153.81968182379364,-13.12,1.27,3.0,3.0,0.0,0.0,4.0,0.0,0.0,0.0,0.0,0.0,0.88,
1.657,75.45198312182272,153.60396818237936,-12.81,-2.31,4.66,3.0,0.0,0.0,4.0,0.0,0.0,0.0,0.0,0.0,0.78,
1.682,75.79219831218226,153.22239681823797,-13.97,-4.05,5.02,3.0,0.0,0.0,4.0,0.0,0.0,0.0,0.0,0.0,0.78,
1.705,76.35721983121823,152.3832396818238,-18.34,-0.27,3.98,3.0,0.0,0.0,4.0,0.0,0.0,0.0,0.0,0.0,0.88,
1.73,77.07072198312183,151.5793239681824,-23.85,1.5,-0.16,3.0,0.0,0.0,4.0,0.0,0.0,0.0,0.0,0.0,0.88,
1.754,77.82607219831218,151.07593239681825,-25.81,3.7,-1.44,3.0,0.0,0.0,4.0,0.0,0.0,0.0,0.0,0.0,0.98,
1.778,78.38760721983122,150.4855932396818,-26.73,5.04,-1.63,3.0,0.0,0.0,4.0,0.0,0.0,0.0,0.0,0.0,0.88,
1.802,78.98376072198312,149.42755932396818,-28.37,5.46,-1.57,3.0,0.0,0.0,4.0,0.0,0.0,0.0,0.0,0.0,0.88,
1.825,80.12337607219831,147.8997559323968,-34.48,3.02,-1.58,3.0,0.0,0.0,4.0,0.0,0.0,0.0,0.0,0.0,0.88,
1.85,81.25433760721984,146.3519755932397,-44.18,9.77,1.13,3.0,0.0,0.0,4.0,0.0,0.0,0.0,0.0,0.0,0.88,
1.873,81.97043376072199,144.82019755932396,-48.0,9.78,1.27,3.0,0.0,0.0,4.0,0.0,0.0,0.0,0.0,0.0,0.98,
1.897,83.15804337607221,143.2900197559324,-56.24,9.35,-2.42,3.0,0.0,0.0,4.0,0.0,0.0,0.0,0.0,0.0,0.98,
1.922,84.09580433760722,141.93100197559323,-59.44,15.35,2.68,3.0,0.0,0.0,4.0,0.0,0.0,0.0,0.0,0.0,1.08,
1.945,84.52258043376072,139.94110019755934,-65.36,15.11,2.48,3.0,0.0,0.0,4.0,0.0,0.0,0.0,0.0,0.0,0.88,
1.969,84.32225804337608,138.12211001975592,-78.39,17.12,-2.72,3.0,0.0,0.0,4.0,0.0,0.0,0.0,0.0,0.0,1.08,
1.993,82.88022580433761,137.87721100197558,-79.45,18.53,-10.01,3.0,0.0,0.0,4.0,0.0,0.0,0.0,0.0,0.0,0.39,
2.017,81.73702258043376,138.17672110019757,-71.72,14.37,-15.63,3.0,0.0,0.0,4.0,0.0,0.0,0.0,0.0,0.0,0.49,
2.041,81.96470225804337,138.18867211001975,-59.67,11.12,-8.63,3.0,0.0,0.0,4.0,0.0,0.0,0.0,0.0,0.0,0.59,
2.065,82.72547022580434,136.63286721100198,-58.94,12.5,2.82,2.0,0.0,0.0,4.0,0.0,0.0,0.0,0.0,0.0,0.59,
2.089,83.26954702258044,133.6332867211002,-70.16,11.68,-0.34,2.0,0.0,0.0,4.0,0.0,0.0,0.0,0.0,0.0,0.78,
2.113,84.54795470225804,131.65932867211004,-80.71,13.57,4.27,2.0,0.0,0.0,4.0,0.0,0.0,0.0,0.0,0.0,0.69,
2.138,85.50379547022581,130.903932867211,-77.19,21.26,16.96,2.0,0.0,0.0,4.0,0.0,0.0,0.0,0.0,0.0,0.69,
2.161,85.92337954702259,130.1263932867211,-71.65,17.02,15.56,2.0,0.0,0.0,4.0,0.0,0.0,0.0,0.0,0.0,0.69,
2.186,86.56833795470226,128.9146393286721,-69.4,13.69,13.59,2.0,0.0,0.0,4.0,0.0,0.0,0.0,0.0,0.0,0.59,
2.209,87.49683379547022,127.62346393286721,-72.11,18.08,12.08,2.0,0.0,0.0,4.0,0.0,0.0,0.0,0.0,0.0,0.59,
2.234,88.51668337954702,126.25234639328671,-71.95,18.78,12.81,2.0,0.0,0.0,4.0,0.0,0.0,0.0,0.0,0.0,0.78,
2.257,89.5186683379547,125.84523463932867,-70.5,22.2,20.34,2.0,0.0,0.0,4.0,0.0,0.0,0.0,0.0,0.0,0.78,
2.282,90.04186683379547,125.42652346393287,-63.58,21.67,31.16,2.0,0.0,0.0,4.0,0.0,0.0,0.0,0.0,0.0,0.78,
2.306,90.12118668337955,124.12465234639329,-60.85,14.24,29.8,2.0,0.0,0.0,4.0,0.0,0.0,0.0,0.0,0.29,1.08,
2.33,90.57011866833795,121.81646523463934,-65.46,8.85,18.49,2.0,0.0,0.0,3.0,0.0,0.0,0.0,0.0,0.0,1.37,
2.354,91.17301186683379,119.42564652346393,-71.56,10.46,10.14,2.0,0.0,0.0,3.0,0.0,0.0,0.0,0.0,0.0,1.47,
2.377,92.14230118668338,117.8365646523464,-72.61,15.79,10.05,2.0,0.0,0.0,3.0,0.0,0.0,0.0,0.0,0.0,1.08,
2.402,92.90523011866834,116.57065646523465,-72.68,23.15,16.8,2.0,0.0,0.0,3.0,0.0,0.0,0.0,0.0,0.0,0.78,
2.425,93.70152301186684,115.39106564652347,-67.47,13.27,19.64,2.0,0.0,0.0,3.0,0.0,0.0,0.0,0.0,0.0,0.98,
2.45,94.47415230118668,113.85110656465235,-65.04,12.05,30.79,2.0,0.0,0.0,3.0,0.0,0.0,0.0,0.0,0.0,0.98,
2.473,94.99241523011867,112.18511065646523,-69.5,12.33,25.46,2.0,0.0,0.0,3.0,0.0,0.0,0.0,0.0,0.0,0.69,
2.498,95.62924152301187,110.49751106564653,-69.76,10.93,21.36,2.0,0.0,0.0,3.0,0.0,0.0,0.0,0.0,0.0,0.78,
2.522,96.52992415230119,109.30275110656466,-71.47,9.27,25.46,2.0,0.0,0.0,3.0,0.0,0.0,0.0,0.0,0.0,1.08,
2.546,96.93499241523013,108.10327511065647,-69.85,15.44,23.88,2.0,0.0,0.0,3.0,0.0,0.0,0.0,0.0,0.0,1.28,
2.57,97.24549924152302,107.42532751106563,-66.41,19.4,20.91,2.0,0.0,0.0,3.0,0.0,0.0,0.0,0.0,0.0,1.37,
2.594,97.7445499241523,107.23153275110656,-59.78,14.97,30.54,2.0,0.0,0.0,3.0,0.0,0.0,0.0,0.0,0.0,0.78,
2.618,97.83945499241523,106.96915327511064,-53.27,16.91,39.08,2.0,0.0,0.0,3.0,0.0,0.0,0.0,0.0,0.0,0.78,
2.642,97.38994549924153,106.14191532751106,-48.3,15.72,34.3,2.0,0.0,0.0,3.0,0.0,0.0,0.0,0.0,0.0,0.39,
2.666,96.97599454992417,105.19519153275111,-45.04,16.31,23.35,2.0,0.0,0.0,3.0,0.0,0.0,0.0,0.0,0.0,0.59,
2.69,96.79059945499242,104.4075191532751,-44.03,13.75,16.76,2.0,0.0,0.0,3.0,0.0,0.0,0.0,0.0,0.0,0.69,
2.714,96.51105994549926,103.7077519153275,-41.76,11.69,16.2,2.0,0.0,0.0,3.0,0.0,0.0,0.0,0.0,0.0,0.78,
2.738,96.18610599454993,102.82777519153275,-38.24,5.08,14.36,2.0,0.0,0.0,3.0,0.0,0.0,0.0,0.0,0.0,0.88,
2.762,95.80261059945501,102.16377751915327,-33.26,-1.74,15.07,2.0,0.0,0.0,3.0,0.0,0.0,0.0,0.0,0.0,0.69,
2.786,95.7282610599455,101.67437775191533,-29.73,-1.38,16.56,2.0,0.0,0.0,3.0,0.0,0.0,0.0,0.0,0.0,0.98,
2.81,95.37882610599456,101.26543777519153,-23.26,-5.93,10.21,1.0,0.0,0.0,3.0,0.0,0.0,0.0,0.0,0.0,1.08,
2.834,95.05588261059945,100.60354377751915,-11.05,-7.52,7.1,1.0,0.0,0.0,3.0,0.0,0.0,0.0,0.0,0.0,1.28,
2.859,95.04158826105994,99.88935437775191,-2.96,-17.0,6.22,2.0,0.0,0.0,3.0,0.0,0.0,0.0,0.0,0.0,1.08,
2.882,95.400158826106,99.10693543777518,-0.4,-19.46,4.91,2.0,0.0,0.0,3.0,0.0,0.0,0.0,0.0,0.0,0.78,
2.906,96.11101588261059,98.21869354377752,2.05,-19.14,4.53,2.0,0.0,0.0,3.0,0.0,0.0,0.0,0.0,0.0,0.49,
2.929,96.83910158826106,96.95986935437774,1.91,-13.48,0.2,2.0,0.0,0.0,3.0,0.0,0.0,0.0,0.0,0.0,0.88,
2.954,97.3349101588261,95.65498693543778,1.91,-4.18,-4.66,2.0,0.0,0.0,3.0,0.0,0.0,0.0,0.0,0.0,1.08,
2.977,97.98749101588261,94.36349869354378,-5.18,-1.7,-5.98,2.0,0.0,0.0,3.0,0.0,0.0,0.0,0.0,0.0,0.88,
3.001,98.27774910158826,92.97434986935437,-12.98,3.88,-3.31,2.0,0.0,0.0,3.0,0.0,0.0,0.0,0.0,0.0,1.08,
3.024,98.85577491015883,91.68343498693545,-10.6,4.9,0.61,1.0,0.0,0.0,3.0,0.0,0.0,0.0,0.0,0.0,1.67,
3.049,99.16557749101588,91.35634349869355,-12.64,0.42,-2.02,2.0,0.0,0.0,3.0,0.0,0.0,0.0,0.0,0.0,1.67,
3.073,99.18755774910159,91.04463434986936,-9.79,-10.8,4.89,2.0,0.0,0.0,3.0,0.0,0.0,0.0,0.0,0.0,0.88,
3.096,99.12675577491017,90.05946343498692,-11.6,-10.96,-5.44,2.0,0.0,0.0,3.0,0.0,0.0,0.0,0.0,0.0,0.2,
3.121,98.95867557749102,89.7899463434987,-9.25,-7.66,-7.58,2.0,0.0,0.0,3.0,0.0,0.0,0.0,0.0,0.0,0.0,
3.144,98.5458675577491,89.42999463434987,-11.15,-3.84,-2.79,3.0,0.0,0.0,3.0,0.0,0.0,0.0,0.0,0.0,0.0,
3.168,98.4145867557749,88.61099946343498,-8.09,1.6,-3.44,3.0,0.0,0.0,2.0,0.0,0.0,0.0,0.0,0.0,0.1,
3.192,98.40145867557749,88.2860999463435,-8.35,0.39,-8.47,3.0,1.0,0.0,2.0,0.0,0.0,0.0,0.0,0.0,0.2,
3.216,98.45414586755774,88.37060999463435,-10.07,-2.96,-6.72,3.0,1.0,0.0,3.0,0.0,0.0,0.0,0.0,0.0,0.39,
3.239,98.46841458675578,88.27106099946344,-14.18,0.65,-4.05,3.0,1.0,0.0,3.0,0.0,0.0,0.0,0.0,0.29,0.49,
3.264,98.39784145867557,88.05410609994635,-13.6,-1.24,-2.36,3.0,1.0,0.0,2.0,0.0,0.0,0.0,0.0,0.59,0.39,
3.288,98.42678414586756,87.73541060999464,-7.21,0.18,8.32,3.0,1.0,0.0,2.0,0.0,0.0,0.0,0.0,0.69,0.49,
3.311,98.51967841458676,87.38854106099946,-5.1,1.63,0.64,3.0,1.0,0.0,2.0,0.0,0.0,0.0,0.0,0.78,0.49,
3.335,98.47496784145868,87.20985410609995,-4.74,0.42,-3.07,3.0,1.0,0.0,2.0,0.0,0.0,0.0,0.0,0.88,0.69,
3.359,98.47049678414587,87.18298541061,-6.72,0.8,0.0,3.0,1.0,0.0,2.0,0.0,0.0,0.0,0.0,0.88,0.59,
3.383,98.49704967841458,87.05429854106102,-7.01,2.9,-2.47,3.0,1.0,0.0,2.0,0.0,0.0,0.0,0.0,0.98,0.49,
3.406,98.69770496784146,86.96042985410611,-7.82,-0.82,-3.13,3.0,1.0,0.0,2.0,0.0,0.0,0.0,0.0,0.78,0.29,
3.43,98.99677049678415,86.90604298541062,-8.98,-3.57,-4.73,3.0,1.0,0.0,2.0,0.0,0.0,0.0,0.0,0.69,0.49,
3.454,99.13467704967843,86.66660429854106,-6.4,-7.45,2.57,3.0,1.0,0.0,2.0,0.0,0.0,0.0,0.0,0.69,0.0,
3.478,98.95046770496785,86.59766042985412,-6.42,-2.98,2.79,4.0,1.0,0.0,3.0,0.0,0.0,0.0,0.0,0.98,0.0,
3.502,98.9050467704968,86.43776604298542,-7.24,-1.16,1.12,4.0,1.0,0.0,3.0,0.0,0.0,0.0,0.0,1.08,0.29,
3.525,98.80150467704968,86.30477660429854,-8.08,0.0,0.4,4.0,1.0,0.0,3.0,0.0,0.0,0.0,0.0,1.18,0.29,
3.549,98.81815046770497,86.03947766042985,-7.69,1.94,1.85,4.0,1.0,0.0,3.0,0.0,0.0,0.0,0.0,1.18,0.1,
3.573,98.94581504677049,85.75194776604297,-5.2,1.56,1.31,4.0,1.0,0.0,3.0,0.0,0.0,0.0,0.0,1.08,0.1,
3.597,99.12058150467705,85.5611947766043,-3.03,-1.58,-0.63,4.0,1.0,0.0,3.0,0.0,0.0,0.0,0.0,1.08,0.0,
3.62,99.1110581504677,85.48811947766043,-1.65,-4.31,-1.87,4.0,1.0,0.0,3.0,0.0,0.0,0.0,0.0,1.18,0.0,
3.644,99.06510581504678,85.48981194776604,-0.56,-4.42,-2.69,4.0,1.0,0.0,3.0,0.0,0.0,0.0,0.0,1.57,0.2,
3.668,98.90751058150468,85.5349811947766,-1.06,-3.73,-0.17,4.0,1.0,0.0,3.0,0.0,0.0,0.0,0.0,1.96,0.2,
3.692,98.93675105815048,85.69249811947765,-2.26,-1.96,1.06,4.0,1.0,0.0,3.0,0.0,0.0,0.0,0.0,2.26,0.0,
3.716,98.79567510581505,85.66324981194776,-3.36,-1.99,0.06,4.0,1.0,0.0,3.0,0.0,0.0,0.0,0.0,2.35,0.0,
3.739,98.78156751058151,85.57032498119477,-2.45,0.58,-0.89,5.0,1.0,0.0,3.0,0.0,0.0,0.0,0.0,2.26,0.2,
3.764,98.88815675105815,85.58803249811947,-1.85,-0.64,1.66,5.0,2.0,0.0,3.0,0.0,0.0,0.0,0.0,2.35,0.78,
3.787,98.85381567510582,85.59880324981194,-1.51,-1.58,-0.14,5.0,2.0,0.0,4.0,0.0,0.0,0.0,0.0,2.55,0.49,
3.811,98.75138156751058,85.5638803249812,-1.73,-2.18,1.26,5.0,2.0,0.0,4.0,0.0,0.0,0.0,0.0,2.84,0.49,
3.834,98.66013815675106,85.47938803249812,-3.18,0.12,0.28,5.0,2.0,0.0,4.0,0.0,0.0,0.0,0.0,3.14,0.78,
3.858,98.7050138156751,85.49793880324981,-3.08,-0.48,0.39,5.0,2.0,0.0,4.0,0.0,0.0,0.0,0.0,3.34,0.0,
3.883,98.6375013815675,85.52679388032499,-3.73,-1.97,0.52,5.0,2.0,0.0,4.0,0.0,0.0,0.0,0.0,3.43,1.18,
3.906,98.45975013815675,85.6196793880325,-4.8,-1.96,0.97,6.0,2.0,0.0,4.0,0.0,0.0,0.0,0.0,3.63,0.88,
3.93,98.37897501381568,85.74596793880326,-9.03,-1.22,2.31,6.0,2.0,0.0,4.0,0.0,0.0,0.0,0.0,4.32,0.2,
3.954,98.32589750138156,85.68659679388034,-10.23,0.6,1.75,6.0,2.0,0.0,4.0,0.0,0.0,0.0,0.0,5.0,0.49,
3.978,98.48258975013816,85.42865967938805,-9.36,2.86,5.35,272.0,2.0,0.0,5.0,0.0,0.0,0.0,0.0,5.49,0.0,
4.001,98.51625897501381,85.11486596793881,-8.21,3.02,3.91,3300.0,2.0,0.0,5.0,0.0,0.0,0.0,0.0,5.69,0.0,
4.026,98.69962589750138,84.97548659679387,-6.49,1.44,1.72,3300.0,2.0,0.0,5.0,0.0,0.0,0.0,0.0,5.79,0.0,
4.05,98.83496258975013,84.86254865967938,-5.11,0.88,1.37,-33.0,2.0,0.0,5.0,0.0,0.0,0.0,0.0,5.89,0.39,
4.074,98.83049625897502,84.71625486596794,-4.21,0.3,0.72,-33.0,2.0,0.0,5.0,0.0,0.0,0.0,0.0,6.18,0.59,
4.098,98.9290496258975,84.6116254865968,-2.84,-0.39,-0.08,-33.0,2.0,0.0,5.0,0.0,0.0,0.0,0.0,6.38,0.69,
4.122,99.04690496258976,84.60116254865967,-1.92,-1.18,-1.11,-33.0,2.0,0.0,5.0,0.0,0.0,0.0,0.0,6.47,0.59,
4.147,99.13969049625899,84.52811625486596,-0.63,-2.21,-1.05,-33.0,2.0,0.0,5.0,0.0,0.0,0.0,0.0,6.47,0.2,
4.17,99.1399690496259,84.64681162548659,0.85,-0.69,-3.15,-33.0,2.0,0.0,5.0,0.0,0.0,0.0,0.0,6.67,0.78,
4.195,99.24799690496259,84.68568116254866,1.69,-1.38,-0.1,-33.0,2.0,0.0,5.0,0.0,0.0,0.0,0.0,6.67,1.08,
4.218,99.14179969049626,84.68056811625488,3.37,-0.27,-1.4,-33.0,2.0,0.0,5.0,0.0,0.0,0.0,0.0,6.47,0.2,
4.243,99.16717996904963,84.83305681162548,3.9,-0.9,-0.24,3300.0,2.0,0.0,5.0,0.0,0.0,0.0,0.0,6.18,0.0,
4.267,99.18771799690496,85.07330568116255,2.41,-1.67,0.43,-33.0,2.0,0.0,4.0,0.0,0.0,0.0,0.0,5.79,0.0,
4.291,99.09077179969049,85.34033056811627,1.21,-0.8,2.18,-33.0,2.0,0.0,4.0,0.0,0.0,0.0,0.0,5.59,0.2,
4.315,99.08107717996904,85.43903305681162,-0.88,-0.02,0.69,-33.0,2.0,0.0,4.0,0.0,0.0,0.0,0.0,5.2,0.0,
4.339,99.00810771799691,85.50290330568116,-1.13,-2.02,-0.07,-33.0,2.0,0.0,4.0,0.0,0.0,0.0,0.0,5.1,0.2,
4.363,99.0548107717997,85.57229033056812,-1.89,-1.55,0.02,-33.0,2.0,0.0,4.0,0.0,0.0,0.0,0.0,4.91,0.0,
4.387,99.09548107717997,85.60622903305682,-2.36,-1.05,1.02,-33.0,2.0,0.0,4.0,0.0,0.0,0.0,0.0,4.81,0.0,
4.411,99.08154810771799,85.65462290330568,-2.4,-0.91,-0.18,-33.0,2.0,0.0,4.0,0.0,0.0,0.0,0.0,4.91,0.0,
4.434,99.08915481077182,85.67746229033058,-2.67,-1.39,0.46,-33.0,2.0,0.0,4.0,0.0,0.0,0.0,0.0,5.0,0.0,
4.459,99.09891548107717,85.71574622903306,-2.6,-1.34,0.53,-33.0,2.0,0.0,4.0,0.0,0.0,0.0,0.0,4.91,0.0,
4.483,99.0998915481077,85.8095746229033,-2.88,-0.92,0.69,-33.0,2.0,0.0,4.0,0.0,0.0,0.0,0.0,4.91,0.1,
4.507,99.07298915481077,85.81895746229033,-3.13,-0.42,0.21,-33.0,2.0,0.0,4.0,0.0,0.0,0.0,0.0,4.91,0.0,
4.531,99.09729891548108,85.81989574622904,-4.47,-1.24,0.6,-33.0,2.0,0.0,4.0,0.0,0.0,0.0,0.0,5.1,0.88,
4.555,99.11772989154812,85.76598957462292,-3.87,-0.96,0.24,-33.0,2.0,0.0,4.0,0.0,0.0,0.0,0.0,4.81,1.18,
4.579,99.17377298915483,85.8055989574623,-3.5,-1.73,0.25,-33.0,2.0,0.0,4.0,0.0,0.0,0.0,0.0,5.3,0.59,
4.603,99.19737729891548,85.75555989574623,-3.57,-1.76,0.15,-33.0,2.0,0.0,4.0,0.0,0.0,0.0,0.0,5.4,0.39,
4.627,99.12773772989156,85.68755598957463,-3.66,-1.41,0.56,-33.0,2.0,0.0,4.0,0.0,0.0,0.0,0.0,5.4,0.59,
4.652,99.12977377298915,85.65375559895747,-3.21,-0.17,0.18,-33.0,2.0,0.0,4.0,0.0,0.0,0.0,0.0,5.59,0.78,
4.675,99.18397737729892,85.70437555989574,-3.22,-1.24,0.32,-33.0,3.0,0.0,5.0,0.0,0.0,0.0,0.0,5.59,0.88,
4.7,99.16239773772989,85.70043755598958,-3.25,-0.21,-0.08,-33.0,3.0,0.0,5.0,0.0,0.0,0.0,0.0,5.59,0.69,
4.723,99.14223977377299,85.69104375559895,-3.01,-0.37,-0.08,-33.0,3.0,0.0,5.0,0.0,0.0,0.0,0.0,5.69,0.69,
4.748,99.14922397737732,85.66310437555988,-3.31,-1.44,0.52,-33.0,3.0,0.0,5.0,0.0,0.0,0.0,0.0,5.89,0.59,
4.771,99.20392239773773,85.66931043755599,-3.3,-1.21,0.32,-33.0,3.0,0.0,5.0,0.0,0.0,0.0,0.0,5.69,0.69,
4.796,99.21839223977378,85.64293104375561,-3.35,-0.45,-0.05,-33.0,3.0,0.0,5.0,0.0,0.0,0.0,0.0,5.69,0.98,
4.82,99.21083922397737,85.60429310437556,-3.65,-1.02,0.34,-33.0,3.0,0.0,5.0,0.0,0.0,0.0,0.0,5.98,0.88,
4.844,99.21908392239774,85.66342931043756,-3.69,-1.53,0.23,-33.0,3.0,0.0,5.0,0.0,0.0,0.0,0.0,5.98,0.59,
4.869,99.20190839223977,85.63334293104374,-4.15,-1.32,0.1,-33.0,3.0,0.0,5.0,0.0,0.0,0.0,0.0,5.89,0.29,
4.892,99.21819083922398,85.56733429310438,-3.49,-1.07,-0.3,-33.0,3.0,0.0,5.0,0.0,0.0,0.0,0.0,6.28,0.1,
4.917,99.2558190839224,85.56073342931045,-3.63,-1.85,0.55,-33.0,3.0,0.0,5.0,0.0,0.0,0.0,0.0,6.28,0.1,
4.94,99.24158190839225,85.52407334293105,-3.8,-1.43,0.24,-33.0,3.0,0.0,5.0,0.0,0.0,0.0,0.0,6.47,0.1,
4.965,99.27615819083923,85.49340733429311,-3.45,-0.64,-0.21,-33.0,3.0,0.0,5.0,0.0,0.0,0.0,0.0,6.57,0.29,
4.988,99.25261581908393,85.4903407334293,-3.19,-1.15,-0.59,-33.0,3.0,0.0,5.0,0.0,0.0,0.0,0.0,6.57,0.78,
5.013,99.27726158190839,85.56203407334291,-3.66,-1.6,0.05,-33.0,3.0,0.0,5.0,0.0,0.0,0.0,0.0,6.38,0.78,
5.037,99.31572615819083,85.5332034073343,-3.31,-1.18,-0.66,-33.0,3.0,0.0,5.0,0.0,0.0,0.0,0.0,6.47,0.49,
5.061,99.31957261581907,85.53032034073343,-3.43,-1.87,-0.11,-33.0,3.0,0.0,5.0,0.0,0.0,0.0,0.0,6.47,0.29,
5.086,99.2929572615819,85.52103203407334,-3.05,-1.76,0.04,-33.0,3.0,0.0,5.0,0.0,0.0,0.0,0.0,6.38,0.39,
5.109,99.29029572615819,85.51110320340733,-2.92,-1.5,0.09,-33.0,3.0,0.0,5.0,0.0,0.0,0.0,0.0,6.28,0.78,
5.134,99.31702957261581,85.50111032034073,-2.43,-0.89,-0.4,-33.0,3.0,0.0,5.0,0.0,0.0,0.0,0.0,6.18,0.98,
5.157,99.37370295726157,85.52711103203407,-2.62,-1.56,-0.08,-33.0,3.0,0.0,5.0,0.0,0.0,0.0,0.0,5.89,0.78,
5.182,99.38837029572616,85.54771110320341,-2.56,-1.77,-0.15,-33.0,3.0,0.0,5.0,0.0,0.0,0.0,0.0,5.79,0.78,
5.206,99.38983702957262,85.55877111032035,-2.24,-1.15,-0.31,-33.0,3.0,0.0,5.0,0.0,0.0,0.0,0.0,5.49,0.39,
5.23,99.37198370295727,85.59587711103202,-2.22,-1.58,-0.24,-33.0,2.0,0.0,5.0,0.0,0.0,0.0,0.0,5.49,0.88,
5.255,99.37019837029572,85.5995877111032,-2.29,-0.38,-0.63,-33.0,2.0,0.0,5.0,0.0,0.0,0.0,0.0,5.1,0.98,
5.278,99.32501983702956,85.65395877111031,-2.48,-1.95,-0.02,-33.0,2.0,0.0,5.0,0.0,0.0,0.0,0.0,5.1,0.88,
5.303,99.34750198370294,85.64139587711104,-3.15,-1.21,0.3,-33.0,2.0,0.0,5.0,0.0,0.0,0.0,0.0,5.1,0.69,
5.326,99.2867501983703,85.6671395877111,-3.19,-1.01,0.25,-33.0,2.0,0.0,5.0,0.0,0.0,0.0,0.0,4.91,0.69,
5.351,99.26267501983703,85.6337139587711,-3.27,-1.07,0.15,-33.0,2.0,0.0,5.0,0.0,0.0,0.0,0.0,5.0,0.69,
5.374,99.3142675019837,85.68437139587711,-3.05,-0.51,-0.34,-33.0,2.0,0.0,5.0,0.0,0.0,0.0,0.0,5.1,0.2,
5.399,99.31042675019837,85.73443713958771,-3.36,-1.63,0.34,-33.0,2.0,0.0,5.0,0.0,0.0,0.0,0.0,5.3,0.0,
5.424,99.31004267501984,85.71244371395876,-3.37,-1.1,0.54,-33.0,2.0,0.0,5.0,0.0,0.0,0.0,0.0,5.3,0.29,
5.447,99.328004267502,85.72824437139589,-3.08,-0.53,0.19,-33.0,2.0,0.0,5.0,0.0,0.0,0.0,0.0,5.4,0.59,
5.472,99.3568004267502,85.72082443713958,-2.81,-0.91,0.2,-33.0,2.0,0.0,5.0,0.0,0.0,0.0,0.0,5.4,0.69,
5.495,99.37768004267501,85.74708244371395,-2.92,-0.82,0.08,-33.0,2.0,0.0,5.0,0.0,0.0,0.0,0.0,5.2,0.29,
5.52,99.43376800426749,85.72270824437139,-3.14,-1.52,0.21,-33.0,2.0,0.0,5.0,0.0,0.0,0.0,0.0,5.49,0.2,
5.543,99.47537680042676,85.66627082443713,-3.49,-1.35,-0.01,-33.0,2.0,0.0,5.0,0.0,0.0,0.0,0.0,5.59,0.49,
5.568,99.45253768004268,85.66062708244371,-3.95,-1.27,-0.25,-33.0,2.0,0.0,5.0,0.0,0.0,0.0,0.0,5.59,0.49,
5.592,99.45925376800426,85.69606270824438,-3.74,-1.15,-0.11,-33.0,3.0,0.0,5.0,0.0,0.0,0.0,0.0,5.69,0.78,
5.616,99.52292537680043,85.74460627082443,-4.03,-1.18,0.08,-33.0,3.0,0.0,5.0,0.0,0.0,0.0,0.0,5.79,0.88,
5.64,99.55629253768004,85.70446062708245,-3.31,-1.15,0.34,-33.0,3.0,0.0,5.0,0.0,0.0,0.0,0.0,5.79,0.59,
5.664,99.532629253768,85.65544606270825,-2.79,-0.64,0.05,-33.0,3.0,0.0,5.0,0.0,0.0,0.0,0.0,5.79,0.59,
5.689,99.5302629253768,85.62354460627083,-2.22,-0.47,-0.05,-33.0,2.0,0.0,5.0,0.0,0.0,0.0,0.0,5.79,0.49,
5.712,99.47602629253768,85.63835446062708,-2.08,-0.59,-0.24,-33.0,2.0,0.0,5.0,0.0,0.0,0.0,0.0,5.59,0.69,
5.737,99.47960262925378,85.67583544606272,-2.19,-0.29,0.08,-33.0,2.0,0.0,5.0,0.0,0.0,0.0,0.0,5.1,0.88,
5.761,99.47096026292537,85.67958354460627,-1.91,0.21,0.78,-33.0,2.0,0.0,5.0,0.0,0.0,0.0,0.0,5.3,0.69,
5.785,99.55109602629253,85.65295835446064,-1.59,0.4,0.48,-33.0,2.0,0.0,4.0,0.0,0.0,0.0,0.0,4.91,1.08,
5.809,99.61310960262925,85.65929583544606,-1.05,0.49,-0.5,-33.0,2.0,0.0,4.0,0.0,0.0,0.0,0.0,4.22,0.69,
5.833,99.61031096026292,85.6869295835446,-1.41,-0.65,-0.23,-33.0,2.0,0.0,4.0,0.0,0.0,0.0,0.0,4.51,0.69,
5.857,99.63703109602629,85.71669295835446,-1.84,-1.58,0.06,-33.0,2.0,0.0,4.0,0.0,0.0,0.0,0.0,4.22,0.69,
5.88,99.63070310960262,85.74666929583545,-2.17,-2.23,0.14,-33.0,2.0,0.0,4.0,0.0,0.0,0.0,0.0,4.02,1.18,
5.905,99.54907031096027,85.76766692958354,-2.37,-1.53,0.09,-33.0,2.0,0.0,4.0,0.0,0.0,0.0,0.0,3.83,0.29,
5.928,99.50490703109602,85.85076669295836,-2.27,-0.85,0.47,-33.0,2.0,0.0,4.0,0.0,0.0,0.0,0.0,3.73,0.49,
5.953,99.51849070310959,85.85007666929583,-2.15,0.34,0.23,-33.0,2.0,0.0,4.0,0.0,0.0,0.0,0.0,3.53,0.39,
5.977,99.52884907031095,85.85900766692959,-2.15,-0.8,0.25,-33.0,2.0,0.0,4.0,0.0,0.0,0.0,0.0,3.43,0.0,
6.0,99.5118849070311,85.85990076669296,-2.47,-0.78,-0.05,-33.0,2.0,0.0,4.0,0.0,0.0,0.0,0.0,3.63,0.0,
6.025,99.5191884907031,85.85999007666929,-3.08,-0.85,0.21,-33.0,2.0,0.0,4.0,0.0,0.0,0.0,0.0,3.53,0.1,
6.048,99.60091884907031,85.87799900766693,-2.82,-0.92,0.1,-33.0,2.0,0.0,4.0,0.0,0.0,0.0,0.0,3.34,0.29,
6.073,99.74409188490704,85.9427999007667,-2.53,-2.39,-0.05,-33.0,2.0,0.0,4.0,0.0,0.0,0.0,0.0,3.04,0.69,
6.096,99.6774091884907,85.91327999007667,-3.08,-2.46,-0.02,-33.0,2.0,0.0,4.0,0.0,0.0,0.0,0.0,3.04,0.39,
6.121,99.56274091884907,85.92832799900766,-2.69,-1.14,0.32,-33.0,2.0,0.0,4.0,0.0,0.0,0.0,0.0,3.04,0.29,
6.145,99.5602740918849,85.92083279990077,-2.04,0.35,1.03,-33.0,2.0,0.0,4.0,0.0,0.0,0.0,0.0,2.94,0.49,
6.168,99.6500274091885,85.86608327999008,-0.21,-0.3,1.49,-33.0,2.0,0.0,3.0,0.0,0.0,0.0,0.0,2.65,0.49,
6.193,99.73100274091884,85.959608327999,0.06,-1.69,1.53,-33.0,1.0,0.0,3.0,0.0,0.0,0.0,0.0,1.96,0.98,
6.216,99.81110027409187,86.0859608327999,-1.4,-2.98,1.26,-33.0,1.0,0.0,3.0,0.0,0.0,0.0,0.0,1.57,0.98,
6.24,99.8371100274092,86.06259608328,-0.02,-3.83,2.27,-33.0,1.0,0.0,3.0,0.0,0.0,0.0,0.0,1.28,0.69,
6.264,99.79471100274093,86.078259608328,3.15,-3.95,1.89,5.0,1.0,0.0,2.0,0.0,0.0,0.0,0.0,0.69,1.28,
6.288,99.79947110027408,86.1968259608328,2.98,-5.82,1.09,5.0,1.0,0.0,2.0,0.0,0.0,0.0,0.0,0.0,7.75,
6.311,99.59294711002741,86.24468259608328,2.74,-6.98,1.09,5.0,1.0,0.0,2.0,0.0,0.0,0.0,0.0,0.0,2.55,
6.335,99.50929471100274,86.42046825960833,4.83,-4.69,2.37,4.0,1.0,0.0,2.0,0.0,0.0,0.0,0.0,0.0,1.47,
6.359,99.31192947110027,86.53704682596083,6.14,-2.6,2.3,4.0,1.0,0.0,2.0,0.0,0.0,0.0,0.0,0.0,1.47,
6.383,99.42719294711002,86.72870468259609,5.25,-0.98,2.66,4.0,1.0,0.0,2.0,0.0,0.0,0.0,0.0,0.0,1.37,
6.407,99.483719294711,86.84687046825961,3.89,-3.89,1.89,4.0,1.0,0.0,2.0,0.0,0.0,0.0,0.0,0.0,0.98,
6.43,99.39037192947109,87.02968704682596,3.42,-5.37,0.31,4.0,1.0,0.0,2.0,0.0,0.0,0.0,0.0,0.0,0.98,
6.454,99.22803719294711,87.21896870468258,2.14,-1.82,1.03,4.0,1.0,0.0,2.0,0.0,0.0,0.0,0.0,0.0,0.98,
6.477,99.1398037192947,87.27389687046826,5.2,-2.67,3.79,4.0,1.0,0.0,2.0,0.0,0.0,0.0,0.0,0.0,0.78,
6.501,99.07698037192947,87.43238968704682,6.41,-2.2,2.43,4.0,1.0,0.0,2.0,0.0,0.0,0.0,0.0,0.0,0.69,
6.524,99.08869803719296,87.65523896870468,3.73,2.31,2.27,4.0,1.0,0.0,2.0,0.0,0.0,0.0,0.0,0.0,0.59,
6.549,99.0538698037193,87.87552389687048,1.98,5.02,2.99,5.0,1.0,0.0,2.0,0.0,0.0,0.0,0.0,0.0,0.49,
6.573,99.09538698037193,87.93355238968705,4.69,5.62,2.76,5.0,1.0,0.0,2.0,0.0,0.0,0.0,0.0,0.49,0.29,
6.596,99.3335386980372,88.1913552389687,3.67,5.47,0.58,5.0,1.0,0.0,2.0,0.0,0.0,0.0,0.0,0.98,0.0,
6.62,99.51035386980371,88.68513552389686,-3.56,5.23,-3.13,5.0,1.0,0.0,2.0,0.0,0.0,0.0,0.0,1.37,0.0,
6.643,99.69003538698036,89.17551355238969,-7.12,17.31,-6.21,6.0,1.0,0.0,2.0,0.0,0.0,0.0,0.0,1.96,0.0,
6.667,99.99600353869803,89.56655135523897,-22.24,27.71,-10.89,-33.0,2.0,0.0,2.0,0.0,0.0,0.0,0.0,2.94,0.0,
6.691,100.27860035386982,88.95765513552391,-29.69,34.4,-22.95,-33.0,3.0,0.0,3.0,0.0,0.0,0.0,0.0,7.06,0.0,
6.716,100.78386003538698,88.2037655135524,-32.06,27.02,-18.91,-33.0,4.0,0.0,4.0,0.0,0.0,0.0,0.0,11.67,0.0,
6.74,100.99638600353869,87.12037655135524,-19.98,18.01,-13.73,-33.0,5.0,0.0,6.0,0.0,0.0,0.0,0.0,18.64,0.0,
6.765,101.62963860035387,86.69703765513553,-17.56,11.73,-3.43,-33.0,7.0,0.0,8.0,0.0,0.0,1.0,0.0,27.47,0.0,
6.79,101.93596386003539,86.35770376551355,-9.44,8.13,-1.25,-33.0,7.0,0.0,9.0,0.0,0.0,1.0,0.0,34.83,0.0,
6.813,102.20959638600353,86.20677037655135,-5.09,8.89,1.18,-33.0,7.0,0.0,10.0,0.0,0.0,1.0,0.0,39.44,0.0,
6.838,102.65995963860034,86.20067703765513,-0.97,9.12,3.48,-33.0,8.0,0.0,10.0,0.0,0.0,1.0,0.0,41.79,0.0,
6.862,103.13699596386003,86.17306770376551,-3.58,5.76,3.08,-33.0,8.0,0.0,10.0,0.0,0.0,1.0,0.0,42.87,0.0,
6.887,103.409699596386,86.07130677037655,-1.76,1.55,3.66,-33.0,8.0,0.0,10.0,0.0,0.0,1.0,0.0,43.56,0.0,
6.91,103.5449699596386,86.10613067703765,-2.03,0.21,3.49,-33.0,8.0,0.0,10.0,0.0,0.0,1.0,0.0,42.87,0.0,
6.935,103.82849699596386,86.14561306770378,3.04,1.82,6.54,-33.0,8.0,0.0,10.0,0.0,0.0,1.0,0.0,41.5,0.2,
6.96,103.96484969959639,86.15856130677037,4.52,2.12,6.31,-33.0,7.0,0.0,10.0,0.0,0.0,1.0,0.0,39.24,0.39,
6.983,104.11348496995964,86.35785613067704,4.37,2.05,7.05,-33.0,7.0,0.0,9.0,0.0,0.0,0.0,0.0,35.9,0.1,
7.008,104.27234849699596,86.4857856130677,2.22,-0.03,3.75,-33.0,7.0,0.0,9.0,0.0,0.0,0.0,0.0,32.77,0.1,
7.031,104.31523484969958,86.75957856130677,-3.34,-2.38,2.86,-33.0,7.0,0.0,9.0,0.0,0.0,0.0,0.0,29.72,0.1,
7.056,104.34652348496995,86.6609578561307,-9.93,-9.19,0.33,-33.0,7.0,0.0,9.0,0.0,0.0,0.0,0.0,27.66,0.39,
7.08,104.439652348497,86.60609578561306,-8.64,-9.33,-5.95,-33.0,6.0,0.0,10.0,0.0,0.0,1.0,0.0,27.66,0.78,
7.104,104.38596523484969,86.5736095785613,-10.6,-9.95,-4.8,-33.0,6.0,0.0,9.0,0.0,0.0,1.0,0.0,26.98,0.59,
7.129,104.24559652348496,86.57936095785612,-10.21,-9.79,-0.46,-33.0,6.0,0.0,9.0,0.0,0.0,1.0,0.0,26.0,1.47,
7.153,104.0515596523485,86.38193609578562,-10.83,-11.11,0.25,-33.0,6.0,0.0,9.0,0.0,0.0,1.0,0.0,25.02,1.18,
7.178,104.00515596523485,86.02019360957857,-9.5,-10.26,1.35,-33.0,5.0,0.0,9.0,0.0,0.0,1.0,0.0,23.84,0.98,
7.202,103.91951559652348,85.80401936095785,-7.76,-7.69,-0.31,-33.0,5.0,0.0,9.0,0.0,0.0,1.0,0.0,23.74,0.78,
7.227,103.49695155965235,85.55740193609579,-10.42,-6.61,3.8,-33.0,6.0,0.0,9.0,0.0,0.0,1.0,0.0,24.13,0.2,
7.25,103.45469515596524,85.65874019360959,-10.82,-7.32,18.37,-33.0,6.0,0.0,10.0,0.0,0.0,2.0,0.0,26.09,0.49,
7.275,103.44146951559652,85.01187401936096,-10.95,0.08,2.52,-33.0,7.0,0.0,10.0,0.0,0.0,2.0,0.0,29.14,0.88,
7.3,103.42214695155965,84.6411874019361,-4.69,3.43,1.93,-33.0,7.0,0.0,11.0,0.0,0.0,2.0,0.0,32.86,0.49,
7.324,103.05121469515596,84.42411874019362,-5.2,5.86,-0.1,-33.0,8.0,0.0,11.0,0.0,0.0,2.0,0.0,36.69,0.0,
7.348,102.6991214695156,84.43841187401935,-4.98,4.05,0.48,-33.0,8.0,0.0,11.0,0.0,0.0,3.0,0.0,39.93,0.0,
7.372,102.81691214695155,84.39484118740194,-3.61,5.16,0.44,-33.0,8.0,0.0,11.0,0.0,0.0,3.0,0.0,42.58,0.0,
7.397,102.86469121469517,84.4444841187402,-1.7,3.67,1.52,-33.0,8.0,0.0,12.0,0.0,0.0,3.0,0.0,44.93,0.39,
7.42,103.04046912146953,84.43144841187403,-0.84,2.33,1.65,-33.0,9.0,0.0,0.0,0.0,0.0,3.0,0.0,47.38,0.29,
7.445,103.28304691214694,84.5381448411874,0.32,3.33,2.55,-33.0,9.0,0.0,0.0,0.0,0.0,3.0,0.0,49.15,0.1,
7.47,103.4783046912147,84.46781448411873,-0.24,4.47,1.85,-33.0,9.0,0.0,1.0,0.0,0.0,3.0,0.0,50.13,0.0,
7.493,103.71383046912146,84.51478144841187,1.36,4.4,2.78,-33.0,9.0,0.0,2.0,0.0,0.0,3.0,0.0,50.91,0.0,
7.518,103.71938304691214,84.60947814484119,-1.16,5.54,3.68,-33.0,9.0,0.0,2.0,0.0,0.0,3.0,0.0,52.19,0.29,
7.541,103.98093830469122,84.60994781448412,-0.18,6.07,4.19,-33.0,10.0,0.0,3.0,0.0,0.0,3.0,0.0,55.03,0.49,
7.566,104.21409383046912,84.77199478144841,-1.47,7.1,3.47,-33.0,10.0,0.0,5.0,0.0,0.0,4.0,0.0,59.06,0.39,
7.59,104.48040938304692,84.73419947814484,-3.35,8.79,3.53,-33.0,11.0,0.0,8.0,0.0,0.0,4.0,0.0,64.35,0.0,
7.614,104.66904093830469,84.74841994781448,-3.37,8.06,1.75,-33.0,12.0,0.0,11.0,0.0,0.0,4.0,0.0,72.2,0.0,
7.639,104.73290409383046,84.89384199478144,-3.68,4.5,2.76,-33.0,0.0,0.0,15.0,0.0,0.0,5.0,0.0,81.62,0.0,
7.663,104.88329040938305,84.98938419947814,-6.26,-0.7,2.66,-33.0,2.0,0.0,19.0,0.0,0.0,5.0,0.0,90.64,0.78,
7.688,104.75432904093829,84.7919384199478,-9.29,-5.34,-0.83,-33.0,2.0,0.0,20.0,0.0,0.0,5.0,0.0,101.83,0.0,
7.712,104.77743290409383,84.61919384199479,-9.1,-10.18,0.82,-33.0,3.0,0.0,22.0,0.0,0.0,6.0,0.0,106.54,0.0,
7.736,104.71674329040937,84.44891938419948,-7.98,-10.41,0.79,-33.0,4.0,0.0,24.0,0.0,0.0,6.0,0.0,109.48,1.08,
7.761,104.62967432904094,84.33289193841993,-5.81,-8.29,2.08,-33.0,5.0,0.0,24.0,0.0,0.0,6.0,0.0,111.05,0.78,
7.785,104.78296743290409,84.69028919384199,-5.05,-7.38,-0.29,-33.0,6.0,0.0,25.0,0.0,0.0,6.0,0.0,111.64,0.78,
7.81,104.6992967432904,84.50102891938421,-9.87,-11.2,-3.53,-33.0,5.0,0.0,26.0,0.0,0.0,7.0,0.0,111.64,0.2,
7.834,104.66392967432904,84.53610289193843,-7.86,-12.56,-3.48,-33.0,5.0,0.0,25.0,0.0,0.0,7.0,0.0,110.75,0.98,
7.859,104.5613929674329,84.53061028919385,-8.38,-14.18,-0.95,-33.0,4.0,0.0,26.0,0.0,0.0,7.0,0.0,108.3,1.08,
7.883,104.39813929674328,84.39506102891937,-8.96,-16.47,-1.56,-33.0,4.0,0.0,23.0,0.0,0.0,7.0,0.0,104.08,1.08,
7.908,104.10281392967433,84.23750610289194,-9.47,-16.59,0.21,-33.0,3.0,0.0,25.0,0.0,0.0,8.0,0.0,98.39,0.78,
7.932,103.65028139296743,84.01475061028918,-8.27,-15.35,-1.17,-33.0,2.0,0.0,24.0,0.0,0.0,8.0,0.0,91.63,1.18,
7.957,103.32602813929675,84.01047506102893,-7.08,-13.57,4.41,-33.0,2.0,0.0,24.0,0.0,0.0,8.0,0.0,84.17,0.78,
7.982,102.95160281392967,83.88404750610289,-5.27,-12.74,4.08,-33.0,1.0,0.0,23.0,0.0,0.0,8.0,0.0,77.79,0.59,
8.006,102.78816028139296,84.03340475061029,-4.47,-10.89,10.78,-33.0,0.0,0.0,24.0,0.0,0.0,8.0,0.0,72.89,0.49,
8.031,102.53781602813929,83.94934047506104,-8.67,-12.21,9.58,-33.0,12.0,0.0,21.0,0.0,0.0,8.0,0.0,66.41,0.88,
8.055,102.25178160281394,83.6259340475061,-6.64,-9.14,1.43,-33.0,12.0,0.0,19.0,0.0,0.0,8.0,0.0,62.2,1.67,
8.08,101.94417816028138,83.35059340475061,-6.22,-6.81,3.18,-33.0,11.0,0.0,18.0,0.0,0.0,8.0,0.0,57.78,2.35,
8.104,101.50841781602813,82.99005934047506,-3.82,-3.56,3.13,-33.0,11.0,0.0,17.0,0.0,0.0,8.0,0.0,54.05,2.26,
8.128,101.21284178160282,82.75600593404751,-2.79,-1.9,0.03,-33.0,11.0,0.0,15.0,0.0,0.0,7.0,0.0,51.4,1.37,
8.153,101.07528417816029,82.68760059340475,-1.87,-0.87,2.44,-33.0,11.0,0.0,13.0,0.0,0.0,7.0,0.0,49.34,0.98,
8.177,100.96252841781603,82.65376005934048,-0.89,1.56,-0.36,-33.0,10.0,0.0,11.0,0.0,0.0,6.0,0.0,47.28,1.08,
8.202,100.87925284178161,82.75837600593404,-0.92,3.31,-0.25,3300.0,10.0,0.0,10.0,0.0,0.0,6.0,0.0,44.93,1.08,
8.226,100.95192528417815,82.73283760059341,-0.82,4.11,-0.44,1633.0,10.0,0.0,8.0,0.0,0.0,6.0,0.0,42.97,0.1,
8.251,101.14819252841781,82.76628376005934,-0.53,3.63,-0.87,206.0,10.0,0.0,7.0,0.0,0.0,5.0,0.0,41.1,0.2,
8.275,101.23081925284178,82.80562837600594,0.22,4.47,-0.17,3300.0,9.0,0.0,6.0,0.0,0.0,5.0,0.0,39.04,0.29,
8.299,101.14008192528416,82.8995628376006,2.26,6.55,-1.86,1077.0,9.0,0.0,5.0,0.0,0.0,4.0,0.0,36.79,0.1,
8.324,101.31100819252842,82.96295628376006,4.66,10.45,0.16,1633.0,9.0,0.0,2.0,0.0,0.0,3.0,0.0,34.34,0.0,
8.348,101.60710081925284,83.23029562837601,3.28,9.07,0.24,522.0,9.0,0.0,1.0,0.0,0.0,3.0,0.0,32.27,0.0,
8.372,101.72671008192529,83.3650295628376,1.26,4.02,0.15,442.0,9.0,0.0,1.0,0.0,0.0,3.0,0.0,30.8,0.0,
8.396,101.84667100819253,83.48650295628377,-1.2,1.95,-1.27,383.0,9.0,0.0,0.0,0.0,0.0,3.0,0.0,30.02,0.0,
8.42,101.99366710081927,83.45365029562838,-0.46,1.48,-2.03,39.0,9.0,0.0,0.0,0.0,0.0,3.0,0.0,29.14,0.59,
8.444,102.08036671008193,83.53136502956285,0.76,3.98,-0.47,63.0,9.0,0.0,0.0,0.0,0.0,2.0,0.0,28.35,0.49,
8.468,102.2420366710082,83.68313650295629,2.62,5.01,0.86,46.0,9.0,0.0,12.0,0.0,0.0,2.0,0.0,27.76,0.0,
8.493,102.46520366710081,83.81531365029564,1.16,3.88,0.55,53.0,9.0,0.0,12.0,0.0,0.0,2.0,0.0,27.27,0.1,
8.516,102.55052036671009,83.80153136502956,0.0,3.27,-0.25,58.0,9.0,0.0,12.0,0.0,0.0,2.0,0.0,27.47,0.39,
8.541,102.721052036671,83.96215313650296,0.03,3.07,1.05,58.0,9.0,0.0,12.0,0.0,0.0,2.0,0.0,28.15,0.69,
8.564,102.8281052036671,84.0592153136503,0.21,2.42,0.57,63.0,9.0,0.0,12.0,0.0,0.0,2.0,0.0,28.74,0.59,
8.589,102.89281052036672,84.13192153136502,1.37,3.49,1.68,60.0,9.0,0.0,12.0,0.0,0.0,2.0,0.0,29.04,0.29,
8.612,102.98928105203667,84.34619215313651,0.72,3.43,2.44,60.0,9.0,0.0,12.0,0.0,0.0,2.0,0.0,29.23,0.1,
8.637,103.14292810520365,84.40361921531364,-0.82,2.14,0.98,66.0,9.0,0.0,12.0,0.0,0.0,2.0,0.0,29.63,0.2,
8.662,103.29329281052037,84.44536192153137,-1.5,0.31,0.03,3300.0,9.0,0.0,12.0,0.0,0.0,2.0,0.0,29.82,0.78,
8.685,103.26332928105205,84.44053619215313,-1.29,1.52,0.49,3300.0,9.0,0.0,12.0,0.0,0.0,2.0,0.0,30.02,0.0,
8.71,103.4133329281052,84.53005361921532,-0.09,2.43,1.07,-33.0,9.0,0.0,12.0,0.0,0.0,2.0,0.0,30.21,0.0,
8.734,103.59933329281053,84.58400536192153,-2.15,-0.87,0.26,-33.0,9.0,0.0,12.0,0.0,0.0,2.0,0.0,30.71,0.29,
8.759,103.59993332928104,84.67940053619216,-4.79,-3.02,-1.02,3300.0,9.0,0.0,12.0,0.0,0.0,2.0,0.0,31.39,0.29,
8.783,103.57299333292809,84.71594005361922,-3.14,-2.07,-0.35,3300.0,9.0,0.0,0.0,0.0,0.0,2.0,0.0,32.27,0.0,
8.807,103.53429933329281,84.72859400536193,-2.37,-0.73,-0.37,-33.0,9.0,0.0,0.0,0.0,0.0,2.0,0.0,32.86,0.0,
8.832,103.57542993332927,84.7208594005362,-1.25,1.34,0.42,-33.0,9.0,0.0,1.0,0.0,0.0,2.0,0.0,33.45,0.0,
8.856,103.66054299333292,84.74708594005362,-1.7,0.33,-0.41,-33.0,9.0,0.0,1.0,0.0,0.0,2.0,0.0,34.04,0.39,
8.881,103.71405429933328,84.82170859400536,-2.21,-0.34,0.34,-33.0,9.0,0.0,1.0,0.0,0.0,2.0,0.0,34.73,0.69,
8.904,103.72840542993333,84.82917085940053,-2.78,-0.97,0.6,-33.0,9.0,0.0,1.0,0.0,0.0,2.0,0.0,35.41,0.49,
8.929,103.75684054299333,84.78491708594007,-2.64,-0.92,0.37,-33.0,9.0,0.0,2.0,0.0,0.0,2.0,0.0,36.3,0.0,
8.953,103.78668405429933,84.78049170859401,-2.65,-1.58,0.73,-33.0,9.0,0.0,2.0,0.0,0.0,2.0,0.0,36.79,0.0,
8.977,103.74466840542993,84.77104917085938,-3.09,-1.17,-0.02,-33.0,9.0,0.0,2.0,0.0,0.0,2.0,0.0,37.08,0.2,
9.001,103.776466840543,84.77910491708595,-2.68,-1.57,-0.59,-33.0,10.0,0.0,3.0,0.0,0.0,2.0,0.0,37.28,0.69,
9.026,103.7796466840543,84.81591049170859,-3.49,-1.79,0.07,-33.0,10.0,0.0,3.0,0.0,0.0,2.0,0.0,37.38,0.88,
9.051,103.75296466840543,84.82859104917085,-4.95,-2.18,-0.39,-33.0,10.0,0.0,3.0,0.0,0.0,2.0,0.0,37.77,0.49,
9.075,103.78629646684054,84.84785910491708,-4.92,-2.79,-0.23,-33.0,10.0,0.0,4.0,0.0,0.0,2.0,0.0,38.36,0.49,
9.099,103.85262964668405,84.78678591049172,-5.35,-2.95,-0.44,-33.0,10.0,0.0,4.0,0.0,0.0,3.0,0.0,39.24,0.29,
9.123,103.8142629646684,84.74467859104917,-4.52,-2.09,-0.27,-33.0,10.0,0.0,5.0,0.0,0.0,3.0,0.0,40.12,0.0,
9.148,103.81042629646684,84.71346785910491,-3.57,-1.05,-0.18,-33.0,10.0,0.0,5.0,0.0,0.0,3.0,0.0,40.71,0.0,
9.172,103.78304262964669,84.72834678591049,-3.31,-0.78,0.43,-33.0,10.0,0.0,5.0,0.0,0.0,3.0,0.0,41.4,0.0,
9.197,103.77130426296466,84.72083467859105,-3.47,-0.51,0.6,-33.0,10.0,0.0,6.0,0.0,0.0,3.0,0.0,41.99,0.29,
9.221,103.77013042629646,84.7110834678591,-3.14,-0.92,0.24,-33.0,10.0,0.0,6.0,0.0,0.0,3.0,0.0,42.77,0.59,
9.245,103.70701304262964,84.7101083467859,-2.85,-0.95,0.35,3300.0,10.0,0.0,6.0,0.0,0.0,3.0,0.0,43.46,0.39,
9.27,103.77270130426297,84.6920108346786,-2.54,-0.01,0.64,-33.0,10.0,0.0,6.0,0.0,0.0,3.0,0.0,43.75,0.0,
9.294,103.8062701304263,84.73520108346784,-3.21,-0.85,0.51,-33.0,10.0,0.0,7.0,0.0,0.0,3.0,0.0,44.15,0.0,
9.319,103.86362701304263,84.7215201083468,-3.65,-1.44,0.53,-33.0,11.0,0.0,7.0,0.0,0.0,3.0,0.0,44.44,0.49,
9.342,103.81536270130427,84.70215201083468,-2.93,-1.21,0.73,-33.0,11.0,0.0,8.0,0.0,0.0,3.0,0.0,44.83,0.78,
9.367,103.82853627013043,84.70921520108345,-2.47,-0.39,1.07,-33.0,11.0,0.0,8.0,0.0,0.0,3.0,0.0,45.13,0.98,
9.392,103.84785362701305,84.74592152010835,-2.58,-0.21,0.85,-33.0,11.0,0.0,8.0,0.0,0.0,3.0,0.0,45.42,0.78,
9.416,103.90378536270131,84.77659215201083,-3.31,-0.47,0.62,-33.0,11.0,0.0,8.0,0.0,0.0,3.0,0.0,45.62,0.39,
9.44,103.91837853627014,84.86965921520108,-3.04,-0.91,1.56,-33.0,11.0,0.0,9.0,0.0,0.0,3.0,0.0,46.11,0.1,
9.464,103.91083785362702,84.8339659215201,-4.22,-1.64,1.04,-33.0,11.0,0.0,10.0,0.0,0.0,3.0,0.0,48.36,0.0,
9.489,103.8920837853627,84.776396592152,-5.11,-1.88,0.47,-33.0,11.0,0.0,10.0,0.0,0.0,3.0,0.0,50.62,0.0,
9.513,103.94420837853627,84.6986396592152,-4.34,-0.92,0.72,-33.0,11.0,0.0,11.0,0.0,0.0,3.0,0.0,52.19,0.29,
9.538,103.92242083785364,84.67286396592152,-4.41,-1.61,0.55,-33.0,12.0,0.0,11.0,0.0,0.0,4.0,0.0,54.15,0.69,
9.563,103.87524208378537,84.63428639659216,-3.68,0.0,0.59,1633.0,12.0,0.0,13.0,0.0,0.0,4.0,0.0,56.11,0.69,
9.586,103.82552420837854,84.60342863965921,-2.97,0.92,1.28,-33.0,12.0,0.0,13.0,0.0,0.0,4.0,0.0,57.98,0.39,
9.611,103.84755242083786,84.53734286396592,-2.4,0.82,1.12,3300.0,12.0,0.0,14.0,0.0,0.0,4.0,0.0,60.04,0.0,
9.635,103.84075524208379,84.5667342863966,-3.99,-0.76,0.5,-33.0,0.0,0.0,14.0,0.0,0.0,4.0,0.0,61.9,0.0,
9.66,103.93907552420839,84.47067342863966,-2.95,0.39,0.82,-33.0,0.0,0.0,14.0,0.0,0.0,4.0,0.0,63.67,0.39,
9.684,103.98490755242084,84.70406734286396,-3.89,0.53,1.27,-33.0,0.0,0.0,16.0,0.0,0.0,4.0,0.0,65.24,0.78,
9.708,104.08849075524208,84.70940673428639,-2.98,-0.82,-0.12,-33.0,1.0,0.0,14.0,0.0,0.0,4.0,0.0,66.12,0.78,
9.733,104.0808490755242,84.70094067342865,-3.53,-2.21,-0.81,-33.0,0.0,0.0,15.0,0.0,0.0,4.0,0.0,66.32,0.29,
9.757,104.03508490755243,84.67309406734287,-4.26,-2.24,-0.72,-33.0,0.0,0.0,14.0,0.0,0.0,4.0,0.0,66.02,0.29,
9.782,104.09350849075524,84.65230940673429,-3.34,-1.96,-0.44,-33.0,12.0,0.0,14.0,0.0,0.0,4.0,0.0,65.24,0.1,
9.806,104.12635084907552,84.61423094067342,-3.6,-3.34,-0.85,-33.0,12.0,0.0,14.0,0.0,0.0,4.0,0.0,64.35,0.0,
9.831,104.09363508490756,84.57442309406734,-4.4,-4.34,-1.18,3300.0,12.0,0.0,14.0,0.0,0.0,4.0,0.0,63.08,0.0,
9.856,104.09036350849077,84.57044230940673,-5.52,-5.89,-1.73,-33.0,12.0,0.0,13.0,0.0,0.0,4.0,0.0,61.61,0.1,
9.88,103.96403635084909,84.53404423094067,-6.36,-7.79,-1.53,-33.0,12.0,0.0,13.0,0.0,0.0,4.0,0.0,58.96,0.59,
9.905,103.83440363508491,84.54840442309407,-6.89,-8.86,-1.93,3300.0,12.0,0.0,13.0,0.0,0.0,4.0,0.0,57.29,0.78,
9.929,103.70444036350848,84.38784044230941,-6.91,-10.78,-3.54,1633.0,11.0,0.0,13.0,0.0,0.0,4.0,0.0,55.23,0.39,
9.954,103.59244403635084,84.35378404423093,-9.36,-12.5,-4.6,1077.0,11.0,0.0,12.0,0.0,0.0,4.0,0.0,52.78,0.69,
9.978,103.37424440363509,84.0713784044231,-8.85,-13.34,-5.17,800.0,11.0,0.0,11.0,0.0,0.0,5.0,0.0,49.54,1.28,
10.003,103.1274244403635,84.00713784044231,-7.25,-13.22,-3.54,1077.0,10.0,0.0,11.0,0.0,0.0,5.0,0.0,45.81,1.47,
10.028,102.74274244403635,83.64971378404422,-8.08,-12.58,-4.77,800.0,10.0,0.0,9.0,0.0,0.0,4.0,0.0,41.69,1.57,
10.052,102.58727424440363,83.52397137840443,-6.64,-12.56,-2.66,633.0,9.0,0.0,7.0,0.0,0.0,4.0,0.0,37.18,1.57,
10.077,102.47272742444036,83.44839713784044,-6.4,-11.73,-6.56,25.0,8.0,0.0,4.0,0.0,0.0,4.0,0.0,32.37,2.84,
10.101,102.41627274244404,83.54883971378405,-8.01,-11.88,-4.67,-33.0,8.0,0.0,3.0,0.0,0.0,4.0,0.0,27.27,2.35,
10.126,102.1946272742444,83.5048839713784,-10.15,-10.63,-3.18,-33.0,8.0,0.0,3.0,0.0,0.0,4.0,0.0,23.94,2.45,
10.15,101.80346272742445,83.36548839713784,-7.53,-5.66,-1.13,442.0,8.0,0.0,3.0,0.0,0.0,4.0,0.0,23.05,1.67,
10.175,101.63834627274245,83.36054883971379,-6.69,-2.68,-1.4,3300.0,8.0,0.0,3.0,0.0,0.0,4.0,0.0,22.76,1.47,
10.2,101.45983462727425,83.32405488397137,-9.05,-3.52,-1.18,3300.0,7.0,0.0,2.0,0.0,0.0,4.0,0.0,22.46,1.57,
10.223,101.41498346272743,83.21240548839714,-10.63,-3.38,0.67,-33.0,7.0,0.0,1.0,0.0,0.0,4.0,0.0,22.17,1.77,
10.248,101.66249834627274,83.5432405488397,-15.44,-3.76,3.72,3300.0,6.0,0.0,0.0,0.0,0.0,4.0,0.0,20.9,1.47,
10.272,101.33624983462727,83.35132405488397,-20.0,-9.4,9.73,-33.0,5.0,0.0,11.0,0.0,0.0,4.0,0.0,18.84,1.86,
10.297,100.99762498346271,82.9811324054884,-25.23,-18.86,13.99,-33.0,4.0,0.0,10.0,0.0,0.0,4.0,0.0,15.7,2.45,
10.321,101.09876249834626,82.80011324054885,-26.6,-17.39,18.37,-33.0,3.0,0.0,9.0,0.0,0.0,4.0,0.0,11.48,2.45,
10.346,100.44287624983464,82.07101132405488,-39.4,-7.08,35.22,1077.0,2.0,0.0,8.0,0.0,0.0,4.0,0.0,6.77,2.16,
10.371,100.31428762498345,81.33210113240548,-40.17,-1.37,4.84,2.0,1.0,0.0,6.0,0.0,0.0,4.0,0.0,2.26,3.73,
10.395,100.44542876249835,80.79021011324056,-42.37,-7.6,9.95,0.0,0.0,0.0,5.0,0.0,0.0,3.0,0.0,0.0,7.95,
10.419,100.08054287624984,79.24202101132406,-42.73,12.85,-1.79,0.0,0.0,0.0,4.0,0.0,0.0,2.0,0.0,0.0,14.32,
10.443,100.48505428762499,78.83520210113241,-33.8,-17.6,-6.44,1.0,0.0,0.0,3.0,0.0,0.0,1.0,0.0,0.0,14.32,
10.468,101.03850542876249,79.67652021011324,-28.09,0.87,1.76,1.0,0.0,0.0,2.0,0.0,0.0,0.0,0.0,0.0,9.12,
10.491,101.49885054287624,80.03065202101132,-16.11,2.02,12.57,2.0,0.0,0.0,2.0,0.0,0.0,0.0,0.29,0.0,7.36,
10.516,101.85988505428763,81.44306520210112,0.81,-30.64,-39.51,2.0,0.0,0.0,2.0,0.0,0.0,0.0,0.29,0.0,5.49,
10.541,102.06698850542875,82.9613065202101,-1.77,-12.92,-5.94,2.0,0.0,0.0,2.0,0.0,0.0,0.0,0.2,0.0,4.02,
10.564,102.26769885054289,83.85113065202101,-0.31,-11.82,-2.85,2.0,0.0,0.0,2.0,0.0,0.0,0.0,0.1,0.0,3.53,
10.589,101.81976988505428,83.51711306520211,5.89,-7.77,-0.09,2.0,0.0,0.0,2.0,0.0,0.0,0.0,0.0,0.0,2.35,
10.612,100.86597698850544,82.3677113065202,5.76,7.75,7.16,2.0,0.0,0.0,3.0,0.0,0.0,0.0,0.0,0.0,1.86,
10.636,100.07759769885054,80.83977113065203,12.9,-1.11,6.85,1.0,0.0,0.0,2.0,0.0,0.0,0.0,0.0,0.39,1.57,
10.66,99.70175976988506,80.0929771130652,10.28,-7.94,9.04,1.0,0.0,0.0,3.0,0.0,0.0,0.0,0.0,0.69,1.57,
10.684,98.9531759769885,79.28929771130652,6.02,1.98,9.63,1.0,0.0,0.0,3.0,0.0,0.0,0.0,0.0,0.69,1.77,
10.707,98.14031759769885,78.72292977113065,5.24,2.82,6.02,1.0,0.0,0.0,3.0,0.0,0.0,0.0,0.0,0.69,1.28,
10.731,97.53703175976989,78.76529297711306,3.2,2.04,3.79,1.0,0.0,0.0,2.0,0.0,0.0,0.0,0.0,0.88,1.18,
10.755,97.224703175977,79.2825292977113,8.18,-1.17,4.89,1.0,0.0,0.0,2.0,0.0,0.0,0.0,0.0,0.88,1.37,
10.779,97.05847031759771,80.36925292977114,17.48,-18.0,4.23,1.0,0.0,0.0,3.0,0.0,0.0,0.0,0.0,0.69,0.98,
10.803,96.88884703175978,82.15192529297711,19.18,-16.85,2.3,2.0,0.0,0.0,3.0,0.0,0.0,0.0,0.0,0.0,0.88,
10.826,96.80888470317598,84.1841925292977,28.1,-5.39,-1.23,2.0,0.0,0.0,3.0,0.0,0.0,0.0,0.0,0.0,0.88,
10.851,96.61188847031761,86.62841925292977,39.46,-2.18,5.69,2.0,0.0,0.0,3.0,0.0,0.0,0.0,0.0,0.0,0.88,
10.874,96.05218884703174,88.924841925293,44.33,-1.53,0.5,1.0,0.0,0.0,3.0,0.0,0.0,0.0,0.0,0.0,0.98,
10.898,95.55521888470318,91.0804841925293,54.19,-7.67,-0.64,1.0,0.0,0.0,3.0,0.0,0.0,0.0,0.0,0.0,1.28,
10.923,95.44252188847034,93.21304841925293,64.15,-14.38,-2.85,1.0,0.0,0.0,3.0,0.0,0.0,0.0,0.0,0.0,1.28,
10.946,95.46725218884703,94.8933048419253,71.69,-15.6,-4.23,1.0,0.0,0.0,3.0,0.0,0.0,0.0,0.0,0.0,1.08,
10.971,95.1457252188847,96.06033048419252,77.31,-7.78,-5.69,2.0,0.0,0.0,3.0,0.0,0.0,0.0,0.0,0.0,1.18,
10.994,94.66357252188847,97.37403304841925,80.47,-9.01,-15.11,2.0,0.0,0.0,2.0,0.0,0.0,0.0,0.0,0.0,1.47,
11.019,94.05735725218884,97.97340330484192,82.4,-13.51,-21.56,1.0,0.0,0.0,2.0,0.0,0.0,0.0,0.0,0.0,0.98,
11.042,93.80773572521889,97.62834033048419,78.2,-17.28,-32.78,1.0,0.0,0.0,2.0,0.0,0.0,0.0,0.0,0.0,1.08,
11.067,93.8727735725219,96.60383403304841,61.63,-14.03,-42.66,1.0,0.0,0.0,2.0,0.0,0.0,0.0,0.0,0.0,0.88,
11.09,95.0222773572522,96.32138340330484,61.95,-22.12,-53.24,1.0,0.0,0.0,2.0,0.0,0.0,0.0,0.0,0.0,0.98,
11.115,95.48822773572522,96.44613834033048,65.63,-30.08,-43.08,1.0,0.0,0.0,2.0,0.0,0.0,0.0,0.0,0.0,0.59,
11.139,95.59782277357253,95.73861383403303,51.37,-24.5,-39.57,1.0,0.0,0.0,2.0,0.0,0.0,0.0,0.0,0.0,0.39,
11.163,96.31978227735726,94.6148613834033,31.51,-18.71,-39.76,1.0,0.0,0.0,2.0,0.0,0.0,0.0,0.0,0.0,0.69,
11.187,98.41697822773574,93.92648613834032,12.51,3.39,-12.56,1.0,0.0,0.0,2.0,0.0,0.0,0.0,0.0,0.0,0.78,
11.211,100.63369782277357,92.27364861383403,10.2,32.98,5.26,1.0,0.0,0.0,1.0,0.0,0.0,0.0,0.0,0.0,0.98,
11.235,102.28636978227735,91.5143648613834,17.97,5.39,15.49,1.0,0.0,0.0,2.0,0.0,0.0,0.0,0.0,0.0,0.78,
11.259,102.76663697822772,91.44743648613834,11.49,7.82,29.11,1.0,0.0,0.0,2.0,0.0,0.0,0.0,0.0,0.0,0.78,
11.283,102.55366369782277,91.35974364861383,-0.5,13.56,35.57,1.0,0.0,0.0,2.0,0.0,0.0,0.0,0.0,0.0,0.98,
11.307,101.43436636978228,90.45997436486138,-1.37,16.44,39.6,1.0,0.0,0.0,2.0,0.0,0.0,0.0,0.0,0.0,1.18,
11.331,100.22443663697823,89.53299743648614,-1.68,10.23,27.18,1.0,0.0,0.0,2.0,0.0,0.0,0.0,0.0,0.0,1.08,
11.355,98.45644366369783,88.67529974364861,-14.55,7.5,22.17,1.0,0.0,0.0,2.0,0.0,0.0,0.0,0.0,0.0,0.59,
11.379,97.25364436636978,87.68952997436486,-26.51,1.04,10.73,1.0,0.0,0.0,2.0,0.0,0.0,0.0,0.0,0.0,0.49,
11.403,94.05536443663698,91.33495299743649,-55.74,137.41,66.75,1.0,0.0,0.0,1.0,0.0,0.0,0.0,0.0,0.0,0.69,
11.427,94.0865364436637,98.15249529974365,-29.52,12.66,-18.11,1.0,0.0,0.0,1.0,0.0,0.0,0.0,0.0,0.0,1.47,
11.451,95.34065364436637,96.92624952997437,-63.88,46.17,50.52,0.0,0.0,0.0,0.0,0.0,0.0,0.0,0.0,0.0,5.3,
11.475,96.49206536443666,96.83962495299744,-87.92,46.65,36.66,0.0,0.0,0.0,0.0,0.0,0.0,0.0,0.29,0.0,6.08,
11.499,98.13720653644367,94.64396249529975,-119.15,71.76,-18.71,1.0,0.0,0.0,0.0,0.0,0.0,0.0,0.49,0.0,3.34,
11.524,100.16472065364437,92.77739624952997,-100.14,62.16,-24.93,3.0,0.0,0.0,1.0,0.0,0.0,0.0,0.78,0.49,0.0,
11.548,101.95147206536444,90.98873962495301,-58.47,34.06,-14.88,6.0,1.0,0.0,2.0,0.0,0.0,0.0,0.59,4.02,0.0,
11.572,102.98514720653644,90.26987396249531,-37.21,21.89,-10.16,-33.0,2.0,0.0,3.0,0.0,0.0,0.0,0.2,9.81,0.0,
11.596,103.98851472065364,89.78398739624953,-27.91,17.32,-6.75,-33.0,3.0,0.0,4.0,0.0,0.0,0.0,0.0,15.3,0.0,
11.621,104.89885147206536,89.57339873962495,-20.7,11.4,-4.34,-33.0,4.0,0.0,4.0,0.0,0.0,0.0,0.0,22.37,0.0,
11.645,105.27788514720653,89.4983398739625,-19.4,6.92,-4.06,-33.0,5.0,0.0,5.0,0.0,0.0,0.0,0.0,34.34,0.0,
11.67,105.89178851472064,89.03183398739625,-14.27,4.31,-2.69,-33.0,5.0,0.0,6.0,0.0,0.0,0.0,0.0,41.99,0.0,
11.695,106.23217885147206,88.86818339873963,-11.86,0.6,0.51,-33.0,6.0,0.0,7.0,0.0,0.0,0.0,0.0,48.95,0.0,
11.718,106.3742178851472,88.71681833987395,-11.89,0.33,-1.26,-33.0,7.0,0.0,8.0,0.0,0.0,0.0,0.0,53.27,0.0,
11.743,106.23542178851471,88.5216818339874,-5.6,3.28,1.6,-33.0,7.0,0.0,9.0,0.0,0.0,0.0,0.0,56.8,0.0,
11.767,106.32954217885147,88.54716818339872,-3.62,5.31,1.3,-33.0,8.0,0.0,10.0,0.0,0.0,0.0,0.0,59.35,0.0,
11.792,106.64495421788516,88.51371681833987,-5.9,4.37,2.78,-33.0,8.0,0.0,11.0,0.0,0.0,0.0,0.0,61.9,0.0,
11.816,106.82049542178852,88.41137168183398,-4.87,4.71,3.02,-33.0,8.0,0.0,11.0,0.0,0.0,0.0,0.0,65.73,0.0,
11.84,106.88304954217885,88.3291371681834,2.69,13.27,6.06,-33.0,9.0,0.0,11.0,0.0,0.0,1.0,0.0,69.95,0.0,
11.865,107.15030495421789,88.40191371681834,-2.24,12.63,0.9,-33.0,8.0,0.0,12.0,0.0,0.0,1.0,0.0,75.64,0.0,
11.889,107.76203049542178,88.56219137168182,-3.14,8.11,5.09,-33.0,8.0,0.0,12.0,0.0,0.0,1.0,0.0,82.11,0.0,
11.914,108.50720304954218,88.80321913716818,-13.35,-4.98,-3.47,-33.0,9.0,0.0,12.0,0.0,0.0,1.0,0.0,89.17,0.0,
11.938,109.28372030495422,89.09732191371681,-17.46,-15.43,-0.02,-33.0,10.0,0.0,2.0,0.0,0.0,1.0,0.0,92.7,0.0,
11.963,109.23537203049543,88.43373219137167,-12.37,-12.69,-3.94,-33.0,11.0,0.0,6.0,0.0,0.0,1.0,0.0,92.31,0.0,
11.987,109.09553720304953,88.14237321913717,-14.02,-15.92,0.4,-33.0,11.0,0.0,7.0,0.0,0.0,1.0,0.0,90.06,0.0,
12.012,108.69455372030497,87.72623732191371,-14.31,-15.11,-2.79,-33.0,12.0,0.0,8.0,0.0,0.0,1.0,0.0,85.15,0.0,
12.037,107.87145537203051,87.67562373219138,-16.38,-9.84,-0.26,-33.0,0.0,0.0,11.0,0.0,0.0,2.0,0.0,78.09,0.2,
12.061,107.51914553720304,87.18456237321914,-14.85,-6.0,0.03,-33.0,2.0,0.0,14.0,0.0,0.0,2.0,0.0,80.15,0.69,
12.086,107.5199145537203,86.95545623732193,-11.21,-4.94,2.59,-33.0,3.0,0.0,17.0,0.0,0.0,3.0,0.0,86.82,0.2,
12.11,107.33999145537202,86.9055456237322,-7.34,-7.59,9.47,-33.0,4.0,0.0,18.0,0.0,0.0,3.0,0.0,95.55,0.1,
12.135,106.97999914553719,86.72055456237322,3.24,-0.95,27.09,-33.0,3.0,0.0,17.0,0.0,0.0,3.0,0.0,106.24,0.0,
12.16,106.47599991455373,86.33305545623732,-0.71,4.64,23.58,-33.0,1.0,0.0,14.0,0.0,0.0,3.0,0.0,119.19,0.0,
12.183,107.01959999145537,86.57330554562373,-2.31,0.15,16.17,-33.0,12.0,0.0,13.0,0.0,0.0,4.0,0.0,133.12,0.0,
12.208,107.17295999914553,86.54333055456237,-5.32,-6.21,8.3,-33.0,12.0,0.0,14.0,0.0,0.0,4.0,0.0,141.46,0.0,
12.232,106.85529599991455,86.45033305545624,-3.66,-2.37,11.79,-33.0,11.0,0.0,13.0,0.0,0.0,4.0,0.0,146.17,0.0,
12.258,106.94952959999145,86.34203330554563,-2.21,-3.14,12.57,-33.0,11.0,0.0,11.0,0.0,0.0,4.0,0.0,151.96,0.0,
12.282,107.30095295999915,86.37620333055456,-4.19,-1.93,7.88,-33.0,11.0,0.0,10.0,0.0,0.0,5.0,0.0,158.04,0.0,
12.307,107.56109529599992,86.08262033305544,-8.78,-10.87,9.75,-33.0,11.0,0.0,10.0,0.0,0.0,5.0,0.1,162.06,0.0,
12.332,107.60510952959999,85.88226203330555,-12.5,-17.52,5.73,-33.0,11.0,0.0,11.0,0.0,0.0,5.0,0.2,161.28,0.0,
12.356,107.26751095296,85.61922620333056,-9.37,-13.62,3.1,-33.0,12.0,0.0,14.0,0.0,0.0,6.0,0.0,157.25,0.0,
12.381,106.71175109529601,85.25992262033306,-6.95,-3.5,0.81,-33.0,0.0,0.0,15.0,0.0,0.0,6.0,0.0,150.88,0.0,
12.405,106.86317510952959,85.2689922620333,-5.98,-2.27,-2.8,-33.0,2.0,0.0,17.0,0.0,0.0,6.0,0.0,149.11,0.0,
12.43,106.91431751095297,85.01789922620333,-4.55,-4.56,-0.6,-33.0,3.0,0.0,17.0,0.0,0.0,6.0,0.0,143.52,0.69,
12.454,106.67643175109531,85.00178992262033,-7.57,-3.77,-1.12,-33.0,4.0,0.0,19.0,0.0,0.0,6.0,0.0,134.79,0.39,
12.479,105.86964317510953,85.05417899226204,-6.11,-1.37,0.49,-33.0,5.0,0.0,20.0,0.0,0.0,6.0,0.0,126.65,0.0,
12.504,105.56396431751095,84.88841789922621,-3.05,1.74,-1.73,-33.0,5.0,0.0,21.0,0.0,0.0,6.0,0.0,120.96,0.69,
12.528,105.7313964317511,84.89884178992263,1.02,4.76,-1.27,-33.0,5.0,0.0,22.0,0.0,0.0,6.0,0.0,118.9,0.0,
12.553,105.75713964317512,84.89988417899227,-4.82,-4.43,3.26,-33.0,6.0,0.0,21.0,0.0,0.0,6.0,0.0,117.52,0.0,
12.576,105.67871396431752,84.82798841789922,-0.7,-0.41,8.39,-33.0,6.0,0.0,21.0,0.0,0.0,6.0,0.0,120.56,0.0,
12.601,105.94987139643176,85.00079884178992,0.64,0.98,7.74,-33.0,5.0,0.0,20.0,0.0,0.0,6.0,0.0,127.82,0.69,
12.625,106.16598713964316,85.34207988417899,-6.72,-6.56,-0.48,-33.0,5.0,0.0,18.0,0.0,0.0,6.0,0.0,135.38,0.59,
12.65,106.17859871396432,85.4752079884179,-9.95,-9.42,1.9,-33.0,4.0,0.0,18.0,0.0,0.0,6.0,0.0,141.07,0.29,
12.675,106.32385987139644,85.2725207988418,-10.25,-11.76,7.48,-33.0,4.0,0.0,18.0,0.0,0.0,6.0,0.0,144.7,0.0,
12.699,106.05938598713965,85.06325207988418,-8.47,-9.92,4.35,-33.0,3.0,0.0,19.0,0.0,0.0,7.0,0.0,147.54,0.29,
12.724,105.87993859871396,85.01532520798841,-8.8,-8.77,6.71,-33.0,3.0,0.0,19.0,0.0,0.0,7.0,0.0,149.6,0.59,
12.748,105.83499385987139,85.09153252079884,-7.82,-8.95,4.65,-33.0,4.0,0.0,19.0,0.0,0.0,7.0,0.0,149.5,1.18,
12.773,105.35349938598713,84.97315325207988,-9.28,-13.07,8.41,-33.0,4.0,0.0,20.0,0.0,0.0,8.0,0.0,149.31,1.18,
12.797,104.90034993859871,84.583315325208,-9.34,-10.29,11.71,-33.0,3.0,0.0,20.0,0.0,0.0,8.0,0.0,151.27,1.18,
12.822,104.81003499385986,84.3463315325208,-7.15,-11.75,8.89,-33.0,4.0,0.0,21.0,0.0,0.0,8.0,0.0,154.41,0.59,
12.847,104.62100349938598,84.1696331532521,-8.09,-11.04,6.13,-33.0,3.0,0.0,21.0,0.0,0.0,8.0,0.0,157.16,0.29,
12.871,104.22410034993861,83.90896331532521,-9.51,-16.05,6.02,-33.0,3.0,0.0,21.0,0.0,0.0,8.0,0.0,157.35,0.29,
12.896,103.91441003499386,84.05389633153251,-15.24,-18.03,10.92,-33.0,3.0,0.0,22.0,0.0,0.0,9.0,0.0,155.68,1.37,
12.92,103.37044100349938,83.87038963315325,-24.07,-11.99,9.34,-33.0,3.0,0.0,23.0,0.0,0.0,10.0,0.0,155.1,2.35,
12.946,102.99204410034994,83.50103896331531,-27.65,-1.92,9.73,-33.0,1.0,0.0,21.0,0.0,0.0,11.0,0.0,152.45,3.43,
12.971,103.74620441003499,82.67210389633154,-32.21,-13.63,2.35,-33.0,11.0,0.0,20.0,0.0,0.0,12.0,0.0,145.68,7.26,
12.995,102.2196204410035,83.33621038963315,-45.89,7.43,6.15,-33.0,9.0,0.0,18.0,0.0,0.0,0.0,0.0,135.97,7.46,
13.02,102.14796204410035,82.52062103896333,-57.89,27.11,15.6,-33.0,6.0,0.0,14.0,0.0,0.0,2.0,0.0,113.4,3.83,
13.045,102.40179620441005,81.80006210389634,-61.89,13.99,22.11,-33.0,3.0,0.0,6.0,0.0,0.0,3.0,0.0,94.47,0.98,
13.07,102.70617962044099,80.63000621038964,-67.16,18.18,8.69,-33.0,2.0,0.0,0.0,0.0,0.0,3.0,0.0,76.32,2.16,
13.094,101.7376179620441,79.45100062103896,-74.58,25.3,12.29,-33.0,0.0,0.0,11.0,0.0,0.0,3.0,0.0,59.06,2.55,
13.119,100.4887617962044,77.27210006210389,-80.39,38.93,-2.62,-33.0,0.0,0.0,11.0,0.0,0.0,3.0,0.0,44.93,4.51,
13.144,101.19187617962044,75.02921000621039,-76.08,36.97,-16.89,-33.0,0.0,0.0,10.0,0.0,0.0,2.0,0.0,36.2,8.44,
13.168,103.74618761796205,73.55392100062105,-73.63,19.58,-9.53,-33.0,0.0,0.0,10.0,0.0,0.0,0.0,0.0,28.55,10.79,
13.193,106.1706187617962,72.2723921000621,-62.24,13.31,3.94,21.0,0.0,0.0,10.0,0.0,0.0,1.0,4.02,20.8,16.09,
13.217,108.00606187617961,71.06423921000622,-55.56,18.02,13.18,225.0,0.0,0.0,9.0,0.0,0.0,12.0,5.69,13.93,32.57,
13.242,109.19760618761796,70.22342392100062,-40.73,26.8,5.83,48.0,0.0,0.0,6.0,0.0,0.0,10.0,3.24,9.12,43.85,
13.266,109.6497606187618,69.18534239210005,-37.36,47.4,17.6,1.0,0.0,0.0,4.0,0.0,0.0,8.0,0.29,5.2,45.42,
13.291,115.89597606187618,71.02553423921,2.48,91.76,51.16,2.0,0.0,0.0,3.0,0.0,0.0,4.0,0.0,3.04,26.88,
13.315,115.0175976061876,72.370553423921,-1.93,50.89,37.98,2.0,0.0,0.0,4.0,0.0,0.0,1.0,0.0,2.26,11.58,
13.339,114.39875976061876,76.6000553423921,-6.63,-20.84,36.8,1.0,0.0,0.0,5.0,0.0,0.0,0.0,0.0,2.45,12.95,
13.363,112.94187597606188,80.1730055342392,-9.48,-20.97,98.89,1.0,0.0,0.0,5.0,0.0,0.0,0.0,0.0,7.36,7.36,
13.387,109.62818759760619,81.23230055342393,-18.34,-14.02,91.03,1.0,0.0,0.0,6.0,0.0,0.0,0.0,0.0,5.0,3.34,
13.412,106.38081875976061,79.34023005534239,-7.04,18.11,65.04,1.0,1.0,0.0,6.0,0.0,0.0,0.0,0.0,4.22,1.67,
13.435,104.97608187597605,76.34302300553425,-3.5,9.68,-18.19,1.0,0.0,0.0,6.0,0.0,0.0,0.0,0.0,66.02,1.57,
13.46,106.8516081875976,75.96230230055343,15.62,-4.32,-22.56,1.0,0.0,0.0,5.0,0.0,0.0,0.0,0.0,154.21,0.0,
13.484,107.85816081875976,75.96023023005533,35.4,-13.76,-4.2,1.0,0.0,0.0,5.0,0.0,0.0,0.0,0.0,145.68,0.29,
13.508,107.56281608187598,74.22302302300554,47.87,-16.93,-5.24,1.0,0.0,0.0,5.0,0.0,0.0,0.0,0.0,129.1,1.28,
13.533,106.5792816081876,71.80830230230056,50.32,-20.96,-39.55,1.0,0.0,0.0,5.0,0.0,0.0,0.0,0.0,124.88,2.35,
13.557,107.18292816081876,69.48783023023006,54.02,-29.37,-67.79,1.0,0.0,0.0,5.0,0.0,0.0,0.0,0.0,122.43,1.86,
13.581,108.15229281608188,68.70678302302301,57.74,-33.73,-67.92,1.0,0.0,0.0,5.0,0.0,0.0,0.0,0.0,121.84,1.47,
13.605,108.72622928160818,68.3676783023023,66.88,-43.11,-55.02,1.0,0.0,0.0,5.0,0.0,0.0,0.0,0.0,119.68,0.39,
13.63,109.18862292816081,67.79376783023024,63.16,-41.1,-66.43,1.0,0.0,0.0,5.0,0.0,0.0,0.0,0.0,119.0,0.29,
13.655,109.46886229281607,67.64637678302302,56.83,-34.06,-67.93,1.0,0.0,0.0,5.0,0.0,0.0,0.0,0.0,118.21,0.49,
13.679,110.2888862292816,67.91963767830231,58.1,-44.04,-59.53,1.0,0.0,0.0,5.0,0.0,0.0,0.0,0.0,116.54,0.0,
13.703,110.40688862292816,67.93796376783023,58.21,-35.96,-40.69,1.0,0.0,0.0,5.0,0.0,0.0,0.0,0.0,119.09,0.29,
13.727,110.13968886229281,67.86779637678302,50.02,-35.02,-34.37,1.0,0.0,0.0,5.0,0.0,0.0,0.0,0.0,121.55,1.37,
13.752,110.09496888622928,67.3297796376783,30.99,-33.51,-36.88,1.0,0.0,0.0,5.0,0.0,0.0,0.0,0.0,121.45,1.08,
13.776,111.04449688862293,66.82597796376783,19.09,-4.09,-32.72,1.0,0.0,0.0,4.0,0.0,0.0,0.0,0.0,121.35,0.29,
13.801,110.95044968886229,67.56759779637679,23.64,-9.08,-4.0,1.0,0.0,0.0,4.0,0.0,0.0,0.0,0.0,121.64,0.49,
13.825,109.96004496888622,67.42575977963767,12.16,-14.08,-6.63,1.0,0.0,0.0,4.0,0.0,0.0,0.0,0.0,119.58,1.67,
13.849,109.24000449688862,66.83557597796376,-4.11,-12.99,-28.6,1.0,0.0,0.0,4.0,0.0,0.0,0.0,0.0,118.31,1.86,
13.874,109.96900044968886,65.86755759779638,-17.58,12.73,-61.45,1.0,0.0,0.0,4.0,0.0,0.0,0.0,0.0,118.5,0.59,
13.898,111.31990004496889,67.07575575977964,-26.72,-1.36,-55.55,1.0,0.0,0.0,3.0,0.0,0.0,0.0,0.0,117.33,0.29,
13.922,111.32899000449689,70.05857557597795,-12.28,-15.05,-31.1,1.0,0.0,0.0,3.0,0.0,0.0,0.0,0.0,116.15,0.49,
13.946,110.40289900044968,74.04685755759779,-9.26,-44.19,-5.72,1.0,0.0,0.0,3.0,0.0,0.0,0.0,0.0,119.19,1.47,
13.971,108.40228990004498,76.36268575575978,-8.71,-41.64,26.76,0.0,0.0,0.0,3.0,0.0,0.0,0.0,0.0,119.68,2.55,
13.996,107.63522899000449,76.86426857557599,-5.41,-55.99,45.76,0.0,0.0,0.0,3.0,0.0,0.0,0.0,0.0,119.58,2.75,
14.019,107.06352289900045,74.06142685755759,-28.78,-4.01,75.92,1.0,0.0,0.0,2.0,0.0,0.0,0.0,0.0,120.27,0.0,
14.044,105.50335228990004,72.33214268575576,32.01,16.23,57.76,2.0,0.0,0.0,2.0,0.0,0.0,0.0,0.0,122.43,0.0,
14.068,103.71833522898999,77.22621426857557,6.64,-56.42,-68.09,25.0,1.0,0.0,3.0,0.0,0.0,0.0,0.0,162.06,0.0,
14.093,102.693833522899,80.55062142685756,27.6,33.11,-16.91,4.0,2.0,0.0,3.0,0.0,0.0,0.0,0.0,190.8,0.0,
14.117,105.6153833522899,80.65806214268576,18.02,15.21,-11.74,6.0,2.0,0.0,4.0,0.0,0.0,0.0,0.0,193.45,0.0,
14.142,105.583538335229,81.43380621426857,20.45,0.61,5.87,7.0,3.0,0.0,5.0,0.0,0.0,1.0,0.0,194.83,0.0,
14.166,104.9053538335229,82.75338062142687,11.79,11.58,13.6,9.0,4.0,0.0,5.0,0.0,0.0,1.0,0.0,191.39,0.0,
14.19,104.48653538335228,83.11033806214269,15.25,-4.72,7.26,10.0,5.0,0.0,6.0,0.0,0.0,1.0,0.0,190.31,0.0,
14.215,103.84165353833522,83.59603380621428,12.95,-4.31,6.16,12.0,5.0,0.0,7.0,0.0,0.0,1.0,0.0,190.41,0.0,
14.238,103.26416535383353,84.14860338062142,13.09,9.22,16.07,2.0,6.0,0.0,7.0,0.0,0.0,1.0,0.0,190.8,0.0,
14.263,102.73841653538335,84.63586033806214,14.6,16.44,13.9,5.0,6.0,0.0,8.0,0.0,0.0,1.0,0.0,191.49,0.0,
14.287,102.81184165353832,85.03558603380621,8.36,11.06,8.85,8.0,7.0,0.0,8.0,0.0,0.0,1.0,0.0,191.39,0.0,
14.311,103.12518416535383,85.57955860338063,2.75,10.57,3.51,73.0,8.0,0.0,9.0,0.0,0.0,2.0,0.0,192.18,0.0,
14.336,103.21051841653538,85.82295586033806,0.5,5.9,-1.14,77.0,8.0,0.0,10.0,0.0,0.0,2.0,0.0,192.08,0.0,
14.36,103.32705184165354,85.89229558603381,-1.55,4.62,-0.53,16.0,9.0,0.0,10.0,0.0,0.0,2.0,0.0,191.59,0.0,
14.385,103.53670518416536,86.10622955860337,-5.32,1.21,0.47,19.0,9.0,0.0,10.0,0.0,0.0,2.0,0.0,191.69,0.0,
14.408,103.54867051841653,86.13662295586033,-10.4,-2.6,-1.16,24.0,9.0,0.0,11.0,0.0,0.0,2.0,0.0,191.88,0.0,
14.433,103.57686705184165,85.99566229558604,-8.18,-1.62,0.07,55.0,10.0,0.0,12.0,0.0,0.0,3.0,0.0,192.37,0.0,
14.457,103.57968670518416,85.8465662295586,-5.72,-1.41,1.28,25.0,11.0,0.0,2.0,0.0,0.0,3.0,0.0,192.28,0.0,
14.482,103.49896867051841,85.77765662295586,-5.14,-1.21,-0.78,27.0,11.0,0.0,4.0,0.0,0.0,3.0,0.0,192.57,0.0,
14.507,103.50889686705185,85.80676566229559,-4.92,0.13,-1.02,28.0,11.0,0.0,6.0,0.0,0.0,3.0,0.0,192.18,0.0,
14.531,103.5278896867052,85.64767656622955,-6.34,-1.65,-8.5,28.0,12.0,0.0,7.0,0.0,0.0,3.0,0.0,192.57,0.0,
14.556,103.45778896867051,85.62276765662295,-8.21,-2.43,-3.59,30.0,12.0,0.0,9.0,0.0,0.0,3.0,0.0,192.77,0.0,
14.58,103.53177889686705,85.62927676566228,-8.03,-2.43,-6.38,31.0,12.0,0.0,10.0,0.0,0.0,4.0,0.0,193.06,0.0,
14.605,103.6921778896867,85.60292767656622,-5.34,-2.27,-4.11,32.0,0.0,0.0,11.0,0.0,0.0,4.0,0.0,193.26,0.0,
14.629,103.65421778896868,85.56429276765662,-4.44,-1.5,-0.19,35.0,0.0,0.0,12.0,0.0,0.0,4.0,0.0,193.45,0.0,
14.654,103.73142177889687,85.65042927676565,-3.97,-1.08,-0.57,34.0,0.0,0.0,13.0,0.0,0.0,4.0,0.0,194.04,0.0,
14.679,103.73914217788969,85.60504292767655,-3.4,-1.6,0.16,34.0,0.0,0.0,14.0,0.0,0.0,4.0,0.0,194.14,0.0,
14.703,103.61391421778896,85.56450429276765,-4.09,-1.81,0.62,306.0,1.0,0.0,14.0,0.0,0.0,4.0,0.0,194.04,0.0,
14.727,103.6463914217789,85.46145042927677,-4.15,-1.78,-1.29,162.0,1.0,0.0,14.0,0.0,0.0,4.0,0.0,194.14,0.0,
14.751,103.63163914217789,85.39714504292768,-3.14,-1.26,-0.07,162.0,1.0,0.0,14.0,0.0,0.0,4.0,0.0,194.34,0.0,
14.776,103.60316391421779,85.30971450429276,-2.85,-0.63,0.36,225.0,1.0,0.0,16.0,0.0,0.0,4.0,0.0,194.34,0.0,
14.8,103.58231639142177,85.21997145042927,-3.5,-1.6,0.4,225.0,1.0,0.0,15.0,0.0,0.0,4.0,0.0,193.75,0.0,
14.825,103.62523163914217,85.21099714504292,-3.08,-1.59,0.5,152.0,1.0,0.0,15.0,0.0,0.0,4.0,0.0,193.65,0.0,
14.85,103.67452316391423,85.2280997145043,-3.32,-1.34,-0.1,152.0,2.0,0.0,16.0,0.0,0.0,4.0,0.0,194.04,0.0,
14.874,103.75145231639142,85.11280997145043,-2.34,-0.88,-0.41,246.0,2.0,0.0,16.0,0.0,0.0,4.0,0.0,194.63,0.0,
14.899,103.75014523163914,85.10128099714504,-2.63,-1.55,-0.48,152.0,1.0,0.0,16.0,0.0,0.0,4.0,0.0,194.14,0.0,
14.923,103.67801452316391,85.08212809971451,-3.94,-2.34,-0.24,162.0,1.0,0.0,16.0,0.0,0.0,4.0,0.0,191.98,0.0,
14.948,103.68880145231638,85.13421280997146,-3.35,-1.91,-0.4,162.0,1.0,0.0,16.0,0.0,0.0,4.0,0.0,191.49,0.0,
14.972,103.68988014523163,85.10342128099715,-3.18,-1.05,-0.44,152.0,2.0,0.0,16.0,0.0,0.0,3.0,0.0,191.39,0.0,
14.997,103.71698801452317,85.12734212809971,-2.68,-1.32,-0.72,152.0,1.0,0.0,16.0,0.0,0.0,3.0,0.0,191.49,0.0,
15.022,103.69269880145231,85.16573421280998,-3.02,-1.65,-1.16,152.0,1.0,0.0,16.0,0.0,0.0,3.0,0.0,191.39,0.0,
15.046,103.68126988014524,85.178573421281,-1.98,0.31,-0.98,152.0,1.0,0.0,16.0,0.0,0.0,3.0,0.0,191.39,0.0,
15.071,103.69812698801452,85.1708573421281,-1.63,0.25,-0.72,162.0,0.0,0.0,15.0,0.0,0.0,3.0,0.0,191.3,0.1,
15.095,103.72681269880145,85.14308573421282,-2.27,-0.4,-2.33,152.0,1.0,0.0,14.0,0.0,0.0,3.0,0.0,191.59,0.0,
15.12,103.69368126988014,85.21230857342128,-2.5,-0.89,-1.75,152.0,0.0,0.0,14.0,0.0,0.0,3.0,0.0,190.9,0.0,
15.144,103.699368126988,85.30023085734214,-2.73,-0.85,-1.81,152.0,0.0,0.0,14.0,0.0,0.0,3.0,0.0,190.71,0.0,
15.169,103.7089368126988,85.26402308573422,-2.22,-0.15,-1.53,152.0,0.0,0.0,14.0,0.0,0.0,3.0,0.0,190.31,0.0,
15.194,103.70989368126988,85.29640230857342,-2.27,-0.27,-0.84,152.0,0.0,0.0,13.0,0.0,0.0,3.0,0.0,190.31,0.0,
15.218,103.77298936812699,85.32664023085734,-2.53,-1.66,-1.11,152.0,0.0,0.0,13.0,0.0,0.0,3.0,0.0,191.2,0.0,
15.243,103.7702989368127,85.35666402308573,-3.62,-2.23,-1.95,152.0,12.0,0.0,12.0,0.0,0.0,2.0,0.0,191.88,0.0,
15.267,103.78802989368127,85.32366640230856,-3.31,-2.62,-1.7,152.0,12.0,0.0,12.0,0.0,0.0,2.0,0.0,191.98,0.1,
15.292,103.73580298936812,85.33836664023087,-2.67,-1.84,-2.02,143.0,12.0,0.0,12.0,0.0,0.0,2.0,0.0,191.88,0.49,
15.316,103.64958029893681,85.3398366640231,-3.29,-2.42,-1.79,143.0,12.0,0.0,11.0,0.0,0.0,2.0,0.0,191.88,0.49,
15.341,103.64095802989368,85.36698366640232,-4.45,-3.88,-2.16,143.0,12.0,0.0,11.0,0.0,0.0,2.0,0.0,191.98,0.0,
15.366,103.63109580298936,85.32469836664023,-5.21,-3.92,-2.06,152.0,12.0,0.0,11.0,0.0,0.0,2.0,0.0,191.79,0.0,
15.39,103.63010958029894,85.27546983666402,-4.44,-2.6,-1.84,152.0,12.0,0.0,11.0,0.0,0.0,2.0,0.0,191.98,0.0,
15.416,103.53101095802988,85.3155469836664,-4.06,-2.37,-1.98,152.0,12.0,0.0,11.0,0.0,0.0,2.0,0.0,191.88,0.0,
15.44,103.51210109580299,85.30155469836663,-3.1,-1.73,-0.93,152.0,12.0,0.0,10.0,0.0,0.0,2.0,0.0,191.88,0.0,
15.465,103.4472101095803,85.33615546983667,-5.07,-3.95,-1.12,152.0,12.0,0.0,10.0,0.0,0.0,2.0,0.0,191.98,0.0,
15.49,103.31472101095802,85.28561554698368,-5.92,-5.41,-1.73,143.0,12.0,0.0,11.0,0.0,0.0,3.0,0.0,191.88,0.29,
15.514,103.3554721010958,85.24456155469836,-4.93,-4.46,-0.82,152.0,12.0,0.0,11.0,0.0,0.0,3.0,0.0,191.69,0.39,
15.539,103.33254721010958,85.18645615546984,-4.59,-3.86,-1.49,152.0,12.0,0.0,11.0,0.0,0.0,3.0,0.0,191.59,0.2,
15.563,103.28525472101096,85.05464561554699,-3.43,-1.32,-0.59,143.0,12.0,0.0,11.0,0.0,0.0,3.0,0.0,191.79,0.0,
15.588,103.30752547210109,85.0954645615547,-2.52,-0.54,0.33,143.0,12.0,0.0,11.0,0.0,0.0,3.0,0.0,191.79,0.1,
15.612,103.26475254721012,85.07254645615546,-3.18,-1.47,0.03,152.0,12.0,0.0,11.0,0.0,0.0,3.0,0.0,191.49,0.29,
15.637,103.278475254721,85.07925464561555,-3.47,-1.4,0.11,143.0,12.0,0.0,11.0,0.0,0.0,3.0,0.0,191.88,0.0,
15.662,103.3158475254721,85.05292546456155,-4.83,-3.17,-0.81,152.0,12.0,0.0,11.0,0.0,0.0,3.0,0.0,191.98,0.0,
15.686,103.26558475254723,85.02329254645616,-4.66,-2.44,-0.96,143.0,12.0,0.0,11.0,0.0,0.0,3.0,0.0,192.37,0.1,
15.711,103.23355847525474,84.98432925464562,-3.32,-1.67,-0.27,143.0,12.0,0.0,11.0,0.0,0.0,3.0,0.0,192.37,0.0,
15.736,103.24835584752547,85.00743292546456,-2.34,-0.76,0.24,143.0,12.0,0.0,11.0,0.0,0.0,3.0,0.0,192.96,0.0,
15.761,103.25883558475256,85.04574329254646,-2.45,-0.4,-0.16,143.0,12.0,0.0,11.0,0.0,0.0,3.0,0.0,192.47,0.0,
15.785,103.27788355847525,85.04057432925464,-2.56,-0.11,0.03,143.0,12.0,0.0,11.0,0.0,0.0,3.0,0.0,192.86,0.0,
15.81,103.31578835584753,85.08505743292547,-1.96,0.25,0.52,143.0,12.0,0.0,11.0,0.0,0.0,3.0,0.0,192.67,0.2,
15.835,103.33757883558475,85.08050574329255,-2.0,-0.96,0.09,143.0,12.0,0.0,11.0,0.0,0.0,3.0,0.0,192.86,0.59,
15.859,103.31275788355848,85.07105057432926,-3.16,-1.92,-0.45,143.0,12.0,0.0,11.0,0.0,0.0,3.0,0.0,193.06,0.39,
15.884,103.30127578835584,85.04310505743292,-3.11,-1.53,-0.24,143.0,11.0,0.0,10.0,0.0,0.0,3.0,0.0,192.57,0.2,
15.908,103.28212757883558,85.0763105057433,-3.38,-1.88,-0.2,143.0,11.0,0.0,9.0,0.0,0.0,3.0,0.0,191.98,0.0,
15.933,103.23521275788357,85.09763105057434,-3.53,-2.02,-0.25,143.0,11.0,0.0,11.0,0.0,0.0,3.0,0.0,191.59,0.0,
15.958,103.16752127578835,85.13576310505744,-3.88,-2.25,-0.5,143.0,11.0,0.0,11.0,0.0,0.0,3.0,0.0,192.08,0.0,
15.982,103.18775212757883,85.12157631050574,-3.47,-1.67,0.13,143.0,11.0,0.0,11.0,0.0,0.0,3.0,0.0,192.18,0.0,
16.007,103.1807752127579,85.12915763105057,-3.04,-1.27,0.22,152.0,12.0,0.0,11.0,0.0,0.0,3.0,0.0,191.79,0.2,
16.031,103.18907752127578,85.12091576310506,-3.25,-1.86,-0.34,152.0,11.0,0.0,11.0,0.0,0.0,3.0,0.0,191.3,0.39,
16.056,103.10890775212756,85.21909157631052,-3.18,-1.36,-0.22,143.0,11.0,0.0,11.0,0.0,0.0,3.0,0.0,191.69,0.2,
16.08,103.12789077521275,85.18390915763106,-3.12,-0.56,-0.17,143.0,11.0,0.0,10.0,0.0,0.0,3.0,0.0,191.98,0.0,
16.105,103.17478907752128,85.13539091576311,-2.05,-0.03,0.37,143.0,11.0,0.0,11.0,0.0,0.0,3.0,0.0,192.37,0.0,
16.13,103.22447890775214,85.21153909157631,-2.09,-0.11,0.45,143.0,11.0,0.0,10.0,0.0,0.0,3.0,0.0,191.98,0.29,
16.154,103.29244789077521,85.21915390915764,-2.43,-0.3,0.36,143.0,11.0,0.0,12.0,0.0,0.0,2.0,0.0,192.18,0.78,
16.179,103.29024478907753,85.20191539091577,-2.44,-0.31,0.36,152.0,11.0,0.0,10.0,0.0,0.0,2.0,0.0,192.18,0.69,
16.203,103.29902447890775,85.17319153909158,-2.4,-0.68,1.15,143.0,11.0,0.0,11.0,0.0,0.0,2.0,0.0,192.08,0.2,
16.228,103.32690244789077,85.19731915390916,-2.43,-0.53,0.89,152.0,12.0,0.0,11.0,0.0,0.0,2.0,0.0,192.18,0.2,
16.252,103.31169024478908,85.24473191539093,-2.3,-0.65,0.77,143.0,11.0,0.0,11.0,0.0,0.0,2.0,0.0,192.08,0.0,
16.277,103.27416902447891,85.3034731915391,-2.04,-1.15,0.72,143.0,12.0,0.0,11.0,0.0,0.0,2.0,0.0,191.98,0.0,
16.302,103.3334169024479,85.29134731915391,-2.34,-0.48,0.94,152.0,12.0,0.0,11.0,0.0,0.0,2.0,0.0,191.79,0.0,
16.326,103.3393416902448,85.3351347319154,-2.95,-0.45,0.96,152.0,12.0,0.0,11.0,0.0,0.0,2.0,0.0,191.49,0.0,
16.351,103.37593416902448,85.35751347319153,-2.84,-1.6,1.02,152.0,12.0,0.0,11.0,0.0,0.0,3.0,0.0,191.3,0.29,
16.375,103.32559341690245,85.29675134731916,-3.96,-1.88,1.08,272.0,12.0,0.0,13.0,0.0,0.0,3.0,0.0,191.39,0.59,
16.4,103.31155934169024,85.24567513473191,-3.53,-1.04,1.68,345.0,12.0,0.0,11.0,0.0,0.0,3.0,0.0,191.39,0.2,
16.424,103.34615593416902,85.2225675134732,-3.49,-1.94,1.27,306.0,12.0,0.0,12.0,0.0,0.0,3.0,0.0,191.59,0.0,
16.449,103.3406155934169,85.18425675134732,-3.05,-0.86,0.86,306.0,12.0,0.0,12.0,0.0,0.0,3.0,0.0,192.08,0.1,
16.474,103.35806155934169,85.16242567513474,-2.58,0.0,1.01,345.0,12.0,0.0,12.0,0.0,0.0,3.0,0.0,192.28,0.49,
16.498,103.37780615593417,85.19624256751348,-2.24,0.5,0.74,345.0,12.0,0.0,12.0,0.0,0.0,3.0,0.0,192.28,0.0,
16.523,103.49678061559342,85.24462425675135,-2.09,0.98,0.89,306.0,12.0,0.0,12.0,0.0,0.0,3.0,0.0,192.67,0.0,
16.547,103.54467806155934,85.21346242567513,-2.45,-0.21,0.53,345.0,12.0,0.0,12.0,0.0,0.0,3.0,0.0,192.57,0.1,
16.572,103.49546780615592,85.24634624256753,-2.45,-0.84,0.39,306.0,12.0,0.0,12.0,0.0,0.0,3.0,0.0,192.37,0.1,
16.596,103.53554678061559,85.24963462425676,-2.58,-0.47,0.27,345.0,12.0,0.0,12.0,0.0,0.0,3.0,0.0,192.47,0.1,
16.621,103.55755467806156,85.23196346242568,-2.39,-0.14,0.31,345.0,12.0,0.0,12.0,0.0,0.0,3.0,0.0,192.37,0.0,
16.646,103.65875546780615,85.18519634624258,-1.46,-0.32,0.54,345.0,12.0,0.0,11.0,0.0,0.0,2.0,0.0,192.67,0.0,
16.67,103.59687554678062,85.21651963462426,-2.19,-0.52,0.16,345.0,12.0,0.0,12.0,0.0,0.0,2.0,0.0,191.79,0.2,
16.695,103.61768755467807,85.27365196346244,-1.79,-0.2,0.24,345.0,12.0,0.0,12.0,0.0,0.0,2.0,0.0,191.69,0.69,
16.719,103.6827687554678,85.31536519634624,-1.4,-0.41,0.46,345.0,12.0,0.0,12.0,0.0,0.0,2.0,0.0,191.98,0.59,
16.744,103.70727687554678,85.37353651963463,-2.27,-1.18,-0.01,345.0,12.0,0.0,12.0,0.0,0.0,2.0,0.0,191.98,0.29,
16.769,103.67372768755467,85.42435365196347,-3.15,-1.61,-0.47,345.0,12.0,0.0,12.0,0.0,0.0,2.0,0.0,191.79,0.49,
16.793,103.68837276875547,85.41143536519634,-2.76,-1.66,0.36,306.0,12.0,0.0,12.0,0.0,0.0,2.0,0.0,191.98,0.1,
16.818,103.68983727687555,85.41914353651963,-3.36,-1.89,-0.3,345.0,12.0,0.0,11.0,0.0,0.0,2.0,0.0,192.28,0.0,
16.842,103.75298372768755,85.40191435365197,-3.67,-1.92,-1.11,345.0,12.0,0.0,12.0,0.0,0.0,2.0,0.0,192.47,0.0,
16.867,103.67829837276875,85.34619143536521,-3.4,-2.27,-0.73,345.0,12.0,0.0,12.0,0.0,0.0,2.0,0.0,192.28,0.1,
16.891,103.58982983727687,85.37661914353652,-3.98,-2.79,-1.29,345.0,12.0,0.0,12.0,0.0,0.0,2.0,0.0,192.28,0.59,
16.917,103.53598298372769,85.32566191435365,-4.45,-2.35,-1.6,345.0,12.0,0.0,11.0,0.0,0.0,2.0,0.0,192.37,0.49,
16.942,103.52159829837277,85.24856619143536,-2.96,-0.4,-0.04,345.0,12.0,0.0,11.0,0.0,0.0,2.0,0.0,192.28,0.1,
16.966,103.53815982983728,85.24985661914354,-1.89,-0.17,0.01,345.0,12.0,0.0,11.0,0.0,0.0,2.0,0.0,192.28,0.0,
16.991,103.54881598298371,85.18698566191436,-2.35,-0.28,0.05,345.0,12.0,0.0,11.0,0.0,0.0,2.0,0.0,192.18,0.2,
17.015,103.61288159829837,85.20769856619143,-2.98,-1.26,-0.63,345.0,12.0,0.0,11.0,0.0,0.0,2.0,0.0,192.08,0.69,
17.04,103.68228815982984,85.23676985661913,-1.87,0.07,-0.02,345.0,11.0,0.0,11.0,0.0,0.0,2.0,0.0,191.69,0.0,
17.064,103.69822881598299,85.28467698566192,-0.06,1.98,1.11,345.0,11.0,0.0,10.0,0.0,0.0,2.0,0.0,191.88,0.1,
17.089,103.7178228815983,85.37046769856619,0.98,1.69,0.59,345.0,11.0,0.0,10.0,0.0,0.0,2.0,0.0,192.28,0.29,
17.114,103.71978228815982,85.44204676985662,1.79,1.79,1.18,306.0,11.0,0.0,9.0,0.0,0.0,2.0,0.0,192.57,0.29,
17.137,103.82797822881598,85.54820467698566,1.58,1.46,0.96,345.0,11.0,0.0,8.0,0.0,0.0,1.0,0.0,192.28,0.0,
17.162,103.9017978228816,85.58582046769857,1.62,1.45,0.99,306.0,11.0,0.0,7.0,0.0,0.0,1.0,0.0,192.08,0.0,
17.186,103.91817978228816,85.66158204676987,2.18,2.14,2.2,345.0,10.0,0.0,6.0,0.0,0.0,1.0,0.0,191.39,0.0,
17.211,103.89281797822882,85.75015820467699,2.97,2.98,2.47,143.0,10.0,0.0,5.0,0.0,0.0,1.0,0.0,190.9,0.2,
17.234,104.00728179782287,85.9300158204677,1.37,1.72,1.59,246.0,10.0,0.0,5.0,0.0,0.0,1.0,0.0,191.69,0.69,
17.259,104.12672817978228,86.14600158204676,-0.14,-0.15,1.75,143.0,10.0,0.0,5.0,0.0,0.0,1.0,0.0,191.59,0.39,
17.284,104.18367281797822,86.20360015820468,-2.12,-1.87,1.16,306.0,10.0,0.0,5.0,0.0,0.0,1.0,0.0,191.59,0.0,
17.308,104.18936728179781,86.24536001582047,-1.86,0.16,1.82,188.0,10.0,0.0,5.0,0.0,0.0,1.0,0.0,191.88,0.0,
17.333,104.18093672817979,86.34853600158205,-1.74,0.63,1.0,206.0,10.0,0.0,6.0,0.0,0.0,1.0,0.0,191.98,0.39,
17.357,104.18909367281798,86.34085360015821,-2.47,0.25,-1.52,188.0,11.0,0.0,6.0,0.0,0.0,1.0,0.0,191.98,0.69,
17.382,104.2709093672818,86.29508536001582,-3.27,-0.25,-0.23,206.0,11.0,0.0,6.0,0.0,0.0,1.0,0.0,191.69,0.0,
17.406,104.25209093672818,86.32650853600158,-2.78,0.02,0.39,522.0,11.0,0.0,6.0,0.0,0.0,1.0,0.0,192.67,0.2,
17.43,104.20520909367282,86.29365085360016,-2.19,1.17,0.34,522.0,11.0,0.0,7.0,0.0,0.0,1.0,0.0,192.67,0.2,
17.455,104.29052090936729,86.29936508536002,-1.72,1.75,0.34,442.0,11.0,0.0,7.0,0.0,0.0,1.0,0.0,192.57,0.0,
17.479,104.38905209093673,86.41693650853601,-4.57,-0.52,0.43,345.0,11.0,0.0,8.0,0.0,0.0,1.0,0.0,192.77,0.0,
17.504,104.38990520909368,86.4376936508536,-4.77,-1.31,0.17,383.0,11.0,0.0,8.0,0.0,0.0,1.0,0.0,192.28,0.0,
17.528,104.39899052090938,86.37676936508537,-3.56,0.01,0.33,383.0,11.0,0.0,9.0,0.0,0.0,1.0,0.0,192.57,0.0,
17.553,104.40889905209093,86.44267693650855,-4.34,0.3,0.75,383.0,11.0,0.0,10.0,0.0,0.0,2.0,0.0,192.47,0.39,
17.577,104.53588990520909,86.44026769365087,-1.32,1.92,-0.27,522.0,12.0,0.0,10.0,0.0,0.0,1.0,0.0,192.57,0.2,
17.602,104.62958899052092,86.5210267693651,-0.14,2.24,0.55,522.0,12.0,0.0,10.0,0.0,0.0,1.0,0.0,192.67,0.0,
17.627,104.71995889905209,86.68210267693651,-1.15,0.81,0.19,442.0,12.0,0.0,11.0,0.0,0.0,1.0,0.0,192.67,0.0,
17.651,104.78299588990521,86.66221026769365,-2.05,-0.11,0.17,442.0,12.0,0.0,10.0,0.0,0.0,1.0,0.0,192.77,0.0,
17.676,104.86129958899053,86.72322102676937,-2.08,0.08,0.61,383.0,12.0,0.0,10.0,0.0,0.0,1.0,0.0,193.06,0.59,
17.7,104.89612995889907,86.67532210267693,-1.72,0.38,0.14,383.0,12.0,0.0,10.0,0.0,0.0,1.0,0.0,193.26,0.0,
17.725,104.9446129958899,86.7245322102677,-1.71,-0.03,0.0,383.0,12.0,0.0,10.0,0.0,0.0,1.0,0.0,193.94,0.0,
17.75,104.98546129958899,86.77445322102677,-2.7,-1.11,-0.18,633.0,12.0,0.0,10.0,0.0,0.0,1.0,0.0,193.36,0.1,
17.774,105.0165461299589,86.74344532210267,-2.68,-0.71,-0.15,633.0,12.0,0.0,10.0,0.0,0.0,1.0,0.0,193.26,0.29,
17.799,105.0466546129959,86.73134453221027,-2.54,-0.91,0.33,800.0,12.0,0.0,10.0,0.0,0.0,1.0,0.0,193.26,0.1,
17.823,105.04966546129958,86.77513445322103,-3.52,-2.18,-0.14,1077.0,12.0,0.0,11.0,0.0,0.0,1.0,0.0,193.26,0.0,
17.848,105.06796654612995,86.75251344532211,-3.28,-2.08,-0.43,1077.0,12.0,0.0,10.0,0.0,0.0,1.0,0.0,193.26,0.0,
17.872,105.087796654613,86.76825134453222,-3.24,-2.09,-0.26,1633.0,12.0,0.0,10.0,0.0,0.0,1.0,0.0,192.67,0.29,
17.897,105.0087796654613,86.74282513445323,-3.53,-2.39,-0.26,1633.0,12.0,0.0,10.0,0.0,0.0,1.0,0.0,192.47,0.69,
17.923,105.01887796654613,86.75828251344532,-3.43,-2.09,-0.73,1633.0,12.0,0.0,11.0,0.0,0.0,1.0,0.0,192.47,0.59,
17.947,105.02888779665462,86.80482825134453,-3.51,-2.02,-0.11,1633.0,12.0,0.0,10.0,0.0,0.0,1.0,0.0,192.47,0.59,
17.972,105.04788877966546,86.73748282513445,-3.62,-1.96,-0.46,1077.0,12.0,0.0,10.0,0.0,0.0,1.0,0.0,192.28,0.39,
17.996,105.06778887796655,86.68574828251346,-2.66,-1.14,-0.05,800.0,12.0,0.0,10.0,0.0,0.0,1.0,0.0,192.86,0.1,
18.021,105.01577888779666,86.68057482825137,-2.0,-0.38,0.11,522.0,12.0,0.0,10.0,0.0,0.0,1.0,0.0,192.08,0.0,
18.045,105.07357788877967,86.68905748282513,-1.5,0.32,-0.01,800.0,12.0,0.0,10.0,0.0,0.0,1.0,0.0,191.98,0.0,
18.07,105.12435778887797,86.74390574828251,-1.61,-0.38,-0.11,800.0,11.0,0.0,9.0,0.0,0.0,1.0,0.0,192.08,0.2,
18.095,105.1384357788878,86.74039057482825,-2.08,-0.61,-1.24,633.0,11.0,0.0,9.0,0.0,0.0,1.0,0.0,192.37,0.69,
18.119,105.14884357788878,86.74003905748283,-1.77,-0.37,-1.05,800.0,11.0,0.0,8.0,0.0,0.0,1.0,0.0,191.98,0.49,
18.144,105.14988435778888,86.78500390574828,-1.83,-0.37,-1.52,633.0,11.0,0.0,8.0,0.0,0.0,1.0,0.0,191.88,0.29,
18.168,105.1589884357789,86.80750039057483,-1.95,-0.86,-1.54,800.0,11.0,0.0,7.0,0.0,0.0,1.0,0.0,191.2,0.0,
18.193,105.20489884357788,87.06175003905749,-2.34,-1.63,-2.22,633.0,11.0,0.0,6.0,0.0,0.0,1.0,0.0,190.8,0.2,
18.217,105.16448988435779,87.03317500390574,-2.38,-0.75,-0.92,633.0,11.0,0.0,6.0,0.0,0.0,1.0,0.0,191.0,0.59,
18.242,105.15144898843579,87.04831750039057,-2.19,-0.98,-0.64,633.0,11.0,0.0,6.0,0.0,0.0,1.0,0.0,190.9,0.0,
18.267,105.10514489884358,87.04083175003908,-2.09,-1.37,-0.49,442.0,11.0,0.0,6.0,0.0,0.0,1.0,0.0,191.2,0.0,
18.291,105.08251448988436,87.04008317500391,-2.18,-0.98,-0.27,383.0,11.0,0.0,5.0,0.0,0.0,1.0,0.0,191.1,0.39,
18.316,105.13425144898844,87.00400831750039,-2.65,-1.08,-0.46,-33.0,11.0,0.0,5.0,0.0,0.0,1.0,0.0,190.71,0.2,
18.34,105.13042514489885,87.03640083175006,-2.56,-1.69,-0.43,1633.0,11.0,0.0,5.0,0.0,0.0,1.0,0.0,190.41,0.0,
18.365,105.12104251448989,87.111640083175,-3.27,-1.45,-0.16,800.0,11.0,0.0,5.0,0.0,0.0,1.0,0.0,190.02,0.0,
18.39,105.06610425144899,87.0561640083175,-3.31,-1.5,-0.25,522.0,11.0,0.0,5.0,0.0,0.0,1.0,0.0,190.12,0.0,
18.414,105.1056104251449,87.12261640083175,-2.73,-1.39,0.18,345.0,11.0,0.0,5.0,0.0,0.0,1.0,0.0,190.22,0.49,
18.439,105.11856104251449,87.11126164008317,-3.24,-1.98,0.34,442.0,11.0,0.0,5.0,0.0,0.0,1.0,0.0,190.41,0.69,
18.463,105.13785610425145,87.12812616400832,-3.85,-1.83,-0.26,442.0,11.0,0.0,5.0,0.0,0.0,1.0,0.0,190.22,0.59,
18.488,105.21178561042515,87.13881261640083,-3.73,-2.0,0.11,345.0,11.0,0.0,6.0,0.0,0.0,1.0,0.0,190.31,0.2,
18.512,105.22817856104253,87.13988126164008,-5.47,-3.37,-0.06,442.0,11.0,0.0,6.0,0.0,0.0,1.0,0.0,190.51,0.49,
18.537,105.22081785610426,87.14898812616401,-5.13,-3.04,-0.07,442.0,11.0,0.0,7.0,0.0,0.0,1.0,0.0,190.8,0.0,
18.562,105.18408178561043,87.1138988126164,-3.84,-2.19,0.66,442.0,11.0,0.0,7.0,0.0,0.0,1.0,0.0,191.2,0.0,
18.586,105.13540817856105,87.04738988126165,-3.47,-1.52,0.71,522.0,11.0,0.0,8.0,0.0,0.0,1.0,0.0,191.1,0.0,
18.611,105.1575408178561,86.98673898812618,-2.6,-1.02,0.37,522.0,11.0,0.0,8.0,0.0,0.0,1.0,0.0,190.9,0.29,
18.635,105.1507540817856,87.02567389881261,-2.74,-0.89,0.44,633.0,11.0,0.0,7.0,0.0,0.0,1.0,0.0,190.8,0.59,
18.66,105.06007540817856,87.06556738988127,-3.17,-0.97,0.21,633.0,11.0,0.0,8.0,0.0,0.0,1.0,0.0,190.8,0.29,
18.684,105.05100754081785,87.05155673898813,-2.74,-0.74,0.14,800.0,11.0,0.0,9.0,0.0,0.0,1.0,0.0,191.2,0.1,
18.709,105.07710075408178,87.00515567389881,-2.85,-1.06,0.19,800.0,11.0,0.0,8.0,0.0,0.0,1.0,0.0,191.1,0.0,
18.734,105.05271007540817,86.97351556738988,-3.48,-1.56,0.02,633.0,11.0,0.0,8.0,0.0,0.0,1.0,0.0,191.1,0.39,
18.758,105.01427100754081,86.97035155673899,-3.73,-1.52,-0.38,633.0,11.0,0.0,8.0,0.0,0.0,1.0,0.0,191.49,0.78,
18.783,105.03742710075409,86.9880351556739,-3.47,-1.29,0.15,800.0,11.0,0.0,8.0,0.0,0.0,1.0,0.0,191.59,0.88,
18.807,105.0397427100754,86.9538035155674,-3.26,-0.93,0.31,633.0,11.0,0.0,8.0,0.0,0.0,1.0,0.0,191.69,0.59,
18.832,105.02197427100754,87.00438035155675,-4.0,-2.64,0.11,522.0,11.0,0.0,8.0,0.0,0.0,1.0,0.0,191.88,0.59,
18.856,105.03819742710076,86.95543803515568,-4.19,-2.45,0.55,522.0,11.0,0.0,9.0,0.0,0.0,1.0,0.0,192.08,0.1,
18.88,105.03981974271008,86.88754380351556,-3.9,-1.63,0.35,633.0,11.0,0.0,9.0,0.0,0.0,1.0,0.0,191.98,0.0,
18.905,105.021981974271,86.89875438035156,-3.28,-1.73,0.52,633.0,11.0,0.0,9.0,0.0,0.0,1.0,0.0,191.88,0.0,
18.929,104.99319819742709,86.79187543803516,-3.54,-1.92,0.27,633.0,12.0,0.0,10.0,0.0,0.0,1.0,0.0,191.88,0.0,
18.954,105.01731981974271,86.76318754380353,-3.56,-2.11,0.38,633.0,12.0,0.0,10.0,0.0,0.0,1.0,0.0,192.08,0.49,
18.978,105.03773198197428,86.75131875438035,-3.6,-1.74,0.15,800.0,12.0,0.0,10.0,0.0,0.0,1.0,0.0,191.88,0.78,
19.003,104.98577319819742,86.78613187543803,-3.52,-1.85,0.24,800.0,12.0,0.0,10.0,0.0,0.0,1.0,0.0,191.59,0.2,
19.027,104.93557731981976,86.8166131875438,-4.31,-2.04,0.45,800.0,12.0,0.0,10.0,0.0,0.0,1.0,0.0,191.88,0.0,
19.052,104.92155773198198,86.77466131875438,-3.5,-1.61,0.44,800.0,12.0,0.0,10.0,0.0,0.0,2.0,0.0,191.98,0.2,
19.077,104.93815577319819,86.72546613187544,-3.4,-1.34,0.13,800.0,12.0,0.0,11.0,0.0,0.0,2.0,0.0,192.28,0.59,
19.101,104.89481557731982,86.73854661318754,-2.74,-0.85,0.4,800.0,12.0,0.0,10.0,0.0,0.0,2.0,0.0,192.47,0.88,
19.126,104.96248155773198,86.76685466131876,-2.89,-1.11,0.14,800.0,12.0,0.0,11.0,0.0,0.0,2.0,0.0,192.47,0.1,
19.15,105.02324815577319,86.82368546613188,-2.92,-1.19,-0.38,800.0,12.0,0.0,10.0,0.0,0.0,2.0,0.0,192.67,0.2,
19.175,105.01132481557731,86.8383685466132,-2.99,-1.15,0.15,800.0,12.0,0.0,10.0,0.0,0.0,2.0,0.0,192.86,0.29,
19.2,105.04613248155773,86.77683685466133,-2.9,-1.19,-0.26,633.0,12.0,0.0,10.0,0.0,0.0,2.0,0.0,192.57,0.2,
19.224,104.99561324815576,86.78868368546614,-3.37,-2.18,-0.2,800.0,12.0,0.0,10.0,0.0,0.0,2.0,0.0,192.47,0.0,
19.25,104.91856132481557,86.79886836854662,-3.51,-2.08,-0.22,800.0,12.0,0.0,10.0,0.0,0.0,2.0,0.0,192.28,0.1,
19.274,104.91085613248156,86.78188683685467,-3.38,-1.66,-0.1,800.0,12.0,0.0,10.0,0.0,0.0,2.0,0.0,192.28,0.29,
19.299,104.91008561324816,86.81618868368545,-2.51,-1.4,0.29,800.0,12.0,0.0,11.0,0.0,0.0,2.0,0.0,192.47,0.69,
19.323,104.88300856132481,86.85561886836855,-3.44,-1.78,-0.01,633.0,12.0,0.0,10.0,0.0,0.0,2.0,0.0,192.37,0.78,
19.348,104.8983008561325,86.84156188683686,-3.27,-1.58,0.0,800.0,12.0,0.0,10.0,0.0,0.0,2.0,0.0,192.18,0.49,
19.373,104.93583008561325,86.80415618868369,-3.3,-1.76,0.35,800.0,12.0,0.0,10.0,0.0,0.0,2.0,0.0,191.98,0.29,
19.397,104.90358300856133,86.77341561886837,-3.67,-2.2,0.27,633.0,12.0,0.0,10.0,0.0,0.0,2.0,0.0,191.88,0.1,
19.422,104.87335830085614,86.75234156188684,-3.21,-1.57,0.05,800.0,12.0,0.0,10.0,0.0,0.0,2.0,0.0,192.28,0.0,
19.446,104.87033583008562,86.78623415618868,-3.19,-0.99,0.4,800.0,12.0,0.0,10.0,0.0,0.0,2.0,0.0,191.88,0.0,
19.471,104.89703358300856,86.81662341561886,-3.82,-2.16,-0.08,800.0,12.0,0.0,10.0,0.0,0.0,2.0,0.0,192.18,0.2,
19.495,104.86370335830085,86.7836623415619,-3.78,-2.04,0.46,1077.0,12.0,0.0,11.0,0.0,0.0,2.0,0.0,191.88,0.59,
19.52,104.8153703358301,86.71736623415619,-3.37,-1.92,0.27,800.0,12.0,0.0,11.0,0.0,0.0,2.0,0.0,191.88,0.39,
19.545,104.81053703358302,86.77373662341562,-3.58,-2.51,-0.17,1633.0,12.0,0.0,11.0,0.0,0.0,2.0,0.0,191.88,0.29,
19.569,104.8550537033583,86.75237366234157,-3.92,-2.5,-0.5,1077.0,12.0,0.0,11.0,0.0,0.0,2.0,0.0,191.79,0.1,
19.594,104.81450537033584,86.72323736623416,-4.21,-2.63,-0.63,1077.0,12.0,0.0,11.0,0.0,0.0,2.0,0.0,191.69,0.39,
19.619,104.76545053703359,86.71132373662341,-4.04,-2.42,-0.36,1077.0,12.0,0.0,11.0,0.0,0.0,2.0,0.0,191.69,0.69,
19.644,104.77854505370337,86.67413237366235,-3.5,-2.61,-0.27,1633.0,12.0,0.0,11.0,0.0,0.0,2.0,0.0,191.88,0.1,
19.668,104.73485450537034,86.66141323736623,-3.66,-2.71,-0.55,1633.0,11.0,0.0,10.0,0.0,0.0,2.0,0.0,191.59,0.39,
19.693,104.68548545053703,86.58814132373662,-3.74,-2.34,-0.37,1077.0,11.0,0.0,11.0,0.0,0.0,2.0,0.0,191.39,0.49,
19.718,104.6175485450537,86.59881413237366,-3.26,-1.79,0.03,1633.0,11.0,0.0,10.0,0.0,0.0,2.0,0.0,191.2,0.39,
19.742,104.59275485450537,86.60888141323736,-2.67,-1.1,0.18,1633.0,11.0,0.0,10.0,0.0,0.0,2.0,0.0,191.0,0.1,
19.768,104.61727548545053,86.62788814132374,-2.68,-1.45,0.13,3300.0,11.0,0.0,10.0,0.0,0.0,2.0,0.0,190.9,0.0,
19.792,104.61972754854506,86.62978881413237,-2.86,-1.47,0.24,1633.0,11.0,0.0,10.0,0.0,0.0,2.0,0.0,190.51,0.1,
19.817,104.5839727548545,86.67497888141325,-2.79,-1.16,0.05,1077.0,11.0,0.0,10.0,0.0,0.0,2.0,0.0,190.8,0.39,
19.842,104.60739727548545,86.67949788814134,-2.59,-0.85,-0.07,1077.0,11.0,0.0,10.0,0.0,0.0,2.0,0.0,191.0,0.78,
19.866,104.57373972754854,86.69794978881413,-2.94,-1.37,0.31,800.0,11.0,0.0,10.0,0.0,0.0,2.0,0.0,190.9,0.69,
19.891,104.59737397275485,86.69079497888141,-3.14,-1.07,0.01,1077.0,11.0,0.0,10.0,0.0,0.0,2.0,0.0,190.9,0.39,
19.915,104.64473739727549,86.64507949788813,-2.62,-0.88,0.18,1077.0,11.0,0.0,9.0,0.0,0.0,2.0,0.0,191.0,0.39,
19.94,104.65847373972755,86.64050794978881,-2.73,-1.1,0.22,1077.0,11.0,0.0,10.0,0.0,0.0,2.0,0.0,191.2,0.0,
19.964,104.65084737397275,86.64005079497888,-3.02,-1.53,-0.02,1633.0,11.0,0.0,9.0,0.0,0.0,2.0,0.0,190.71,0.0,
19.989,104.70408473739727,86.66700507949788,-2.75,-1.42,0.45,1633.0,11.0,0.0,9.0,0.0,0.0,2.0,0.0,190.8,0.0,
20.014,104.65540847373973,86.60670050794978,-3.64,-1.81,-0.19,1633.0,11.0,0.0,10.0,0.0,0.0,2.0,0.0,191.0,0.49,
20.039,104.68654084737398,86.56467005079499,-3.4,-1.63,-0.44,-33.0,11.0,0.0,10.0,0.0,0.0,2.0,0.0,191.1,0.59,
20.064,104.6266540847374,86.55146700507949,-2.86,-1.21,0.11,3300.0,11.0,0.0,10.0,0.0,0.0,2.0,0.0,190.71,0.49,
20.088,104.61166540847374,86.53214670050795,-2.76,-1.29,-0.05,3300.0,11.0,0.0,10.0,0.0,0.0,2.0,0.0,190.9,0.29,
20.113,104.60116654084737,86.5032146700508,-2.7,-1.32,0.24,3300.0,11.0,0.0,10.0,0.0,0.0,2.0,0.0,190.8,0.2,
20.137,104.59111665408473,86.54532146700507,-3.16,-1.32,0.06,3300.0,11.0,0.0,10.0,0.0,0.0,2.0,0.0,190.8,0.39,
20.162,104.57211166540847,86.53153214670051,-3.27,-1.2,0.42,3300.0,11.0,0.0,10.0,0.0,0.0,2.0,0.0,191.0,0.1,
20.187,104.57921116654084,86.54815321467005,-3.08,-1.17,0.01,3300.0,11.0,0.0,10.0,0.0,0.0,2.0,0.0,190.9,0.0,
20.211,104.58892111665408,86.58581532146701,-3.24,-0.76,0.33,3300.0,11.0,0.0,10.0,0.0,0.0,2.0,0.0,191.2,0.2,
20.236,104.5898921116654,86.6075815321467,-2.58,-0.56,0.13,-33.0,11.0,0.0,10.0,0.0,0.0,2.0,0.0,191.2,0.39,
20.26,104.55398921116654,86.61875815321469,-2.52,-0.92,0.26,3300.0,11.0,0.0,10.0,0.0,0.0,2.0,0.0,191.2,0.2,
20.286,104.56839892111665,86.61987581532148,-2.97,-0.85,0.05,-33.0,11.0,0.0,10.0,0.0,0.0,2.0,0.0,191.3,0.0,
20.311,104.56983989211166,86.60198758153214,-3.31,-0.69,0.02,3300.0,11.0,0.0,10.0,0.0,0.0,2.0,0.0,191.3,0.0,
20.335,104.64198398921117,86.62719875815321,-3.3,-0.82,0.07,3300.0,11.0,0.0,10.0,0.0,0.0,2.0,0.0,191.0,0.39,
20.36,104.67619839892112,86.62071987581533,-3.13,-1.16,0.01,3300.0,11.0,0.0,10.0,0.0,0.0,2.0,0.0,191.1,0.78,
20.384,104.7336198398921,86.63807198758153,-3.08,-1.19,-0.04,3300.0,11.0,0.0,10.0,0.0,0.0,2.0,0.0,191.1,0.88,
20.409,104.7123619839892,86.62180719875816,-3.47,-1.83,-0.16,-33.0,11.0,0.0,10.0,0.0,0.0,2.0,0.0,191.2,0.59,
20.433,104.69223619839892,86.60218071987582,-3.72,-2.13,-0.27,3300.0,11.0,0.0,10.0,0.0,0.0,2.0,0.0,191.2,0.78,
20.458,104.6812236198399,86.62721807198758,-3.74,-1.95,-0.01,3300.0,11.0,0.0,10.0,0.0,0.0,2.0,0.0,191.3,0.29,
20.483,104.64412236198399,86.63872180719875,-3.79,-2.1,-0.11,-33.0,11.0,0.0,10.0,0.0,0.0,2.0,0.0,191.3,0.0,
20.508,104.6134122361984,86.64887218071989,-3.6,-1.97,0.0,3300.0,11.0,0.0,10.0,0.0,0.0,2.0,0.0,191.59,0.0,
20.533,104.62834122361984,86.60488721807198,-4.18,-2.56,-0.11,3300.0,11.0,0.0,10.0,0.0,0.0,2.0,0.0,191.69,0.1,
20.557,104.64783412236199,86.6364887218072,-3.63,-1.55,0.2,-33.0,11.0,0.0,10.0,0.0,0.0,2.0,0.0,191.59,0.49,
20.582,104.6137834122362,86.59464887218073,-3.1,-1.44,0.34,3300.0,12.0,0.0,11.0,0.0,0.0,2.0,0.0,191.79,0.69,
20.606,104.63737834122362,86.54546488721809,-3.18,-1.45,0.34,3300.0,12.0,0.0,11.0,0.0,0.0,2.0,0.0,191.59,0.39,
20.631,104.67573783412236,86.53154648872182,-3.34,-1.35,0.0,3300.0,12.0,0.0,11.0,0.0,0.0,2.0,0.0,191.69,0.2,
20.656,104.62557378341224,86.55715464887219,-3.35,-0.9,-0.05,3300.0,12.0,0.0,11.0,0.0,0.0,2.0,0.0,191.69,0.2,
20.68,104.62955737834122,86.56871546488722,-3.32,-1.37,0.05,3300.0,12.0,0.0,11.0,0.0,0.0,2.0,0.0,191.88,0.69,
20.705,104.67495573783413,86.56087154648873,-3.56,-1.47,0.2,3300.0,12.0,0.0,11.0,0.0,0.0,2.0,0.0,192.18,0.0,
20.729,104.62549557378341,86.48808715464888,-3.11,-1.21,0.33,3300.0,12.0,0.0,11.0,0.0,0.0,2.0,0.0,192.47,0.1,
20.754,104.59354955737834,86.47180871546489,-2.91,-1.05,-0.02,3300.0,12.0,0.0,11.0,0.0,0.0,2.0,0.0,192.28,0.39,
20.78,104.59035495573784,86.45218087154649,-3.15,-0.92,-0.03,3300.0,12.0,0.0,11.0,0.0,0.0,2.0,0.0,192.28,0.39,
20.804,104.59003549557379,86.44121808715465,-3.18,-0.93,0.04,3300.0,12.0,0.0,11.0,0.0,0.0,2.0,0.0,192.47,0.1,
20.829,104.57200354955738,86.49412180871548,-3.47,-1.05,0.11,3300.0,12.0,0.0,11.0,0.0,0.0,2.0,0.0,192.37,0.0,
20.853,104.53420035495573,86.42741218087156,-3.4,-0.88,0.02,3300.0,12.0,0.0,11.0,0.0,0.0,2.0,0.0,192.37,0.1,
20.878,104.57542003549557,86.42074121808716,-3.37,-0.83,0.23,3300.0,12.0,0.0,11.0,0.0,0.0,2.0,0.0,192.28,0.59,
20.902,104.56154200354955,86.40207412180872,-3.69,-0.41,0.21,1633.0,12.0,0.0,12.0,0.0,0.0,2.0,0.0,192.28,0.88,
20.927,104.59615420035496,86.34620741218087,-3.14,0.71,0.25,1633.0,12.0,0.0,12.0,0.0,0.0,2.0,0.0,192.28,0.78,
20.952,104.65361542003549,86.39462074121809,-3.62,-0.1,-0.03,1633.0,12.0,0.0,13.0,0.0,0.0,2.0,0.0,192.18,0.49,
20.977,104.65036154200355,86.42646207412182,-3.78,-0.35,0.02,1633.0,12.0,0.0,13.0,0.0,0.0,2.0,0.0,192.57,0.2,
21.002,104.64103615420035,86.41164620741219,-3.0,-0.1,0.18,1633.0,0.0,0.0,11.0,0.0,0.0,2.0,0.0,193.06,0.0,
21.026,104.66710361542003,86.37416462074123,-2.81,-0.18,0.06,1633.0,0.0,0.0,13.0,0.0,0.0,2.0,0.0,192.86,0.0,
21.051,104.660710361542,86.37941646207412,-2.85,-0.77,-0.24,3300.0,0.0,0.0,14.0,0.0,0.0,2.0,0.0,193.06,0.0,
21.075,104.6510710361542,86.38894164620741,-2.71,-1.22,-0.29,3300.0,12.0,0.0,13.0,0.0,0.0,2.0,0.0,193.06,0.29,
21.1,104.65910710361543,86.40789416462074,-2.69,-1.26,-0.31,3300.0,12.0,0.0,11.0,0.0,0.0,2.0,0.0,193.06,0.78,
21.125,104.69591071036155,86.36478941646207,-2.27,-0.35,-0.15,3300.0,12.0,0.0,12.0,0.0,0.0,2.0,0.0,192.67,0.59,
21.149,104.72659107103615,86.37847894164621,-2.34,-1.09,-0.45,-33.0,12.0,0.0,11.0,0.0,0.0,2.0,0.0,192.47,0.2,
21.174,104.7116591071036,86.46084789416463,-2.82,-1.78,-0.18,3300.0,12.0,0.0,11.0,0.0,0.0,2.0,0.0,192.37,0.1,
21.199,104.64716591071036,86.44208478941647,-2.99,-2.14,-0.21,3300.0,12.0,0.0,11.0,0.0,0.0,2.0,0.0,192.37,0.49,
21.224,104.62271659107104,86.46720847894166,-2.16,-1.34,0.13,1633.0,11.0,0.0,10.0,0.0,0.0,2.0,0.0,192.28,0.0,
21.249,104.6742716591071,86.46072084789415,-1.94,-2.11,-0.44,1633.0,11.0,0.0,9.0,0.0,0.0,2.0,0.0,192.18,0.0,
21.273,104.66142716591071,86.47807208478942,-2.94,-3.02,-0.37,-33.0,11.0,0.0,8.0,0.0,0.0,1.0,0.0,192.08,0.29,
21.298,104.62414271659107,86.50680720847895,-2.71,-3.96,-0.53,1077.0,10.0,0.0,7.0,0.0,0.0,1.0,0.0,191.79,0.59,
21.322,104.6924142716591,86.51868072084788,-1.72,-3.17,0.13,1633.0,10.0,0.0,6.0,0.0,0.0,1.0,0.0,191.49,0.69,
21.347,103.82624142716591,85.49386807208478,-8.67,-7.85,-13.54,1633.0,10.0,0.0,4.0,0.0,0.0,1.0,0.0,190.61,0.39,
21.371,103.8926241427166,85.59838680720848,-2.47,-5.36,-0.5,800.0,9.0,0.0,2.0,0.0,0.0,1.0,0.0,189.92,0.29,
21.396,103.92626241427166,85.69883868072084,-0.19,-2.93,-0.42,442.0,9.0,0.0,12.0,0.0,0.0,1.0,0.0,189.43,0.78,
21.421,103.95662624142716,85.89788386807209,-0.04,-3.05,-0.11,345.0,8.0,0.0,11.0,0.0,0.0,0.0,0.0,188.74,1.18,
21.445,103.95066262414272,86.10678838680721,-1.73,-4.45,-0.87,246.0,8.0,0.0,10.0,0.0,0.0,0.0,0.0,187.96,1.67,
21.47,104.03106626241429,86.31667883868073,-1.45,-5.34,0.09,272.0,7.0,0.0,10.0,0.0,0.0,0.0,0.0,187.17,1.57,
21.494,104.01210662624143,86.45466788386808,-1.19,-4.01,0.41,272.0,7.0,0.0,9.0,0.0,0.0,0.0,0.0,187.08,1.47,
21.519,103.98321066262415,86.52246678838682,-0.32,-3.5,0.82,104.0,6.0,0.0,9.0,0.0,0.0,0.0,0.0,186.68,1.47,
21.543,103.93532106626242,86.75424667883868,-3.09,-3.63,0.31,118.0,6.0,0.0,8.0,0.0,0.0,0.0,0.0,186.68,0.2,
21.568,103.93953210662625,86.77742466788388,-3.86,-4.41,-0.99,93.0,6.0,0.0,8.0,0.0,0.0,0.0,0.0,186.19,0.1,
21.593,103.95795321066262,86.70774246678839,-4.15,-4.19,-0.34,93.0,6.0,0.0,9.0,0.0,0.0,0.0,0.0,185.9,0.29,
21.616,103.86979532106626,86.73677424667883,-4.47,-3.66,-0.27,89.0,6.0,0.0,9.0,0.0,0.0,0.0,0.0,185.9,0.78,
21.641,103.77097953210662,86.81167742466788,-4.19,-2.7,-1.59,85.0,6.0,0.0,9.0,0.0,0.0,0.0,0.0,185.8,0.88,
21.665,103.75209795321067,86.83716774246679,-4.02,-2.83,-1.27,73.0,6.0,0.0,9.0,0.0,0.0,0.0,0.0,185.8,0.78,
21.69,103.71420979532107,86.82171677424667,-3.92,-2.65,-0.95,66.0,6.0,0.0,9.0,0.0,0.0,0.0,0.0,186.29,0.39,
21.714,103.7104209795321,86.75717167742467,-2.87,-2.27,0.19,15.0,6.0,0.0,9.0,0.0,0.0,0.0,0.0,186.39,0.39,
21.738,103.62904209795322,86.67871716774246,-1.78,-1.3,0.46,12.0,6.0,0.0,9.0,0.0,0.0,0.0,0.0,186.39,0.98,
21.763,103.59390420979533,86.70687171677424,-1.34,-1.08,0.18,8.0,6.0,0.0,8.0,0.0,0.0,0.0,0.0,186.19,1.18,
21.787,103.67139042097955,86.81768717167743,-1.92,-1.28,0.01,8.0,6.0,0.0,8.0,0.0,0.0,0.0,0.0,186.49,1.08,
21.812,103.62513904209797,86.80176871716775,-2.37,-1.84,-1.4,7.0,6.0,0.0,8.0,0.0,0.0,0.0,0.0,186.68,0.88,
21.835,103.62951390420979,86.88117687171678,-2.07,-1.01,-0.04,7.0,6.0,0.0,8.0,0.0,0.0,0.0,0.0,186.59,0.78,
21.86,103.45895139042098,86.83511768717167,-2.6,-0.79,-0.67,7.0,6.0,0.0,8.0,0.0,0.0,0.0,0.0,186.88,0.29,
21.884,103.4778951390421,86.88451176871718,-3.2,-0.69,-0.31,8.0,6.0,0.0,8.0,0.0,0.0,0.0,0.0,187.08,0.0,
21.909,103.53378951390421,86.88945117687172,-3.0,-0.73,-0.54,7.0,6.0,0.0,8.0,0.0,0.0,0.0,0.0,186.88,0.0,
21.933,103.60237895139042,86.91694511768718,-3.15,-0.31,-0.89,8.0,6.0,0.0,8.0,0.0,0.0,0.0,0.0,186.78,0.0,
21.957,103.66323789513903,86.93769451176871,-3.14,-0.25,-0.64,8.0,6.0,0.0,8.0,0.0,0.0,0.0,0.0,186.78,0.49,
21.982,103.7143237895139,86.93076945117687,-3.49,-0.15,-0.42,9.0,6.0,0.0,8.0,0.0,0.0,0.0,0.0,186.68,0.39,
22.006,103.73743237895138,86.93007694511769,-2.93,0.11,-0.31,10.0,6.0,0.0,8.0,0.0,0.0,0.0,0.0,186.98,0.0,
22.03,103.73074323789514,86.97500769451177,-2.55,0.51,0.08,10.0,6.0,0.0,8.0,0.0,0.0,0.0,0.0,187.17,0.0,
22.054,103.80207432378951,87.01550076945118,-1.98,0.93,0.18,60.0,6.0,0.0,8.0,0.0,0.0,0.0,0.0,187.37,0.0,
22.079,103.83620743237896,87.05555007694511,-2.04,1.31,-0.01,85.0,6.0,0.0,8.0,0.0,0.0,0.0,0.0,187.17,0.1,
22.103,103.8486207432379,87.02355500769451,-2.15,1.53,-0.6,10.0,6.0,0.0,8.0,0.0,0.0,0.0,0.0,187.47,0.49,
22.127,103.9218620743238,86.99335550076944,-2.19,1.63,0.11,11.0,7.0,0.0,8.0,0.0,0.0,0.0,0.0,187.57,0.69,
22.152,103.97418620743238,87.04433555007694,-2.23,1.63,0.17,11.0,7.0,0.0,8.0,0.0,0.0,0.0,0.0,187.67,0.0,
22.176,104.02441862074325,87.0494335550077,-2.34,2.04,-0.43,11.0,7.0,0.0,9.0,0.0,0.0,0.0,0.0,187.76,0.0,
22.2,104.03844186207434,87.07694335550077,-2.47,1.98,0.32,12.0,7.0,0.0,9.0,0.0,0.0,0.0,0.0,188.16,0.0,
22.224,104.11184418620745,87.15169433555008,-2.63,2.27,0.77,13.0,7.0,0.0,9.0,0.0,0.0,0.0,0.0,187.37,0.2,
22.249,104.20018441862075,87.27616943355501,-2.48,1.74,0.44,14.0,7.0,0.0,9.0,0.0,0.0,0.0,0.0,187.86,0.0,
22.273,104.28101844186207,87.3246169433555,-2.97,1.31,-0.05,15.0,7.0,0.0,9.0,0.0,0.0,0.0,0.0,188.16,0.0,
22.297,104.41510184418621,87.38346169433555,-3.5,1.65,-0.34,15.0,7.0,0.0,9.0,0.0,0.0,0.0,0.0,188.35,0.29,
22.322,104.48251018441862,87.32634616943355,-2.86,1.44,-1.07,16.0,8.0,0.0,9.0,0.0,0.0,0.0,0.0,188.55,0.0,
22.346,104.57925101844185,87.39263461694337,-2.61,0.81,-0.24,17.0,8.0,0.0,10.0,0.0,0.0,1.0,0.0,188.25,0.0,
22.371,104.62492510184418,87.44426346169433,-3.14,0.66,-0.02,26.0,8.0,0.0,10.0,0.0,0.0,1.0,0.0,188.25,0.0,
22.394,104.64749251018442,87.44042634616943,-3.37,0.47,-0.07,27.0,8.0,0.0,10.0,0.0,0.0,1.0,0.0,188.16,0.0,
22.419,104.75774925101842,87.38604263461694,-3.44,0.38,-0.15,39.0,8.0,0.0,10.0,0.0,0.0,1.0,0.0,188.35,0.1,
22.444,104.82277492510184,87.38960426346169,-3.57,-0.18,-0.07,42.0,8.0,0.0,10.0,0.0,0.0,1.0,0.0,188.16,0.29,
22.468,104.82027749251017,87.37196042634618,-4.24,-0.63,-0.25,53.0,8.0,0.0,11.0,0.0,0.0,1.0,0.0,188.35,0.49,
22.493,104.88302774925101,87.33419604263462,-4.18,-0.73,-0.22,58.0,9.0,0.0,11.0,0.0,0.0,1.0,0.0,188.45,0.2,
22.517,104.8893027749251,87.34841960426346,-3.79,-1.17,-0.41,60.0,9.0,0.0,11.0,0.0,0.0,1.0,0.0,188.16,0.0,
22.542,104.87193027749251,87.28684196042636,-4.18,-1.33,-0.09,66.0,9.0,0.0,11.0,0.0,0.0,1.0,0.0,188.25,0.49,
22.566,104.87019302774925,87.27168419604263,-4.02,-0.96,0.09,69.0,9.0,0.0,11.0,0.0,0.0,1.0,0.0,188.65,0.0,
22.591,104.89701930277494,87.20716841960427,-3.68,-1.15,-0.69,73.0,9.0,0.0,12.0,0.0,0.0,1.0,0.0,188.94,0.0,
22.615,104.8727019302775,87.19171684196043,-3.44,-1.01,-0.34,73.0,9.0,0.0,12.0,0.0,0.0,1.0,0.0,189.23,0.1,
22.639,104.85227019302775,87.19917168419605,-3.98,-1.15,-0.09,73.0,9.0,0.0,1.0,0.0,0.0,1.0,0.0,189.14,0.29,
22.664,104.87722701930277,87.2269171684196,-4.46,-1.72,-0.08,73.0,9.0,0.0,0.0,0.0,0.0,1.0,0.0,189.14,0.1,
22.688,104.89772270193029,87.16669171684197,-4.74,-1.8,-0.36,77.0,9.0,0.0,1.0,0.0,0.0,1.0,0.0,189.04,0.0,
22.713,104.91777227019303,87.0796691716842,-3.8,-1.27,-0.23,85.0,10.0,0.0,2.0,0.0,0.0,1.0,0.0,189.14,0.0,
22.737,104.8657772270193,87.06196691716842,-2.98,-1.0,0.15,77.0,10.0,0.0,2.0,0.0,0.0,1.0,0.0,189.73,0.39,
22.762,104.86957772270193,87.05119669171684,-3.07,-0.74,-0.08,77.0,10.0,0.0,2.0,0.0,0.0,1.0,0.0,189.14,0.59,
22.787,104.91495777227018,87.03211966917168,-2.96,-0.76,-0.04,80.0,10.0,0.0,2.0,0.0,0.0,1.0,0.0,189.14,0.78,
22.811,104.91949577722701,87.07521196691717,-3.15,-0.87,-0.12,80.0,10.0,0.0,2.0,0.0,0.0,1.0,0.0,188.94,0.29,
22.835,104.95594957772269,87.09752119669172,-2.77,-0.63,0.11,80.0,10.0,0.0,2.0,0.0,0.0,1.0,0.0,189.14,0.0,
22.859,105.04059495777227,87.09075211966918,-2.62,-1.05,-0.21,80.0,10.0,0.0,3.0,0.0,0.0,1.0,0.0,189.23,0.1,
22.884,105.05805949577723,87.06307521196692,-2.44,-0.53,0.08,93.0,10.0,0.0,2.0,0.0,0.0,1.0,0.0,189.23,0.0,
22.908,105.05080594957772,87.06030752119669,-2.18,-0.11,0.03,85.0,10.0,0.0,2.0,0.0,0.0,1.0,0.0,189.04,0.0,
22.933,105.02308059495778,87.06003075211967,-2.18,-0.84,-1.13,80.0,10.0,0.0,2.0,0.0,0.0,1.0,0.0,189.63,0.0,
22.958,105.06530805949578,87.10500307521197,-2.73,-0.91,-0.56,80.0,10.0,0.0,2.0,0.0,0.0,1.0,0.0,189.23,0.49,
22.982,105.06053080594958,87.1455003075212,-2.95,-0.84,-0.16,80.0,10.0,0.0,2.0,0.0,0.0,1.0,0.0,189.33,0.49,
23.007,105.12305308059496,87.18555003075213,-2.67,-0.83,-0.09,80.0,10.0,0.0,2.0,0.0,0.0,1.0,0.0,189.23,0.1,
23.031,105.1023053080595,87.12655500307521,-3.08,-1.27,-0.18,80.0,10.0,0.0,2.0,0.0,0.0,1.0,0.0,189.53,0.0,
23.056,105.09123053080594,87.13865550030752,-3.3,-1.43,-0.34,85.0,10.0,0.0,2.0,0.0,0.0,1.0,0.0,189.14,0.0,
23.08,105.09912305308059,87.13086555003075,-3.51,-1.21,-0.12,85.0,10.0,0.0,2.0,0.0,0.0,1.0,0.0,189.23,0.49,
23.105,105.05491230530805,87.13908655500308,-3.28,-1.21,0.08,85.0,10.0,0.0,3.0,0.0,0.0,1.0,0.0,189.53,0.88,
23.129,105.04149123053081,87.1489086555003,-3.14,-1.22,0.1,85.0,10.0,0.0,2.0,0.0,0.0,1.0,0.0,189.33,0.49,
23.153,105.03114912305308,87.13189086555003,-3.11,-0.88,0.08,85.0,10.0,0.0,3.0,0.0,0.0,1.0,0.0,189.63,0.29,
23.178,105.03911491230531,87.130189086555,-3.33,-1.04,0.23,85.0,10.0,0.0,3.0,0.0,0.0,1.0,0.0,189.23,0.2,
23.202,105.06691149123053,87.0850189086555,-4.18,-1.74,-0.71,85.0,10.0,0.0,3.0,0.0,0.0,1.0,0.0,189.33,0.29,
23.227,105.07869114912305,87.05350189086555,-3.75,-1.26,-0.4,85.0,10.0,0.0,3.0,0.0,0.0,1.0,0.0,189.53,0.0,
23.251,105.1248691149123,87.05935018908656,-3.33,-1.0,-0.49,85.0,10.0,0.0,3.0,0.0,0.0,1.0,0.0,189.63,0.0,
23.276,105.12948691149123,87.06893501890866,-3.85,-1.53,-0.66,85.0,10.0,0.0,3.0,0.0,0.0,1.0,0.0,189.73,0.2,
23.301,105.16594869114913,87.03389350189086,-3.53,-1.31,-0.6,85.0,10.0,0.0,3.0,0.0,0.0,1.0,0.0,189.43,0.2,
23.325,105.17859486911492,87.03038935018908,-3.62,-1.31,-0.15,85.0,10.0,0.0,3.0,0.0,0.0,1.0,0.0,189.43,0.29,
23.35,105.2428594869115,87.03003893501891,-3.44,-1.47,-0.22,85.0,10.0,0.0,4.0,0.0,0.0,1.0,0.0,189.73,0.1,
23.373,105.24028594869114,87.0120038935019,-3.91,-1.87,-0.37,85.0,10.0,0.0,4.0,0.0,0.0,1.0,0.0,189.63,0.0,
23.398,105.24902859486912,87.02820038935019,-4.07,-2.56,-0.82,85.0,10.0,0.0,4.0,0.0,0.0,1.0,0.0,190.02,0.2,
23.422,105.21390285948691,87.10182003893502,-3.94,-2.96,-0.82,80.0,10.0,0.0,3.0,0.0,0.0,1.0,0.0,190.41,0.69,
23.447,105.24639028594869,86.9921820038935,-4.21,-3.11,-0.66,80.0,10.0,0.0,3.0,0.0,0.0,1.0,0.0,190.41,0.78,
23.472,105.24063902859486,86.97221820038935,-4.56,-3.12,-0.79,66.0,10.0,0.0,3.0,0.0,0.0,1.0,0.0,190.41,0.49,
23.496,105.18606390285949,86.89822182003894,-4.24,-3.33,-0.46,63.0,10.0,0.0,3.0,0.0,0.0,1.0,0.0,189.82,0.29,
23.521,105.09960639028594,86.8638221820039,-4.53,-3.7,-0.82,63.0,10.0,0.0,3.0,0.0,0.0,1.0,0.0,190.02,0.2,
23.545,105.04596063902859,86.85138221820038,-4.82,-3.77,-0.89,66.0,10.0,0.0,2.0,0.0,0.0,1.0,0.0,190.22,0.1,
23.57,104.99559606390285,86.87713822182003,-5.09,-4.28,-1.37,60.0,10.0,0.0,2.0,0.0,0.0,1.0,0.0,189.82,0.1,
23.595,104.90955960639029,86.84371382218201,-5.19,-4.86,-1.31,46.0,10.0,0.0,2.0,0.0,0.0,1.0,0.0,189.73,0.0,
23.619,104.85595596063902,86.83137138221821,-5.37,-5.95,-1.57,63.0,10.0,0.0,1.0,0.0,0.0,1.0,0.0,189.82,0.2,
23.644,104.76059559606391,86.79413713822183,-5.84,-6.7,-2.07,110.0,9.0,0.0,1.0,0.0,0.0,1.0,0.0,189.82,0.49,
23.668,104.62505955960638,86.72741371382219,-5.6,-6.74,-1.13,89.0,9.0,0.0,0.0,0.0,0.0,1.0,0.0,189.04,0.2,
23.693,104.26950595596064,86.45074137138222,-5.53,-6.62,1.74,73.0,9.0,0.0,12.0,0.0,0.0,1.0,0.0,189.04,0.29,
23.716,104.16195059559607,86.38707413713823,-5.58,-7.9,-0.37,80.0,9.0,0.0,12.0,0.0,0.0,1.0,0.0,188.65,0.29,
23.741,104.15119505955961,86.35370741371382,-6.02,-7.63,-0.63,93.0,9.0,0.0,12.0,0.0,0.0,1.0,0.0,188.55,1.18,
23.766,103.92511950595596,86.33237074137138,-5.87,-5.11,-0.67,98.0,8.0,0.0,11.0,0.0,0.0,1.0,0.0,188.16,1.77,
23.79,104.1005119505956,86.78923707413715,-5.08,-2.91,0.84,134.0,9.0,0.0,12.0,0.0,0.0,1.0,0.0,188.06,1.47,
23.815,104.10005119505955,86.79892370741372,-4.66,-2.96,0.26,134.0,9.0,0.0,11.0,0.0,0.0,1.0,0.0,188.45,0.69,
23.839,104.01000511950596,86.68289237074137,-4.57,-1.75,0.15,125.0,9.0,0.0,12.0,0.0,0.0,1.0,0.0,188.65,0.0,
23.864,104.0190005119506,86.59028923707413,-3.46,0.05,0.62,110.0,9.0,0.0,12.0,0.0,0.0,1.0,0.0,188.45,0.0,
23.888,104.02890005119507,86.5270289237074,-2.98,0.2,0.31,110.0,9.0,0.0,12.0,0.0,0.0,1.0,0.0,188.74,0.0,
23.913,103.97589000511951,86.47570289237075,-3.58,0.7,0.68,110.0,9.0,0.0,12.0,0.0,0.0,1.0,0.0,188.84,0.0,
23.937,103.90758900051196,86.41657028923709,-3.0,1.09,0.92,110.0,9.0,0.0,12.0,0.0,0.0,1.0,0.0,189.14,0.59,
23.961,103.9007589000512,86.3656570289237,-3.76,-0.45,0.42,110.0,9.0,0.0,12.0,0.0,0.0,1.0,0.0,189.43,0.39,
23.986,103.90007589000513,86.52256570289238,-4.91,1.44,2.24,110.0,9.0,0.0,12.0,0.0,0.0,1.0,0.0,189.14,0.69,
24.01,103.88200758900052,86.52025657028923,-4.72,-2.3,0.13,110.0,8.0,0.0,11.0,0.0,0.0,1.0,0.0,189.23,0.29,
24.035,103.81720075890006,86.38502565702893,-4.59,-3.2,0.69,118.0,8.0,0.0,11.0,0.0,0.0,1.0,0.0,189.14,0.1,
24.059,103.73872007589,86.2815025657029,-4.81,-3.22,0.44,118.0,8.0,0.0,11.0,0.0,0.0,1.0,0.0,189.14,0.49,
24.084,103.757872007589,86.1901502565703,-3.28,-2.76,1.02,118.0,8.0,0.0,11.0,0.0,0.0,1.0,0.0,189.04,0.88,
24.109,103.7687872007589,86.12701502565704,-3.47,-3.55,0.04,110.0,8.0,0.0,11.0,0.0,0.0,1.0,0.0,189.04,1.37,
24.133,103.77887872007588,86.09370150256571,-4.07,-3.95,0.94,110.0,8.0,0.0,11.0,0.0,0.0,1.0,0.0,189.04,0.78,
24.158,103.70788787200759,86.04537015025657,-3.69,-3.7,1.05,104.0,8.0,0.0,10.0,0.0,0.0,1.0,0.0,189.04,0.49,
24.181,103.64678878720075,86.06753701502565,-3.67,-3.56,1.99,93.0,7.0,0.0,10.0,0.0,0.0,1.0,0.0,189.14,0.29,
24.206,103.47867887872006,85.98875370150257,-3.71,-3.67,1.26,44.0,7.0,0.0,9.0,0.0,0.0,1.0,0.0,188.84,0.49,
24.23,103.434867887872,85.90887537015026,-3.54,-3.21,2.26,53.0,7.0,0.0,9.0,0.0,0.0,1.0,0.0,188.94,0.59,
24.255,103.3944867887872,85.84688753701502,-3.88,-4.41,1.17,125.0,6.0,0.0,9.0,0.0,0.0,0.0,0.0,188.25,0.2,
24.28,103.39944867887871,85.94868875370149,-4.48,-5.42,-0.08,73.0,6.0,0.0,8.0,0.0,0.0,0.0,0.0,187.86,0.0,
24.304,103.44494486788787,85.88686887537015,-5.6,-7.59,0.39,134.0,6.0,0.0,8.0,0.0,0.0,0.0,0.0,187.37,0.88,
24.328,103.31449448678879,85.763686887537,-6.6,-10.63,-2.04,3.0,5.0,0.0,7.0,0.0,0.0,0.0,0.0,186.29,1.18,
24.352,103.08544944867889,85.65236868875371,-6.8,-10.27,-1.76,125.0,5.0,0.0,7.0,0.0,0.0,0.0,0.0,185.21,1.57,
24.377,102.90054494486789,85.55123686887538,-7.24,-10.41,-1.43,11.0,4.0,0.0,6.0,0.0,0.0,0.0,0.0,184.43,2.26,
24.401,102.69305449448679,85.38812368688755,-6.73,-5.99,-0.67,10.0,3.0,0.0,6.0,0.0,0.0,0.0,0.0,183.74,6.77,
24.426,102.69030544944869,85.45281236868875,-3.18,-1.01,6.02,8.0,3.0,0.0,5.0,0.0,0.0,0.0,0.0,183.35,8.24,
24.451,102.91503054494487,85.78328123686887,-3.92,-2.34,10.48,7.0,2.0,0.0,4.0,0.0,0.0,0.0,0.0,183.15,5.49,
24.474,102.71250305449449,85.84332812368689,-3.24,-4.28,3.42,6.0,2.0,0.0,3.0,0.0,0.0,0.0,0.0,183.05,5.3,
24.499,102.58425030544944,85.92133281236869,-3.92,-2.15,2.4,5.0,1.0,0.0,3.0,0.0,0.0,0.0,0.0,182.37,5.1,
24.523,102.40942503054494,85.87513328123687,-4.8,-3.1,-0.4,4.0,1.0,0.0,3.0,0.0,0.0,0.0,0.0,181.29,4.61,
24.548,102.2119425030545,85.7445133281237,-7.02,-3.32,0.02,4.0,1.0,0.0,3.0,0.0,0.0,0.0,0.0,180.8,3.04,
24.571,102.15619425030545,85.65045133281238,-6.76,-3.82,1.06,4.0,1.0,0.0,3.0,0.0,0.0,0.0,0.0,181.09,2.35,
24.596,102.15961942503054,85.50604513328123,-7.29,-4.07,-0.82,3.0,0.0,0.0,3.0,0.0,0.0,0.0,0.0,180.31,1.57,
24.621,102.01596194250305,85.33860451332812,-5.66,-3.73,-1.56,3.0,0.0,0.0,3.0,0.0,0.0,0.0,0.0,179.42,0.88,
24.644,101.9205961942503,85.20486045133282,-5.17,-1.22,0.49,3.0,0.0,0.0,2.0,0.0,0.0,0.0,0.0,179.82,0.98,
24.669,101.92905961942503,85.10148604513329,-2.85,-0.77,3.13,3.0,0.0,0.0,2.0,0.0,0.0,0.0,0.0,180.01,1.67,
24.693,101.9389059619425,85.08214860451334,0.84,0.69,6.98,2.0,0.0,0.0,2.0,0.0,0.0,0.0,0.0,179.72,1.77,
24.717,101.80489059619426,85.22421486045133,8.47,9.1,13.63,2.0,0.0,0.0,1.0,0.0,0.0,0.0,0.0,180.41,2.35,
24.741,101.63848905961943,85.34642148604513,11.44,17.33,25.89,2.0,0.0,0.0,1.0,0.0,0.0,0.0,0.0,180.41,6.08,
24.765,101.90984890596194,85.14264214860452,9.09,9.56,20.61,2.0,0.0,0.0,1.0,0.0,0.0,0.0,0.0,180.31,9.81,
24.79,102.2249848905962,84.77126421486045,7.46,0.48,21.69,2.0,0.0,0.0,1.0,0.0,0.0,0.0,0.0,179.62,6.97,
24.813,102.34649848905961,84.02312642148605,2.77,-3.49,17.73,2.0,0.0,0.0,1.0,0.0,0.0,0.0,0.0,178.84,5.89,
24.838,102.31364984890597,83.26431264214861,-2.77,0.02,13.31,2.0,0.0,0.0,1.0,0.0,0.0,0.0,0.1,176.87,4.51,
24.861,102.16636498489059,82.58543126421486,-5.17,2.13,11.15,2.0,0.0,0.0,1.0,0.0,0.0,0.0,0.2,173.24,5.1,
24.886,102.02563649848906,82.23854312642149,-6.35,0.84,13.53,2.0,0.0,0.0,1.0,0.0,0.0,0.0,0.1,166.67,5.4,
24.91,101.80456364984892,82.00585431264216,-6.26,0.63,19.25,2.0,0.0,0.0,1.0,0.0,0.0,0.0,0.1,164.22,5.1,
24.934,101.4584563649849,81.77558543126422,-5.62,-2.5,22.27,2.0,0.0,0.0,1.0,0.0,0.0,0.0,0.1,164.32,3.73,
24.958,100.89284563649849,81.56355854312643,-5.92,-4.22,23.25,2.0,0.0,0.0,1.0,0.0,0.0,0.0,0.1,165.99,3.14,
24.982,100.42228456364987,80.98435585431264,-8.54,-2.35,20.85,2.0,0.0,0.0,1.0,0.0,0.0,0.0,0.1,165.69,2.75,
25.007,100.17722845636499,80.51243558543126,-12.69,-3.5,14.1,2.0,0.0,0.0,1.0,0.0,0.0,0.0,0.1,165.89,2.35,
25.03,100.24272284563651,80.38424355854313,-16.24,-3.36,12.48,2.0,0.0,0.0,1.0,0.0,0.0,0.0,0.2,165.79,1.77,
25.055,100.42927228456365,80.14642435585432,-18.7,-4.07,12.92,1.0,0.0,0.0,1.0,0.0,0.0,0.0,0.1,166.18,1.96,
25.079,100.77192722845636,80.05964243558543,-19.62,-4.26,14.31,1.0,0.0,0.0,1.0,0.0,0.0,0.0,0.1,165.69,1.77,
25.103,101.32819272284564,80.17696424355854,-20.98,-8.01,17.06,1.0,0.0,0.0,1.0,0.0,0.0,0.0,0.2,167.65,1.67,
25.127,102.01381927228456,80.53069642435584,-23.71,-12.05,20.11,1.0,0.0,0.0,1.0,0.0,0.0,0.0,0.1,167.16,1.86,
25.152,102.22638192722846,80.02606964243559,-26.18,1.55,29.19,1.0,0.0,0.0,1.0,0.0,0.0,0.0,0.1,166.08,1.47,
25.176,102.87763819272284,80.67760696424355,-19.83,-7.6,20.73,1.0,0.0,0.0,1.0,0.0,0.0,0.0,0.2,166.18,1.37,
25.2,103.55476381927228,81.39976069642437,-17.03,-2.24,16.21,1.0,0.0,0.0,1.0,0.0,0.0,0.0,0.2,166.28,1.47,
25.224,104.37847638192721,82.46197606964243,-11.33,0.37,16.69,2.0,0.0,0.0,1.0,0.0,0.0,0.0,0.1,166.77,1.08,
25.248,105.75684763819272,83.21619760696424,-4.08,2.55,18.66,2.0,0.0,0.0,1.0,0.0,0.0,0.0,0.1,166.57,0.59,
25.272,106.35368476381927,83.63361976069643,1.33,0.97,18.77,2.0,0.0,0.0,1.0,0.0,0.0,0.0,0.1,165.69,0.2,
25.296,106.40436847638193,83.83736197606964,4.39,6.08,22.82,2.0,0.0,0.0,1.0,0.0,0.0,0.0,0.1,165.49,0.1,
25.32,106.23843684763818,83.76773619760696,8.04,8.34,24.76,2.0,0.0,0.0,1.0,0.0,0.0,0.0,0.1,164.71,0.39,
25.345,105.6368436847638,83.3827736197607,12.48,6.81,23.21,2.0,0.0,0.0,1.0,0.0,0.0,0.0,0.1,165.3,0.88,
25.368,104.62268436847638,82.94827736197608,10.75,3.59,20.56,2.0,0.0,0.0,1.0,0.0,0.0,0.0,0.0,165.99,1.08,
25.393,104.47626843684763,83.14782773619761,14.85,-2.81,26.09,2.0,0.0,0.0,1.0,0.0,0.0,0.0,0.1,174.52,0.98,
25.417,102.93162684368477,83.58178277361975,7.13,-13.4,-18.91,2.0,0.0,0.0,2.0,0.0,0.0,0.0,0.1,182.66,1.67,
25.442,101.8051626843685,84.94817827736198,9.97,-18.46,4.24,2.0,0.0,0.0,2.0,0.0,0.0,0.0,0.2,182.17,0.29,
25.465,100.73851626843685,85.93981782773619,3.37,-26.97,20.34,2.0,0.0,0.0,3.0,0.0,0.0,0.0,0.2,193.65,0.0,
25.49,99.85785162684368,84.17598178277362,3.47,-29.37,-2.18,3.0,0.0,0.0,3.0,0.0,0.0,1.0,0.2,199.54,0.0,
25.515,99.24778516268438,83.71159817827736,8.18,-15.83,1.06,3.0,1.0,0.0,4.0,0.0,0.0,1.0,0.0,199.73,0.0,
25.538,98.39477851626843,83.12515981782774,11.21,-5.82,4.01,4.0,1.0,0.0,5.0,0.0,0.0,1.0,0.0,199.44,0.0,
25.563,98.30947785162684,82.77851598178276,10.76,3.98,-25.08,35.0,2.0,0.0,6.0,0.0,0.0,1.0,0.0,198.06,0.0,
25.587,98.41794778516268,83.19385159817827,9.76,10.34,-24.97,7.0,3.0,0.0,7.0,0.0,0.0,1.0,0.0,194.73,0.0,
25.611,100.56179477851626,80.03138515981783,16.27,23.65,-2.88,10.0,4.0,0.0,8.0,0.0,0.0,2.0,0.0,195.61,0.0,
25.635,101.17217947785163,80.74113851598179,11.97,14.31,12.21,46.0,5.0,0.0,9.0,0.0,0.0,2.0,0.0,196.49,0.0,
25.66,100.97221794778517,81.25311385159819,11.28,17.74,22.09,1.0,6.0,0.0,10.0,0.0,0.0,2.0,0.0,194.83,0.0,
25.684,100.69122179477851,82.10531138515982,9.99,17.49,4.83,48.0,7.0,0.0,11.0,0.0,0.0,2.0,0.0,191.1,0.0,
25.709,100.70812217947784,82.64953113851597,3.87,10.08,3.27,98.0,7.0,0.0,12.0,0.0,0.0,2.0,0.0,195.32,0.0,
25.733,100.79981221794779,83.08195311385158,-0.59,6.82,2.05,11.0,8.0,0.0,0.0,0.0,0.0,2.0,0.0,195.91,0.0,
25.757,100.91698122179479,83.32319531138516,-1.61,6.45,1.38,104.0,8.0,0.0,2.0,0.0,0.0,2.0,0.0,194.04,0.0,
25.782,101.21669812217948,83.46431953113851,0.21,8.04,2.37,13.0,8.0,0.0,2.0,0.0,0.0,3.0,0.0,194.34,0.0,
25.805,101.41766981221795,83.77543195311385,-0.03,6.1,1.11,14.0,8.0,0.0,3.0,0.0,0.0,3.0,0.0,194.24,0.0,
25.83,101.4737669812218,83.96854319531138,-1.01,6.21,1.09,93.0,9.0,0.0,3.0,0.0,0.0,3.0,0.0,195.51,0.0,
25.854,101.56937669812217,84.06885431953114,-0.21,7.69,0.4,225.0,9.0,0.0,5.0,0.0,0.0,3.0,0.0,196.1,0.0,
25.878,101.68693766981221,84.26788543195312,0.82,10.85,1.53,225.0,9.0,0.0,5.0,0.0,0.0,3.0,0.0,195.61,0.0,
25.903,102.40969376698122,84.95378854319532,1.64,12.34,-1.98,272.0,10.0,0.0,6.0,0.0,0.0,3.0,0.0,195.42,0.0,
25.927,102.77896937669811,85.06737885431953,-0.85,8.97,-1.24,246.0,10.0,0.0,9.0,0.0,0.0,3.0,0.0,195.32,0.0,
