time,pitch,roll,gyrx,gyry,gyrz,f1,f2,f3,f4,f5,f6,f7,g1,g2,g3
0.363,51.14,18.1,-11.0,-1.0,-5.0,0,2,0,0,0,0,0,0.00,0.00,0.00,
0.376,56.9,20.224,-12.0,-2.0,-8.0,0,2,0,0,0,0,0,0.00,0.00,0.10,
0.39,62.785999999999994,22.2544,-10.0,-2.0,-12.0,0,2,0,0,0,0,0,0.10,0.00,0.10,
0.404,68.1716,23.735439999999997,-11.0,-1.0,-16.0,0,2,0,0,0,0,0,0.00,0.00,0.00,
0.417,72.51716,24.873544,-14.0,0.0,-18.0,0,2,0,0,0,0,0,0.10,0.00,0.00,
0.432,75.696716,25.986354399999996,-16.0,0.0,-19.0,0,2,0,0,0,0,0,0.00,0.00,0.00,
0.445,77.91367159999999,27.20463544,-15.0,0.0,-17.0,0,2,0,0,0,0,0,0.00,0.00,0.00,
0.458,79.62936715999999,28.298463544,-12.0,0.0,-14.0,0,2,0,0,0,0,0,0.00,0.00,0.00,
0.472,81.537936716,28.938846354400003,-10.0,-2.0,-11.0,0,2,0,0,0,0,0,0.10,0.00,0.00,
0.486,83.5647936716,29.227884635440002,-9.0,-4.0,-8.0,0,2,0,0,0,0,0,0.00,0.00,0.00,
0.499,85.34247936716,29.571788463544,-10.0,-4.0,-7.0,0,2,0,0,0,0,0,0.00,0.00,0.00,
0.513,86.780247936716,30.029178846354398,-9.0,-4.0,-5.0,0,2,0,0,0,0,0,0.00,0.00,0.00,
0.526,88.2200247936716,30.55191788463544,-7.0,-4.0,-5.0,0,2,0,0,0,0,0,0.00,0.00,0.00,
0.54,89.59700247936716,30.856191788463544,-5.0,-4.0,-4.0,0,2,0,0,0,0,0,0.00,0.00,0.00,
0.553,91.09370024793671,30.994619178846357,-5.0,-3.0,-4.0,0,2,0,0,0,0,0,0.00,0.00,0.00,
0.567,92.16137002479368,31.116461917884635,-7.0,-1.0,-4.0,0,2,0,0,0,0,0,0.00,0.00,0.00,
0.58,92.57413700247938,31.380646191788465,-7.0,0.0,-5.0,0,2,0,0,0,0,0,0.00,0.00,0.00,
0.593,92.80441370024793,31.677064619178847,-5.0,0.0,-5.0,0,2,0,0,0,0,0,0.00,0.00,0.00,
0.607,92.95344137002479,31.931706461917887,-3.0,-1.0,-4.0,0,2,0,0,0,0,0,0.00,0.00,0.00,
0.621,93.40034413700248,32.02917064619179,-1.0,-1.0,-3.0,0,2,0,0,0,0,0,0.00,0.00,0.00,
0.634,93.95803441370023,32.08391706461918,-2.0,-1.0,-3.0,0,2,0,0,0,0,0,0.00,0.00,0.00,
0.648,94.13080344137003,32.242391706461916,-2.0,-1.0,-2.0,0,2,0,0,0,0,0,0.10,0.00,0.00,
0.661,93.977080344137,32.54623917064619,-3.0,0.0,-2.0,0,2,0,0,0,0,0,0.00,0.00,0.00,
0.674,93.9707080344137,32.738623917064615,-1.0,0.0,-2.0,0,2,0,0,0,0,0,0.00,0.00,0.00,
0.689,94.02407080344138,32.80286239170646,0.0,-1.0,-2.0,0,2,0,0,0,0,0,0.00,0.00,0.00,
0.702,94.26340708034414,32.72828623917064,0.0,-1.0,-3.0,0,2,0,0,0,0,0,0.00,0.00,0.00,
0.715,94.59334070803442,32.64882862391706,0.0,-1.0,-3.0,0,2,0,0,0,0,0,0.00,0.00,0.00,
0.729,94.66233407080344,32.59588286239171,0.0,-1.0,-3.0,0,2,0,0,0,0,0,0.00,0.00,0.00,
0.742,94.75923340708033,32.64458828623917,0.0,-2.0,-3.0,0,2,0,0,0,0,0,0.00,0.00,0.00,
0.755,95.08392334070804,32.55945882862392,1.0,-3.0,-1.0,0,2,0,0,0,0,0,0.00,0.00,0.00,
0.769,95.51239233407081,32.36194588286239,1.0,-3.0,-2.0,0,2,0,0,0,0,0,0.00,0.00,0.00,
0.782,95.88823923340708,32.12619458828624,0.0,-3.0,-3.0,0,2,0,0,0,0,0,0.00,0.00,0.00,
0.795,96.2138239233407,31.895619458828623,0.0,-2.0,-4.0,0,2,0,0,0,0,0,0.10,0.00,0.00,
0.809,96.42638239233408,31.728561945882863,-1.0,-2.0,-6.0,0,2,0,0,0,0,0,0.10,0.00,0.00,
0.823,96.67263823923341,31.639856194588283,-2.0,-1.0,-7.0,0,2,0,0,0,0,0,0.10,0.00,0.00,
0.836,96.85926382392333,31.711985619458826,-3.0,-1.0,-7.0,0,2,0,0,0,0,0,0.00,0.00,0.00,
0.849,96.86892638239235,31.773198561945883,-3.0,-1.0,-6.0,0,2,0,0,0,0,0,0.00,0.00,0.00,
0.863,96.77089263823923,31.851319856194586,-4.0,0.0,-5.0,0,2,0,0,0,0,0,0.00,0.00,0.00,
0.877,96.52708926382392,31.994131985619454,-4.0,1.0,-4.0,0,2,0,0,0,0,0,0.00,0.00,0.00,
0.89,96.25070892638239,32.10741319856194,-2.0,0.0,-3.0,0,2,0,0,0,0,0,0.00,0.00,0.00,
0.904,96.07007089263823,32.397741319856195,0.0,0.0,0.0,0,2,0,0,0,0,0,0.00,0.00,0.00,
0.917,96.11500708926383,32.49877413198562,0.0,0.0,0.0,0,2,0,0,0,0,0,0.00,0.00,0.00,
0.93,96.20950070892638,32.42787741319856,0.0,1.0,1.0,0,2,0,0,0,0,0,0.00,0.00,0.00,
0.944,95.99395007089264,32.50178774131986,-1.0,1.0,1.0,0,2,0,0,0,0,0,0.00,0.00,0.00,
0.957,95.70239500708927,32.66217877413199,0.0,1.0,1.0,0,2,0,0,0,0,0,0.00,0.00,0.00,
0.969,95.45723950070894,32.8042178774132,1.0,0.0,0.0,0,2,0,0,0,0,0,0.00,0.00,0.00,
0.983,95.8377239500709,32.60242178774132,2.0,0.0,0.0,0,2,0,0,0,0,0,0.10,0.00,0.00,
0.996,96.3437723950071,32.29424217877413,1.0,-1.0,0.0,0,2,0,0,0,0,0,0.00,0.00,0.00,
1.009,96.66437723950071,32.12842421787741,-2.0,-1.0,-3.0,0,2,0,0,0,0,0,0.00,0.00,0.00,
1.024,96.50743772395006,32.27384242178774,-4.0,-1.0,-4.0,0,2,0,0,0,0,0,0.00,0.00,0.00,
1.037,96.08674377239501,32.594384242178776,-4.0,0.0,-6.0,0,2,0,0,0,0,0,0.10,0.00,0.00,
1.05,95.5766743772395,32.914438424217884,-4.0,0.0,-6.0,0,2,0,0,0,0,0,0.10,0.00,0.00,
1.063,95.34566743772395,32.98244384242179,-3.0,0.0,-5.0,0,2,0,0,0,0,0,0.00,0.00,0.00,
1.077,95.3405667437724,33.02524438424218,-3.0,0.0,-4.0,0,2,0,0,0,0,0,0.10,0.00,0.00,
1.09,95.45705667437724,33.05652443842422,-2.0,0.0,-3.0,0,2,0,0,0,0,0,0.00,0.00,0.00,
1.103,95.60370566743774,33.15865244384242,-1.0,0.0,-1.0,0,2,0,0,0,0,0,0.00,0.00,0.00,
1.117,95.81637056674377,33.11486524438424,0.0,-1.0,0.0,0,2,0,0,0,0,0,0.00,0.00,0.00,
1.13,96.09863705667436,33.020486524438425,0.0,-1.0,0.0,0,2,0,0,0,0,0,0.00,0.00,0.00,
1.143,96.33386370566744,32.98404865244384,0.0,0.0,0.0,0,2,0,0,0,0,0,0.00,0.00,0.00,
1.157,96.43838637056675,32.84540486524438,-1.0,0.0,-1.0,0,2,0,0,0,0,0,0.00,0.00,0.00,
1.17,96.61083863705667,32.77754048652444,0.0,0.0,-2.0,0,2,0,0,0,0,0,0.00,0.00,0.00,
1.183,96.84408386370568,32.66275404865244,0.0,0.0,-3.0,0,2,0,0,0,0,0,0.00,0.00,0.00,
1.198,96.97540838637056,32.642275404865245,-1.0,0.0,-3.0,0,2,0,0,0,0,0,0.00,0.00,0.00,
1.211,96.74554083863706,32.64922754048652,-2.0,0.0,-3.0,0,2,0,0,0,0,0,0.10,0.00,0.00,
1.224,96.4165540838637,32.67692275404865,-3.0,0.0,-2.0,0,2,0,0,0,0,0,0.00,0.00,0.00,
1.238,96.10465540838636,32.67969227540486,-2.0,0.0,0.0,0,2,0,0,0,0,0,0.00,0.00,0.00,
1.251,96.10946554083863,32.81496922754049,-1.0,0.0,-1.0,0,2,0,0,0,0,0,0.00,0.00,0.00,
1.264,96.33494655408387,32.84649692275405,0.0,0.0,-1.0,0,2,0,0,0,0,0,0.00,0.00,0.00,
1.277,96.38449465540839,32.993649692275405,0.0,0.0,-2.0,0,2,0,0,0,0,0,0.00,0.00,0.00,
1.291,96.22744946554084,33.09836496922754,0.0,0.0,-2.0,0,2,0,0,0,0,0,0.00,0.00,0.00,
1.304,95.79774494655408,33.21683649692275,-1.0,0.0,-2.0,0,2,0,0,0,0,0,0.10,0.00,0.00,
1.317,95.46677449465543,33.309683649692275,-2.0,0.0,-2.0,0,2,0,0,0,0,0,0.10,0.00,0.00,
1.331,95.48767744946554,33.22896836496923,-1.0,-1.0,-1.0,0,2,0,0,0,0,0,0.10,0.00,0.00,
1.344,95.57076774494655,33.08589683649692,-2.0,-1.0,-1.0,0,2,0,0,0,0,0,0.00,0.00,0.00,
1.358,95.70507677449464,32.99058968364969,-1.0,-2.0,-1.0,0,2,0,0,0,0,0,0.00,0.00,0.00,
1.372,95.87150767744947,32.87305896836497,-1.0,-2.0,-2.0,0,2,0,0,0,0,0,0.00,0.00,0.00,
1.385,96.19415076774494,32.744305896836494,0.0,-3.0,-2.0,0,2,0,0,0,0,0,0.00,0.00,0.00,
1.398,96.48741507677448,32.695430589683646,-1.0,-2.0,-2.0,0,2,0,0,0,0,0,0.00,0.00,0.00,
1.412,96.93974150767744,32.492543058968366,-2.0,-1.0,-3.0,0,2,0,0,0,0,0,0.00,0.00,0.00,
1.426,97.00297415076776,32.43625430589684,-3.0,0.0,-3.0,0,2,0,0,0,0,0,0.10,0.00,0.00,
1.439,96.99129741507677,32.48462543058969,-3.0,0.0,-4.0,0,2,0,0,0,0,0,0.10,0.00,0.00,
1.453,96.93612974150768,32.65146254305897,-2.0,0.0,-4.0,0,2,0,0,0,0,0,0.10,0.00,0.00,
1.466,96.86761297415077,32.9291462543059,-1.0,0.0,-4.0,0,2,0,0,0,0,0,0.00,0.00,0.00,
1.479,96.86076129741508,33.03791462543059,0.0,0.0,-3.0,0,2,0,0,0,0,0,0.00,0.00,0.00,
1.492,96.80607612974151,33.12979146254306,0.0,0.0,-2.0,0,2,0,0,0,0,0,0.00,0.00,0.00,
1.506,96.79160761297416,33.19297914625431,0.0,0.0,-1.0,0,2,0,0,0,0,0,0.00,0.00,0.00,
1.519,96.90716076129742,33.19929791462543,0.0,0.0,0.0,0,2,0,0,0,0,0,0.00,0.00,0.00,
1.532,97.24271607612974,33.17292979146254,0.0,0.0,0.0,0,2,0,0,0,0,0,0.00,0.00,0.00,
1.546,97.51027160761298,33.08029297914626,0.0,0.0,0.0,0,2,0,0,0,0,0,0.00,0.00,0.00,
1.559,97.5460271607613,32.972029297914624,0.0,0.0,-1.0,0,2,0,0,0,0,0,0.00,0.00,0.00,
1.572,97.41460271607613,32.81720292979146,-1.0,0.0,-1.0,0,2,0,0,0,0,0,0.00,0.00,0.00,
1.586,97.2304602716076,32.79272029297915,-2.0,0.0,-2.0,0,2,0,0,0,0,0,0.00,0.00,0.00,
1.599,97.17604602716077,32.81727202929791,-2.0,0.0,-2.0,0,2,0,0,0,0,0,0.00,0.00,0.00,
1.612,97.08060460271608,32.82872720292979,-3.0,0.0,-2.0,0,2,0,0,0,0,0,0.00,0.00,0.00,
1.626,96.9810604602716,32.78487272029298,-3.0,-1.0,-2.0,0,2,0,0,0,0,0,0.00,0.00,0.00,
1.639,96.73710604602717,32.8254872720293,-3.0,0.0,-1.0,0,2,0,0,0,0,0,0.00,0.00,0.00,
1.652,96.43371060460272,32.76654872720293,-3.0,0.0,-2.0,0,2,0,0,0,0,0,0.00,0.00,0.00,
1.667,96.26837106046027,32.86865487272029,-2.0,0.0,-2.0,0,2,0,0,0,0,0,0.00,0.00,0.00,
1.68,96.17983710604602,32.977865487272034,-2.0,0.0,-2.0,0,2,0,0,0,0,0,0.00,0.00,0.00,
1.693,96.44998371060461,32.8897865487272,-3.0,0.0,-2.0,0,2,0,0,0,0,0,0.00,0.00,0.00,
1.707,96.69299837106047,32.80897865487272,-3.0,0.0,-2.0,0,2,0,0,0,0,0,0.00,0.00,0.00,
1.72,96.87929983710606,32.70189786548727,-3.0,0.0,-1.0,0,2,0,0,0,0,0,0.00,0.00,0.00,
1.733,96.8799299837106,32.78118978654872,-3.0,0.0,-1.0,0,2,0,0,0,0,0,0.00,0.00,0.00,
1.746,96.87099299837107,32.915118978654874,-3.0,0.0,-1.0,0,2,0,0,0,0,0,0.00,0.00,0.00,
1.76,96.7710992998371,33.06351189786548,-3.0,0.0,-1.0,0,2,0,0,0,0,0,0.00,0.00,0.00,
1.773,96.7341099299837,33.20435118978655,-3.0,0.0,0.0,0,2,0,0,0,0,0,0.00,0.00,0.00,
1.786,96.74841099299837,33.272435118978656,-3.0,0.0,0.0,0,2,0,0,0,0,0,0.00,0.00,0.00,
1.801,96.79484109929984,33.252243511897866,-2.0,0.0,0.0,0,2,0,0,0,0,0,0.00,0.00,0.00,
1.814,96.76348410992999,33.31322435118979,-1.0,0.0,-1.0,0,2,0,0,0,0,0,0.00,0.00,0.00,
1.827,96.796348410993,33.25632243511898,0.0,-1.0,-1.0,0,2,0,0,0,0,0,0.00,0.00,0.00,
1.841,96.7726348410993,33.1786322435119,-1.0,-1.0,-2.0,0,2,0,0,0,0,0,0.00,0.00,0.00,
1.854,96.92326348410992,33.08086322435119,-2.0,-1.0,-2.0,0,2,0,0,0,0,0,0.00,0.00,0.00,
1.867,97.05532634841099,32.93608632243512,-3.0,-1.0,-2.0,0,2,0,0,0,0,0,0.00,0.00,0.00,
1.881,97.22153263484108,32.822608632243515,-4.0,0.0,-3.0,0,2,0,0,0,0,0,0.00,0.00,0.00,
1.895,97.1841532634841,32.86526086322435,-4.0,0.0,-3.0,0,2,0,0,0,0,0,0.00,0.00,0.00,
1.908,97.0184153263484,32.959526086322434,-4.0,0.0,-3.0,0,2,0,0,0,0,0,0.00,0.00,0.00,
1.922,96.82184153263483,33.14895260863224,-2.0,0.0,-3.0,0,2,0,0,0,0,0,0.00,0.00,0.00,
1.935,96.68518415326348,33.23989526086322,-1.0,0.0,-2.0,0,2,0,0,0,0,0,0.00,0.00,0.00,
1.948,96.73451841532635,33.27598952608632,-1.0,0.0,-1.0,0,2,0,0,0,0,0,0.00,0.00,0.00,
1.961,96.77545184153263,33.207598952608635,0.0,0.0,0.0,0,2,0,0,0,0,0,0.00,0.00,0.00,
1.975,96.91454518415327,33.137759895260864,-1.0,-1.0,0.0,0,2,0,0,0,0,0,0.00,0.00,0.00,
1.988,97.10845451841533,33.085775989526084,-1.0,-1.0,0.0,0,2,0,0,0,0,0,0.00,0.00,0.00,
2.001,97.35284545184153,33.05357759895261,-1.0,0.0,-1.0,0,2,0,0,0,0,0,0.00,0.00,0.00,
2.015,97.46728454518416,33.05935775989526,-2.0,0.0,-2.0,0,2,0,0,0,0,0,0.00,0.00,0.00,
2.028,97.62272845451842,32.951935775989526,-3.0,0.0,-2.0,0,2,0,0,0,0,0,0.00,0.00,0.00,
2.042,97.60227284545184,32.851193577598956,-4.0,0.0,-2.0,0,2,0,0,0,0,0,0.00,0.00,0.00,
2.056,97.42022728454519,32.850119357759894,-3.0,0.0,-2.0,0,2,0,0,0,0,0,0.00,0.00,0.00,
2.069,97.33002272845451,32.85001193577599,-2.0,0.0,-1.0,0,2,0,0,0,0,0,0.00,0.00,0.00,
2.082,97.33000227284545,32.8770011935776,-1.0,-1.0,-1.0,0,2,0,0,0,0,0,0.00,0.00,0.00,
2.096,97.48300022728455,32.78970011935776,-2.0,0.0,-1.0,0,2,0,0,0,0,0,0.00,0.00,0.00,
2.109,97.51630002272846,32.72697001193578,-3.0,0.0,-1.0,0,2,0,0,0,0,0,0.00,0.00,0.00,
2.122,97.36663000227284,32.74769700119358,-3.0,0.0,-1.0,0,2,0,0,0,0,0,0.00,0.00,0.00,
2.136,97.46866300022728,32.83076970011936,-2.0,0.0,-2.0,0,2,0,0,0,0,0,0.00,0.00,0.00,
2.15,97.55986630002273,32.83007697001194,-2.0,0.0,-2.0,0,2,0,0,0,0,0,0.00,0.00,0.00,
2.163,97.73998663000228,32.7850076970012,-3.0,0.0,-2.0,0,2,0,0,0,0,0,0.00,0.00,0.00,
2.177,97.63199866300023,32.82550076970012,-3.0,0.0,-2.0,0,2,0,0,0,0,0,0.00,0.00,0.00,
2.19,97.51319986630003,32.991550076970015,-2.0,0.0,-2.0,0,2,0,0,0,0,0,0.00,0.00,0.00,
2.203,97.51931998663,33.134155007697004,-1.0,0.0,-1.0,0,2,0,0,0,0,0,0.00,0.00,0.00,
2.216,97.699931998663,33.1934155007697,0.0,0.0,-1.0,0,2,0,0,0,0,0,0.00,0.00,0.00,
2.23,97.8799931998663,33.217341550076966,0.0,0.0,-1.0,0,2,0,0,0,0,0,0.10,0.00,0.00,
2.243,97.93399931998663,33.1837341550077,0.0,0.0,-1.0,0,2,0,0,0,0,0,0.00,0.00,0.00,
2.256,97.93939993199866,33.19837341550077,0.0,0.0,-1.0,0,2,0,0,0,0,0,0.00,0.00,0.00,
2.27,98.04793999319986,33.271837341550075,0.0,0.0,-1.0,0,2,0,0,0,0,0,0.10,0.00,0.00,
2.283,98.22979399931998,33.32418373415501,0.0,0.0,-2.0,0,2,0,0,0,0,0,0.00,0.00,0.00,
2.296,98.265979399932,33.239418373415496,1.0,1.0,-2.0,0,2,0,0,0,0,0,0.00,0.00,0.00,
2.31,98.2065979399932,33.20394183734155,1.0,1.0,-2.0,0,2,0,0,0,0,0,0.00,0.00,0.00,
2.323,98.22765979399932,33.191394183734154,1.0,0.0,-2.0,0,2,0,0,0,0,0,0.00,0.00,0.00,
2.336,98.35576597939993,33.11813941837342,1.0,0.0,-1.0,0,2,0,0,0,0,0,0.00,0.00,0.00,
2.35,98.50357659793998,33.09281394183734,0.0,0.0,0.0,0,2,0,0,0,0,0,0.00,0.00,0.00,
2.363,98.401357659794,33.07228139418373,-1.0,1.0,-1.0,0,2,0,0,0,0,0,0.00,0.00,0.00,
2.376,98.2561357659794,33.16922813941837,-1.0,1.0,-2.0,0,2,0,0,0,0,0,0.00,0.00,0.00,
2.39,97.96261357659796,33.304922813941836,0.0,1.0,-2.0,0,2,0,0,0,0,0,0.00,0.00,0.00,
2.403,97.9512613576598,33.45349228139418,0.0,1.0,-2.0,0,2,0,0,0,0,0,0.00,0.00,0.00,
2.416,97.97712613576599,33.54034922813941,1.0,1.0,-2.0,0,2,0,0,0,0,0,0.10,0.00,0.00,
2.43,98.0517126135766,33.59403492281394,2.0,1.0,-2.0,0,2,0,0,0,0,0,0.00,0.00,0.00,
2.444,97.90617126135766,33.66240349228139,2.0,1.0,-1.0,0,2,0,0,0,0,0,0.00,0.00,0.00,
2.457,97.69361712613576,33.80424034922814,2.0,1.0,-1.0,0,2,0,0,0,0,0,0.00,0.00,0.00,
2.47,97.71736171261358,33.94442403492281,3.0,1.0,-1.0,0,2,0,0,0,0,0,0.00,0.00,0.00,
2.484,97.83673617126135,33.99444240349228,2.0,1.0,-1.0,0,2,0,0,0,0,0,0.00,0.00,0.00,
2.497,97.92967361712613,33.98144424034923,1.0,1.0,-1.0,0,2,0,0,0,0,0,0.00,0.00,0.00,
2.51,97.94796736171261,33.89914442403492,0.0,1.0,-2.0,0,2,0,0,0,0,0,0.00,0.00,0.00,
2.524,97.95879673617127,33.91791444240349,0.0,1.0,-2.0,0,2,0,0,0,0,0,0.00,0.00,0.00,
2.537,98.02287967361713,33.97379144424035,0.0,1.0,-2.0,0,2,0,0,0,0,0,0.00,0.00,0.00,
2.55,98.00228796736171,34.105379144424035,1.0,1.0,-3.0,0,2,0,0,0,0,0,0.00,0.00,0.00,
2.564,98.15322879673617,34.1815379144424,1.0,1.0,-3.0,0,2,0,0,0,0,0,0.00,0.00,0.00,
2.577,98.23132287967361,34.216153791444235,1.0,1.0,-2.0,0,2,0,0,0,0,0,0.00,0.00,0.00,
2.59,98.14013228796735,34.309615379144425,1.0,1.0,-2.0,0,2,0,0,0,0,0,0.00,0.00,0.00,
2.604,98.05901322879674,34.38196153791444,2.0,1.0,-2.0,0,2,0,0,0,0,0,0.00,0.00,0.00,
2.617,98.05090132287968,34.32619615379144,3.0,1.0,-2.0,0,2,0,0,0,0,0,0.00,0.00,0.00,
2.63,98.01409013228798,34.365619615379146,3.0,1.0,-2.0,0,2,0,0,0,0,0,0.00,0.00,0.00,
2.643,98.09140901322878,34.40556196153791,2.0,1.0,-2.0,0,2,0,0,0,0,0,0.00,0.00,0.00,
2.657,98.25214090132287,34.35555619615379,0.0,1.0,-2.0,0,2,0,0,0,2,0,0,0,0,
3.096,100.0862140901323,36.15955561961538,2.0,2.0,0.0,0,2,0,0,0,0,0,0.00,0.00,0.00,
3.109,100.09862140901323,36.447955561961535,3.0,4.0,-1.0,0,2,0,0,0,0,0,0.00,0.00,0.00,
3.123,99.94686214090133,36.49479555619615,2.0,3.0,-2.0,0,2,0,0,0,0,0,0.00,0.00,0.00,
3.136,99.79668621409013,36.45447955561962,1.0,3.0,-2.0,0,2,0,0,0,0,0,0.00,0.00,0.00,
3.149,99.79066862140903,36.37844795556196,1.0,2.0,-2.0,0,2,0,0,0,0,0,0.00,0.00,0.00,
3.163,99.6820668621409,36.370844795556195,1.0,1.0,-2.0,0,2,0,0,0,0,0,0.00,0.00,0.00,
3.176,99.60820668621409,36.46908447955562,2.0,0.0,-2.0,0,2,0,0,0,0,0,0.00,0.00,0.00,
3.189,99.5378206686214,36.59590844795556,3.0,0.0,-3.0,0,2,0,0,0,0,0,0.00,0.00,0.00,
3.203,99.57578206686213,36.67159084479555,3.0,0.0,-3.0,0,2,0,0,0,0,0,0.00,0.00,0.00,
3.216,99.68757820668621,36.74215908447956,1.0,1.0,-3.0,0,2,0,0,0,0,0,0.00,0.00,0.00,
3.229,99.79775782066862,36.75821590844795,0.0,1.0,-3.0,0,2,0,0,0,0,0,0.00,0.00,0.00,
3.243,99.94377578206687,36.813821590844796,0.0,2.0,-3.0,0,2,0,0,0,0,0,0.00,0.00,0.00,
3.255,100.02137757820668,36.82838215908448,0.0,2.0,-3.0,0,2,0,0,0,0,0,0.00,0.00,0.00,
3.268,100.09213775782067,36.991838215908444,0.0,2.0,-3.0,0,2,0,0,0,0,0,0.00,0.00,0.00,
3.281,100.19821377578205,37.06218382159084,0.0,1.0,-3.0,0,2,0,0,0,0,0,0.00,0.00,0.00,
3.295,100.44282137757821,37.14121838215909,0.0,1.0,-3.0,0,2,0,0,0,0,0,0.00,0.00,0.00,
3.308,100.71928213775782,37.28412183821591,0.0,0.0,-3.0,0,2,0,0,0,0,0,0.00,0.00,0.00,
3.321,100.71992821377577,37.33441218382159,2.0,1.0,-3.0,0,2,0,0,0,0,0,0.00,0.00,0.00,
3.335,100.57599282137758,37.33944121838216,1.0,2.0,-3.0,0,2,0,0,0,0,0,0.00,0.00,0.00,
3.348,100.54359928213776,37.24994412183822,2.0,2.0,-3.0,0,2,0,0,0,0,0,0.00,0.00,0.00,
3.361,100.61235992821378,37.32199441218382,1.0,2.0,-2.0,0,2,0,0,0,0,0,0.00,0.00,0.00,
3.375,100.82623599282138,37.43719944121839,0.0,2.0,-2.0,0,2,0,0,0,0,0,0.00,0.00,0.00,
3.388,101.03662359928214,37.52971994412184,1.0,2.0,-2.0,0,2,0,0,0,0,0,0.00,0.00,0.00,
3.401,101.1206623599282,37.718971994412186,2.0,3.0,-3.0,0,2,0,0,0,0,0,0.00,0.00,0.00,
3.415,101.09306623599282,37.89989719944122,2.0,3.0,-3.0,0,2,0,0,0,0,0,0.00,0.00,0.00,
3.428,100.99130662359929,38.07098971994413,2.0,4.0,-4.0,0,2,0,0,0,0,0,0.00,0.00,0.00,
3.441,100.87313066235993,38.178098971994416,2.0,4.0,-4.0,0,2,0,0,0,0,0,0.00,0.00,0.00,
3.454,100.70831306623599,38.11680989719944,1.0,4.0,-3.0,0,2,0,0,0,0,0,0.00,0.00,0.00,
3.468,100.46683130662359,38.02968098971995,1.0,3.0,-3.0,0,2,0,0,0,0,0,0.00,0.00,0.00,
3.481,100.10068313066236,37.975968098972,1.0,2.0,-2.0,0,2,0,0,0,0,0,0.00,0.00,0.00,
3.494,99.78506831306623,37.9615968098972,0.0,1.0,-2.0,0,2,0,0,0,0,0,0.00,0.00,0.00,
3.508,99.61850683130662,37.90615968098972,0.0,0.0,-1.0,0,2,0,0,0,0,0,0.00,0.00,0.00,
3.521,99.64685068313067,37.90061596809897,-1.0,0.0,-1.0,0,2,0,0,0,0,0,0.00,0.00,0.00,
3.534,99.86568506831306,37.8910615968099,-1.0,0.0,-2.0,0,2,0,0,0,0,0,0.00,0.00,0.00,
3.548,100.07656850683131,37.971106159680986,0.0,0.0,-3.0,0,2,0,0,0,0,0,0.00,0.00,0.00,
3.561,100.16965685068314,38.0511106159681,0.0,0.0,-4.0,0,2,0,0,0,0,0,0.00,0.00,0.00,
3.574,100.43996568506832,37.987111061596806,0.0,0.0,-4.0,0,2,0,0,0,0,0,0.00,0.00,0.00,
3.588,100.70999656850682,37.890711106159685,0.0,0.0,-3.0,0,2,0,0,0,0,0,0.00,0.00,0.00,
3.601,100.85399965685068,37.78207111061597,-2.0,0.0,-3.0,0,2,0,0,0,0,0,0.00,0.00,0.00,
3.614,100.95839996568508,37.7712071110616,-3.0,0.0,-2.0,0,2,0,0,0,0,0,0.00,0.00,0.00,
3.628,101.1128399965685,37.77012071110616,-3.0,0.0,-1.0,0,2,0,0,0,0,0,0.00,0.00,0.00,
3.641,101.34428399965685,37.833012071110616,-3.0,0.0,-2.0,0,2,0,0,0,0,0,0.00,0.00,0.00,
3.654,101.73642839996569,37.90230120711106,-2.0,0.0,-1.0,0,2,0,0,0,0,0,0.00,0.00,0.00,
3.667,102.25264283999658,37.85523012071111,-1.0,0.0,-1.0,0,2,0,0,0,0,0,0.00,0.00,0.00,
3.682,102.56526428399965,37.88652301207111,0.0,0.0,-2.0,0,2,0,0,0,0,0,0.00,0.00,0.00,
3.694,102.62352642839997,37.93465230120711,0.0,0.0,-1.0,0,2,0,0,0,0,0,0.00,0.00,0.00,
3.707,102.51235264284,37.98446523012071,-1.0,1.0,-1.0,0,2,0,0,0,0,0,0.00,0.00,0.00,
3.722,102.32123526428398,38.070446523012066,-1.0,1.0,-1.0,0,2,0,0,0,0,0,0.00,0.00,0.00,
3.735,102.2661235264284,38.13304465230121,-2.0,1.0,0.0,0,2,0,0,0,0,0,0.00,0.00,0.00,
3.748,102.30561235264284,38.03130446523012,-2.0,1.0,0.0,0,2,0,0,0,0,0,0.00,0.00,0.00,
3.762,102.20156123526428,37.92213044652301,-3.0,0.0,0.0,0,2,0,0,0,0,0,0.00,0.00,0.00,
3.775,102.03815612352642,37.9562130446523,-3.0,0.0,0.0,0,2,0,0,0,0,0,0.00,0.00,0.00,
3.788,101.86881561235263,38.13062130446523,-2.0,0.0,-1.0,0,2,0,0,0,0,0,0.00,0.00,0.00,
3.802,101.69888156123528,38.24706213044652,-2.0,0.0,-2.0,0,2,0,0,0,0,0,0.00,0.00,0.00,
3.815,101.72688815612352,38.25870621304465,-2.0,0.0,-2.0,0,2,0,0,0,0,0,0.00,0.00,0.00,
3.828,101.81968881561235,38.18787062130447,-2.0,0.0,-3.0,0,2,0,0,0,0,0,0.00,0.00,0.00,
3.842,101.70296888156123,38.252787062130444,-3.0,0.0,-4.0,0,2,0,0,0,0,0,0.00,0.00,0.00,
3.855,101.37629688815612,38.412278706213044,-1.0,1.0,-3.0,0,2,0,0,0,0,0,0.00,0.00,0.00,
3.868,101.01962968881561,38.554227870621304,-1.0,0.0,-3.0,0,2,0,0,0,0,0,0.00,0.00,0.00,
3.881,100.83996296888157,38.67642278706213,0.0,0.0,-1.0,0,2,0,0,0,0,0,0.00,0.00,0.00,
3.895,100.99299629688817,38.73364227870621,0.0,-1.0,0.0,0,2,0,0,0,0,0,0.00,0.00,0.00,
3.908,101.25129962968882,38.59536422787062,-1.0,-1.0,0.0,0,2,0,0,0,0,0,0.00,0.00,0.00,
3.921,101.43012996296889,38.50953642278706,-2.0,-1.0,0.0,0,2,0,0,0,0,0,0.00,0.00,0.00,
3.935,101.5290129962969,38.61795364227871,-2.0,-1.0,-1.0,0,2,0,0,0,0,0,0.00,0.00,0.00,
3.948,101.6109012996297,38.64679536422787,-1.0,0.0,-3.0,0,2,0,0,0,0,0,0.00,0.00,0.00,
3.961,101.69109012996297,38.68567953642278,0.0,0.0,-3.0,0,2,0,0,0,0,0,0.00,0.00,0.00,
3.975,101.9241090129963,38.64456795364228,0.0,0.0,-3.0,0,2,0,0,0,0,0,0.00,0.00,0.00,
3.988,102.20841090129962,38.523456795364226,-1.0,0.0,-3.0,0,2,0,0,0,0,0,0.00,0.00,0.00,
4.002,102.32684109012996,38.457345679536424,-2.0,0.0,-2.0,0,2,0,0,0,0,0,0.00,0.00,0.00,
4.016,102.266684109013,38.585734567953644,-1.0,0.0,-2.0,0,2,0,0,0,0,0,0.00,0.00,0.00,
4.029,102.2606684109013,38.70657345679536,0.0,0.0,-2.0,0,2,0,0,0,0,0,0.00,0.00,0.00,
4.042,102.32306684109012,38.69165734567953,0.0,0.0,-2.0,0,2,0,0,0,0,0,0.00,0.00,0.00,
4.056,102.59930668410901,38.57316573456795,1.0,0.0,-1.0,0,2,0,0,0,0,0,0.00,0.00,0.00,
4.069,102.8879306684109,38.45331657345679,0.0,1.0,-1.0,0,2,0,0,0,0,0,0.00,0.00,0.00,
4.082,103.09679306684109,38.44133165734567,-1.0,1.0,-1.0,0,2,0,0,0,0,0,0.00,0.00,0.00,
4.096,103.1266793066841,38.476133165734566,-2.0,1.0,-1.0,0,2,0,0,0,0,0,0.00,0.00,0.00,
4.109,103.00366793066841,38.56961331657346,-2.0,2.0,-2.0,0,2,0,0,0,0,0,0.00,0.00,0.00,
4.122,102.91036679306686,38.704961331657344,-1.0,2.0,-3.0,0,2,0,0,0,0,0,0.00,0.00,0.00,
4.135,102.83803667930668,38.79949613316573,0.0,2.0,-4.0,0,2,0,0,0,0,0,0.00,0.00,0.00,
4.149,102.85780366793067,38.86294961331657,0.0,2.0,-5.0,0,2,0,0,0,0,0,0.00,0.00,0.00,
4.162,102.94078036679306,38.95029496133166,0.0,2.0,-4.0,0,2,0,0,0,0,0,0.00,0.00,0.00,
4.175,102.94007803667931,39.04002949613316,0.0,1.0,-4.0,0,2,0,0,0,0,0,0.00,0.00,0.00,
4.189,102.89500780366792,39.25600294961332,0.0,1.0,-3.0,0,2,0,0,0,0,0,0.00,0.00,0.00,
4.202,103.13350078036679,39.484600294961325,1.0,1.0,-3.0,0,2,0,0,0,0,0,0.00,0.00,0.00,
4.215,103.57135007803669,39.68746002949614,3.0,2.0,-3.0,0,2,0,0,0,0,0,0.00,0.00,0.00,
4.229,104.20013500780367,39.89674600294962,3.0,3.0,-4.0,0,2,0,0,0,0,0,0.00,0.00,0.00,
4.242,104.92901350078037,40.13367460029496,5.0,4.0,-5.0,0,2,0,0,0,0,0,0.00,0.00,0.00,
4.255,105.63190135007802,40.436367460029494,7.0,5.0,-6.0,0,2,0,0,0,0,0,0.00,0.00,0.00,
4.269,106.46719013500781,40.71863674600295,9.0,7.0,-7.0,0,2,0,0,0,0,0,0.00,0.00,0.00,
4.282,107.41471901350079,41.025863674600295,10.0,8.0,-9.0,0,2,0,0,0,0,0,0.00,0.00,0.00,
4.295,108.59847190135008,41.39858636746003,11.0,10.0,-11.0,0,2,0,0,0,0,0,0.00,0.00,0.00,
4.308,109.976847190135,41.786858636746004,12.0,12.0,-14.0,0,2,0,0,0,0,0,0.00,0.00,0.00,
4.322,111.41968471901349,42.3656858636746,14.0,14.0,-18.0,0,2,0,0,0,0,0,0.00,0.00,0.00,
4.336,112.78796847190135,43.125568586367464,16.0,18.0,-23.0,0,2,0,0,0,0,0,0.00,0.00,0.00,
4.349,114.04079684719015,44.19155685863675,17.0,21.0,-28.0,0,2,0,0,0,0,0,0.00,0.00,0.00,
4.363,115.27307968471901,45.558155685863674,19.0,25.0,-34.0,0,2,0,0,0,0,0,0.00,0.00,0.00,
4.376,116.35030796847191,47.08981556858637,24.0,29.0,-38.0,0,2,0,0,0,0,0,0.00,0.00,0.00,
4.389,117.4930307968472,48.538981556858644,30.0,33.0,-43.0,0,2,0,0,0,0,0,0.00,0.00,0.00,
4.404,118.26430307968472,49.88989815568586,37.0,38.0,-49.0,0,2,0,0,0,0,0,0.00,0.00,0.00,
4.417,118.58443030796847,51.086989815568586,44.0,46.0,-53.0,0,2,0,0,0,0,0,0.00,0.00,0.00,
4.43,118.76044303079685,52.160698981556855,49.0,52.0,-55.0,0,2,0,0,0,0,0,0.00,0.00,0.00,
4.444,118.88604430307969,53.44706989815569,52.0,54.0,-55.0,0,2,0,0,0,0,0,0.00,0.00,0.00,
4.457,119.14160443030796,54.772706989815575,54.0,54.0,-51.0,0,2,0,0,0,0,0,0.00,0.00,0.00,
4.47,119.7701604430308,56.435270698981554,53.0,52.0,-51.0,0,2,0,0,0,0,0,0.10,0.00,0.00,
4.485,120.68801604430308,57.88852706989815,54.0,49.0,-53.0,0,2,0,0,0,0,0,0.00,0.00,0.00,
4.498,121.2118016044303,59.19485270698982,58.0,48.0,-56.0,0,2,0,0,0,0,0,0.00,0.00,0.00,
4.511,121.57018016044303,60.441485270698976,66.0,49.0,-61.0,0,2,0,0,0,0,0,0.00,0.00,0.00,
4.525,122.1010180160443,61.592148527069895,74.0,51.0,-66.0,0,2,0,0,0,0,0,0.10,0.00,0.00,
4.538,122.47810180160442,62.85921485270699,79.0,52.0,-70.0,0,2,0,0,0,0,0,0.00,0.00,0.00,
4.551,122.79481018016044,63.92192148527071,84.0,53.0,-71.0,0,2,0,0,0,0,0,0.00,0.00,0.00,
4.564,122.91648101801606,65.01819214852708,85.0,52.0,-72.0,0,2,0,0,0,0,0,0.00,0.00,0.00,
4.578,122.8836481018016,65.98281921485271,85.0,51.0,-69.0,0,2,0,0,0,0,0,0.00,0.00,0.00,
4.591,122.58336481018016,67.09628192148527,87.0,47.0,-65.0,0,2,0,0,0,0,0,0.00,0.00,0.00,
4.605,122.382336481018,68.10762819214852,90.0,43.0,-58.0,0,2,0,0,0,0,0,0.00,0.00,0.00,
4.619,122.2632336481018,68.94676281921485,93.0,38.0,-51.0,0,2,0,0,0,0,0,0.00,0.00,0.00,
4.632,122.12532336481019,69.39067628192149,97.0,34.0,-46.0,0,2,0,0,0,0,0,0.00,0.00,0.00,
4.645,121.84153233648102,69.75906762819214,101.0,34.0,-44.0,0,2,0,0,0,0,0,0.00,0.00,0.00,
4.659,121.50715323364811,69.5889067628192,105.0,36.0,-42.0,0,2,0,0,0,0,0,0.00,0.00,0.00,
4.672,121.0687153233648,69.30189067628191,105.0,37.0,-42.0,0,2,0,0,0,0,0,0.00,0.00,0.00,
4.686,120.7908715323365,69.12918906762819,101.0,38.0,-40.0,0,2,0,0,0,0,0,0.00,0.00,0.00,
4.7,120.54708715323365,68.96791890676282,95.0,35.0,-38.0,0,2,0,0,0,0,0,0.00,0.00,0.00,
4.713,120.52270871532336,68.75379189067628,90.0,30.0,-33.0,0,2,0,0,0,0,0,0.00,0.00,0.00,
4.726,120.29527087153232,68.72337918906763,85.0,23.0,-26.0,0,2,0,0,0,0,0,0.00,0.00,0.00,
4.74,119.88552708715324,68.69333791890676,82.0,15.0,-23.0,0,2,0,0,0,0,0,0.00,0.00,0.00,
4.753,119.20555270871532,68.88833379189067,80.0,10.0,-19.0,0,2,0,0,0,0,0,0.00,0.00,0.00,
4.766,118.28255527087154,69.15083337918907,80.0,6.0,-16.0,0,0.00,0.00,122.90,79.76,-14,-6,-2,0,2,
5.102,122.74425552708715,80.2560833379189,-14.0,-6.0,-2.0,0,2,0,0,0,0,0,0.00,0.00,0.10,
5.115,123.46042555270871,82.78860833379188,-14.0,-5.0,-2.0,0,2,0,0,0,0,0,0.00,0.00,0.00,
5.13,123.63104255527088,84.12186083337919,-13.0,-4.0,-3.0,0,2,0,0,0,0,0,0.00,0.00,0.00,
5.143,123.8821042555271,85.28118608333791,-11.0,-2.0,-4.0,0,2,0,0,0,0,0,0.00,0.00,0.10,
5.156,124.2762104255527,86.4141186083338,-10.0,-1.0,-4.0,0,2,0,0,0,0,0,0.00,0.00,0.10,
5.17,124.40562104255528,87.43641186083337,-9.0,0.0,-5.0,0,2,0,0,0,0,0,0.00,0.00,0.00,
5.183,124.73356210425551,88.42964118608334,-8.0,0.0,-4.0,0,2,0,0,0,0,0,0.00,0.00,0.00,
5.197,124.94635621042555,89.05096411860835,-8.0,0.0,-2.0,0,2,0,0,0,0,0,0.00,-2403.94,0.49,
5.219,124.68863562104255,88.98709641186085,-11.0,-3.0,0.0,0,2,0,0,0,0,0,0.00,0.00,0.69,
5.233,123.96086356210425,87.70270964118609,-12.0,-5.0,0.0,0,2,0,0,0,0,0,0.00,0.00,0.88,
5.246,123.35708635621043,86.25127096411862,-11.0,-3.0,-1.0,0,2,0,0,0,0,0,0.00,0.00,0.88,
5.261,122.95470863562105,85.13412709641186,-10.0,-3.0,-2.0,0,2,0,0,0,0,0,0.00,0.00,0.88,
5.275,122.8694708635621,84.52741270964118,-11.0,-3.0,-4.0,0,2,0,0,0,0,0,0.00,0.00,1.18,
5.288,122.89694708635622,84.53874127096412,-12.0,-3.0,-4.0,0,2,0,0,0,0,0,0.00,0.00,1.28,
5.303,122.69269470863563,84.85487412709641,-13.0,-4.0,-3.0,0,2,0,0,0,0,0,0.00,0.00,1.18,
5.316,122.22226947086357,85.25548741270964,-12.0,-5.0,0.0,0,2,0,0,0,0,0,0.00,0.00,1.28,
5.33,121.70722694708637,85.51154874127097,-9.0,-5.0,5.0,0,2,0,0,0,0,0,0.00,0.00,1.37,
5.344,121.45772269470864,85.26715487412709,-6.0,-6.0,8.0,0,2,0,0,0,0,0,0.00,0.00,1.37,
5.358,121.40577226947087,84.7297154874127,-6.0,-6.0,7.0,0,2,0,0,0,0,0,0.00,0.00,1.37,
5.371,121.50857722694708,84.06397154874126,-7.0,-6.0,6.0,0,2,0,0,0,0,0,0.00,0.00,1.47,
5.386,121.68985772269471,83.37639715487413,-8.0,-6.0,3.0,0,2,0,0,0,0,0,0.00,0.00,1.77,
5.399,121.80698577226946,82.74963971548742,-10.0,-6.0,0.0,0,2,0,0,0,0,0,0.00,0.00,1.77,
5.413,121.80969857722695,82.32696397154875,-11.0,-5.0,-1.0,0,2,0,0,0,0,0,0.00,0.00,1.86,
5.427,121.75596985772269,82.14969639715487,-11.0,-5.0,-2.0,0,2,0,0,0,0,0,0.00,0.00,2.06,
5.441,121.67859698577226,82.10496963971549,-11.0,-5.0,-2.0,0,2,0,0,0,0,0,0.00,0.00,2.16,
5.454,121.47285969857722,82.01049696397155,-10.0,-5.0,-2.0,0,2,0,0,0,0,0,0.00,0.00,2.26,
5.469,121.34428596985772,81.91104969639716,-10.0,-5.0,-1.0,0,2,0,0,0,0,0,0.00,0.00,2.35,
5.483,121.15142859698577,81.9101049696397,-9.0,-5.0,-1.0,0,2,0,0,0,0,0,0.00,0.00,2.45,
5.496,121.01514285969859,81.86501049696398,-9.0,-4.0,0.0,0,2,0,0,0,0,0,0.00,0.00,2.65,
5.51,120.85751428596986,81.8695010496964,-9.0,-4.0,0.0,0,2,0,0,0,0,0,0.00,0.00,2.84,
5.524,120.67975142859697,81.97795010496964,-9.0,-4.0,0.0,0,2,0,0,0,0,0,0.00,0.00,2.94,
5.537,120.5629751428597,81.97979501049697,-9.0,-4.0,0.0,0,2,0,0,0,0,0,0.00,0.00,3.24,
5.552,120.56929751428596,81.85397950104971,-10.0,-4.0,0.0,0,2,0,0,0,0,0,0.00,0.00,3.63,
5.565,120.5069297514286,81.53539795010498,-10.0,-4.0,0.0,0,2,0,0,0,0,0,0.00,0.00,3.73,
5.579,120.49169297514285,81.3505397950105,-9.0,-3.0,0.0,0,2,0,0,0,0,0,0.00,0.00,3.73,
5.593,120.40016929751428,81.17005397950106,-9.0,-4.0,0.0,0,2,0,0,0,0,0,0.00,0.00,3.92,
5.607,120.41801692975143,81.09800539795012,-8.0,-3.0,0.0,0,2,0,0,0,0,0,0.00,0.00,4.32,
5.62,120.38380169297514,81.01880053979502,-8.0,-3.0,0.0,0,2,0,0,0,0,0,0.00,0.00,4.51,
5.634,120.42538016929753,80.9118800539795,-9.0,-3.0,0.0,0,2,0,0,0,0,0,0.00,0.00,4.71,
5.648,120.45653801692976,80.74818800539796,-8.0,-3.0,0.0,0,2,0,0,0,0,0,0.00,0.00,4.81,
5.661,120.42365380169298,80.5878188005398,-9.0,-3.0,0.0,0,2,0,0,0,0,0,0.00,0.00,5.10,
5.676,120.4923653801693,80.46378188005397,-8.0,-3.0,0.0,0,2,0,0,0,0,0,0.00,0.00,5.30,
5.689,120.53523653801693,80.31637818800539,-8.0,-4.0,0.0,0,2,0,0,0,0,0,0.00,0.00,5.49,
5.703,120.4135236538017,80.20263781880054,-8.0,-4.0,0.0,0,2,0,0,0,0,0,0.00,0.00,5.59,
5.716,120.20335236538017,80.02026378188005,-8.0,-3.0,0.0,0,2,0,0,0,0,0,0.00,0.00,5.89,
5.73,119.98433523653802,79.894026378188,-8.0,-3.0,-1.0,0,2,0,0,0,0,0,0.00,0.00,5.98,
5.744,119.80943352365381,79.6744026378188,-8.0,-2.0,-1.0,0,2,0,0,0,0,0,0.00,0.00,6.08,
5.757,119.74694335236536,79.58044026378188,-6.0,-1.0,-2.0,0,2,0,0,0,0,0,0.00,0.00,6.18,
5.772,119.58769433523653,79.4900440263782,-5.0,0.0,-3.0,0,2,0,0,0,0,0,0.00,0.00,6.18,
5.785,119.56276943352366,79.51700440263781,-4.0,0.0,-2.0,0,2,0,0,0,0,0,0.00,0.00,6.28,
5.799,119.55127694335236,79.61870044026378,-4.0,0.0,-2.0,0,2,0,0,0,0,0,0.00,0.00,6.38,
5.813,119.55912769433523,79.69187004402639,-3.0,0.0,-1.0,0,2,0,0,0,0,0,0.00,0.00,6.47,
5.827,119.64991276943353,79.67218700440264,-3.0,0.0,-1.0,0,2,0,0,0,0,0,0.00,0.00,6.57,
5.84,119.83899127694335,79.53521870044025,-3.0,0.0,-1.0,0,2,0,0,0,0,0,0.00,0.00,6.77,
5.854,119.95689912769433,79.44952187004402,-3.0,0.0,-2.0,0,2,0,0,0,0,0,0.00,0.00,6.87,
5.868,120.04968991276944,79.42295218700441,-3.0,0.0,-2.0,0,2,0,0,0,0,0,0.00,0.00,6.97,
5.881,120.06796899127694,79.44729521870045,-3.0,0.0,-2.0,0,2,0,0,0,0,0,0.00,0.00,6.87,
5.896,120.0157968991277,79.44972952187005,-4.0,0.0,-2.0,0,2,0,0,0,0,0,0.00,0.00,7.06,
5.909,119.98357968991277,79.260972952187,-4.0,0.0,-2.0,0,2,0,0,0,0,0,0.00,0.00,7.16,
5.923,119.83635796899127,79.39509729521869,-3.0,0.0,-3.0,0,2,0,0,0,0,0,0.00,0.00,7.16,
5.937,119.73163579689913,79.58850972952187,-4.0,0.0,-2.0,0,2,0,0,0,0,0,0.00,0.00,7.16,
5.95,119.66716357968991,79.6708509729522,-4.0,0.0,-1.0,0,2,0,0,0,0,0,0.00,0.00,7.46,
5.964,119.59771635796899,79.75108509729523,-4.0,0.0,-1.0,0,2,0,0,0,0,0,0.00,0.00,7.46,
5.978,119.6267716357969,79.77710850972953,-3.0,0.0,-1.0,0,2,0,0,0,0,0,0.00,0.00,7.46,
5.992,119.79167716357969,79.66271085097296,-3.0,1.0,-1.0,0,2,0,0,0,0,0,0.00,0.00,7.46,
6.005,119.91616771635798,79.63327108509729,-3.0,0.0,-1.0,0,2,0,0,0,0,0,0.00,0.00,7.46,
6.019,119.98261677163579,79.66632710850973,-3.0,0.0,-1.0,0,2,0,0,0,0,0,0.00,0.00,7.36,
6.033,119.98926167716357,79.59763271085097,-3.0,0.0,-1.0,0,2,0,0,0,0,0,0.00,0.00,7.36,
6.046,120.07092616771635,79.5907632710851,-3.0,0.0,-1.0,0,2,0,0,0,0,0,0.00,0.00,7.36,
6.061,120.09709261677163,79.5900763271085,-3.0,0.0,-1.0,0,2,0,0,0,0,0,0.00,0.00,7.36,
6.074,120.09070926167716,79.60800763271085,-2.0,0.0,-1.0,0,2,0,0,0,0,0,0.00,0.00,7.55,
6.088,119.97307092616771,79.59180076327108,-3.0,0.0,-1.0,0,2,0,0,0,0,0,0.00,0.00,7.46,
6.102,119.90730709261678,79.5811800763271,-2.0,0.0,-1.0,0,2,0,0,0,0,0,0.00,0.00,7.55,
6.115,119.85573070926166,79.51711800763272,-2.0,0.0,-1.0,0,2,0,0,0,0,0,0.00,0.00,7.55,
6.129,119.84157307092617,79.51071180076329,-2.0,0.0,-1.0,0,2,0,0,0,0,0,0.00,0.00,7.65,
6.142,119.89415730709263,79.47407118007632,-2.0,0.0,-1.0,0,2,0,0,0,0,0,0.00,0.00,7.75,
6.157,119.95341573070925,79.42540711800764,-2.0,0.0,-1.0,0,2,0,0,0,0,0,0.00,0.00,7.65,
6.17,120.03134157307092,79.41154071180075,-2.0,0.0,-1.0,0,2,0,0,0,0,0,0.00,0.00,7.65,
6.183,120.09313415730709,79.42815407118009,-2.0,0.0,-1.0,0,2,0,0,0,0,0,0.00,0.00,7.65,
6.198,120.0903134157307,79.465815407118,-2.0,0.0,-1.0,0,2,0,0,0,0,0,0.00,0.00,7.55,
6.211,120.04503134157306,79.53258154071182,-2.0,0.0,-1.0,0,2,0,0,0,0,0,0.00,0.00,7.65,
6.225,120.0135031341573,79.59325815407118,-2.0,0.0,-1.0,0,2,0,0,0,0,0,0.00,0.00,7.65,
6.239,120.05535031341573,79.56332581540711,-2.0,0.0,-1.0,0,2,0,0,0,0,0,0.00,0.00,7.75,
6.253,120.12253503134157,79.5333325815407,-2.0,0.0,-1.0,0,2,0,0,0,0,0,0.00,0.00,7.85,
6.266,120.11125350313415,79.62933325815408,-2.0,1.0,-1.0,0,2,0,0,0,0,0,0.00,0.00,7.85,
6.28,120.18212535031341,79.5669333258154,-2.0,0.0,-1.0,0,2,0,0,0,0,0,0.00,0.00,7.85,
6.294,120.28821253503133,79.56969333258154,-2.0,0.0,-2.0,0,2,0,0,0,0,0,0.00,0.00,7.85,
6.307,120.36182125350314,79.65096933325816,-2.0,0.0,-1.0,0,2,0,0,0,0,0,0.00,0.00,7.95,
6.322,120.42318212535032,79.56909693332581,-3.0,0.0,-1.0,0,2,0,0,0,0,0,0.00,0.00,7.95,
6.335,120.42031821253502,79.47090969333257,-2.0,0.0,-1.0,0,2,0,0,0,0,0,0.00,0.00,7.95,
6.349,120.34803182125351,79.37109096933327,-2.0,0.0,-1.0,0,2,0,0,0,0,0,0.00,0.00,7.95,
6.363,120.30480318212534,79.34310909693333,-2.0,0.0,-1.0,0,2,0,0,0,0,0,0.00,0.00,7.85,
6.376,120.27348031821252,79.37631090969333,-2.0,0.0,-1.0,0,2,0,0,0,0,0,0.00,0.00,7.85,
6.39,120.25234803182126,79.37063109096934,-2.0,0.0,-1.0,0,2,0,0,0,0,0,0.00,0.00,7.85,
6.404,120.27723480318213,79.40606310909692,-2.0,0.0,-1.0,0,2,0,0,0,0,0,0.00,0.00,7.95,
6.418,120.34272348031821,79.56260631090969,-2.0,0.0,-1.0,0,2,0,0,0,0,0,0.00,0.00,8.24,
6.431,120.31327234803183,79.58726063109097,-2.0,0.0,-1.0,0,2,0,0,0,0,0,0.00,0.00,8.24,
6.445,120.3373272348032,79.5537260631091,-2.0,0.0,-1.0,0,2,0,0,0,0,0,0.00,0.00,8.34,
6.459,120.37573272348031,79.38837260631091,-2.0,0.0,-1.0,0,2,0,0,0,0,0,0.00,0.00,8.34,
6.472,120.45157327234803,79.24583726063109,-2.0,0.0,-2.0,0,2,0,0,0,0,0,0.00,0.00,8.14,
6.487,120.4681573272348,79.30358372606311,-2.0,0.0,-2.0,0,2,0,0,0,0,0,0.00,0.00,8.34,
6.5,120.43381573272349,79.38135837260631,-2.0,0.0,-2.0,0,2,0,0,0,0,0,0.00,0.00,8.34,
6.514,120.46638157327234,79.33513583726064,-2.0,0.0,-2.0,0,2,0,0,0,0,0,0.00,0.00,8.53,
6.528,120.46063815732724,79.33051358372607,-2.0,0.0,-1.0,0,2,0,0,0,0,0,0.00,0.00,8.53,
6.541,120.37006381573272,79.4470513583726,-3.0,0.0,-1.0,0,2,0,0,0,0,0,0.00,0.00,8.63,
6.555,120.26200638157327,79.33270513583724,-3.0,0.0,-1.0,0,2,0,0,0,0,0,0.00,0.00,8.63,
6.568,120.30520063815733,79.15927051358372,-2.0,0.0,-1.0,0,2,0,0,0,0,0,0.00,0.00,8.53,
6.583,120.34552006381573,79.23192705135837,-2.0,0.0,-2.0,0,2,0,0,0,0,0,0.00,0.00,8.63,
6.596,120.34955200638157,79.39219270513583,-3.0,0.0,-1.0,0,2,0,0,0,0,0,0.00,0.00,8.63,
6.609,120.36795520063816,79.39021927051358,-3.0,0.0,-1.0,0,2,0,0,0,0,0,0.00,0.00,8.63,
6.624,120.40579552006382,79.26402192705136,-2.0,0.0,-1.0,0,2,0,0,0,0,0,0.00,0.00,8.63,
6.637,120.46357955200638,79.26040219270514,-2.0,0.0,-1.0,0,2,0,0,0,0,0,0.00,0.00,8.73,
6.651,120.45135795520063,79.33204021927052,-2.0,0.0,-1.0,0,2,0,0,0,0,0,0.00,0.00,8.73,
6.665,120.46813579552006,79.35720402192706,-2.0,0.0,-1.0,0,2,0,0,0,0,0,0.00,0.00,8.73,
6.679,120.51481357955201,79.4047204021927,-2.0,0.0,-1.0,0,2,0,0,0,0,0,0.00,0.00,8.63,
6.692,120.5284813579552,79.39147204021927,-2.0,0.0,-1.0,0,2,0,0,0,0,0,0.00,0.00,8.63,
6.706,120.48484813579552,79.36314720402193,-2.0,0.0,-1.0,0,2,0,0,0,0,0,0.00,0.00,8.83,
6.72,120.43548481357956,79.3963147204022,-2.0,0.0,-1.0,0,2,0,0,0,0,0,0.00,0.00,8.73,
6.733,120.39454848135796,79.38163147204021,-2.0,0.0,-1.0,0,2,0,0,0,0,0,0.00,0.00,8.73,
6.748,120.40845484813579,79.38016314720402,-2.0,0.0,-1.0,0,2,0,0,0,0,0,0.00,0.00,8.73,
6.761,120.40084548481359,79.4340163147204,-2.0,0.0,-1.0,0,2,0,0,0,0,0,0.00,0.00,8.73,
6.774,120.53508454848136,79.13340163147204,-3.0,0.0,-1.0,0,2,0,0,0,0,0,0.00,0.00,8.83,
6.789,120.53950845484813,79.09434016314721,-2.0,0.0,-1.0,0,2,0,0,0,0,0,0.00,0.00,8.83,
6.802,120.65695084548481,79.09043401631473,-2.0,0.0,-1.0,0,2,0,0,0,0,0,0.00,0.00,8.73,
6.816,120.61469508454849,79.03604340163147,-2.0,0.0,-1.0,0,2,0,0,0,0,0,0.00,0.00,8.53,
6.83,120.49346950845485,79.01260434016315,-1.0,0.0,-1.0,0,2,0,0,0,0,0,0.00,0.00,8.53,
6.844,120.49034695084549,79.10926043401632,-1.0,0.0,-2.0,0,2,0,0,0,0,0,0.00,0.00,8.63,
6.857,120.51703469508455,79.36192604340164,-2.0,0.0,-1.0,0,2,0,0,0,0,0,0.00,0.00,8.63,
6.871,120.52870346950846,79.33319260434017,-2.0,0.0,-1.0,0,2,0,0,0,0,0,0.00,0.00,8.73,
6.885,120.48487034695084,79.29431926043402,-2.0,0.0,-1.0,0,2,0,0,0,0,0,0.00,0.00,8.73,
6.898,120.47148703469509,79.36243192604341,-2.0,0.0,-1.0,0,2,0,0,0,0,0,0.00,0.00,8.83,
6.913,120.43414870346952,79.36024319260434,-2.0,0.0,-1.0,0,2,0,0,0,0,0,0.00,0.00,8.73,
6.926,120.45741487034695,79.31502431926043,-2.0,0.0,-1.0,0,2,0,0,0,0,0,0.00,0.00,8.73,
6.94,120.47774148703469,79.35550243192606,-2.0,0.0,-1.0,0,2,0,0,0,0,0,0.00,0.00,8.83,
6.953,120.51577414870347,79.34155024319261,-2.0,0.0,-2.0,0,2,0,0,0,0,0,0.00,0.00,8.73,
6.967,120.51057741487034,79.39415502431928,-2.0,0.0,-1.0,0,2,0,0,0,0,0,0.00,0.00,8.73,
6.981,120.51905774148703,79.39041550243194,-2.0,0.0,-1.0,0,2,0,0,0,0,0,0.00,0.00,8.83,
6.994,120.43890577414871,79.43504155024318,-2.0,0.0,-1.0,0,2,0,0,0,0,0,0.00,0.00,8.73,
7.009,120.41289057741487,79.3585041550243,-2.0,0.0,-1.0,0,2,0,0,0,0,0,0.00,0.00,8.83,
7.022,120.4012890577415,79.38685041550244,-2.0,0.0,-1.0,0,2,0,0,0,0,0,0.00,0.00,8.83,
7.035,120.40012890577415,79.37168504155025,-2.0,0.0,-1.0,0,2,0,0,0,0,0,0.00,0.00,8.83,
7.05,120.39101289057741,79.34316850415503,-2.0,0.0,-1.0,0,2,0,0,0,0,0,0.00,0.00,8.83,
7.063,120.39010128905774,79.2683168504155,-2.0,0.0,-2.0,0,2,0,0,0,0,-2,0,-1,0,
7.503,120.46201012890577,79.36883168504154,-2.0,0.0,-1.0,0,2,0,0,0,0,0,0.00,0.00,8.34,
7.517,120.43320101289059,79.41488316850416,-2.0,0.0,-1.0,0,2,0,0,0,0,0,0.00,0.00,8.44,
7.531,120.43932010128906,79.42848831685042,-2.0,0.0,-1.0,0,2,0,0,0,0,0,0.00,0.00,8.34,
7.544,120.4399320101289,79.43884883168504,-2.0,0.0,-1.0,0,2,0,0,0,0,0,0.00,0.00,8.34,
7.558,120.44899320101288,79.44888488316852,-2.0,0.0,-1.0,0,2,0,0,0,0,0,0.00,0.00,8.24,
7.572,120.44089932010128,79.52188848831685,-2.0,0.0,-1.0,0,2,0,0,0,0,0,0.00,0.00,8.24,
7.585,120.41308993201012,79.49318884883168,-2.0,0.0,-1.0,0,2,0,0,0,0,0,0.00,0.00,8.34,
7.6,120.43730899320101,79.46331888488317,-2.0,0.0,-1.0,0,2,0,0,0,0,0,0.00,0.00,8.44,
7.613,120.4487308993201,79.45133188848833,-2.0,0.0,-1.0,0,2,0,0,0,0,0,0.00,0.00,8.44,
7.627,120.52187308993201,79.39613318884884,-2.0,0.0,-1.0,0,2,0,0,0,0,0,0.00,0.00,8.53,
7.641,120.56518730899319,79.39061331888489,-2.0,0.0,-1.0,0,2,0,0,0,0,0,0.00,0.00,8.53,
7.654,120.58751873089932,79.39906133188849,-2.0,0.0,-1.0,0,2,0,0,0,0,0,0.00,0.00,8.63,
7.668,120.63475187308994,79.36390613318885,-2.0,0.0,-1.0,0,2,0,0,0,0,0,0.00,0.00,8.73,
7.682,120.567475187309,79.41439061331889,-2.0,0.0,-1.0,0,2,0,0,0,0,0,0.00,0.00,8.63,
7.696,120.5157475187309,79.4194390613319,-2.0,0.0,-1.0,0,2,0,0,0,0,0,0.00,0.00,8.63,
7.709,120.3845747518731,79.4199439061332,-2.0,0.0,-1.0,0,2,0,0,0,0,0,0.00,0.00,8.63,
7.723,120.3534574751873,79.48299439061331,-2.0,0.0,-1.0,0,2,0,0,0,0,0,0.00,0.00,8.63,
7.737,120.29634574751874,79.42629943906134,-2.0,0.0,-1.0,0,2,0,0,0,0,0,0.00,0.00,8.63,
7.75,120.23663457475187,79.38462994390612,-3.0,0.0,-1.0,0,2,0,0,0,0,0,0.00,0.00,8.73,
7.764,120.31166345747518,79.36246299439061,-2.0,0.0,-1.0,0,2,0,0,0,0,0,0.00,0.00,8.83,
7.778,120.38216634574752,79.36924629943907,-2.0,0.0,-1.0,0,2,0,0,0,0,0,0.00,0.00,8.83,
7.792,120.47921663457475,79.2979246299439,-2.0,0.0,-1.0,0,2,0,0,0,0,0,0.00,0.00,8.83,
7.805,120.51592166345748,79.26379246299439,-2.0,0.0,-1.0,0,2,0,0,0,0,0,0.00,0.00,8.83,
7.819,120.52859216634575,79.31437924629942,-2.0,0.0,-1.0,0,2,0,0,0,0,0,0.00,0.00,8.73,
7.833,120.52085921663458,79.33743792462995,-2.0,0.0,-1.0,0,2,0,0,0,0,0,0.00,0.00,8.83,
7.846,120.52008592166345,79.40274379246299,-2.0,0.0,-1.0,0,2,0,0,0,0,0,0.00,0.00,8.73,
7.861,120.51100859216635,79.39127437924631,-2.0,0.0,-1.0,0,2,0,0,0,0,0,0.00,0.00,8.83,
7.874,120.52810085921664,79.31812743792463,-2.0,0.0,-1.0,0,2,0,0,0,0,0,0.00,0.00,8.83,
7.887,120.49381008592167,79.31981274379245,-3.0,0.0,-1.0,0,2,0,0,0,0,0,0.00,0.00,8.83,
7.902,120.41838100859216,79.31998127437923,-3.0,0.0,-1.0,0,2,0,0,0,0,0,0.00,0.00,8.83,
7.915,120.38383810085921,79.33799812743793,-2.0,0.0,-1.0,0,2,0,0,0,0,0,0.00,0.00,8.83,
7.929,120.38938381008592,79.30379981274379,-2.0,0.0,-1.0,0,2,0,0,0,0,0,0.00,0.00,8.83,
7.943,120.4979383810086,79.30037998127438,-2.0,0.0,-1.0,0,2,0,0,0,0,0,0.00,0.00,8.83,
7.957,120.57179383810086,79.23703799812743,-2.0,0.0,-1.0,0,2,0,0,0,0,0,0.00,0.00,8.83,
7.97,120.57017938381007,79.28470379981275,-2.0,0.0,-1.0,0,2,0,0,0,0,0,0.00,0.00,8.73,
7.984,120.63301793838102,79.28047037998128,-2.0,0.0,-1.0,0,2,0,0,0,0,0,0.00,0.00,8.73,
7.998,120.60330179383809,79.29804703799813,-2.0,0.0,-1.0,0,2,0,0,0,0,0,0.00,0.00,8.73,
8.011,120.56433017938382,79.30880470379982,-2.0,0.0,-1.0,0,2,0,0,0,0,0,0.00,0.00,8.63,
8.026,120.47043301793838,79.33688047037998,-2.0,0.0,-1.0,0,2,0,0,0,0,0,0.00,0.00,8.63,
8.039,120.43404330179385,79.348688047038,-2.0,0.0,-1.0,0,2,0,0,0,0,0,0.00,0.00,8.63,
8.053,120.47540433017939,79.3678688047038,-2.0,0.0,-1.0,0,2,0,0,0,0,0,0.00,0.00,8.73,
8.067,120.51554043301795,79.35178688047037,-2.0,0.0,-1.0,0,2,0,0,0,0,0,0.00,0.00,8.73,
8.08,120.59155404330178,79.35017868804702,-2.0,0.0,-1.0,0,2,0,0,0,0,0,0.00,0.00,8.83,
8.094,120.59015540433018,79.36801786880471,-2.0,0.0,-1.0,0,2,0,0,0,0,0,0.00,0.00,8.63,
8.108,120.626015540433,79.34280178688047,-2.0,0.0,-1.0,0,2,0,0,0,0,0,0.00,0.00,8.63,
8.122,120.6116015540433,79.33128017868805,-2.0,0.0,-1.0,0,2,0,0,0,0,0,0.00,0.00,8.63,
8.135,120.61916015540433,79.3211280178688,-2.0,0.0,-1.0,0,2,0,0,0,0,0,0.00,0.00,8.63,
8.148,120.61091601554044,79.25711280178689,-2.0,0.0,-1.0,0,2,0,0,0,0,0,0.00,0.00,8.53,
8.163,120.65509160155403,79.22371128017869,-1.0,0.0,-1.0,0,2,0,0,0,0,0,0.00,0.00,8.63,
8.176,120.66850916015541,79.22937112801787,-2.0,0.0,-1.0,0,2,0,0,0,0,0,0.00,0.00,8.63,
8.19,120.68785091601553,79.2479371128018,-2.0,0.0,-1.0,0,2,0,0,0,0,0,0.00,0.00,8.53,
8.204,120.62678509160156,79.30379371128018,-2.0,0.0,-1.0,0,2,0,0,0,0,0,0.00,0.00,8.53,
8.218,120.61167850916016,79.29137937112802,-2.0,0.0,-1.0,0,2,0,0,0,0,0,0.00,0.00,8.44,
8.231,120.56516785091601,79.3261379371128,-2.0,0.0,-1.0,0,2,0,0,0,0,0,0.00,0.00,8.44,
8.245,120.5425167850916,79.33861379371129,-2.0,0.0,-1.0,0,2,0,0,0,0,0,0.00,0.00,8.53,
8.259,120.53125167850916,79.31286137937113,-2.0,0.0,-1.0,0,2,0,0,0,0,0,0.00,0.00,8.53,
8.272,120.58412516785091,79.36428613793711,-2.0,0.0,-1.0,0,2,0,0,0,0,0,0.00,0.00,8.63,
8.287,120.58941251678509,79.36942861379372,-2.0,0.0,-1.0,0,2,0,0,0,0,0,0.00,0.00,8.53,
8.3,120.60794125167851,79.34294286137937,-2.0,0.0,-1.0,0,2,0,0,0,0,0,0.00,0.00,8.44,
8.313,120.59179412516785,79.31329428613795,-2.0,0.0,-1.0,0,2,0,0,0,0,0,0.00,0.00,8.34,
8.328,120.63517941251679,79.2833294286138,-3.0,0.0,-1.0,0,2,0,0,0,0,0,0.00,0.00,8.44,
8.341,120.62151794125168,79.31633294286137,-2.0,0.0,-1.0,0,2,0,0,0,0,0,0.00,0.00,8.34,
8.355,120.54815179412518,79.30163329428613,-2.0,0.0,-1.0,0,2,0,0,0,0,0,0.00,0.00,8.34,
8.369,120.55881517941252,79.3181633294286,-2.0,0.0,-1.0,0,2,0,0,0,0,0,0.00,0.00,8.34,
8.383,120.52388151794125,79.32881633294286,-2.0,0.0,-1.0,0,2,0,0,0,0,0,0.00,0.00,8.34,
8.396,120.54738815179412,79.3568816332943,-2.0,0.0,-1.0,0,2,0,0,0,0,0,0.00,0.00,8.34,
8.41,120.49573881517941,79.31468816332944,-2.0,0.0,-1.0,0,2,0,0,0,0,0,0.00,0.00,8.34,
8.424,120.49057388151795,79.30146881633294,-2.0,0.0,-1.0,0,2,0,0,0,0,0,0.00,0.00,8.34,
8.437,120.4990573881518,79.2911468816333,-2.0,0.0,-1.0,0,2,0,0,0,0,0,0.00,0.00,8.24,
8.452,120.51790573881519,79.28111468816333,-2.0,0.0,-1.0,0,2,0,0,0,0,0,0.00,0.00,8.24,
8.465,120.55579057388152,79.23511146881633,-2.0,0.0,-1.0,0,2,0,0,0,0,0,0.00,0.00,8.24,
8.478,120.60457905738815,79.22151114688164,-2.0,0.0,-1.0,0,2,0,0,0,0,0,0.00,0.00,8.24,
8.493,120.63645790573882,79.24715111468817,-2.0,0.0,-1.0,0,2,0,0,0,0,0,0.00,0.00,8.24,
8.506,120.68464579057388,79.30371511146882,-2.0,0.0,-1.0,0,2,0,0,0,0,0,0.00,0.00,8.24,
8.52,120.73446457905739,79.31837151114686,-2.0,0.0,-1.0,0,2,0,0,0,0,0,0.00,0.00,8.24,
8.534,120.73044645790574,79.31983715111468,-2.0,0.0,-1.0,0,2,0,0,0,0,0,0.00,0.00,8.34,
8.548,120.73004464579058,79.33798371511148,-2.0,0.0,-1.0,0,2,0,0,0,0,0,0.00,0.00,8.44,
8.561,120.71200446457905,79.27679837151115,-2.0,0.0,-1.0,0,2,0,0,0,0,0,0.00,0.00,8.34,
8.574,120.65620044645792,79.26167983715112,-2.0,0.0,-1.0,0,2,0,0,0,0,0,0.00,0.00,8.24,
8.589,120.65962004464578,79.29616798371512,-2.0,0.0,-1.0,0,2,0,0,0,0,0,0.00,0.00,8.24,
8.602,120.60596200446457,79.25461679837152,-2.0,0.0,-1.0,0,2,0,0,0,0,0,0.00,0.00,8.24,
8.616,120.61859620044646,79.17846167983716,-2.0,0.0,-1.0,0,2,0,0,0,0,0,0.00,0.00,8.24,
8.63,120.60185962004464,79.19784616798371,-2.0,0.0,-1.0,0,2,0,0,0,0,0,0.00,0.00,8.14,
8.643,120.67218596200448,79.19978461679837,-2.0,0.0,-1.0,0,2,0,0,0,0,0,0.00,0.00,8.14,
8.657,120.76021859620045,79.17297846167983,-2.0,0.0,-1.0,0,2,0,0,0,0,0,0.00,0.00,8.14,
8.671,120.78702185962005,79.19729784616798,-2.0,0.0,-1.0,0,2,0,0,0,0,0,0.00,0.00,8.04,
8.685,120.825702185962,79.19072978461679,-2.0,0.0,-1.0,0,2,0,0,0,0,0,0.00,0.00,8.04,
8.698,120.8205702185962,79.1540729784617,-2.0,0.0,-1.0,0,2,0,0,0,0,0,0.00,0.00,8.14,
8.713,120.75705702185961,79.24040729784618,-2.0,0.0,-1.0,0,2,0,0,0,0,0,0.00,0.00,8.14,
8.726,120.78670570218597,79.19504072978462,-2.0,0.0,-1.0,0,2,0,0,0,0,0,0.00,0.00,8.04,
8.739,120.82567057021859,79.21750407297846,-2.0,0.0,-1.0,0,2,0,0,0,0,0,0.00,0.00,8.04,
8.754,120.76656705702187,79.24675040729785,-2.0,0.0,-1.0,0,2,0,0,0,0,0,0.00,0.00,8.14,
8.767,120.69765670570217,79.24967504072978,-2.0,0.0,-1.0,0,2,0,0,0,0,0,0.00,0.00,8.14,
8.781,120.64576567057023,79.25896750407298,-2.0,0.0,-1.0,0,2,0,0,0,0,0,0.00,0.00,8.14,
8.795,120.64957656705703,79.2688967504073,-2.0,0.0,-1.0,0,2,0,0,0,0,0,0.00,0.00,8.24,
8.808,120.6589576567057,79.25188967504073,-2.0,0.0,-1.0,0,2,0,0,0,0,0,0.00,0.00,8.24,
8.822,120.65989576567056,79.26818896750407,-2.0,0.0,-1.0,0,2,0,0,0,0,0,0.00,0.00,8.44,
8.836,120.66898957656706,79.26981889675041,-2.0,0.0,-1.0,0,2,0,0,0,0,0,0.00,0.00,8.53,
8.85,120.62489895765671,79.31498188967502,-1.0,0.0,0.0,0,2,0,0,0,0,0,0.00,0.00,8.63,
8.863,120.63848989576567,79.3374981889675,-2.0,0.0,0.0,0,2,0,0,0,0,0,0.00,0.00,8.63,
8.877,120.60384898957656,79.28574981889675,-1.0,0.0,0.0,0,2,0,0,0,0,0,0.00,0.00,8.73,
8.891,120.68138489895765,79.29857498188967,-1.0,0.0,0.0,0,2,0,0,0,0,0,0.00,0.00,8.73,
8.904,120.66213848989575,79.28185749818897,-1.0,-1.0,0.0,0,2,0,0,0,0,0,0.00,0.00,8.63,
8.918,120.66021384898957,79.3341857498189,-1.0,-1.0,0.0,0,2,0,0,0,0,0,0.00,0.00,8.63,
8.932,120.60602138489895,79.36641857498189,-2.0,-1.0,0.0,0,2,0,0,0,0,0,0.00,0.00,8.53,
8.945,120.4836021384899,79.4236418574982,-2.0,-1.0,0.0,0,2,0,0,0,0,0,0.00,0.00,8.24,
8.96,120.37236021384899,79.54636418574982,-2.0,-1.0,0.0,0,2,0,0,0,0,0,0.00,0.00,8.04,
8.973,120.29823602138491,79.52263641857498,-2.0,0.0,0.0,0,2,0,0,0,0,0,0.00,0.00,7.85,
8.986,120.1468236021385,79.51126364185751,-2.0,0.0,1.0,0,2,0,0,0,0,0,0.00,0.00,7.65,
9.0,120.06868236021384,79.52812636418575,-1.0,0.0,1.0,0,2,0,0,0,0,0,0.00,0.00,7.26,
9.014,119.97986823602137,79.61981263641857,-1.0,0.0,2.0,0,2,0,0,0,0,0,0.00,0.00,6.47,
9.027,119.98898682360213,79.70098126364185,-1.0,0.0,3.0,0,2,0,0,0,0,0,0.00,0.00,5.98,
9.041,120.05289868236021,79.92509812636418,-1.0,-1.0,4.0,0,2,0,0,0,0,0,0.00,0.00,5.49,
9.055,120.15828986823603,80.39750981263641,-2.0,-1.0,6.0,0,2,0,0,0,0,0,0.00,0.00,4.91,
9.069,120.15982898682361,80.80475098126364,-1.0,-3.0,8.0,0,2,0,0,0,0,0,0.00,0.00,4.41,
9.082,120.20498289868235,80.78247509812635,1.0,-5.0,10.0,0,2,0,0,0,0,0,0.00,0.00,3.24,
9.096,120.33549828986823,80.60024750981265,2.0,-6.0,11.0,0,2,0,0,0,0,0,0.00,0.00,2.75,
9.11,120.47454982898682,80.60002475098125,3.0,-7.0,12.0,0,1,0,0,0,0,0,0.00,0.00,2.35,
9.123,120.6504549828987,80.37500247509811,4.0,-7.0,12.0,0,2,0,0,0,0,0,0.00,0.00,1.96,
9.137,120.72204549828987,80.2265002475098,5.0,-6.0,10.0,0,2,0,0,0,0,0,0.00,0.00,1.47,
9.15,120.93620454982897,80.04965002475097,6.0,-5.0,7.0,0,2,0,0,0,0,0,0.00,0.00,1.37,
9.163,121.3176204549829,80.27496500247508,7.0,-4.0,1.0,0,1,0,0,0,0,0,0.00,0.00,1.28,
9.177,122.01276204549829,80.98149650024752,8.0,-3.0,-4.0,0,1,0,0,0,0,0,0.00,0.00,1.08,
9.191,122.24427620454982,81.89814965002475,8.0,-1.0,-10.0,0,2,0,0,0,0,0,0.00,0.00,0.98,
9.204,122.18642762045498,82.68281496500246,8.0,0.0,-14.0,0,2,0,0,0,0,0,0.00,0.00,0.78,
9.218,121.77564276204549,83.41828149650026,9.0,0.0,-16.0,0,2,0,0,0,0,0,0.00,0.00,0.78,
9.231,121.22156427620455,83.79782814965003,10.0,0.0,-14.0,0,2,0,0,0,0,0,0.00,0.00,0.88,
9.244,120.42815642762046,83.808782814965,8.0,0.0,-9.0,0,2,0,0,0,0,0,0.00,0.00,0.98,
9.259,119.52081564276205,83.0898782814965,6.0,0.0,-4.0,0,2,0,0,0,0,0,0.00,0.00,1.28,
9.272,118.5480815642762,81.71298782814966,3.0,-1.0,0.0,0,2,0,0,0,0,0,0.00,0.00,1.37,
9.285,117.54180815642763,79.64929878281498,-1.0,-3.0,4.0,0,2,0,0,0,0,0,0.00,0.00,1.47,
9.298,116.64918081564275,77.3099298782815,-8.0,-5.0,8.0,0,2,0,0,0,0,0,0.00,0.00,1.57,
9.312,117.41491808156427,75.95099298782814,-9.0,-5.0,3.0,0,2,0,0,0,0,0,0.00,0.00,1.77,
9.326,118.74249180815643,76.31009929878282,-11.0,-5.0,-3.0,0,2,0,0,0,0,0,0.00,0.00,2.26,
9.339,119.83824918081564,77.62400992987827,-14.0,-6.0,-4.0,0,2,0,0,0,0,0,0.00,0.00,2.55,
9.354,119.97482491808157,78.85340099298782,-17.0,-7.0,-4.0,0,2,0,0,0,0,0,0.00,0.00,2.84,
9.367,119.61048249180816,79.64234009929879,-17.0,-8.0,0.0,0,2,0,0,0,0,0,0.00,0.00,3.04,
9.38,120.70804824918082,78.49723400992988,-21.0,-4.0,-1.0,0,2,0,0,0,0,0,0.00,0.00,3.53,
9.395,120.96180482491808,77.09572340099298,-14.0,-7.0,-2.0,0,2,0,0,0,0,0,0.00,0.00,3.83,
9.408,120.1411804824918,76.7125723400993,-7.0,-7.0,-9.0,0,2,0,0,0,0,0,0.00,0.00,4.12,
9.422,119.52811804824917,76.99825723400993,-6.0,-5.0,-10.0,0,2,0,0,0,0,0,0.00,0.00,4.41,
9.436,119.09781180482491,77.647825723401,-6.0,-4.0,-9.0,0,2,0,0,0,0,0,0.00,0.00,5.49,
9.45,119.01878118048249,77.90178257234011,-6.0,-3.0,-8.0,0,2,0,0,0,0,0,0.00,0.00,5.98,
9.787,117.80487811804825,81.49117825723401,0.0,-7.0,-2.0,1,3,1,0,1,0,1,0.00,0.00,56.80,
9.801,117.29648781180481,81.9311178257234,0.0,-4.0,-3.0,1,3,1,0,1,0,0,0.00,0.00,56.31,
9.815,117.07464878118047,81.98411178257234,0.0,-1.0,-4.0,1,3,1,0,1,0,0,0.00,0.00,55.92,
9.829,116.96246487811806,81.73741117825723,1.0,0.0,-4.0,1,3,1,0,1,0,1,0.00,0.00,56.02,
9.843,117.2392464878118,81.47874111782573,3.0,1.0,-4.0,1,3,1,0,0,0,1,0.00,0.00,56.21,
9.857,117.24892464878118,81.83987411178256,2.0,1.0,-5.0,1,3,1,0,0,0,1,0.00,0.00,56.70,
9.871,117.13289246487811,82.27198741117824,0.0,0.0,-4.0,1,3,1,0,0,0,1,0.00,0.00,57.88,
9.885,117.34628924648781,82.34219874111781,-2.0,0.0,-3.0,1,3,1,1,0,0,1,0.00,0.00,58.57,
9.899,117.43062892464877,82.49321987411179,-2.0,-3.0,-3.0,1,3,1,1,0,0,1,0.00,0.00,59.06,
9.913,117.58306289246488,82.66132198741118,-3.0,-4.0,-1.0,1,3,1,1,0,0,1,0.00,0.00,59.35,
9.927,117.55330628924649,82.75013219874113,-3.0,-6.0,-1.0,1,3,1,1,0,0,1,0.00,0.00,59.06,
9.942,117.60433062892466,82.56101321987411,-3.0,-8.0,0.0,1,3,1,1,0,0,1,0.00,0.00,58.66,
9.956,117.51943306289246,82.62310132198742,-4.0,-8.0,0.0,1,3,1,1,0,0,1,0.00,0.00,57.98,
9.969,117.48394330628925,82.60231013219874,-4.0,-9.0,0.0,1,3,1,1,0,0,1,0.00,0.00,57.00,
9.984,117.21039433062893,82.55523101321987,-4.0,-8.0,-1.0,1,3,1,1,0,0,1,0.00,0.00,56.70,
9.998,116.98503943306288,82.40652310132198,-5.0,-7.0,-1.0,1,3,1,1,0,0,1,0.00,0.00,56.51,
10.012,116.7285039433063,82.32865231013218,-5.0,-5.0,-2.0,1,3,1,1,0,0,1,0.00,0.00,56.11,
10.027,116.74785039433063,82.20386523101322,-5.0,-4.0,-3.0,1,3,1,1,0,0,1,0.00,0.00,56.02,
10.041,116.58778503943306,82.37138652310132,-6.0,-3.0,-3.0,1,3,1,1,0,0,1,0.00,0.00,56.51,
10.054,116.5717785039433,82.36113865231013,-7.0,-3.0,-2.0,1,3,1,0,0,0,1,0.00,0.00,57.39,
10.068,116.55217785039433,82.31511386523101,-7.0,-3.0,-2.0,1,3,1,0,0,0,1,0.00,0.00,59.35,
10.083,116.52321778503942,82.02251138652309,-6.0,-3.0,-2.0,1,3,1,0,0,0,1,0.00,0.00,60.23,
10.097,116.42132177850394,81.84025113865229,-4.0,-3.0,-2.0,1,3,1,0,0,0,1,0.00,0.00,60.92,
10.112,116.40213217785039,82.01102511386523,-2.0,-3.0,-2.0,1,3,1,0,0,0,1,0.00,0.00,61.41,
10.126,116.31921321778503,81.95610251138653,-2.0,-3.0,-2.0,1,3,1,0,0,0,1,0.00,0.00,63.08,
10.14,116.40992132177851,81.85161025113865,-1.0,-3.0,-2.0,1,3,1,0,0,0,0,0.00,0.00,64.26,
10.155,116.27499213217784,81.81416102511386,0.0,0.0,-2.0,1,3,1,0,0,0,0,0.00,0.00,65.73,
10.169,116.29749921321778,81.78341610251138,0.0,0.0,-3.0,1,3,1,0,0,0,0,0.00,0.00,70.14,
10.182,116.37174992132178,81.63634161025115,1.0,0.0,-2.0,1,3,1,0,0,0,0,0.00,0.00,72.79,
10.196,116.53217499213217,81.71163416102512,1.0,0.0,-3.0,1,3,1,1,0,0,0,0.00,0.00,75.54,
10.211,116.57521749921321,81.93516341610251,1.0,-1.0,-3.0,1,3,1,1,0,0,0,0.00,0.00,78.09,
10.225,116.47152174992131,82.06551634161025,0.0,-2.0,-3.0,1,3,1,1,0,0,0,0.00,0.00,81.91,
10.238,116.34415217499213,81.98855163416104,0.0,-3.0,-2.0,1,3,1,1,0,0,1,0.00,0.00,82.70,
10.253,116.36741521749921,82.0618551634161,0.0,-3.0,-2.0,1,4,1,1,0,0,1,0.00,0.00,82.89,
10.267,116.31574152174991,82.2491855163416,0.0,-3.0,-2.0,1,3,1,1,0,0,1,0.00,0.00,82.89,
10.281,116.22057415217499,82.24091855163415,0.0,-3.0,-2.0,1,4,1,1,0,0,1,0.00,0.00,82.40,
10.296,116.15705741521751,82.20409185516341,0.0,-3.0,-2.0,1,3,1,1,0,0,1,0.00,0.00,82.11,
10.31,116.18670574152175,82.40740918551636,0.0,-3.0,-2.0,1,4,1,1,0,0,1,0.00,0.00,81.82,
10.323,116.22567057415218,82.59874091855164,-1.0,-3.0,-2.0,1,4,1,1,0,0,1,0.00,0.00,82.31,
10.338,116.1485670574152,82.63587409185517,-2.0,-3.0,-1.0,1,3,1,1,0,0,1,0.00,0.00,82.99,
10.352,116.00585670574151,82.52258740918552,-1.0,-1.0,-2.0,1,4,1,1,0,0,1,0.00,0.00,83.38,
10.366,115.87458567057415,82.43925874091856,2.0,0.0,-2.0,1,4,1,1,0,0,1,0.00,0.00,83.88,
10.381,115.89745856705741,82.54792587409186,3.0,0.0,-2.0,1,4,1,1,0,0,1,0.00,0.00,85.35,
10.395,115.98974585670574,82.49579258740918,3.0,0.0,-1.0,1,4,1,1,1,0,1,0.00,0.00,86.52,
10.408,116.05297458567058,82.69757925874093,2.0,0.0,-2.0,1,4,1,1,1,0,1,0.00,0.00,87.60,
10.423,116.12229745856705,82.88875792587409,2.0,-2.0,-2.0,1,4,1,1,1,0,1,0.00,0.00,88.58,
10.437,116.1022297458567,83.02487579258741,0.0,-3.0,-2.0,1,4,1,1,1,1,1,0.00,0.00,90.06,
10.451,115.96522297458567,83.28148757925874,0.0,-3.0,-2.0,1,4,1,1,1,1,1,0.00,0.00,90.35,
10.465,115.89752229745856,83.40614875792588,-2.0,-3.0,-2.0,1,4,1,1,1,1,1,0.00,0.00,90.45,
10.479,115.85475222974586,83.38261487579258,-2.0,-3.0,-3.0,1,4,1,1,1,1,1,0.00,0.00,90.35,
10.493,115.87747522297458,83.10126148757925,-1.0,-3.0,-3.0,1,4,1,1,1,1,1,0.00,0.00,89.86,
10.508,115.81674752229745,83.05512614875792,0.0,-4.0,-4.0,1,4,1,1,1,1,1,0.00,0.00,88.88,
10.522,115.81067475222974,82.9605126148758,1.0,-4.0,-3.0,1,4,1,1,1,1,1,0.00,0.00,88.00,
10.536,115.79206747522298,83.18505126148757,2.0,-5.0,-2.0,1,4,1,1,1,1,1,0.00,0.00,85.54,
10.551,115.80820674752229,83.32450512614875,2.0,-6.0,-1.0,1,4,1,1,1,1,1,0.00,0.00,84.37,
10.564,115.62982067475224,83.41045051261487,1.0,-6.0,-1.0,1,4,1,1,1,1,1,0.00,0.00,83.09,
10.578,115.53098206747522,83.43704505126149,2.0,-5.0,-1.0,1,4,1,1,1,1,1,0.00,0.00,81.82,
10.593,115.32309820674752,83.40370450512614,3.0,-4.0,-1.0,1,4,1,1,1,1,1,0.00,0.00,79.26,
10.607,115.16730982067476,83.6073704505126,3.0,-4.0,-2.0,1,4,1,1,1,1,1,0.00,0.00,78.09,
10.621,115.07073098206747,83.75373704505125,3.0,-4.0,-1.0,1,4,1,1,1,1,2,0.00,0.00,77.11,
10.636,115.02507309820675,83.96637370450512,1.0,-3.0,-1.0,1,4,1,1,1,1,2,0.00,0.00,75.54,
10.649,115.03850730982067,84.1226373704505,0.0,-3.0,-1.0,1,5,1,1,1,1,2,0.00,0.00,75.14,
10.663,115.03985073098207,84.11126373704505,0.0,-3.0,-2.0,1,5,1,1,1,1,2,0.00,0.00,74.85,
10.678,114.8959850730982,84.34412637370451,1.0,-1.0,-2.0,1,5,1,1,1,1,2,0.00,0.00,74.46,
10.692,114.97159850730982,84.24141263737044,1.0,-1.0,-1.0,1,5,2,1,1,1,2,0.00,0.00,73.58,
10.706,114.84415985073097,84.30314126373705,1.0,-1.0,-2.0,1,5,1,1,1,1,2,0.00,0.00,73.38,
10.72,114.8854159850731,84.4533141263737,0.0,-1.0,-1.0,1,5,1,1,1,1,2,0.00,0.00,73.28,
10.734,114.95254159850731,84.35133141263738,0.0,-1.0,-2.0,1,5,1,1,1,1,2,0.00,0.00,73.18,
10.748,114.99525415985073,84.35013314126373,0.0,-2.0,-3.0,1,5,1,1,2,1,2,0.00,0.00,72.79,
10.763,114.85552541598508,84.36801331412637,0.0,-2.0,-3.0,1,5,1,2,2,1,2,0.00,0.00,72.30,
10.777,114.68855254159851,84.46880133141265,0.0,-2.0,-3.0,1,5,1,2,2,1,2,0.00,0.00,71.51,
10.791,114.67185525415985,84.55988013314126,0.0,-2.0,-2.0,1,5,1,2,2,1,2,0.00,0.00,69.55,
10.805,114.69718552541599,84.56898801331413,-1.0,-2.0,-2.0,1,5,1,2,2,1,2,0.00,0.00,68.67,
10.819,114.6457185525416,84.70489880133141,-2.0,-2.0,-2.0,1,5,1,2,2,1,2,0.00,0.00,67.79,
10.833,114.61357185525415,84.85348988013315,-3.0,-3.0,-2.0,1,5,1,2,2,1,2,0.00,0.00,67.00,
10.848,114.60135718552542,84.90434898801331,-5.0,-3.0,0.0,1,5,2,1,2,1,2,0.00,0.00,65.53,
10.862,114.52813571855253,84.87343489880134,-6.0,-4.0,0.0,1,5,2,1,2,1,2,0.00,0.00,65.04,
10.876,114.51181357185526,84.84334348988014,-6.0,-4.0,0.0,1,5,2,1,2,1,2,0.00,0.00,64.55,
10.891,114.46518135718551,84.62433434898801,-5.0,-4.0,-1.0,1,4,2,1,2,1,2,0.00,0.00,63.57,
10.904,114.36151813571854,84.4854334348988,-4.0,-3.0,-1.0,1,4,2,1,2,1,2,0.00,0.00,62.98,
10.918,114.23415181357186,84.53454334348989,-4.0,-2.0,-1.0,1,4,1,1,2,0,2,0.00,0.00,62.69,
10.933,114.11341518135718,84.60245433434899,-5.0,-2.0,-1.0,1,4,1,1,2,0,2,0.00,0.00,62.29,
10.947,114.00234151813571,84.6272454334349,-5.0,-1.0,-1.0,1,4,1,1,1,0,2,0.00,0.00,61.61,
10.961,113.98223415181357,84.58472454334348,-5.0,-1.0,-1.0,1,4,1,1,1,0,2,0.00,0.00,61.61,
10.976,113.96222341518134,84.47247245433434,-5.0,-1.0,-1.0,1,4,1,1,1,0,2,0.00,0.00,61.61,
10.99,114.00522234151813,84.39824724543344,-4.0,-1.0,-1.0,1,4,1,1,1,0,1,0.00,0.00,61.70,
11.004,114.10852223415182,84.26482472454335,-4.0,-1.0,0.0,1,4,1,1,1,0,1,0.00,0.00,61.90,
11.019,114.12785222341518,84.14348247245434,-3.0,-1.0,-1.0,1,4,1,1,1,0,1,0.00,0.00,61.70,
11.032,114.12978522234151,84.06834824724544,-2.0,-1.0,-2.0,1,4,1,1,1,0,1,0.00,0.00,61.41,
11.046,114.07597852223415,84.06083482472455,-1.0,-2.0,-1.0,1,4,1,1,1,0,1,0.00,0.00,59.94,
11.061,113.99859785222341,84.15908348247245,-1.0,-2.0,-1.0,1,4,1,1,1,0,1,0.00,0.00,58.96,
11.075,114.03585978522234,84.17790834824726,-1.0,-2.0,0.0,1,4,1,1,1,0,1,0.00,0.00,57.98,
11.089,114.04858597852223,84.26079083482473,-2.0,-2.0,0.0,1,4,1,1,1,0,1,0.00,0.00,56.80,
11.104,113.95985859785223,84.31407908348247,-2.0,-1.0,0.0,1,4,1,1,1,0,1,0.00,0.00,54.35,
11.118,113.94198585978523,84.37340790834824,-3.0,-1.0,0.0,1,4,1,1,1,0,1,0.00,0.00,53.37,
11.131,113.93119858597852,84.31634079083483,-3.0,-1.0,0.0,1,4,1,1,1,0,1,0.00,0.00,52.78,
11.146,113.93011985859786,84.27463407908348,-3.0,-1.0,0.0,1,4,1,1,1,0,1,0.00,0.00,51.70,
11.16,114.0200119858598,84.20746340790835,-3.0,-1.0,0.0,1,4,1,1,1,0,1,0.00,0.00,51.21,
11.174,114.05600119858599,84.16474634079083,-2.0,-1.0,-1.0,1,4,1,1,1,0,1,0.00,0.00,50.72,
11.189,113.9426001198586,84.20547463407908,-2.0,-1.0,-1.0,1,4,1,1,1,0,1,0.00,0.00,50.33,
11.203,113.87726001198587,84.2185474634079,-2.0,-1.0,-1.0,1,4,1,1,1,0,1,0.00,0.00,49.25,
11.217,113.79872600119859,84.24685474634079,-2.0,0.0,-1.0,1,4,1,1,1,0,1,0.00,0.00,48.66,
11.231,113.72787260011985,84.27668547463408,-2.0,0.0,0.0,1,4,1,1,1,0,1,0.00,0.00,48.27,
11.245,113.84678726001198,84.18066854746341,-1.0,0.0,0.0,1,4,1,1,1,0,1,0.00,0.00,48.07,
11.259,113.97567872600119,84.09006685474634,0.0,0.0,-1.0,1,4,1,1,1,0,1,0.00,0.00,48.36,
11.274,113.99756787260013,84.08100668547463,0.0,0.0,-1.0,1,4,1,1,1,0,1,0.00,0.00,48.85,
11.287,113.99075678726001,84.08910066854747,0.0,0.0,0.0,1,4,1,1,1,0,1,0.00,0.00,49.25,
11.301,113.918075678726,84.11691006685476,0.0,0.0,0.0,1,4,1,1,1,0,1,0.00,0.00,49.54,
11.316,113.7848075678726,84.23669100668548,0.0,0.0,0.0,1,4,1,1,1,0,1,0.00,0.00,49.34,
11.329,113.71748075678725,84.36566910066854,0.0,0.0,0.0,1,4,1,1,1,0,1,0.00,0.00,49.25,
11.343,113.69274807567872,84.42356691006687,0.0,0.0,0.0,1,4,1,1,1,0,1,0.00,0.00,49.05,
11.357,113.69927480756786,84.46535669100668,0.0,1.0,0.0,1,4,1,1,1,0,1,0.00,0.00,48.56,
11.371,113.71792748075679,84.52353566910067,-1.0,1.0,0.0,1,4,1,1,1,0,1,0.00,0.00,48.46,
11.385,113.71979274807568,84.59235356691006,-2.0,2.0,0.0,1,4,1,1,1,0,1,0.00,0.00,48.27,
11.4,113.88197927480758,84.57223535669101,-2.0,3.0,0.0,1,4,1,1,1,0,1,0.00,0.00,48.27,
11.413,113.98819792748077,84.4712235356691,-1.0,3.0,0.0,1,4,1,1,1,0,1,966.58,0.00,48.85,
11.436,114.12481979274807,84.37112235356692,0.0,4.0,0.0,1,4,1,1,1,0,1,0.00,0.00,50.23,
11.45,114.1834819792748,84.3701122353567,0.0,4.0,1.0,1,4,1,1,1,0,1,0.00,0.00,51.01,
11.464,114.16234819792747,84.47801122353566,0.0,4.0,1.0,1,4,1,1,1,0,1,0.00,0.00,51.89,
11.478,114.19623481979275,84.56080112235357,0.0,4.0,1.0,1,4,1,1,1,0,1,0.00,0.00,52.78,
11.492,114.20862348197927,84.65908011223536,-1.0,5.0,2.0,1,4,1,1,1,0,1,0.00,0.00,54.74,
11.506,114.23686234819793,84.65090801122354,-1.0,6.0,3.0,1,4,1,1,2,0,2,0.00,0.00,55.92,
11.521,114.2576862348198,84.58709080112236,-1.0,7.0,4.0,1,5,2,1,2,0,2,0.00,0.00,57.19,
11.534,114.43076862348198,84.60770908011223,-1.0,8.0,4.0,1,5,2,1,2,1,2,0.00,0.00,59.84,
11.548,114.6280768623482,84.61877090801123,0.0,8.0,6.0,1,5,2,2,2,1,2,0.00,0.00,61.61,
11.563,114.81880768623482,84.58387709080112,0.0,8.0,6.0,1,5,2,2,2,1,2,0.00,0.00,63.37,
11.576,115.01788076862348,84.33738770908012,1.0,8.0,7.0,1,5,2,2,2,1,2,0.00,0.00,65.14,
11.59,115.09178807686234,84.30373877090801,1.0,8.0,6.0,1,5,2,2,2,1,2,0.00,0.00,68.87,
11.604,115.09017880768623,84.36337387709081,2.0,10.0,5.0,1,6,2,2,2,1,2,0.00,0.00,70.73,
11.618,115.09001788076863,84.48633738770907,2.0,11.0,5.0,1,6,2,2,2,1,2,0.00,0.00,72.89,
11.632,115.17100178807686,84.50763373877092,1.0,12.0,5.0,1,6,2,2,2,1,2,0.00,0.00,75.24,
11.646,115.34110017880768,84.5457633738771,0.0,11.0,4.0,1,6,2,2,3,1,2,0.00,0.00,80.93,
11.66,115.59211001788077,84.5855763373877,0.0,10.0,4.0,1,6,2,2,3,2,3,0.00,0.00,83.97,
11.674,115.85121100178807,84.46355763373877,0.0,8.0,3.0,1,7,2,2,3,2,3,0.00,0.00,87.11,
11.688,116.0031211001788,84.41535576337387,0.0,5.0,3.0,1,7,2,2,3,2,3,0.29,0.00,89.86,
11.703,116.09931211001788,84.4735355763374,0.0,5.0,3.0,1,7,2,2,3,2,3,0.88,0.00,94.37,
11.716,116.16293121100178,84.61435355763373,0.0,5.0,3.0,1,7,2,2,3,2,3,1.28,0.00,96.04,
11.73,116.21429312110017,84.55643535576337,0.0,5.0,2.0,1,7,2,2,3,2,3,1.47,0.00,97.41,
11.744,116.40842931211002,84.47864353557634,-2.0,5.0,1.0,1,7,2,2,3,2,3,1.86,0.00,98.69,
11.758,116.50884293121099,84.39886435355764,-2.0,4.0,0.0,2,7,2,3,3,2,3,2.26,0.00,100.94,
11.772,116.5548842931211,84.37288643535577,-3.0,3.0,-1.0,2,7,2,3,3,2,3,2.55,0.00,102.02,
11.787,116.65848842931211,84.38828864353559,-3.0,3.0,-2.0,2,7,2,3,3,2,3,2.65,0.00,102.81,
11.801,116.65984884293121,84.33582886435356,-4.0,2.0,-2.0,2,7,2,3,3,2,3,2.84,0.00,103.50,
11.815,116.68698488429312,84.36658288643537,-5.0,2.0,-2.0,2,7,2,3,3,2,3,2.94,0.00,103.69,
11.83,116.64469848842931,84.40565828864354,-5.0,1.0,-2.0,2,7,2,3,3,2,3,3.04,0.00,103.79,
11.844,116.65846984884293,84.41856582886436,-5.0,1.0,-2.0,2,7,2,3,3,2,3,2.94,0.00,103.99,
11.858,116.68684698488428,84.36585658288644,-6.0,1.0,-3.0,2,7,2,3,3,2,3,2.94,0.00,104.87,
11.872,116.77068469848842,84.30658565828864,-6.0,0.0,-3.0,2,7,2,3,3,2,3,2.94,0.00,105.36,
11.886,116.86906846984883,84.22865856582887,-6.0,0.0,-4.0,2,7,2,3,3,2,3,2.84,0.00,106.05,
11.9,116.88790684698489,84.14886585658289,-6.0,-2.0,-4.0,2,7,2,3,3,2,3,2.84,0.00,107.22,
11.915,116.8987906846985,84.00588658565829,-6.0,-3.0,-5.0,2,7,2,3,3,2,3,2.55,0.00,107.62,
11.929,116.92687906846986,83.86558865856583,-6.0,-3.0,-4.0,2,6,2,3,3,2,3,2.35,0.00,107.71,
11.943,116.95668790684698,83.81555886585659,-5.0,-4.0,-4.0,2,6,2,2,3,2,3,2.26,0.00,0.00,
12.386,114.31366879068469,83.58555588658567,-3.0,-2.0,-3.0,1,3,1,1,0,0,1,0.00,0.00,47.68,
12.4,113.87836687906847,83.60755558865856,-3.0,-2.0,-3.0,1,3,1,1,0,0,1,0.00,0.00,47.48,
12.414,113.83483668790684,83.60975555886586,-3.0,-1.0,-3.0,1,3,1,1,0,0,1,0.00,0.00,46.79,
12.429,113.8844836687907,83.58297555588658,-3.0,-1.0,-3.0,1,3,1,1,0,0,1,0.00,0.00,46.70,
12.442,113.92544836687907,83.46329755558867,-3.0,0.0,-3.0,1,3,1,1,0,0,1,0.00,0.00,46.60,
12.456,113.9835448366879,83.41532975555887,-2.0,0.0,-3.0,1,3,1,1,0,0,1,0.00,0.00,46.79,
12.471,113.97135448366879,83.36553297555588,-2.0,0.0,-3.0,1,3,1,1,0,0,1,0.00,0.00,47.19,
12.485,114.02413544836689,83.38755329755558,-2.0,0.0,-3.0,1,3,1,1,0,0,1,0.00,0.00,47.58,
12.499,114.0564135448367,83.40775532975556,-2.0,0.0,-3.0,1,3,1,1,0,0,1,0.00,0.00,47.87,
12.514,114.07764135448366,83.40977553297556,-2.0,-1.0,-3.0,1,3,1,1,0,0,1,0.00,0.00,48.76,
12.527,114.10676413544836,83.51797755329756,-2.0,-1.0,-2.0,1,3,1,1,0,0,1,0.00,0.00,49.34,
12.541,114.02867641354483,83.54679775532975,-2.0,-1.0,-2.0,1,3,1,1,0,0,1,0.00,0.00,49.83,
12.556,113.95786764135448,83.59467977553297,-2.0,0.0,-2.0,1,3,1,1,0,0,1,0.00,0.00,51.01,
12.57,113.90578676413546,83.65346797755329,-2.0,0.0,-2.0,1,3,1,1,0,0,1,0.00,0.00,51.60,
12.584,113.86457867641354,83.67734679775533,-2.0,0.0,-2.0,1,3,1,1,0,0,1,0.00,0.00,52.19,
12.599,113.84245786764136,83.65273467977555,-2.0,0.0,-2.0,1,3,1,1,1,0,1,0.00,0.00,52.68,
12.613,113.80424578676414,83.58727346797755,-2.0,0.0,-2.0,1,3,1,1,1,0,1,0.00,0.00,53.66,
12.626,113.70142457867641,83.62572734679775,-2.0,0.0,-2.0,1,3,1,1,1,0,1,0.00,0.00,54.35,
12.641,113.66414245786764,83.65657273467977,-2.0,0.0,-2.0,1,3,1,1,1,0,1,0.00,0.00,54.94,
12.655,113.67841424578677,83.58765727346797,-2.0,0.0,-2.0,1,3,1,1,1,0,1,0.00,0.00,55.52,
12.669,113.75184142457867,83.57176572734679,-1.0,1.0,-1.0,1,3,1,1,1,0,1,0.00,0.00,56.80,
12.684,113.83118414245787,83.56117657273468,-1.0,0.0,-2.0,1,3,1,1,1,0,1,0.00,0.00,57.58,
12.697,113.85711841424579,83.55111765727347,0.0,0.0,-2.0,1,3,1,1,1,0,1,0.00,0.00,58.08,
12.711,113.95871184142459,83.53211176572735,0.0,0.0,-2.0,1,3,1,1,1,0,1,0.00,0.00,59.25,
12.726,113.95087118414246,83.49421117657272,0.0,1.0,-1.0,1,3,1,1,1,0,1,0.00,0.00,59.94,
12.74,113.97708711841425,83.50842111765728,1.0,0.0,-1.0,1,3,1,1,1,0,1,0.00,0.00,60.63,
12.753,114.00670871184143,83.64484211176573,1.0,0.0,-1.0,1,3,1,1,1,0,1,0.00,0.00,61.21,
12.768,114.06367087118414,83.76648421117658,0.0,0.0,0.0,1,3,1,1,1,0,1,0.00,0.00,62.59,
12.782,114.0243670871184,83.84164842111765,0.0,0.0,-1.0,1,3,1,1,1,0,1,0.00,0.00,62.98,
12.795,113.94843670871184,83.89416484211176,0.0,0.0,-1.0,1,3,1,1,1,0,1,0.00,0.00,63.47,
12.81,113.94984367087119,83.98941648421118,0.0,0.0,-1.0,1,3,1,1,1,0,1,0.00,0.00,63.86,
12.824,113.94098436708713,84.08894164842111,-1.0,0.0,-1.0,1,3,1,1,1,0,1,0.00,0.00,64.75,
12.838,113.91309843670871,84.11689416484212,-1.0,-1.0,-1.0,1,3,1,1,1,0,1,0.00,0.00,65.04,
12.853,113.95530984367086,84.0836894164842,-1.0,-1.0,-1.0,1,4,1,1,1,0,1,0.00,0.00,65.33,
12.866,113.95953098436708,84.07136894164842,-1.0,0.0,-1.0,1,4,1,1,1,0,1,0.00,0.00,65.83,
12.88,113.92395309843671,84.07013689416483,-1.0,-1.0,-1.0,1,3,1,1,1,0,1,0.00,0.00,66.02,
12.895,113.89339530984367,84.07901368941648,-1.0,-1.0,0.0,1,3,1,1,1,0,1,0.00,0.00,66.22,
12.909,113.94433953098437,84.07990136894165,-1.0,0.0,0.0,1,3,1,1,1,0,1,0.00,0.00,66.32,
12.923,113.93143395309843,84.17899013689416,-1.0,0.0,0.0,1,4,1,1,1,0,1,0.00,0.00,66.41,
12.937,113.90314339530984,84.18889901368942,-2.0,0.0,0.0,1,3,1,1,1,0,1,0.00,0.00,66.51,
12.951,113.891314339531,84.23488990136894,-2.0,0.0,0.0,1,4,1,1,1,0,1,0.00,0.00,66.81,
12.965,113.8631314339531,84.25748899013689,-2.0,0.0,-1.0,1,4,1,1,1,0,1,0.00,0.00,67.00,
12.98,113.90531314339532,84.24174889901369,-2.0,0.0,-1.0,1,4,1,1,1,0,1,0.00,0.00,67.30,
12.994,113.87353131433953,84.23117488990137,-1.0,0.0,-1.0,1,4,1,1,1,0,1,0.00,0.00,67.49,
13.007,113.86135313143396,84.22111748899013,-1.0,0.0,-1.0,1,4,1,1,1,0,1,0.00,0.00,67.69,
13.022,113.8691353131434,84.21111174889901,-1.0,0.0,-1.0,1,4,1,1,1,0,1,0.00,0.00,68.28,
13.036,113.90591353131434,84.1651111748899,-1.0,0.0,-1.0,1,4,1,1,1,0,1,0.00,0.00,68.57,
13.05,113.92759135313143,84.07951111748899,-1.0,0.0,-1.0,1,4,1,1,1,0,1,0.00,0.00,68.87,
13.065,113.94775913531315,84.1069511117489,-1.0,0.0,-1.0,1,4,1,1,1,0,1,0.00,0.00,69.06,
13.078,113.9587759135313,84.1726951111749,-1.0,0.0,-1.0,1,4,1,1,1,0,1,0.00,0.00,69.45,
13.092,113.92387759135313,84.20626951111748,-1.0,0.0,-1.0,1,4,1,1,1,0,1,0.00,0.00,69.36,
13.107,113.95638775913531,84.25462695111175,-1.0,0.0,0.0,1,4,1,1,1,0,1,0.00,0.00,69.36,
13.121,113.97763877591353,84.25946269511118,-1.0,0.0,0.0,1,4,1,1,1,0,1,0.00,0.00,69.45,
13.134,113.95276387759135,84.30494626951112,-2.0,0.0,0.0,1,4,1,1,1,0,1,0.00,0.00,69.36,
13.149,113.90527638775913,84.32749462695112,-2.0,0.0,0.0,1,4,1,1,1,0,1,0.00,0.00,69.26,
13.163,113.90952763877591,84.29374946269512,-2.0,0.0,0.0,1,4,1,1,1,0,1,0.00,0.00,69.16,
13.177,113.9729527638776,84.33537494626951,-2.0,0.0,0.0,1,4,1,1,1,0,1,0.00,0.00,69.16,
13.191,113.95229527638776,84.28553749462695,-2.0,0.0,0.0,1,4,1,1,1,0,1,0.00,0.00,68.96,
13.205,113.97722952763878,84.2535537494627,-2.0,0.0,0.0,1,4,1,1,1,0,1,0.00,0.00,69.06,
13.219,114.01572295276387,84.23235537494627,-2.0,0.0,0.0,1,4,1,1,1,0,1,0.00,0.00,68.96,
13.234,114.00157229527639,84.23023553749462,-2.0,0.0,0.0,1,4,1,1,1,0,1,0.00,0.00,68.87,
13.247,114.00015722952764,84.23902355374946,-2.0,0.0,0.0,1,4,1,1,1,0,1,0.00,0.00,68.77,
13.261,113.99101572295275,84.26690235537495,-2.0,0.0,0.0,1,4,1,1,1,0,1,0.00,0.00,68.67,
13.276,114.05310157229528,84.2606902355375,-2.0,0.0,-1.0,1,4,1,1,1,0,1,0.00,0.00,68.57,
13.29,113.96031015722953,84.26006902355375,-2.0,0.0,-1.0,1,4,1,1,1,0,1,0.00,0.00,68.38,
13.303,113.94203101572296,84.31400690235536,-2.0,0.0,-1.0,1,4,1,1,1,0,1,0.00,0.00,68.28,
13.318,113.9312031015723,84.28340069023554,-2.0,0.0,-1.0,1,4,1,1,1,0,1,0.00,0.00,68.18,
13.332,113.94812031015724,84.29834006902355,-2.0,0.0,-1.0,2,4,1,1,1,0,1,0.00,0.00,68.18,
13.346,113.90481203101572,84.29983400690236,-2.0,0.0,-1.0,2,4,1,1,1,0,1,0.00,0.00,68.38,
13.361,113.91848120310158,84.29098340069024,-2.0,0.0,-1.0,2,4,1,1,1,0,1,0.00,0.00,68.38,
13.374,113.91984812031016,84.27209834006902,-2.0,0.0,-2.0,2,4,1,1,1,0,1,0.00,0.00,68.38,
13.388,113.87498481203102,84.32420983400691,-2.0,0.0,-2.0,2,4,1,1,1,0,1,0.00,0.00,68.08,
13.403,113.8884984812031,84.37442098340068,-2.0,0.0,-2.0,2,4,1,1,1,0,1,0.00,0.00,67.98,
13.417,113.9078498481203,84.38844209834008,-3.0,0.0,-2.0,2,4,1,1,1,0,1,0.00,0.00,67.79,
13.431,113.95478498481202,84.326844209834,-3.0,0.0,-2.0,2,4,1,1,1,0,1,0.00,0.00,67.49,
13.446,113.9774784984812,84.3116844209834,-2.0,0.0,-1.0,2,4,1,1,1,0,1,0.00,0.00,67.20,
13.459,113.98874784984811,84.28316844209834,-2.0,0.0,-2.0,2,4,1,1,1,0,1,0.00,0.00,67.10,
13.473,113.98087478498482,84.26231684420983,-2.0,0.0,-2.0,2,4,1,1,1,0,1,0.00,0.00,66.90,
13.488,113.96208747849847,84.21523168442098,-2.0,0.0,-2.0,2,4,1,1,1,0,1,966.97,0.00,66.81,
13.502,113.95120874784985,84.2555231684421,-2.0,0.0,-2.0,2,4,1,1,1,0,1,0.00,0.00,66.61,
13.516,113.94112087478499,84.2325523168442,-2.0,0.0,-2.0,2,4,1,1,1,0,1,0.00,0.00,66.51,
13.531,113.9041120874785,84.26625523168443,-2.0,0.0,-1.0,2,4,1,1,1,0,1,0.00,0.00,66.41,
13.544,113.95441120874784,84.28762552316844,-2.0,0.0,-1.0,2,4,1,1,1,0,1,0.00,0.00,66.41,
13.558,113.98644112087477,84.30776255231685,-1.0,0.0,-1.0,2,4,1,1,1,0,1,0.00,0.00,66.41,
13.573,113.97164411208749,84.29177625523168,-1.0,0.0,-1.0,2,4,1,1,1,0,1,0.00,0.00,66.41,
13.587,113.99716441120876,84.31717762552316,-1.0,0.0,-2.0,2,4,1,1,1,0,1,0.00,0.00,66.41,
13.601,114.02671644112088,84.31071776255231,-1.0,0.0,-2.0,2,4,1,1,1,0,1,0.00,0.00,66.71,
13.616,114.0026716441121,84.38207177625523,-1.0,0.0,-2.0,2,4,1,1,1,0,1,0.00,0.00,66.81,
13.629,113.97326716441121,84.47920717762551,-1.0,-1.0,-1.0,2,4,1,1,1,0,1,0.00,0.00,66.71,
13.643,113.9613267164411,84.51592071776255,-2.0,-1.0,-2.0,2,4,1,1,1,0,1,0.00,0.00,66.71,
13.658,113.93313267164412,84.51959207177626,-2.0,-1.0,-2.0,2,4,1,1,1,0,1,0.00,0.00,66.71,
13.672,113.87631326716442,84.51095920717763,-2.0,-1.0,-2.0,2,4,1,1,1,0,1,0.00,0.00,66.81,
13.686,113.87063132671645,84.46509592071776,-2.0,0.0,-1.0,2,4,1,1,1,0,1,0.00,0.00,66.71,
13.701,113.84306313267165,84.46050959207177,-2.0,-1.0,-1.0,2,4,1,1,1,0,1,0.00,0.00,66.81,
13.715,113.86730631326716,84.39705095920718,-2.0,0.0,-1.0,2,4,1,1,1,0,1,0.00,0.00,66.81,
13.729,113.86073063132672,84.41770509592072,-2.0,0.0,-1.0,2,4,1,1,1,0,1,0.00,0.00,67.00,
13.743,113.87807306313267,84.45577050959207,-2.0,0.0,-1.0,2,4,1,1,1,0,1,0.00,0.00,67.10,
13.757,113.85280730631327,84.5225770509592,-3.0,0.0,-1.0,2,4,1,1,1,0,1,0.00,0.00,66.90,
13.771,113.82328073063132,84.56525770509592,-3.0,0.0,-1.0,2,4,1,1,1,0,1,0.00,0.00,66.90,
13.786,113.80232807306314,84.58752577050959,-3.0,0.0,-1.0,2,4,1,1,1,0,1,0.00,0.00,66.90,
13.8,113.83623280730632,84.55375257705096,-4.0,0.0,-1.0,2,4,1,1,1,0,1,0.00,0.00,66.61,
13.813,113.79462328073063,84.48737525770511,-4.0,0.0,-1.0,2,4,1,1,1,0,1,0.00,0.00,66.41,
13.828,113.80846232807306,84.4177375257705,-4.0,0.0,-1.0,2,4,1,1,1,0,1,0.00,0.00,66.12,
13.842,113.7918462328073,84.41077375257704,-4.0,0.0,-1.0,1,4,1,1,1,0,1,0.00,0.00,65.83,
13.856,113.77218462328072,84.37407737525771,-4.0,0.0,-1.0,1,4,1,1,1,0,1,0.00,0.00,65.14,
13.871,113.77921846232807,84.42440773752578,-4.0,0.0,-1.0,1,4,1,1,1,0,1,0.00,0.00,64.84,
13.884,113.77092184623281,84.35744077375257,-3.0,0.0,-1.0,1,4,1,1,1,0,1,0.00,0.00,64.65,
13.898,113.77009218462328,84.39574407737527,-3.0,0.0,-1.0,1,4,1,1,1,0,1,0.00,0.00,64.35,
13.913,113.83300921846232,84.32757440773752,-3.0,0.0,-1.0,1,4,1,1,1,0,1,0.00,0.00,64.06,
13.927,113.92030092184623,84.31175744077376,-2.0,0.0,0.0,1,4,1,1,1,0,1,0.00,0.00,63.96,
13.941,113.91103009218463,84.30117574407738,-2.0,0.0,-1.0,1,4,1,1,1,0,1,0.00,0.00,63.86,
13.955,113.93710300921846,84.26411757440773,-2.0,0.0,-1.0,1,4,1,1,1,0,1,0.00,0.00,63.77,
13.969,113.88571030092184,84.26941175744078,-2.0,0.0,-1.0,1,4,1,1,1,0,1,0.00,0.00,63.67,
13.983,113.82657103009218,84.20694117574408,-2.0,0.0,-1.0,1,4,1,1,1,0,1,0.00,0.00,63.47,
13.998,113.79365710300922,84.2096941175744,-2.0,0.0,-1.0,1,4,1,1,1,0,1,0.00,0.00,63.27,
14.012,113.79036571030092,84.18296941175745,-2.0,0.0,-2.0,1,4,1,1,1,0,1,0.00,0.00,62.78,
14.026,113.82603657103009,84.17129694117574,-2.0,0.0,-2.0,1,4,1,1,1,0,1,0.00,0.00,62.59,
14.04,113.84760365710301,84.14312969411758,-2.0,0.0,-2.0,1,4,1,1,1,0,1,0.00,0.00,62.29,
14.054,113.8767603657103,84.05931296941175,-2.0,-1.0,-2.0,1,4,1,1,1,0,1,0.00,0.00,61.90,
14.068,113.82567603657102,84.13193129694118,-2.0,-1.0,-1.0,1,4,1,1,1,0,1,0.00,0.00,61.12,
14.083,113.7665676036571,84.15719312969412,-2.0,-1.0,-1.0,1,4,1,1,1,0,1,0.00,0.00,60.92,
14.097,113.6706567603657,84.11471931296941,-2.0,0.0,-1.0,1,4,1,1,1,0,1,0.00,0.00,60.72,
14.111,113.63406567603656,84.10147193129694,-1.0,0.0,-1.0,1,4,1,1,1,0,1,0.00,0.00,60.72,
14.126,113.63940656760364,84.10014719312969,-2.0,0.0,-2.0,1,4,1,1,1,0,1,0.00,0.00,60.72,
14.139,113.57694065676036,84.07301471931297,-1.0,0.0,-1.0,1,4,1,1,1,0,1,0.00,0.00,60.92,
14.153,113.54369406567604,84.1423014719313,-1.0,0.0,-1.0,1,4,1,1,1,0,1,0.00,0.00,61.02,
14.168,113.4863694065676,84.17623014719314,-1.0,0.0,-1.0,1,4,1,1,1,0,1,0.00,0.00,61.31,
14.182,113.47163694065677,84.21562301471931,-1.0,0.0,-1.0,1,4,1,1,1,0,1,0.00,0.00,61.51,
14.196,113.44316369406567,84.20156230147194,-1.0,0.0,-1.0,1,4,1,1,1,0,1,0.00,0.00,61.80,
14.21,113.45831636940656,84.2361562301472,-2.0,0.0,-1.0,1,4,1,1,1,0,1,0.00,0.00,62.10,
14.224,113.45983163694065,84.25761562301471,-2.0,0.0,-1.0,1,4,1,1,1,0,1,0.00,0.00,62.20,
14.238,113.44198316369406,84.28676156230148,-2.0,0.0,-1.0,1,4,1,1,1,0,1,0.00,0.00,62.39,
14.253,113.45819831636939,84.29867615623016,-2.0,0.0,-1.0,1,4,1,1,1,0,1,0.00,0.00,62.39,
14.267,113.50481983163694,84.30886761562302,-2.0,0.0,-1.0,1,4,1,1,1,0,1,0.00,0.00,62.49,
14.281,113.54548198316368,84.3458867615623,-2.0,0.0,-1.0,1,4,1,1,1,0,1,0.00,0.00,62.49,
14.295,113.55854819831637,84.30458867615623,-1.0,0.0,-1.0,1,4,1,1,1,0,1,0.00,0.00,62.49,
14.309,113.63185481983163,84.24645886761563,-1.0,0.0,-1.0,1,4,1,1,1,0,1,0.00,0.00,62.69,
14.323,113.67518548198318,84.22264588676157,-1.0,0.0,-1.0,2,4,1,1,1,0,1,0.00,0.00,62.88,
14.338,113.64351854819832,84.25626458867616,-1.0,0.0,-1.0,2,4,1,1,1,0,1,0.00,0.00,62.98,
14.352,113.60435185481983,84.26862645886762,-1.0,0.0,-1.0,2,4,1,1,1,0,1,0.00,0.00,63.08,
14.365,113.59143518548198,84.26086264588676,-1.0,0.0,-1.0,2,4,1,1,1,0,1,0.00,0.00,63.27,
14.38,113.57214351854819,84.26008626458868,-1.0,0.0,-1.0,2,4,1,1,1,0,1,0.00,0.00,63.37,
14.394,113.58821435185483,84.27800862645887,-1.0,0.0,-1.0,2,4,1,1,1,0,1,0.00,0.00,63.47,
14.408,113.57182143518547,84.32480086264589,-1.0,-1.0,-2.0,2,4,1,1,1,0,1,0.00,0.00,63.57,
14.423,113.62418214351854,84.3384800862646,-1.0,-1.0,-2.0,2,4,1,1,1,0,1,0.00,0.00,63.08,
14.437,113.66541821435185,84.30384800862646,-1.0,-1.0,-2.0,2,4,1,1,1,0,1,0.00,0.00,62.69,
14.451,113.66054182143517,84.29138480086264,0.0,0.0,-2.0,2,4,1,1,1,0,1,0.00,0.00,62.20,
14.465,113.66905418214351,84.33513848008627,0.0,0.0,-2.0,2,4,1,1,1,0,1,0.00,0.00,61.70,
14.479,113.68790541821434,84.41151384800864,0.0,0.0,-2.0,2,4,1,1,1,1,1,0.00,0.00,61.02,
14.493,113.66279054182142,84.48215138480086,0.0,0.0,-2.0,2,4,1,1,1,1,1,0.00,0.00,60.92,
14.507,113.65127905418215,84.56121513848008,0.0,0.0,-2.0,2,4,1,1,1,1,1,0.00,0.00,60.72,
14.521,113.62312790541822,84.67712151384801,0.0,0.0,-1.0,2,4,1,1,1,1,1,0.00,0.00,60.14,
14.535,113.56631279054183,84.8057121513848,0.0,0.0,-1.0,2,4,1,1,1,1,2,0.00,0.00,60.04,
14.55,113.53363127905419,84.89957121513848,-1.0,0.0,-2.0,2,4,1,1,1,1,2,0.00,0.00,59.84,
14.563,113.51236312790542,84.82795712151383,0.0,0.0,-1.0,2,4,1,1,1,1,2,0.00,0.00,59.74,
14.577,113.51023631279054,84.87479571215138,0.0,0.0,-1.0,2,4,1,2,1,1,2,0.00,0.00,60.04,
14.592,113.56402363127904,84.88847957121513,0.0,0.0,-1.0,2,4,1,2,2,1,2,0.00,0.00,60.33,
14.605,113.57840236312789,84.87184795712152,0.0,0.0,-1.0,2,4,1,2,2,1,2,0.00,0.00,60.92,
14.619,113.52584023631277,84.89718479571216,0.0,0.0,-1.0,2,4,1,2,2,1,2,0.00,0.00,61.31,
14.633,113.48458402363129,84.9177184795712,-1.0,0.0,-1.0,2,4,1,2,2,1,2,0.00,0.00,62.00,
14.648,113.50745840236313,84.92877184795714,-1.0,0.0,-2.0,2,4,1,2,2,1,2,0.00,0.00,62.39,
14.661,113.50974584023632,84.94787718479571,-1.0,0.0,-2.0,2,4,1,2,2,1,2,0.00,0.00,62.59,
14.675,113.51897458402362,85.02178771847957,-2.0,0.0,-2.0,2,4,1,2,2,1,2,0.00,0.00,62.59,
14.69,113.58289745840237,85.02017877184795,-3.0,0.0,-2.0,2,4,1,2,2,1,2,0.00,0.00,62.29,
14.704,113.67028974584025,84.93901787718481,-3.0,0.0,-2.0,2,4,1,2,2,1,2,0.00,0.00,61.80,
14.718,113.71502897458402,84.89490178771848,-3.0,-1.0,-2.0,2,4,1,2,2,1,2,0.00,0.00,61.31,
14.733,113.7465028974584,84.84549017877185,-2.0,-1.0,-1.0,2,4,1,2,1,1,2,0.00,0.00,60.04,
14.747,113.81265028974585,84.79554901787719,-2.0,-3.0,-1.0,2,4,1,2,1,1,2,0.00,0.00,59.35,
14.76,113.85526502897459,84.77255490178771,-1.0,-4.0,-1.0,2,4,1,2,1,1,2,0.00,0.00,58.27,
14.775,113.76052650289745,84.85125549017877,-2.0,-5.0,-1.0,2,4,1,1,1,1,2,0.00,0.00,57.00,
14.789,113.56205265028974,84.97612554901788,-4.0,-5.0,-1.0,2,3,1,1,1,1,2,0.00,0.00,53.37,
14.803,113.18220526502898,84.88961255490179,-2.0,0.0,-1.0,2,3,1,1,1,1,2,0.00,0.00,51.31,
14.818,113.0632205265029,85.20496125549018,0.0,2.0,-1.0,2,3,1,1,1,1,2,0.00,0.00,49.44,
14.832,113.09632205265028,85.38949612554902,-2.0,3.0,-1.0,2,4,1,1,1,1,2,0.00,0.00,49.15,
14.846,113.24363220526504,85.4709496125549,-4.0,3.0,0.0,2,4,1,2,1,1,2,0.00,0.00,49.83,
14.86,113.52836322052651,85.66809496125549,-4.0,1.0,0.0,2,3,1,1,1,1,2,0.00,0.00,50.52,
14.874,113.65583632205265,85.65180949612555,-7.0,-1.0,1.0,2,3,1,1,1,0,1,0.00,0.00,50.82,
14.888,113.70458363220526,85.65918094961255,-10.0,-1.0,2.0,2,3,1,1,0,0,1,0.00,0.00,50.33,
14.903,113.70045836322052,85.29091809496126,-7.0,-3.0,3.0,2,3,1,0,0,0,1,0.00,0.00,49.25,
14.916,113.49304583632205,84.90309180949612,-4.0,-2.0,2.0,2,3,1,0,0,0,1,0.00,0.00,47.48,
14.93,113.43630458363221,84.90030918094962,-3.0,-3.0,2.0,1,3,1,0,0,0,1,0.00,0.00,45.62,
14.945,113.52063045836323,85.32303091809497,-7.0,-4.0,1.0,1,2,1,0,0,0,1,0.00,0.0,15.3790,
15.393,115.59906304583632,82.0803030918095,16.0,1.0,-12.0,2,5,2,1,0,1,0,0.00,0.00,108.79,
15.408,115.88790630458364,82.13403030918096,16.0,1.0,-14.0,2,5,2,2,0,1,0,0.00,0.00,112.52,
15.421,116.00679063045835,82.6074030309181,16.0,0.0,-13.0,2,5,2,2,0,2,1,0.10,0.00,119.78,
15.435,116.19867906304583,83.0237403030918,16.0,0.0,-11.0,2,5,2,2,0,2,1,2.16,0.00,122.82,
15.45,116.25386790630458,83.36237403030918,14.0,-2.0,-14.0,2,6,2,2,0,3,1,6.18,0.00,125.47,
15.464,116.38538679063046,83.62123740303093,14.0,-4.0,-14.0,2,6,2,2,0,3,1,8.04,0.00,127.14,
15.478,116.38953867906305,84.08812374030309,14.0,-5.0,-15.0,2,6,2,3,0,3,2,9.81,0.00,127.63,
15.493,116.2369538679063,84.5128123740303,13.0,-5.0,-16.0,2,6,2,3,0,3,2,11.28,0.00,126.94,
15.507,116.17669538679063,84.71728123740301,14.0,-4.0,-19.0,2,6,2,3,0,4,2,14.13,0.00,125.76,
15.521,116.07166953867906,84.71972812374031,16.0,-3.0,-23.0,2,7,2,3,1,4,3,15.60,0.00,123.61,
15.537,116.1241669538679,84.45897281237404,18.0,-4.0,-28.0,2,7,2,3,1,4,3,17.17,0.00,122.43,
15.551,115.71541669538679,84.9368972812374,18.0,-4.0,-27.0,2,7,2,4,2,5,3,20.99,0.00,121.15,
15.565,115.48554166953868,85.55168972812375,18.0,-4.0,-26.0,1,7,2,4,3,5,4,23.05,0.00,118.70,
15.58,115.44455416695386,85.84716897281237,19.0,-4.0,-30.0,1,7,2,4,3,5,4,25.11,0.00,117.52,
15.594,115.6744554166954,85.52571689728124,21.0,-5.0,-32.0,1,8,2,4,4,6,5,27.27,0.00,116.35,
15.608,114.37444554166954,85.41257168972814,25.0,-3.0,-43.0,1,8,1,4,5,7,5,31.78,0.00,115.07,
15.624,115.18944455416695,86.94925716897282,23.0,-4.0,-38.0,1,8,1,4,5,7,6,34.24,0.00,111.15,
15.638,114.16394445541668,87.63392571689727,33.0,-4.0,-48.0,1,8,1,5,5,8,6,37.08,0.00,108.01,
15.652,115.62739444554168,88.78239257168973,40.0,-12.0,-36.0,0,8,1,5,4,8,7,40.52,0.00,104.18,
15.667,114.40573944455417,89.86023925716897,42.0,4.0,-40.0,0,7,1,5,3,9,7,49.74,0.00,94.86,
15.681,114.37357394445542,90.2200239257169,48.0,6.0,-41.0,0,7,0,5,4,10,7,54.94,0.00,89.66,
15.695,113.76735739444554,90.8500023925717,56.0,9.0,-45.0,0,7,0,5,3,10,8,60.23,0.00,84.66,
15.71,113.30173573944455,91.41700023925718,61.0,8.0,-53.0,0,6,0,5,3,11,8,70.83,0.00,77.01,
15.724,113.27317357394445,91.36570002392571,70.0,12.0,-58.0,0,6,0,6,2,11,8,75.14,0.00,73.58,
15.738,113.26131735739446,91.22557000239257,80.0,17.0,-68.0,0,5,0,6,3,11,8,78.48,0.00,69.75,
15.753,113.29613173573944,91.09455700023925,94.0,23.0,-78.0,0,5,0,6,3,11,8,81.32,0.00,65.43,
15.767,112.98461317357395,91.68445570002393,108.0,32.0,-82.0,0,5,0,6,1,11,8,85.35,0.00,55.33,
15.781,112.47646131735739,91.69844557000239,128.0,37.0,-88.0,0,4,0,6,2,11,7,85.84,0.00,49.15,
15.796,111.68764613173573,92.27584455700024,145.0,54.0,-79.0,0,4,0,6,2,10,5,84.86,0.00,42.28,
15.81,111.68976461317357,93.35958445570003,176.0,56.0,-92.0,0,4,0,6,2,9,5,81.42,0.00,28.84,
15.824,111.53697646131735,94.87195844557,191.0,80.0,-90.0,0,3,0,5,2,8,6,64.75,0.00,22.66,
15.838,113.33069764613174,96.634195844557,199.0,77.0,-75.0,0,3,0,4,2,6,5,50.03,0.00,17.36,
15.852,114.96806976461318,98.6914195844557,207.0,67.0,-65.0,0,2,0,3,2,4,5,31.88,0.00,13.05,
15.866,117.69680697646132,98.07814195844557,215.0,79.0,-57.0,0,2,0,3,2,2,5,15.30,0.00,7.65,
15.881,121.39868069764613,96.36981419584457,208.0,69.0,-65.0,0,1,0,2,3,1,5,3.83,0.00,5.49,
15.895,124.67586806976462,99.27698141958446,178.0,38.0,-61.0,0,1,0,1,3,0,4,1.47,0.00,3.63,
15.909,127.38858680697646,104.24769814195844,147.0,53.0,-38.0,0,1,0,0,3,0,2,0.00,0.00,0.39,
15.923,137.43385868069765,83.47776981419584,21.0,-10.0,-63.0,0,1,0,0,3,0,0,0.00,0.00,0.00,
15.937,136.03538586806977,83.49777698141959,-8.0,-39.0,-43.0,0,1,0,0,3,0,0,0.00,0.00,0.00,
15.95,131.62053858680696,81.06977769814196,-60.0,-60.0,-14.0,0,1,0,0,3,0,0,0.00,0.00,0.00,
15.964,128.1190538586807,77.8569777698142,-47.0,-27.0,29.0,0,2,0,0,3,0,0,0.00,0.00,0.00,
15.978,131.74690538586808,68.58969777698142,-18.0,-21.0,34.0,0,2,0,0,3,0,0,0.00,0.00,0.00,
15.991,135.4036905385868,61.73196977769814,-20.0,-23.0,27.0,0,1,0,0,3,0,0,0.00,0.00,0.00,
16.005,136.6333690538587,55.376196977769816,-42.0,-51.0,-13.0,0,1,0,0,3,0,0,0.00,0.00,0.00,
16.019,133.33633690538588,51.54561969777698,-59.0,-54.0,1.0,0,1,0,0,3,0,0,0.00,0.00,0.00,
16.032,125.0956336905386,51.3065619697777,-81.0,-50.0,22.0,0,1,0,0,3,0,0,0.00,0.00,0.00,
16.046,117.25156336905386,51.84965619697777,-102.0,-40.0,47.0,0,1,0,0,3,0,0,0.00,0.00,0.00,
16.06,112.28215633690539,52.155965619697774,-118.0,-40.0,73.0,0,1,0,0,3,0,0,0.00,0.00,0.00,
16.073,109.16621563369054,53.07759656196978,-133.0,-41.0,97.0,0,1,0,0,3,0,0,0.00,0.00,0.00,
16.087,108.08962156336905,53.64675965619698,-149.0,-47.0,114.0,0,1,0,0,3,0,0,0.00,0.00,0.00,
16.101,108.7379621563369,53.928675965619696,-162.0,-55.0,129.0,0,1,0,0,3,0,0,0.00,0.00,0.00,
16.114,110.83679621563368,54.11886759656197,-175.0,-57.0,138.0,0,1,0,0,3,0,0,0.00,0.00,0.00,
16.129,112.42367962156337,54.7318867596562,-188.0,-63.0,136.0,0,1,0,0,3,0,0,0.00,0.00,0.00,
16.142,113.41936796215634,54.973188675965616,-203.0,-59.0,133.0,0,1,0,0,3,0,0,0.00,0.00,0.00,
16.156,113.83393679621564,55.51031886759656,-220.0,-58.0,127.0,0,1,0,0,3,0,0,0.00,0.00,0.00,
16.169,114.31639367962157,55.93303188675965,-235.0,-59.0,120.0,0,1,0,0,3,0,0,0.00,0.00,0.00,
16.183,114.48163936796215,56.63230318867596,-247.0,-58.0,112.0,0,1,0,0,3,0,0,0.00,0.00,0.10,
16.197,114.60616393679621,58.2052303188676,-250.0,-60.0,104.0,0,1,0,0,3,0,0,0.00,0.00,0.20,
16.21,114.10561639367961,59.91952303188676,-250.0,-67.0,96.0,0,1,0,0,3,0,0,0.00,0.00,0.20,
16.225,113.48856163936796,61.59395230318868,-250.0,-64.0,90.0,0,1,0,0,3,0,0,0.00,0.00,0.20,
16.238,112.7698561639368,63.381395230318866,-250.0,-60.0,78.0,0,1,0,0,3,0,0,0.00,0.00,0.39,
16.252,111.86098561639368,65.42313952303189,-250.0,-56.0,61.0,0,1,0,0,3,0,0,0.00,0.00,0.39,
16.266,111.11309856163938,67.91331395230318,-250.0,-54.0,51.0,0,1,0,0,3,0,0,0.00,0.00,0.29,
16.279,110.29130985616393,70.28633139523032,-249.0,-50.0,42.0,0,1,0,0,3,0,0,0.00,0.00,0.20,
16.293,109.25513098561639,73.39463313952302,-224.0,-39.0,33.0,0,2,0,0,3,0,0,0.00,0.00,0.10,
16.307,108.71951309856163,77.6114633139523,-191.0,-32.0,31.0,0,2,0,0,3,0,0,0.00,0.00,0.10,
16.32,108.23395130985617,81.65114633139522,-158.0,-26.0,23.0,0,2,0,0,3,0,0,0.00,0.00,0.00,
16.334,108.24839513098561,87.18511463313952,-113.0,-8.0,16.0,0,1,0,0,3,0,0,0.00,0.00,0.00,
16.348,108.31283951309855,92.37351146331395,-62.0,3.0,10.0,0,1,0,0,3,0,0,0.00,0.00,0.00,
16.361,109.15628395130986,98.06735114633139,-19.0,15.0,15.0,0,2,0,0,3,0,0,0.00,0.00,0.00,
16.375,110.08662839513099,103.02873511463314,8.0,17.0,22.0,0,1,0,0,3,0,0,0.00,0.00,0.00,
16.389,110.4046628395131,106.14387351146331,25.0,22.0,28.0,0,1,0,0,3,0,0,0.00,0.00,0.00,
16.402,109.92346628395131,107.64338735114634,44.0,29.0,42.0,0,1,0,0,3,0,0,0.00,0.00,0.00,
16.416,109.11034662839512,108.74733873511464,59.0,36.0,56.0,0,1,0,0,3,0,0,0.00,0.00,0.00,
16.43,109.7040346628395,109.45173387351146,68.0,32.0,72.0,0,1,0,0,3,0,0,0.10,0.00,0.00,
16.443,110.59140346628394,110.24217338735114,63.0,26.0,76.0,0,1,0,0,3,0,0,0.00,0.00,0.00,
16.457,110.4551403466284,111.50921733873513,62.0,21.0,73.0,0,1,0,0,3,0,0,0.00,0.00,0.00,
16.471,111.16151403466284,107.80192173387351,107.0,25.0,57.0,0,1,0,0,0,0,0,0.00,0.00,0.00,
16.485,115.94815140346628,98.59319217338735,79.0,81.0,13.0,0,1,0,0,0,0,0,0.10,0.00,0.00,
16.498,112.74581514034662,91.29131921733874,110.0,62.0,-13.0,0,1,0,0,0,0,0,0.49,0.00,0.00,
16.512,113.59558151403466,86.51113192173388,128.0,67.0,-44.0,0,1,0,0,0,0,0,0.59,0.00,0.00,
16.526,111.30455815140346,83.1531131921734,232.0,124.0,-150.0,0,1,0,0,0,0,0,0.78,0.00,0.00,
16.54,110.14845581514034,85.98531131921735,230.0,135.0,-128.0,0,1,0,0,0,0,0,1.28,0.00,0.00,
16.553,119.68084558151403,97.71653113192173,146.0,105.0,-43.0,0,1,0,0,1,0,1,1.28,0.00,2.55,
16.568,122.38008455815141,103.26365311319218,114.0,40.0,-18.0,0,2,0,0,1,0,0,0.10,0.00,11.97,
16.582,120.89500845581514,105.29436531131921,25.0,22.0,-25.0,0,2,1,1,1,0,0,0.00,0.00,33.26,
16.596,119.1535008455815,103.82343653113192,-28.0,34.0,-17.0,0,2,1,1,1,0,0,0.00,0.00,63.27,
16.611,119.16835008455814,100.12134365311317,-28.0,32.0,-3.0,0,2,1,2,1,0,0,0.00,0.00,106.73,
16.625,119.64683500845581,96.08813436531132,-25.0,18.0,-10.0,0,2,1,2,1,0,0,0.00,0.00,119.39,
16.64,120.99068350084558,93.15581343653113,-18.0,10.0,-1.0,0,2,0,2,1,0,0,0.00,0.00,130.87,
16.654,121.22406835008455,90.00058134365311,-21.0,8.0,-11.0,0,1,0,2,1,0,0,0.00,0.00,149.11,
16.668,120.68040683500845,87.7410581343653,-26.0,8.0,-15.0,0,1,0,2,1,0,0,0.00,0.00,152.84,
16.683,121.16604068350084,85.34610581343654,-23.0,13.0,-12.0,0,1,0,2,1,0,0,0.00,0.00,152.64,
16.696,122.5736040683501,82.19061058134366,-10.0,7.0,-8.0,0,1,0,2,1,0,0,0.00,0.00,149.70,
16.71,123.83936040683501,79.81406105813437,5.0,-2.0,-7.0,0,1,0,2,0,0,0,0.00,0.00,135.38,
16.724,123.27293604068349,78.45140610581343,9.0,-7.0,2.0,0,2,0,1,0,0,0,0.00,0.00,125.86,
16.738,122.55029360406834,76.83914061058134,8.0,0.0,-14.0,0,2,0,1,0,0,0,0.00,0.00,116.44,
16.752,121.86602936040684,75.89491406105815,23.0,-4.0,-11.0,0,2,0,1,0,0,1,0.00,0.00,108.60,
16.766,121.04160293604069,75.3324914061058,29.0,-1.0,-21.0,0,2,0,1,0,0,1,0.00,0.00,103.89,
16.781,120.87816029360407,75.40224914061058,33.0,3.0,-26.0,0,3,1,1,0,0,1,0.00,0.00,106.83,
16.795,120.4388160293604,76.39922491406107,34.0,2.0,-25.0,0,3,1,2,0,0,1,0.00,0.00,112.03,
16.809,120.08888160293604,77.43492249140611,30.0,3.0,-23.0,1,4,1,2,0,0,1,0.00,0.00,124.78,
16.824,119.5588881602936,78.77149224914062,26.0,4.0,-18.0,1,4,1,2,0,0,1,0.29,0.00,131.36,
16.838,118.74088881602937,79.70614922491407,21.0,7.0,-14.0,1,4,1,2,0,0,0,2.06,0.00,137.63,
16.852,118.33508888160294,81.23061492249141,17.0,5.0,-15.0,1,5,1,2,0,0,1,3.92,0.00,143.52,
16.867,118.50150888816029,81.05006149224914,14.0,8.0,-16.0,1,5,1,2,0,1,1,7.95,0.00,155.29,
16.88,119.44515088881603,81.16700614922493,17.0,2.0,-14.0,1,5,1,3,0,2,1,10.20,0.00,160.00,
16.896,119.72851508888161,81.1247006149225,20.0,-7.0,-12.0,1,5,1,3,0,2,2,12.36,0.00,162.85,
16.91,119.92785150888815,81.18347006149224,17.0,-8.0,-12.0,1,6,1,3,0,3,2,14.03,0.00,162.26,
16.924,120.01078515088881,81.42334700614923,16.0,-10.0,-15.0,1,6,1,3,1,3,3,15.60,0.00,159.80,
16.939,120.09107851508888,81.42933470061493,15.0,-13.0,-15.0,1,6,1,3,1,4,3,16.09,0.00,156.67,
16.953,119.0911078515089,81.6999334700615,14.0,-12.0,-17.0,1,6,1,3,2,4,3,16.58,0.00,150.09,
16.968,118.38811078515089,82.45599334700614,10.0,-8.0,-12.0,1,6,1,3,2,4,4,17.17,0.00,146.46,
16.983,118.0748110785151,82.79259933470061,7.0,-8.0,-10.0,1,6,1,3,2,4,4,17.17,0.00,143.32,
16.997,117.7734811078515,83.79825993347006,7.0,-11.0,-4.0,1,6,2,3,2,4,4,16.97,0.00,137.34,
17.011,117.65334811078515,84.68182599334702,2.0,-12.0,0.0,1,6,2,3,2,4,4,16.38,0.00,134.20,
17.026,117.73133481107851,84.3921825993347,6.0,-10.0,1.0,1,6,1,3,3,4,4,14.81,0.00,131.26,
17.04,117.91913348110785,84.22821825993347,7.0,-12.0,5.0,1,6,1,3,3,4,4,14.52,0.00,129.39,
17.054,117.86591334811078,84.11282182599334,9.0,-15.0,5.0,1,6,1,3,3,4,4,14.62,0.00,129.98,
17.069,117.75259133481107,84.38928218259935,10.0,-18.0,7.0,1,6,1,3,3,4,4,14.91,0.00,129.39,
17.083,117.35425913348111,84.73192821825992,10.0,-22.0,9.0,1,6,2,3,3,4,4,14.52,0.00,126.84,
17.097,116.80142591334811,84.92819282182599,6.0,-23.0,9.0,1,6,2,3,3,4,4,13.34,0.00,117.52,
17.112,116.27814259133481,85.2178192821826,0.0,-24.0,6.0,1,6,1,3,3,4,4,11.67,0.00,111.15,
17.126,115.83881425913349,85.00378192821826,-6.0,-25.0,1.0,1,6,1,3,3,4,4,9.32,0.00,103.59,
17.14,115.73188142591334,84.58637819282184,0.0,-20.0,0.0,1,6,1,3,3,3,4,3.43,0.00,95.06,
17.155,115.38818814259133,84.3646378192822,3.0,-15.0,-1.0,1,5,1,2,3,3,4,0.88,0.00,78.48,
17.169,115.16481881425914,85.00846378192821,2.0,-12.0,-1.0,1,5,1,2,3,3,4,0.00,0.00,72.20,
17.183,114.74648188142592,85.57684637819283,-2.0,-9.0,-1.0,1,5,1,2,3,3,4,0.00,0.00,67.10,
17.198,114.38964818814259,85.71468463781929,-6.0,-7.0,-2.0,1,4,1,2,3,3,3,0.00,0.00,60.04,
17.211,114.20096481881427,85.73746846378192,-8.0,-5.0,-2.0,1,4,1,2,3,3,3,0.00,0.00,57.39,
17.225,114.09209648188143,85.7307468463782,-9.0,-4.0,0.0,1,4,1,2,3,3,3,0.00,0.00,55.52,
17.24,114.16220964818814,85.24407468463782,-6.0,-4.0,0.0,1,4,1,2,2,3,3,0.00,0.00,54.35,
17.254,114.34022096481881,84.63740746846378,-2.0,-4.0,0.0,1,4,1,2,3,3,3,0.00,0.00,52.97,
17.268,114.42102209648189,84.31574074684639,0.0,-5.0,0.0,1,4,1,2,3,3,3,0.00,0.00,52.68,
17.283,114.51910220964818,84.19357407468465,1.0,-6.0,-1.0,1,4,1,2,3,3,3,0.00,0.00,52.29,
17.296,114.41191022096483,84.20835740746847,1.0,-5.0,-3.0,1,4,1,2,3,3,3,0.00,0.00,51.60,
17.31,114.11319102209647,84.47083574074685,0.0,-4.0,-3.0,1,4,1,2,3,3,3,0.00,0.00,50.03,
17.325,113.78631910220965,84.73108357407469,0.0,-3.0,-4.0,1,4,1,2,3,3,3,0.00,0.00,49.05,
17.339,113.64563191022096,84.90110835740747,-1.0,-2.0,-2.0,1,4,1,2,3,3,3,0.00,0.00,48.07,
17.353,113.70356319102208,84.90011083574076,-1.0,-2.0,-2.0,1,4,1,2,3,3,3,0.00,0.00,46.50,
17.368,113.8263563191022,84.94501108357407,0.0,-2.0,-2.0,1,4,1,2,3,3,3,0.00,0.00,45.91,
17.381,113.95563563191023,84.8685011083574,0.0,-2.0,-2.0,1,4,1,2,3,3,3,0.00,0.00,45.32,
17.395,113.95956356319101,84.96885011083575,0.0,-2.0,-2.0,1,4,1,2,3,3,3,0.00,0.00,45.03,
17.41,113.94195635631911,84.97888501108358,0.0,-1.0,-2.0,1,4,1,2,3,3,3,0.00,0.00,44.73,
17.424,113.8861956356319,85.05188850110835,0.0,-1.0,-1.0,1,4,1,2,3,3,3,0.00,0.00,44.64,
17.438,113.80861956356318,85.08618885011083,0.0,-1.0,-1.0,1,4,1,2,3,3,3,0.00,0.00,44.64,
17.452,113.70186195635631,85.1346188850111,0.0,0.0,-1.0,1,4,1,2,3,3,3,0.00,0.00,45.22,
17.466,113.69118619563562,85.22046188850112,0.0,-1.0,0.0,1,4,1,2,3,3,3,0.00,0.00,45.62,
17.48,113.78911861956357,85.2650461888501,0.0,-1.0,-1.0,1,4,1,2,3,3,3,0.00,0.00,46.21,
17.495,113.80791186195636,85.26950461888501,0.0,-1.0,-1.0,1,4,1,2,3,3,3,0.00,0.00,46.70,
17.508,113.80979118619564,85.27895046188851,0.0,-1.0,-2.0,1,4,1,2,3,3,3,0.00,0.00,46.99,
17.522,113.71997911861956,85.36089504618886,0.0,-1.0,-2.0,1,4,1,2,4,3,3,0.00,0.00,47.09,
17.537,113.62999791186196,85.3960895046189,0.0,-1.0,-1.0,1,4,1,2,3,3,4,0.00,0.00,47.09,
17.551,113.5399997911862,85.49860895046189,-1.0,0.0,-1.0,1,4,1,2,4,3,4,0.00,0.00,47.09,
17.565,113.4949999791186,85.5718608950462,-1.0,0.0,0.0,1,4,1,2,4,3,4,0.00,0.00,47.38,
17.579,113.54449999791186,85.53418608950463,-1.0,0.0,0.0,1,4,1,2,4,3,4,0.00,0.00,47.68,
17.593,113.5854499997912,85.53041860895047,-1.0,0.0,-1.0,1,4,1,2,4,3,4,0.00,0.00,47.97,
17.607,113.61654499997913,85.57504186089506,-1.0,0.0,-1.0,1,4,1,2,4,3,4,0.00,0.00,48.27,
17.622,113.63765449999791,85.57950418608951,-1.0,0.0,-1.0,1,4,1,2,4,4,4,0.00,0.00,48.85,
17.636,113.58576544999978,85.65195041860895,-1.0,0.0,0.0,1,4,1,2,4,4,4,0.00,0.00,48.85,
17.649,113.57157654499997,85.65919504186088,-1.0,0.0,0.0,1,4,1,2,4,4,4,0.00,0.00,48.95,
17.664,113.5341576545,85.61491950418609,-1.0,0.0,0.0,1,4,1,2,4,4,4,0.00,0.00,49.25,
17.678,113.51241576545,85.55649195041862,-2.0,0.0,0.0,1,5,1,2,4,4,4,0.00,0.00,49.44,
17.691,113.447241576545,85.61364919504187,-2.0,0.0,0.0,1,5,1,2,4,4,4,0.00,0.00,49.74,
17.705,113.4317241576545,85.68236491950418,-2.0,0.0,0.0,1,5,1,2,4,4,4,0.00,0.00,50.03,
17.72,113.42117241576545,85.71623649195041,-2.0,0.0,0.0,1,5,1,2,4,4,4,0.00,0.00,50.72,
17.734,113.40211724157655,85.67462364919504,-2.0,0.0,0.0,1,5,1,2,4,4,4,0.00,0.00,51.21,
17.747,113.41821172415766,85.6614623649195,-2.0,0.0,0.0,1,5,1,2,4,4,4,0.00,0.00,51.70,
17.762,113.50082117241577,85.69614623649196,-3.0,0.0,0.0,1,4,1,2,4,4,3,0.00,0.00,52.09,
17.776,113.59008211724156,85.6726146236492,-3.0,0.0,0.0,1,4,1,2,3,4,3,0.00,0.00,53.27,
17.79,113.62600821172416,85.59826146236492,-2.0,0.0,0.0,1,4,1,2,3,4,3,0.00,0.00,53.76,
17.804,113.64760082117242,85.5638261462365,-3.0,0.0,-1.0,1,4,1,2,3,4,3,0.00,0.00,54.35,
17.818,113.66776008211724,85.47938261462365,-3.0,0.0,-1.0,1,4,1,2,3,4,3,0.00,0.00,55.03,
17.832,113.63377600821171,85.48893826146237,-2.0,0.0,-1.0,1,5,1,2,3,4,3,0.00,0.00,56.02,
17.847,113.62137760082118,85.52589382614624,-3.0,0.0,-1.0,1,5,1,2,3,4,3,0.00,0.00,-2,
18.285,114.01613776008213,85.25058938261463,-2.0,0.0,-2.0,1,5,1,2,3,4,3,0.00,0.00,445.18,
18.307,114.0646137760082,85.19605893826147,-2.0,0.0,-2.0,1,5,1,2,3,4,3,0.00,0.00,64.16,
18.321,114.09646137760082,85.25360589382615,-1.0,1.0,-2.0,1,5,1,2,3,4,3,0.00,0.00,64.55,
18.335,114.07264613776007,85.29536058938261,-2.0,0.0,-1.0,1,5,1,2,3,4,3,0.00,0.00,64.65,
18.35,114.06126461377602,85.29953605893826,-2.0,0.0,0.0,1,5,1,2,3,4,3,0.00,0.00,64.94,
18.364,114.11412646137761,85.27295360589382,-2.0,0.0,-1.0,1,5,1,2,3,4,3,0.00,0.00,65.33,
18.377,114.14641264613778,85.29729536058937,-2.0,0.0,-1.0,1,5,1,2,3,4,3,0.00,0.00,65.43,
18.392,114.24864126461378,85.24572953605893,-2.0,0.0,-1.0,1,5,1,2,3,4,3,0.00,0.00,65.53,
18.406,114.25886412646138,85.2495729536059,-2.0,0.0,-2.0,1,5,1,2,3,4,3,0.00,0.00,65.63,
18.42,114.20588641264614,85.3039572953606,-2.0,0.0,-1.0,1,5,1,2,3,4,3,0.00,0.00,65.83,
18.435,114.16458864126461,85.35439572953605,-2.0,0.0,-1.0,1,5,1,2,3,4,3,0.00,0.00,65.73,
18.448,114.15145886412647,85.36843957295362,-2.0,0.0,-1.0,1,5,1,2,3,4,3,0.00,0.00,65.73,
18.462,114.17714588641266,85.38784395729536,-2.0,0.0,-1.0,1,5,1,2,3,4,3,0.00,0.00,65.83,
18.477,114.20671458864126,85.44378439572954,-2.0,0.0,-1.0,1,5,1,2,3,4,3,0.00,0.00,65.92,
18.491,114.22767145886412,85.40437843957297,-2.0,0.0,-1.0,1,5,1,2,3,4,3,0.00,0.00,65.92,
18.505,114.25676714588641,85.38243784395729,-2.0,0.0,-1.0,1,5,1,2,3,4,3,0.00,0.00,65.92,
18.519,114.24167671458864,85.33524378439573,-2.0,0.0,-1.0,1,5,1,2,3,4,3,0.00,0.00,65.83,
18.533,114.26716767145886,85.35752437843956,-1.0,0.0,-1.0,1,5,1,2,3,4,3,0.00,0.00,65.83,
18.547,114.22471676714588,85.46775243784396,-1.0,0.0,0.0,1,5,1,2,3,4,3,0.00,0.00,65.83,
18.562,114.27447167671458,85.4787752437844,-1.0,0.0,0.0,1,5,1,2,3,4,3,0.00,0.00,65.63,
18.575,114.28844716767146,85.48887752437844,-1.0,0.0,0.0,1,5,1,2,3,4,3,0.00,0.00,65.73,
18.589,114.28084471676715,85.49888775243784,0.0,-1.0,0.0,1,5,1,2,3,4,3,0.00,0.00,65.63,
18.604,114.3160844716767,85.49088877524379,0.0,-1.0,0.0,1,5,1,2,3,4,3,0.00,0.00,65.63,
18.618,114.36460844716767,85.58908887752438,0.0,-1.0,0.0,1,5,1,2,3,4,3,0.00,0.00,65.63,
18.631,114.27946084471677,85.58990888775244,0.0,-1.0,0.0,1,5,1,2,3,4,3,0.00,0.00,65.53,
18.646,114.29794608447168,85.60799088877525,0.0,-1.0,0.0,1,5,1,2,3,4,3,0.00,0.00,65.33,
18.66,114.25479460844717,85.56479908887752,0.0,-1.0,0.0,1,5,1,2,3,4,3,0.00,0.00,65.14,
18.673,114.29547946084472,85.60547990888776,0.0,-1.0,0.0,1,5,1,2,3,4,3,0.00,0.00,64.75,
18.688,114.27254794608447,85.60054799088877,0.0,-1.0,-1.0,1,5,1,2,3,4,4,0.00,0.00,64.65,
18.702,114.27925479460845,85.58205479908888,0.0,-1.0,-2.0,1,5,1,2,3,4,4,0.00,0.00,64.45,
18.716,114.30692547946084,85.57120547990888,0.0,-1.0,-2.0,1,5,1,2,3,4,4,0.00,0.00,64.35,
18.731,114.30069254794608,85.6421205479909,0.0,-1.0,-2.0,1,5,1,2,3,4,4,0.00,0.00,63.96,
18.744,114.2550692547946,85.70321205479908,0.0,-2.0,-2.0,1,5,1,2,3,4,4,0.00,0.00,63.67,
18.758,114.17850692547945,85.7183212054799,0.0,-2.0,-1.0,1,5,1,2,3,4,4,0.00,0.00,63.27,
18.772,114.09885069254796,85.67483212054799,0.0,-2.0,-1.0,1,5,1,2,3,4,4,0.00,0.00,63.08,
18.787,114.1088850692548,85.71548321205479,0.0,-2.0,0.0,1,5,1,2,3,4,4,0.00,0.00,62.49,
18.801,114.19088850692548,85.7555483212055,0.0,-2.0,0.0,1,5,1,2,3,4,4,0.00,0.00,62.10,
18.814,114.18108885069256,85.78655483212056,0.0,-3.0,0.0,1,5,1,2,3,4,4,0.00,0.00,61.90,
18.829,114.05410888506927,85.80765548321206,0.0,-2.0,0.0,1,5,1,2,3,4,4,0.00,0.00,61.12,
18.843,113.93341088850693,85.80976554832121,-1.0,-2.0,0.0,1,5,1,2,3,4,4,0.00,0.00,60.92,
18.857,113.79534108885069,85.82797655483212,-1.0,-1.0,0.0,1,5,1,2,3,4,4,0.00,0.00,60.53,
18.871,113.69153410888508,85.8837976554832,-1.0,-1.0,0.0,1,5,1,2,3,4,4,0.00,0.00,60.43,
18.885,113.7081534108885,85.88937976554833,-1.0,-1.0,0.0,1,5,1,3,3,4,4,0.00,0.00,60.14,
18.899,113.73681534108884,85.90793797655483,-1.0,-1.0,0.0,1,5,1,3,3,4,4,0.00,0.00,60.14,
18.914,113.79368153410888,85.86479379765548,-1.0,-1.0,0.0,1,5,1,3,3,4,4,0.00,0.00,59.94,
18.928,113.76336815341088,85.89647937976555,-1.0,-1.0,0.0,1,5,1,3,3,5,4,0.00,0.00,59.84,
18.942,113.69733681534109,85.88164793797655,-1.0,-1.0,0.0,1,5,1,3,3,5,4,0.00,0.00,59.55,
18.956,113.68173368153411,85.95216479379765,-1.0,0.0,0.0,1,5,1,3,3,5,4,0.00,0.00,59.55,
18.97,113.6441733681534,86.04021647937975,-2.0,0.0,0.0,1,5,1,3,3,5,4,0.00,0.00,59.35,
18.984,113.65841733681533,86.01302164793798,-2.0,0.0,0.0,1,5,1,3,3,5,4,0.00,0.00,59.15,
18.999,113.71384173368153,86.0013021647938,-2.0,0.0,0.0,1,5,1,3,3,5,4,0.00,0.00,59.25,
19.012,113.68338417336817,86.0541302164794,-2.0,0.0,0.0,1,5,1,2,3,5,4,0.00,0.00,59.25,
19.026,113.68933841733681,86.06841302164793,-2.0,0.0,-1.0,1,5,1,2,3,5,4,0.00,0.00,59.35,
19.041,113.67193384173368,86.05184130216479,-2.0,0.0,-1.0,1,5,1,2,3,5,4,0.00,0.00,59.25,
19.055,113.63419338417336,86.02318413021646,-2.0,0.0,-1.0,1,5,1,2,3,5,4,0.00,0.00,59.15,
19.068,113.64841933841734,86.02031841302164,-2.0,0.0,-1.0,1,5,1,2,3,5,4,0.00,0.00,59.06,
19.083,113.69484193384173,86.01103184130217,-2.0,0.0,-1.0,1,5,1,2,3,5,4,0.00,0.00,59.06,
19.097,113.69048419338417,86.02810318413022,-2.0,0.0,-1.0,1,5,1,2,3,5,4,0.00,0.00,59.06,
19.111,113.69004841933841,86.06581031841301,-2.0,0.0,0.0,1,5,1,2,3,5,4,0.00,0.00,58.86,
19.126,113.66300484193384,86.01558103184131,-2.0,0.0,0.0,1,5,1,2,3,5,4,0.00,0.00,58.76,
19.139,113.67830048419339,85.97455810318414,-2.0,0.0,-1.0,1,5,1,2,3,5,4,0.00,0.00,58.57,
19.153,113.67083004841933,85.97045581031841,-3.0,0.0,-1.0,1,5,1,2,3,5,4,0.00,0.00,58.47,
19.168,113.68808300484193,85.92504558103184,-3.0,0.0,-1.0,1,5,1,2,3,5,4,0.00,0.00,58.57,
19.182,113.70780830048419,85.85750455810319,-3.0,0.0,-1.0,1,5,2,2,3,5,4,0.00,0.00,58.66,
19.196,113.69178083004842,85.84175045581031,-3.0,0.0,-1.0,1,5,2,2,3,4,4,0.00,0.00,58.76,
19.21,113.64517808300484,85.83117504558103,-3.0,0.0,-1.0,1,5,2,2,3,4,4,0.00,0.00,58.86,
19.224,113.59551780830049,85.8571175045581,-3.0,0.0,-1.0,1,5,2,2,3,4,4,0.00,0.00,58.76,
19.238,113.55455178083004,85.87771175045582,-3.0,0.0,-1.0,1,5,2,2,3,4,4,0.00,0.00,58.66,
19.253,113.55945517808301,85.84377117504557,-3.0,0.0,-1.0,1,5,2,2,3,4,4,0.00,0.00,58.66,
19.267,113.62294551780829,85.81337711750456,-3.0,0.0,-1.0,1,5,2,2,3,4,4,0.00,0.00,58.57,
19.28,113.61129455178082,85.79233771175046,-3.0,0.0,-1.0,1,5,2,2,3,4,3,0.00,0.00,58.37,
19.295,113.58312945517807,85.80823377117504,-3.0,0.0,-1.0,1,5,2,2,3,4,3,0.00,0.00,58.37,
19.309,113.67031294551782,85.7738233771175,-3.0,0.0,-1.0,1,5,2,2,3,4,3,0.00,0.00,58.47,
19.323,113.69703129455178,85.71638233771175,-3.0,0.0,-1.0,1,5,2,2,3,4,3,0.00,0.00,58.57,
19.338,113.67270312945517,85.65663823377118,-3.0,0.0,-1.0,1,5,2,2,3,4,3,0.00,0.00,58.57,
19.351,113.6072703129455,85.65066382337713,-3.0,0.0,-1.0,1,5,2,2,3,4,3,0.00,0.00,58.76,
19.365,113.59172703129455,85.61406638233771,-2.0,0.0,-1.0,1,5,2,2,3,4,3,0.00,0.00,58.76,
19.38,113.59917270312945,85.61940663823378,-2.0,0.0,-1.0,1,5,2,2,3,4,3,0.00,0.00,58.57,
19.394,113.58191727031294,85.54794066382338,-3.0,0.0,-1.0,1,5,2,2,3,4,3,0.00,0.00,58.47,
19.408,113.57119172703129,85.58579406638235,-2.0,-1.0,-1.0,1,5,2,2,3,4,3,0.00,0.00,58.17,
19.423,113.54311917270313,85.58057940663824,-3.0,0.0,-1.0,1,5,2,2,3,4,3,0.00,0.00,57.98,
19.436,113.51331191727031,85.58905794066382,-3.0,0.0,-1.0,1,5,2,2,3,4,3,0.00,0.00,57.78,
19.45,113.51033119172703,85.61690579406638,-3.0,0.0,-1.0,1,5,2,2,3,4,3,0.00,0.00,57.39,
19.465,113.5100331191727,85.63769057940664,-3.0,0.0,-1.0,1,5,1,2,3,4,3,0.00,0.00,57.19,
19.479,113.51900331191726,85.61276905794067,-2.0,0.0,0.0,1,5,2,2,3,4,3,0.00,0.00,57.00,
19.493,113.52890033119174,85.61027690579407,-2.0,-1.0,0.0,1,5,2,2,3,4,3,0.00,0.00,57.00,
19.507,113.55689003311917,85.6280276905794,-3.0,-1.0,0.0,1,5,2,2,3,4,3,0.00,0.00,56.70,
19.521,113.5506890033119,85.66580276905795,-3.0,-1.0,0.0,1,5,2,2,3,4,3,0.00,0.00,56.41,
19.535,113.5140689003312,85.6695802769058,-3.0,0.0,0.0,1,5,2,2,3,4,3,0.00,0.00,56.21,
19.55,113.48340689003312,85.65195802769058,-3.0,0.0,0.0,1,5,2,2,3,4,3,0.00,0.00,56.11,
19.563,113.47134068900331,85.65019580276906,-3.0,0.0,0.0,1,5,2,2,3,4,3,0.00,0.00,55.92,
19.577,113.46113406890032,85.61401958027692,-2.0,0.0,0.0,1,5,2,2,3,4,3,0.00,0.00,55.92,
19.592,113.44211340689003,85.57440195802768,-2.0,0.0,0.0,1,5,2,2,3,4,3,0.00,0.00,55.92,
19.606,113.494211340689,85.55244019580277,-2.0,0.0,0.0,1,5,2,2,3,4,3,0.00,0.00,55.92,
19.619,113.55342113406891,85.50524401958027,-2.0,0.0,0.0,1,5,2,2,3,4,3,0.00,0.00,55.72,
19.634,113.5413421134069,85.48252440195803,-2.0,0.0,-1.0,1,5,2,2,3,4,3,0.00,0.00,55.62,
19.648,113.5401342113407,85.4982524401958,-2.0,0.0,-1.0,1,5,2,2,3,4,3,0.00,0.00,55.52,
19.662,113.49501342113406,85.49982524401958,-3.0,0.0,-1.0,1,5,2,2,3,4,3,0.00,0.00,55.52,
19.676,113.4185013421134,85.49098252440196,-3.0,0.0,-1.0,1,4,2,2,3,4,3,0.00,0.00,55.43,
19.69,113.38385013421134,85.5440982524402,-3.0,0.0,-1.0,1,4,2,2,3,4,3,0.00,0.00,55.52,
19.704,113.38938501342113,85.26140982524403,-3.0,0.0,0.0,1,4,1,2,3,4,3,0.00,0.00,55.43,
19.719,113.28193850134211,85.1341409825244,-4.0,0.0,-1.0,1,4,1,2,3,4,3,0.00,0.00,55.43,
19.733,113.35219385013421,85.13041409825244,-4.0,0.0,0.0,1,4,1,2,3,4,3,0.00,0.00,55.52,
19.746,113.35921938501342,85.22904140982524,-4.0,0.0,-1.0,1,4,1,2,2,4,3,0.00,0.00,55.62,
19.761,113.29692193850136,85.22090414098253,-3.0,0.0,-1.0,1,4,1,2,2,4,3,0.00,0.00,55.62,
19.775,113.28169219385013,85.26509041409824,-4.0,0.0,-1.0,1,4,1,2,2,4,3,0.00,0.00,55.43,
19.789,113.271169219385,85.20650904140983,-4.0,0.0,-1.0,1,4,1,2,2,4,3,0.00,0.00,55.33,
19.804,113.3151169219385,85.17365090414098,-3.0,0.0,-1.0,1,4,1,2,2,4,3,0.00,0.00,55.13,
19.817,113.38251169219384,85.0803650904141,-3.0,0.0,0.0,1,4,1,2,2,4,3,0.00,0.00,55.23,
19.831,113.43425116921938,85.0530365090414,-3.0,0.0,-1.0,1,4,1,2,2,4,3,0.00,0.00,55.23,
19.846,113.48442511692193,85.04130365090414,-2.0,0.0,-1.0,1,4,1,2,2,4,3,0.00,0.00,55.33,
19.86,113.48044251169219,85.05813036509042,-2.0,0.0,-1.0,1,4,1,2,2,4,3,0.00,0.00,55.33,
19.874,113.43504425116922,85.09581303650904,-2.0,0.0,-1.0,1,4,1,2,2,4,3,0.00,0.00,55.03,
19.888,113.43050442511692,85.11758130365091,-2.0,0.0,-1.0,1,4,1,2,2,4,3,0.00,0.00,54.94,
19.902,113.4750504425117,85.0657581303651,-2.0,0.0,-1.0,1,4,1,2,2,4,3,0.00,0.00,54.74,
19.916,113.48850504425116,85.07857581303651,-2.0,0.0,-1.0,1,4,1,2,2,4,3,0.00,0.00,54.54,
19.931,113.45385050442512,85.06185758130366,-2.0,0.0,-1.0,1,4,1,2,2,4,3,0.00,0.00,54.05,
19.945,113.50438505044252,84.98818575813036,-2.0,0.0,-1.0,1,4,1,2,2,4,3,0.00,0.00,53.66,
19.958,113.51843850504424,84.99881857581303,-2.0,-1.0,-1.0,1,4,1,2,2,4,3,0.00,0.00,53.27,
19.973,113.56484385050442,84.9998818575813,-2.0,-1.0,-1.0,1,4,1,2,2,4,3,0.00,0.00,52.58,
19.987,113.62348438505043,84.97298818575813,-2.0,-1.0,-1.0,1,4,1,2,2,4,3,0.00,0.00,52.19,
20.001,113.57534843850503,85.04229881857582,-2.0,-1.0,-1.0,1,4,1,2,2,4,3,0.00,0.00,51.89,
20.016,113.51653484385051,85.11222988185759,-2.0,-1.0,-1.0,1,4,1,2,2,4,3,0.00,0.00,51.60,
20.03,113.49265348438504,85.08322298818575,-3.0,0.0,-1.0,1,4,1,2,2,4,3,0.00,0.00,51.21,
20.044,113.37326534843851,85.10732229881857,-3.0,0.0,-1.0,1,4,1,2,2,4,3,0.00,0.00,51.01,
20.059,113.30732653484385,85.18173222988186,-3.0,0.0,-1.0,1,4,1,2,2,4,3,0.00,0.00,50.72,
20.072,113.18373265348438,85.25217322298819,-3.0,0.0,0.0,1,4,1,2,2,4,3,0.00,0.00,50.52,
20.086,113.16237326534844,85.29521732229881,-4.0,0.0,0.0,1,4,1,2,2,3,3,0.00,0.00,49.83,
20.101,113.38523732653485,85.24552173222988,-4.0,0.0,0.0,1,4,1,2,2,3,3,0.00,0.00,49.54,
20.115,113.61452373265348,85.13255217322299,-3.0,-2.0,-1.0,1,4,1,2,2,3,3,0.00,0.00,49.25,
20.128,113.62845237326535,85.0492552173223,-2.0,-1.0,0.0,1,4,1,2,2,3,3,0.00,0.00,48.95,
20.143,113.55784523732652,85.03192552173223,-2.0,-1.0,-1.0,1,4,1,2,2,3,3,0.00,0.00,48.85,
20.157,113.46978452373264,85.03919255217322,-2.0,-1.0,-1.0,1,4,2,2,2,3,3,0.00,0.00,48.76,
20.171,113.35297845237326,85.00391925521733,-2.0,0.0,0.0,1,4,2,2,2,3,3,0.00,0.00,48.76,
20.186,113.38629784523732,84.99139192552173,-2.0,0.0,-1.0,1,4,2,2,2,4,3,0.00,0.00,48.76,
20.2,113.38962978452373,84.99913919255218,-2.0,-1.0,0.0,1,4,2,2,2,4,3,0.00,0.00,48.76,
20.213,113.41696297845237,84.99091391925522,-1.0,-2.0,-1.0,1,4,2,2,2,4,3,0.00,0.00,48.56,
20.228,113.39269629784523,84.98109139192552,-1.0,-2.0,0.0,1,4,2,2,2,4,3,0.00,0.00,48.46,
20.242,113.32726962978452,84.95310913919255,-2.0,-3.0,-1.0,1,4,2,2,2,4,3,0.00,0.00,48.27,
20.256,113.19472696297846,85.04931091391926,-2.0,-3.0,-1.0,1,4,2,2,2,4,3,0.00,0.00,48.17,
20.271,113.05547269629784,85.11293109139193,-2.0,-2.0,-1.0,1,4,2,2,2,3,3,0.00,0.00,47.97,
20.285,112.96954726962979,85.10129310913919,-1.0,-2.0,-1.0,1,4,2,2,2,3,3,0.00,0.00,47.68,
20.299,112.87095472696298,85.20812931091393,-2.0,-2.0,0.0,1,4,2,2,2,3,3,0.00,0.00,47.58,
20.314,112.82509547269629,85.36281293109138,-2.0,-2.0,0.0,1,4,2,2,2,4,3,0.00,0.00,47.48,
20.327,112.89250954726964,85.36028129310914,-2.0,-2.0,0.0,1,4,2,2,2,4,3,0.00,0.00,47.19,
20.341,112.96225095472697,85.23402812931091,-3.0,-2.0,0.0,1,4,2,2,2,3,3,0.00,0.00,46.79,
20.356,112.87022509547269,85.2214028129311,-3.0,-2.0,0.0,1,4,2,2,2,3,3,0.00,0.00,46.70,
20.37,112.78002250954727,85.22914028129311,-3.0,-2.0,-1.0,1,4,2,2,2,3,3,0.00,0.00,46.60,
20.384,112.71700225095472,85.18491402812931,-4.0,-1.0,-1.0,1,4,2,2,2,3,3,0.00,0.00,46.60,
20.399,112.71970022509548,85.13549140281293,-3.0,-1.0,-1.0,1,4,2,2,2,3,3,0.00,0.00,46.60,
20.413,112.75597002250956,85.14854914028129,-3.0,-2.0,-1.0,1,4,2,2,2,3,3,0.00,0.00,46.50,
20.427,112.79559700225094,85.03285491402812,-2.0,-1.0,-1.0,1,4,2,2,2,3,3,0.00,0.00,46.30,
20.441,112.7635597002251,84.91328549140282,-1.0,-1.0,0.0,1,4,2,2,2,3,3,0.00,0.00,46.11,
20.455,112.67935597002251,84.92832854914029,0.0,-1.0,0.0,1,4,2,2,2,3,3,0.00,0.00,46.11,
20.469,112.67093559700226,84.93883285491403,-1.0,-1.0,0.0,1,4,2,2,2,3,3,0.00,0.00,46.11,
20.484,112.73309355970022,84.9488832854914,0.0,-2.0,-1.0,1,4,2,2,2,3,3,0.00,0.00,45.91,
20.498,112.81130935597001,84.91388832854913,0.0,-2.0,-1.0,1,4,2,2,2,3,3,0.00,0.00,45.71,
20.511,112.783130935597,84.9103888328549,0.0,-2.0,-2.0,1,4,2,2,2,3,3,0.00,0.00,45.52,
20.526,112.64531309355971,84.91903888328548,0.0,-3.0,-1.0,1,4,2,2,2,3,3,0.00,0.00,45.42,
20.54,112.56853130935598,84.98290388832855,0.0,-2.0,-1.0,1,4,2,2,2,3,3,0.00,0.00,44.73,
20.554,112.4978531309356,85.05229038883286,0.0,-2.0,0.0,1,4,2,2,2,3,3,0.00,0.00,44.34,
20.569,112.44578531309355,85.05922903888329,0.0,-2.0,0.0,1,4,2,2,2,3,3,0.00,0.00,44.05,
20.582,112.51257853130936,85.02392290388833,0.0,-2.0,0.0,1,4,2,2,2,3,3,0.00,0.00,43.75,
20.596,112.60025785313094,84.93939229038884,0.0,-3.0,-1.0,1,4,2,2,2,4,3,0.00,0.00,42.97,
20.611,112.55502578531309,85.04793922903889,1.0,-3.0,-1.0,1,4,2,2,3,4,3,0.00,0.00,42.48,
20.625,112.4875025785313,85.19379392290388,0.0,-3.0,0.0,1,4,2,2,3,4,3,0.00,0.00,41.99,
20.638,112.42675025785313,85.23537939229038,0.0,-3.0,0.0,1,4,2,2,3,4,3,0.00,0.00,41.40,
20.653,112.44767502578532,85.32053793922904,0.0,-3.0,-1.0,1,4,2,2,3,4,3,0.00,0.00,40.32,
20.667,112.46776750257852,85.33805379392291,0.0,-3.0,-2.0,1,4,2,2,3,4,3,0.00,0.00,39.93,
20.681,112.42477675025785,85.33080537939229,0.0,-4.0,-3.0,1,4,2,2,3,4,3,0.00,0.00,39.53,
20.696,112.36647767502578,85.24908053793922,0.0,-4.0,-4.0,1,4,2,2,3,4,3,0.00,0.00,38.75,
20.709,112.22564776750256,85.37590805379392,0.0,-4.0,-3.0,1,4,2,2,3,4,3,0.00,0.00,38.36,
20.723,112.03156477675026,85.4605908053794,-1.0,-3.0,-3.0,1,4,2,2,3,4,3,0.00,0.00,37.96,
20.738,111.93115647767503,85.49605908053795,-1.0,-2.0,-3.0,1,4,2,2,3,4,3,0.00,0.00,37.67,
20.752,111.83111564776749,85.5536059080538,-1.0,-1.0,-2.0,1,4,2,2,3,4,3,0.00,0.00,37.28,
20.766,111.79411156477676,85.62236059080537,-1.0,-1.0,-3.0,1,4,2,2,3,4,3,0.00,0.00,37.28,
20.781,111.90741115647768,85.62923605908053,-1.0,-2.0,-3.0,1,4,2,2,3,4,3,0.00,0.00,37.08,
20.795,111.98174111564776,85.66592360590806,-2.0,-2.0,-2.0,1,4,2,2,3,4,3,0.00,0.00,37.08,
20.809,111.90817411156478,85.6875923605908,-1.0,-2.0,-2.0,1,4,2,2,3,4,3,0.00,0.00,37.18,
20.823,111.84681741115648,85.64475923605909,-1.0,-2.0,-2.0,1,4,2,2,3,4,3,0.00,0.00,37.28,
20.837,111.75068174111564,85.64947592360592,-2.0,-2.0,-2.0,1,4,2,2,3,4,3,0.00,0.00,37.18,
20.851,111.65106817411156,85.6679475923606,-2.0,-1.0,-2.0,1,4,2,2,3,4,3,0.00,0.00,37.18,
20.866,111.59610681741117,85.68779475923606,-2.0,-2.0,-2.0,1,4,2,2,3,4,3,0.00,0.00,37.08,
20.88,111.59061068174113,85.7347794759236,-1.0,-1.0,-2.0,1,4,2,2,3,4,3,0.00,0.00,36.98,
20.894,111.53606106817412,85.74847794759236,-1.0,-1.0,-1.0,1,4,2,2,3,4,3,0.00,0.00,36.59,
20.909,111.47660610681741,85.82184779475924,-1.0,-1.0,-1.0,1,4,2,2,3,4,3,0.00,0.00,36.40,
20.923,111.47066061068175,85.82018477947592,-1.0,0.0,0.0,1,4,2,2,3,4,3,0.00,0.00,36.49,
20.937,111.47006606106818,85.82001847794758,-1.0,-1.0,0.0,1,4,2,2,3,4,3,0.00,0.00,36.59,
20.951,111.4610066061068,85.82000184779476,-1.0,-1.0,0.0,1,4,2,2,3,4,3,0.00,0.00,36.79,
21.404,111.32510066061067,85.78400018477947,-5.0,0.0,-3.0,1,4,1,2,3,3,3,0.00,0.00,31.88,
21.419,111.32951006606106,85.74440001847795,-5.0,0.0,-2.0,1,4,1,2,3,3,3,0.00,0.00,31.49,
21.433,111.2219510066061,85.6504400018478,-4.0,0.0,-2.0,1,4,1,2,2,3,3,0.00,0.00,31.29,
21.447,111.1211951006606,85.6770440001848,-4.0,0.0,-2.0,1,4,1,2,2,3,3,0.00,0.00,31.10,
21.462,111.07511951006605,85.68870440001848,-4.0,0.0,-1.0,1,4,1,2,2,3,3,0.00,0.00,30.80,
21.475,111.0525119510066,85.64487044000185,-4.0,0.0,-1.0,1,4,1,2,2,3,3,0.00,0.00,30.61,
21.489,111.09525119510064,85.6134870440002,-3.0,0.0,-2.0,1,4,1,2,2,3,3,0.00,0.00,30.51,
21.504,111.12652511951006,85.58334870440002,-3.0,0.0,-1.0,1,4,1,2,2,3,3,0.00,0.00,30.41,
21.518,111.165652511951,85.52633487044001,-3.0,0.0,-1.0,1,4,1,2,2,3,3,0.00,0.00,30.41,
21.532,111.1695652511951,85.565633487044,-3.0,0.0,-1.0,1,4,1,2,2,3,3,0.00,0.00,30.41,
21.545,111.1609565251195,85.5425633487044,-4.0,0.0,-1.0,1,4,1,2,2,3,3,0.00,0.00,30.41,
21.56,111.14209565251194,85.52225633487045,-3.0,0.0,-1.0,1,4,1,2,2,3,2,0.00,0.00,30.41,
21.574,111.1222095652512,85.49322563348704,-4.0,0.0,-1.0,1,4,1,2,2,3,2,0.00,0.00,30.21,
21.588,111.03922095652513,85.58032256334872,-4.0,0.0,-2.0,1,3,1,2,2,3,2,0.00,0.00,30.12,
21.603,111.01292209565251,85.61603225633488,-5.0,0.0,-1.0,1,3,1,2,1,3,2,0.00,0.00,30.12,
21.617,111.03729220956525,85.6196032256335,-6.0,0.0,-1.0,1,3,1,2,1,3,2,0.00,0.00,30.12,
21.63,111.06672922095652,85.55696032256336,-6.0,0.0,-2.0,1,3,1,1,1,2,2,0.00,0.00,30.12,
21.645,111.11467292209566,85.55969603225634,-7.0,0.0,-2.0,1,3,1,1,1,2,2,0.00,0.00,30.12,
21.659,111.11046729220956,85.55996960322564,-8.0,0.0,-1.0,1,3,1,1,1,2,1,0.00,0.00,29.92,
21.673,111.17304672922097,85.45199696032256,-8.0,0.0,-1.0,1,3,1,1,1,2,1,0.00,0.00,29.53,
21.688,111.1253046729221,85.21619969603226,-6.0,0.0,-1.0,1,2,1,1,1,2,1,0.00,0.00,29.14,
21.701,111.1565304672922,84.96761996960322,-4.0,0.0,0.0,1,2,1,1,1,2,1,0.00,0.00,28.84,
21.715,111.14165304672922,85.00576199696032,-3.0,1.0,0.0,1,2,1,1,1,2,1,0.00,0.00,28.74,
21.73,111.14916530467293,84.97357619969603,-3.0,1.0,0.0,1,3,1,1,1,2,1,0.00,0.00,28.94,
21.744,111.2219165304673,84.9703576199696,-3.0,1.0,0.0,1,3,1,1,1,2,1,0.00,0.00,29.14,
21.757,111.24719165304673,84.98803576199695,-3.0,0.0,-1.0,1,3,1,1,1,2,1,0.00,0.00,29.33,
21.772,111.29471916530467,84.98080357619969,-3.0,1.0,-1.0,1,3,1,1,1,2,1,0.00,0.00,29.33,
21.786,111.23647191653046,84.93508035761998,-4.0,1.0,0.0,1,3,1,1,1,2,1,0.00,0.00,29.43,
21.8,111.31164719165305,84.96650803576199,-4.0,1.0,0.0,1,3,1,1,1,2,1,0.00,0.00,29.53,
21.814,111.3011647191653,84.9786508035762,-4.0,1.0,0.0,1,3,1,1,0,2,1,0.00,0.00,29.63,
21.828,111.28211647191652,84.88086508035762,-4.0,1.0,0.0,1,3,1,1,0,2,1,0.00,0.00,29.63,
21.842,111.37021164719165,84.88008650803576,-3.0,2.0,0.0,1,3,1,1,0,2,1,0.00,0.00,29.63,
21.857,111.38802116471916,84.89800865080359,-3.0,2.0,0.0,1,3,1,1,0,2,1,0.00,0.00,29.72,
21.87,111.51580211647192,84.82780086508035,-3.0,2.0,0.0,1,3,1,1,0,2,1,0.00,0.00,30.12,
21.884,111.61858021164718,84.69478008650803,-3.0,2.0,0.0,1,3,1,1,0,2,1,0.00,0.00,30.80,
21.899,111.72785802116472,84.5914780086508,-2.0,2.0,-1.0,1,3,1,1,1,2,1,0.00,0.00,31.10,
21.913,111.78378580211647,84.58114780086508,-2.0,2.0,-1.0,1,3,1,1,1,2,1,0.00,0.00,31.59,
21.927,111.86137858021165,84.5531147800865,-2.0,2.0,-1.0,1,3,1,1,1,2,1,0.00,0.00,32.47,
21.941,111.93213785802115,84.50531147800865,-1.0,2.0,-1.0,1,3,1,1,1,2,1,0.00,0.00,33.06,
21.955,111.92121378580212,84.52753114780086,-1.0,2.0,-1.0,1,3,1,1,1,2,1,0.00,0.00,33.65,
21.969,111.89312137858022,84.55675311478008,-1.0,2.0,0.0,1,3,1,1,1,2,1,0.00,0.00,34.43,
21.984,111.86331213785803,84.640675311478,-1.0,2.0,-1.0,1,3,1,1,1,2,1,0.00,0.00,35.41,
21.998,111.91433121378581,84.6310675311478,-1.0,2.0,0.0,1,3,1,1,1,2,2,0.00,0.00,35.90,
22.011,111.90143312137859,84.62110675311479,-2.0,2.0,0.0,1,3,1,2,1,2,2,0.00,0.00,36.30,
22.026,111.94514331213787,84.63811067531148,-2.0,1.0,0.0,1,3,1,2,1,2,2,0.00,0.00,36.59,
22.04,112.03951433121378,84.57681106753114,-2.0,2.0,0.0,1,3,1,2,1,2,2,0.00,0.00,37.38,
22.054,112.12095143312138,84.56168110675311,-1.0,2.0,0.0,1,3,1,2,1,2,2,0.00,0.00,37.77,
22.068,112.23709514331215,84.46116811067532,-1.0,2.0,-1.0,1,3,1,2,1,2,2,0.00,0.00,38.16,
22.082,112.28470951433121,84.50511681106754,0.0,1.0,-1.0,1,3,1,2,1,2,2,0.00,0.00,39.04,
22.096,112.29847095143312,84.57251168110675,-1.0,1.0,-1.0,1,3,1,2,1,2,2,0.00,0.00,39.44,
22.111,112.30884709514332,84.61525116811067,-1.0,1.0,-1.0,1,3,1,2,1,2,2,0.00,0.00,39.83,
22.125,112.30088470951432,84.69152511681106,-1.0,0.0,-1.0,1,3,1,2,1,2,2,0.00,0.00,40.22,
22.138,112.37208847095143,84.6811525116811,-1.0,0.0,0.0,1,3,1,2,1,2,2,0.00,0.00,40.32,
22.153,112.37920884709513,84.67111525116812,-1.0,0.0,0.0,1,3,1,2,1,2,2,0.00,0.00,40.32,
22.167,112.34392088470952,84.68811152511681,-1.0,0.0,0.0,1,3,1,2,1,2,2,0.00,0.00,40.32,
22.18,112.37639208847095,84.65381115251168,-1.0,0.0,0.0,1,3,1,2,1,2,2,0.00,0.00,40.32,
22.195,112.3436392088471,84.65938111525116,0.0,0.0,0.0,1,3,1,2,2,3,2,0.00,0.00,40.52,
22.209,112.31336392088471,84.73193811152511,0.0,0.0,0.0,1,3,1,2,2,3,2,0.00,0.00,40.52,
22.222,112.31933639208846,84.7661938111525,-1.0,0.0,0.0,1,3,1,2,2,3,2,0.00,0.00,40.52,
22.237,112.31093363920886,84.78761938111526,0.0,0.0,0.0,1,3,1,2,2,3,2,0.00,0.00,40.52,
22.251,112.23809336392088,84.77176193811152,-1.0,0.0,0.0,1,3,1,2,2,3,2,0.00,0.00,40.61,
22.265,112.27580933639209,84.74317619381114,-1.0,0.0,-1.0,1,3,1,2,2,3,2,0.00,0.00,40.61,
22.279,112.30658093363921,84.7403176193811,-2.0,0.0,-1.0,1,3,1,2,2,3,2,0.00,0.00,40.61,
22.293,112.26465809336392,84.7130317619381,-1.0,0.0,-1.0,1,3,1,2,2,3,2,0.00,0.00,40.42,
22.307,112.2784658093364,84.7373031761938,-2.0,0.0,-1.0,1,3,1,2,2,3,2,0.00,0.00,40.32,
22.322,112.26184658093365,84.74873031761939,-2.0,0.0,-1.0,1,3,1,2,2,3,2,0.00,0.00,40.22,
22.336,112.31418465809335,84.75887303176194,-2.0,0.0,-1.0,1,3,1,2,2,3,2,0.00,0.00,40.22,
22.349,112.31941846580932,84.7508873031762,-2.0,0.0,-1.0,1,4,1,2,2,3,2,0.00,0.00,40.12,
22.364,112.30194184658092,84.79508873031762,-2.0,0.0,-2.0,1,4,1,2,2,3,2,0.00,0.00,40.12,
22.378,112.34519418465808,84.81750887303176,-2.0,0.0,-1.0,1,4,1,2,2,3,2,0.00,0.00,40.12,
22.392,112.36751941846582,84.86475088730319,-3.0,0.0,-2.0,1,4,1,2,2,3,2,0.00,0.00,40.02,
22.407,112.41475194184657,84.85147508873031,-2.0,0.0,-1.0,1,4,1,2,2,3,2,0.00,0.00,39.83,
22.421,112.46447519418466,84.78714750887303,-2.0,0.0,-1.0,1,4,1,2,2,3,2,0.00,0.00,39.73,
22.434,112.46944751941847,84.78071475088731,-2.0,0.0,-1.0,1,4,1,2,2,3,2,0.00,0.00,39.83,
22.449,112.53294475194184,84.78007147508873,-2.0,0.0,-1.0,1,4,1,2,2,3,2,0.00,0.00,39.93,
22.463,112.50329447519418,84.78900714750888,-2.0,0.0,-1.0,1,4,1,2,2,3,2,0.00,0.00,39.93,
22.477,112.47332944751942,84.8079007147509,-3.0,0.0,-1.0,1,4,1,2,2,3,2,0.00,0.00,39.93,
22.492,112.50633294475193,84.82779007147508,-3.0,0.0,-1.0,1,4,1,2,1,3,2,0.00,0.00,39.93,
22.505,112.5006332944752,84.8297790071475,-3.0,0.0,-1.0,1,4,1,2,1,3,2,0.00,0.00,39.93,
22.519,112.45506332944751,84.83897790071475,-3.0,0.0,-1.0,1,4,1,2,1,3,2,0.00,0.00,39.93,
22.534,112.45050633294474,84.85789779007146,-3.0,0.0,-1.0,1,3,1,2,1,3,2,0.00,0.00,40.02,
22.548,112.52205063329447,84.82378977900714,-3.0,0.0,-1.0,1,3,1,2,1,3,2,0.00,0.00,40.12,
22.562,112.47520506332944,84.8023789779007,-3.0,0.0,-1.0,1,3,1,2,1,3,2,0.00,0.00,40.32,
