time,t1:pitch,t1:roll,t1:gyrx,t1:gyry,t1:gyrz,t2:pitch,t2:roll,t2:gyrx,t2:gyry,t2:gyrz,k1:pitch,k1:roll,k1:gyrx,k1:gyry,k1:gyrz,k2:pitch,k2:roll,k2:gyrx,k2:gyry,k2:gyrz,W:pitch,W:roll,W:gyrx,W:gyry,W:gyrz,B:pitch,B:roll,B:gyrx,B:gyry,B:gyrz
0.28400000000000003,13.5,13.5,0.0,-0.0,0.0,31.230550231223123,2.149285451264022,-0.015267175572519083,0.022900763358778626,0.0,-5.623703365321242,22.14972228591711,-0.030534351145038167,0.022900763358778626,-0.03816793893129771,13.5,13.5,0.0,-0.0,0.0,0.0,0.0,0.0,0.0,0.0,30.72,37.49,-2.0,-1.0,-3.0,
0.319,24.975,24.975,0.0,-0.0,0.0,57.77651792776278,3.9761780848384403,-0.015267175572519083,0.022900763358778626,0.0,-10.403851225844296,40.97698622894666,-0.030534351145038167,0.022900763358778626,-0.03816793893129771,38.47506490092218,30.975000006856,0.0,0.007633587786259542,0.0,0.0,0.0,0.0,0.0,0.0,37.95,46.33,0.0,-1.0,-2.0,
0.356,34.728750000000005,34.728750000000005,0.0,-0.0,0.0,80.34059046982148,5.529036823376696,-0.015267175572519083,0.022900763358778626,0.0,-14.466976907288892,56.98016058052177,-0.030534351145038167,0.022900763358778626,-0.03816793893129771,59.70387006670603,45.8287500126836,0.0,0.007633587786259542,0.0,0.0,0.0,0.0,0.0,0.0,44.06,54.01,-3.0,0.0,-3.0,
0.393,43.0194375,43.0194375,0.0,-0.0,0.0,99.52005213057139,6.848966751134213,-0.015267175572519083,0.022900763358778626,0.0,-17.9206337365168,70.58285877936062,-0.030534351145038167,0.022900763358778626,-0.03816793893129771,77.74861399960704,58.45456728862943,0.015267175572519083,0.03816793893129771,0.0,0.0,0.0,0.0,0.0,0.0,49.16,60.27,-4.0,0.0,4.0,
0.43,50.066521875,50.066521875,0.0,-0.0,0.0,115.8225945422088,7.970907189728104,-0.015267175572519083,0.022900763358778626,0.0,-21.148474383620165,82.17182757619565,-0.022900763358778626,-0.007633587786259542,-0.007633587786259542,93.08664634257289,69.18651197318337,0.015267175572519083,0.03816793893129771,0.0,0.0,0.0,0.0,0.0,0.0,53.73,65.98,-3.0,1.0,-5.0,
0.46599999999999997,56.05654359375,56.05654359375,0.0,-0.0,0.0,129.6797555921006,8.92455656253291,-0.015267175572519083,0.022900763358778626,0.0,-23.89213893365803,92.02245105350543,-0.022900763358778626,-0.007633587786259542,-0.007633587786259542,106.15537820200697,78.36027963277508,0.015267175572519083,0.03816793893129771,0.0,103.0,131.0,-3.0,-7.0,0.0,57.34,70.38,-5.0,0.0,2.0,
0.503,61.1480620546875,61.1480620546875,0.0,-0.0,0.0,141.45834248450862,9.735158529416996,-0.015267175572519083,0.022900763358778626,0.0,-26.224253801190212,100.39548100921876,-0.022900763358778626,-0.007633587786259542,-0.007633587786259542,117.25333221165586,86.14077841439749,0.015267175572519083,0.03816793893129771,0.0,103.0,131.0,-2.0,-5.0,0.0,60.71,74.59,-2.0,0.0,2.0,
0.54,65.47585274648438,65.47585274648438,0.0,-0.0,0.0,151.45155918702181,10.421653736273123,-0.015267175572519083,0.007633587786259542,0.0,-28.206551438592566,107.51255647157507,-0.022900763358778626,-0.007633587786259542,-0.007633587786259542,126.6865931198574,92.75420237877654,0.015267175572519083,0.03816793893129771,0.0,103.0,131.0,-2.0,-5.0,0.0,63.4,77.69,-4.0,-1.0,-4.0,
0.5780000000000001,69.15447483451172,69.15447483451172,0.0,-0.0,0.0,159.94579338415804,11.005174662100831,-0.015267175572519083,0.007633587786259542,0.0,-29.89150443038457,113.56207061457793,-0.022900763358778626,-0.007633587786259542,-0.007633587786259542,134.71533296269882,98.39281647752928,0.015267175572519083,0.03816793893129771,0.0,103.0,131.0,-3.0,-6.0,0.0,65.9,80.77,-1.0,0.0,0.0,
0.615,72.28130360933496,72.28130360933496,0.0,-0.0,0.0,167.1658924517238,11.501167449054384,-0.015267175572519083,0.007633587786259542,0.0,-31.32371447340777,118.70415763613038,-0.022900763358778626,-0.007633587786259542,-0.007633587786259542,141.539761829114,103.1856384614691,0.015267175572519083,0.03816793893129771,0.0,103.0,131.0,-3.0,-7.0,2.0,67.87,83.09,-4.0,0.0,-3.0,
0.652,74.93910806793471,74.93910806793471,0.0,-0.0,0.0,173.5496526570019,11.910595557598201,-0.007633587786259542,0.022900763358778626,0.022900763358778626,-32.54109300997749,123.07493160444994,-0.022900763358778626,-0.007633587786259542,-0.007633587786259542,147.34052636556694,107.25953714781795,0.015267175572519083,0.03816793893129771,0.0,103.0,131.0,-3.0,-7.0,2.0,69.49,85.39,-4.0,0.0,0.0,
0.69,77.1982418577445,77.1982418577445,0.0,-0.0,0.0,178.93054590234627,12.163742768948765,-0.007633587786259542,0.022900763358778626,0.015267175572519083,-33.57586476606175,126.79008947752158,-0.022900763358778626,-0.007633587786259542,-0.007633587786259542,152.2711762215519,110.72235103121447,0.015267175572519083,0.03816793893129771,0.0,103.0,131.0,-3.0,-7.0,2.0,71.02,87.12,-4.0,0.0,0.0,
0.727,79.11850557908282,79.11850557908282,0.0,-0.0,0.0,183.565800986579,12.260012747236136,-0.015267175572519083,0.007633587786259542,0.015267175572519083,-34.45542075873337,129.94797366963246,-0.022900763358778626,-0.007633587786259542,-0.007633587786259542,156.46222859913917,113.66574283210151,0.015267175572519083,0.03816793893129771,0.0,103.0,131.0,-3.0,-7.0,2.0,71.91,88.28,-2.0,0.0,-6.0,
0.763,80.7507297422204,80.7507297422204,0.0,-0.0,0.0,187.5057678081768,12.3418422287804,-0.015267175572519083,0.007633587786259542,0.015267175572519083,-35.203043352504245,132.63217523292673,-0.022900763358778626,-0.007633587786259542,-0.007633587786259542,160.02450515245775,116.16422970080149,0.0,0.015267175572519083,0.030534351145038167,103.0,131.0,-3.0,-7.0,2.0,72.8,89.86,-3.0,0.0,1.0,
0.801,82.13812028088734,82.13812028088734,0.0,-0.0,0.0,190.77067352862068,12.833252634520356,-0.022900763358778626,0.007633587786259542,0.022900763358778626,-35.838522557209494,134.91374656172684,-0.022900763358778626,-0.007633587786259542,-0.007633587786259542,163.05244022277856,118.28794353919645,0.0,0.015267175572519083,0.030534351145038167,103.0,131.0,-3.0,-7.0,2.0,73.87,91.05,-5.0,-1.0,4.0,
0.838,83.31740223875423,83.31740223875423,0.0,-0.0,0.0,193.52170132895475,13.009480170265302,-0.022900763358778626,0.007633587786259542,0.0,-36.37867988120895,136.85308219120694,-0.022900763358778626,-0.007633587786259542,-0.007633587786259542,165.62618503255123,120.09310030183218,0.0,0.015267175572519083,0.030534351145038167,103.0,131.0,-3.0,-7.0,2.0,74.55,92.04,-4.0,0.0,-9.0,
0.875,84.31979190294109,84.31979190294109,0.0,-0.0,0.0,195.85701446943662,13.194088368392986,-0.015267175572519083,0.015267175572519083,0.0,-36.83781360660849,138.50151747626504,-0.022900763358778626,-0.007633587786259542,-0.007633587786259542,167.81386812085802,121.62748355007255,0.0,0.015267175572519083,0.030534351145038167,103.0,131.0,-3.0,-7.0,2.0,75.25,92.93,-5.0,0.0,3.0,
0.913,85.17182311749993,85.17182311749993,0.0,-0.0,0.0,197.8420306388462,13.351005336801517,-0.015267175572519083,0.015267175572519083,0.0,-36.999747188272515,139.9184739752695,-0.03816793893129771,0.030534351145038167,0.0916030534351145,169.67339874591877,122.93170931107687,0.0,0.015267175572519083,0.030534351145038167,103.0,131.0,-3.0,-7.0,2.0,75.66,93.72,-6.0,0.0,-4.0,
0.95,85.89604964987494,85.89604964987494,0.0,-0.0,0.0,199.4360220141005,13.470044180215247,0.0,0.007633587786259542,0.007633587786259542,-37.13739073268694,141.12288699942332,-0.03816793893129771,0.030534351145038167,0.0916030534351145,171.25399977722043,124.04030120793053,0.0,0.015267175572519083,0.030534351145038167,103.0,131.0,-3.0,-7.0,2.0,76.3,94.25,-6.0,0.0,8.0,
0.987,86.5116422023937,86.5116422023937,0.0,-0.0,0.0,200.79091468306666,13.571227197116919,0.0,0.007633587786259542,0.007633587786259542,-37.254387745439196,142.14663806995407,-0.03816793893129771,0.030534351145038167,0.0916030534351145,172.58701702038425,124.96648918102645,0.0,0.015267175572519083,0.030534351145038167,103.0,131.0,-2.0,-8.0,0.0,76.65,94.63,-5.0,1.0,-10.0,
1.025,87.03489587203464,87.03489587203464,0.0,-0.0,0.0,201.99389656241678,13.593615111801679,-0.015267175572519083,-0.0,0.0,-37.35383520627862,143.0168264799052,-0.03816793893129771,0.030534351145038167,0.0916030534351145,173.72008167707352,125.75374895815798,0.0,0.015267175572519083,0.030534351145038167,103.0,131.0,-2.0,-8.0,0.0,76.89,94.86,-5.0,0.0,8.0,
1.061,87.47966149122944,87.47966149122944,0.0,-0.0,0.0,203.0164311598644,13.612644839283725,-0.015267175572519083,-0.0,0.0,-37.43836554799212,143.75648662836366,-0.03816793893129771,0.030534351145038167,0.0916030534351145,174.69368026870197,126.43903490794949,0.0,0.015267175572519083,0.030534351145038167,103.0,131.0,-3.0,-9.0,3.0,77.18,95.28,-6.0,1.0,-1.0,
1.0979999999999999,87.85771226754503,87.85771226754503,0.0,-0.0,0.0,203.88558556769485,13.628820107643465,-0.015267175572519083,-0.0,0.0,-37.5102163384486,144.38519775455336,-0.03816793893129771,0.030534351145038167,0.0916030534351145,175.53173261116427,127.03764138346301,0.0,0.015267175572519083,0.030534351145038167,103.0,130.0,-4.0,-8.0,0.0,77.34,95.37,-6.0,0.0,0.0,
1.1360000000000001,88.17905542741327,88.17905542741327,0.0,-0.0,0.0,204.62436681435074,13.642569085749244,-0.015267175572519083,-0.0,0.0,-37.57128951033661,144.9196022118146,-0.03816793893129771,0.030534351145038167,0.0916030534351145,176.2335835626791,127.53034346945876,0.0,0.015267175572519083,0.030534351145038167,103.0,131.0,-3.0,-7.0,0.0,77.56,95.71,-5.0,2.0,1.0,
1.173,88.45219711330128,88.45219711330128,0.0,-0.0,0.0,205.25233087400824,13.654255717139156,-0.015267175572519083,-0.0,0.0,-37.470882031806475,145.38257094434442,-0.030534351145038167,-0.061068702290076333,0.03816793893129771,176.8301568714667,127.94914024255513,0.0,0.015267175572519083,0.030534351145038167,103.0,131.0,-3.0,-7.0,0.0,77.81,95.84,-7.0,1.0,-1.0,
1.21,88.68436754630609,88.68436754630609,0.0,-0.0,0.0,205.78610032471713,13.66418935382058,-0.015267175572519083,-0.0,0.0,-37.385535675055856,145.77609436699476,-0.030534351145038167,-0.061068702290076333,0.03816793893129771,177.33590140450391,128.32042529669206,0.0,-0.007633587786259542,0.03816793893129771,103.0,131.0,-3.0,-7.0,0.0,77.89,95.87,-4.0,2.0,0.0,
1.2469999999999999,88.88171241436018,88.88171241436018,0.0,-0.0,0.0,206.3014676190209,13.835749843515638,0.0,-0.0,0.015267175572519083,-37.31299127181783,146.11058927624754,-0.030534351145038167,-0.061068702290076333,0.03816793893129771,177.76578425758555,128.63601759270847,0.0,-0.007633587786259542,0.03816793893129771,103.0,131.0,-3.0,-7.0,0.0,77.97,95.92,-5.0,0.0,1.0,
1.284,89.04945555220615,89.04945555220615,0.0,-0.0,0.0,206.73952981917913,13.981576259756437,0.0,-0.0,0.015267175572519083,-37.5875756798699,146.54380579659772,0.0,0.007633587786259542,0.015267175572519083,178.13118468270494,128.90427104432243,0.0,-0.007633587786259542,0.03816793893129771,103.0,131.0,-3.0,-7.0,0.0,78.05,96.16,-5.0,0.0,-1.0,
1.32,89.19203721937522,89.19203721937522,0.0,-0.0,0.0,207.1090273065338,14.109089382422384,-0.007633587786259542,0.015267175572519083,0.007633587786259542,-37.820972426714164,146.9120398388954,0.0,0.007633587786259542,0.015267175572519083,178.4417750440564,129.1322864781943,0.0,-0.007633587786259542,0.03816793893129771,103.0,131.0,-3.0,-7.0,0.0,78.04,96.1,-4.0,1.0,0.0,
1.357,89.31323163646894,89.31323163646894,0.0,-0.0,0.0,207.42310017078523,14.21747553668844,-0.007633587786259542,0.015267175572519083,0.007633587786259542,-38.03570791858959,147.13053063088438,0.0,0.015267175572519083,0.007633587786259542,178.70577685120517,129.32609959698536,0.0,-0.007633587786259542,0.03816793893129771,103.0,131.0,-3.0,-7.0,0.0,78.1,96.32,-4.0,0.0,1.0,
1.394,89.4162468909986,89.4162468909986,0.0,-0.0,0.0,207.69006210539897,14.309603767814586,-0.007633587786259542,0.015267175572519083,0.007633587786259542,-38.12938787646314,147.3154148898564,0.0,-0.007633587786259542,-0.04580152671755725,178.93017838728161,129.49084074795778,0.0,-0.007633587786259542,0.03816793893129771,103.0,131.0,-3.0,-7.0,0.0,78.34,96.51,-4.0,1.0,-2.0,
1.432,89.5038098573488,89.5038098573488,0.0,-0.0,0.0,207.91697974982065,14.38791276427181,-0.007633587786259542,0.015267175572519083,0.007633587786259542,-38.20901584065566,147.47256650998264,0.0,-0.007633587786259542,-0.04580152671755725,179.13103054027653,129.65208331072085,0.0,-0.007633587786259542,0.03816793893129771,102.0,130.0,-4.0,-5.0,0.0,78.43,96.42,-4.0,1.0,-1.0,
1.469,89.57823837874648,89.57823837874648,0.0,-0.0,0.0,208.1098597475791,14.45447541126045,-0.007633587786259542,0.015267175572519083,0.007633587786259542,-38.18435201972261,147.57528224843628,-0.022900763358778626,-0.0,0.030534351145038167,179.3017548703222,129.78913948906947,0.0,-0.007633587786259542,0.03816793893129771,102.0,130.0,-4.0,-5.0,0.0,78.51,96.36,-2.0,1.0,2.0,
1.506,89.6415026219345,89.6415026219345,0.0,-0.0,0.0,208.27380774567376,14.511053661200794,-0.007633587786259542,0.015267175572519083,0.007633587786259542,-38.163387771929514,147.66259062612187,-0.022900763358778626,-0.0,0.030534351145038167,179.44853598282293,129.90470491980597,0.0,0.03816793893129771,0.0,102.0,130.0,-4.0,-5.0,0.0,78.54,96.48,-5.0,1.0,-4.0,
1.543,89.69527722864433,89.69527722864433,0.0,-0.0,0.0,208.4131635440542,14.559145173650087,-0.007633587786259542,0.015267175572519083,0.007633587786259542,-38.145568161305384,147.73680274715463,-0.022900763358778626,-0.0,0.030534351145038167,179.57283389627773,129.99713646712917,0.022900763358778626,0.030534351145038167,0.030534351145038167,102.0,130.0,-4.0,-5.0,0.0,78.63,96.49,-4.0,1.0,6.0,
1.58,89.74098564434767,89.74098564434767,0.0,-0.0,0.0,208.64487802386418,14.693836908028686,-0.007633587786259542,0.030534351145038167,0.0,-38.13042149227488,147.79988305003246,-0.022900763358778626,-0.0,0.030534351145038167,179.6784871227143,130.07570328235389,0.022900763358778626,0.030534351145038167,0.030534351145038167,102.0,130.0,-4.0,-5.0,0.0,78.84,96.8,-3.0,0.0,-5.0,
1.617,89.77983779769552,89.77983779769552,0.0,-0.0,0.0,208.84183533170264,14.808324882250496,-0.007633587786259542,0.030534351145038167,0.0,-38.11754682359894,147.8535013074786,-0.022900763358778626,-0.0,0.030534351145038167,179.76970815830597,130.13716043078693,0.007633587786259542,0.015267175572519083,-0.007633587786259542,102.0,130.0,-4.0,-5.0,0.0,78.76,96.61,-6.0,1.0,-1.0,
1.654,89.81286212804119,89.81286212804119,0.0,-0.0,0.0,209.00924904336532,14.905639660339034,-0.007633587786259542,0.030534351145038167,0.0,-38.1066033552244,147.89907682630783,-0.022900763358778626,-0.0,0.030534351145038167,179.844730565079,130.20111607747336,0.015267175572519083,0.015267175572519083,0.015267175572519083,102.0,130.0,-4.0,-5.0,0.0,78.89,96.73,-3.0,1.0,3.0,
1.691,89.840932808835,89.840932808835,0.0,-0.0,0.0,209.09615706283896,14.908721565740574,-0.007633587786259542,0.022900763358778626,0.0,-38.09730140710604,147.93781601731268,-0.022900763358778626,-0.0,0.030534351145038167,179.9084996108361,130.2554783771568,0.015267175572519083,0.015267175572519083,0.015267175572519083,102.0,130.0,-4.0,-5.0,0.0,78.99,96.6,-5.0,2.0,-4.0,
1.729,89.86479288750975,89.86479288750975,0.0,-0.0,0.0,209.17002887939157,14.911341185331883,-0.007633587786259542,0.022900763358778626,0.0,-38.08939475120543,147.97074432966681,-0.022900763358778626,-0.0,0.030534351145038167,179.96504726181928,130.28873958099518,0.022900763358778626,0.007633587786259542,0.04580152671755725,102.0,130.0,-4.0,-5.0,0.0,78.87,96.49,-3.0,1.0,2.0,
1.766,89.88507395438329,89.88507395438329,0.0,-0.0,0.0,209.23281992346128,14.913567861984497,-0.007633587786259542,0.022900763358778626,0.0,-38.08267409368992,147.99873339516782,-0.022900763358778626,-0.0,0.030534351145038167,180.0112644527076,130.3237708666074,0.0,0.022900763358778626,0.015267175572519083,102.0,130.0,-4.0,-5.0,0.0,78.89,96.49,-5.0,2.0,2.0,
1.803,89.9023128612258,89.9023128612258,0.0,-0.0,0.0,209.28619231092054,14.915460537139218,-0.007633587786259542,0.022900763358778626,0.0,-38.076961534801725,148.02252410084367,-0.022900763358778626,-0.0,0.030534351145038167,180.04035426332095,130.3339655099782,0.0,0.022900763358778626,0.015267175572519083,103.0,130.0,-3.0,-6.0,-1.0,79.0,96.53,-4.0,1.0,0.0,
1.84,89.91696593204192,89.91696593204192,0.0,-0.0,0.0,209.3315588402609,14.91706931102073,-0.007633587786259542,0.022900763358778626,0.0,-38.07210585974676,148.04274620066815,-0.022900763358778626,-0.0,0.030534351145038167,180.0658735758224,130.34430679698093,0.015267175572519083,0.015267175572519083,0.015267175572519083,103.0,130.0,-3.0,-6.0,-1.0,79.1,96.51,-4.0,1.0,0.0,
1.878,89.92942104223563,89.92942104223563,0.0,-0.0,0.0,209.48934511548333,14.887421034378761,-0.007633587786259542,0.015267175572519083,0.0,-38.06797853595005,148.05993498551896,-0.022900763358778626,-0.0,0.030534351145038167,180.08756499144863,130.35309689093324,0.015267175572519083,0.015267175572519083,0.015267175572519083,103.0,130.0,-3.0,-6.0,-1.0,79.29,96.66,-4.0,1.0,0.0,
1.914,89.94000788590029,89.94000788590029,0.0,-0.0,0.0,209.62346344942242,14.862219999233087,-0.007633587786259542,0.015267175572519083,0.0,-38.06447031072284,148.07454545264216,-0.022900763358778626,-0.0,0.030534351145038167,180.10486380502095,130.35561650095542,0.015267175572519083,0.007633587786259542,0.03816793893129771,103.0,130.0,-3.0,-6.0,-1.0,79.27,96.67,-3.0,2.0,-6.0,
1.951,89.94900670301524,89.94900670301524,0.0,-0.0,0.0,209.66753106030535,14.736072195912278,-0.015267175572519083,0.015267175572519083,0.0,-38.06148831927971,148.08696434969687,-0.022900763358778626,-0.0,0.030534351145038167,180.11956779655742,130.35775816947427,0.015267175572519083,0.007633587786259542,0.03816793893129771,103.0,130.0,-3.0,-6.0,-1.0,79.29,96.81,-3.0,1.0,0.0,
1.989,89.95665569756295,89.95665569756295,0.0,-0.0,0.0,209.70498852955583,14.628846563089592,-0.015267175572519083,0.015267175572519083,0.0,-38.058953626553055,148.09752041219338,-0.022900763358778626,-0.0,0.030534351145038167,180.14218894541128,130.3780260250312,0.015267175572519083,0.007633587786259542,0.03816793893129771,103.0,130.0,-4.0,-5.0,0.0,79.22,96.64,-4.0,1.0,-1.0,
2.026,89.96315734292851,89.96315734292851,0.0,-0.0,0.0,209.82496415801137,14.652991229893544,-0.015267175572519083,0.015267175572519083,0.022900763358778626,-38.056799137735396,148.1064930653154,-0.022900763358778626,-0.0,0.030534351145038167,180.16141692193705,130.3952537022546,0.015267175572519083,0.007633587786259542,0.03816793893129771,103.0,130.0,-4.0,-5.0,0.0,79.31,96.56,-5.0,0.0,2.0,
2.0629999999999997,89.96868374148923,89.96868374148923,0.0,-0.0,0.0,209.92694344219856,14.673514196676905,-0.015267175572519083,0.015267175572519083,0.022900763358778626,-38.2208654085876,148.26503411211564,-0.007633587786259542,-0.007633587786259542,0.0,180.17776070198394,130.40989722789448,0.015267175572519083,0.007633587786259542,0.03816793893129771,103.0,130.0,-4.0,-5.0,0.0,79.34,96.49,-5.0,0.0,0.0,
2.1,89.97338118026585,89.97338118026585,0.0,-0.0,0.0,210.0136258337577,14.690958718442761,-0.015267175572519083,0.015267175572519083,0.022900763358778626,-38.36032173881197,148.39979400189586,-0.007633587786259542,-0.007633587786259542,0.0,180.1916529150238,130.42234422468837,0.015267175572519083,0.007633587786259542,0.03816793893129771,103.0,130.0,-4.0,-5.0,0.0,79.46,96.55,-5.0,0.0,2.0,
2.137,89.97737400322596,89.97737400322596,0.0,-0.0,0.0,210.08730586658294,14.70578656194374,-0.015267175572519083,0.015267175572519083,0.022900763358778626,-38.51527737762036,148.42809361952527,0.007633587786259542,-0.007633587786259542,-0.007633587786259542,180.2034612961077,130.4329241719632,0.015267175572519083,0.007633587786259542,0.03816793893129771,103.0,130.0,-4.0,-5.0,0.0,79.6,96.68,-5.0,1.0,-1.0,
2.174,89.98076790274206,89.98076790274206,0.0,-0.0,0.0,210.1499338944844,14.71839022891957,-0.015267175572519083,0.015267175572519083,0.022900763358778626,-38.64698967060749,148.45214829451027,0.007633587786259542,-0.007633587786259542,-0.007633587786259542,180.20337566398115,130.42346968983088,0.015267175572519083,0.007633587786259542,0.03816793893129771,103.0,130.0,-3.0,-6.0,0.0,79.53,96.57,-5.0,0.0,0.0,
2.2110000000000003,89.98365271733074,89.98365271733074,0.0,-0.0,0.0,210.20316771820066,14.729103345849026,-0.015267175572519083,0.015267175572519083,0.022900763358778626,-38.82497639312213,148.4920636113993,-0.007633587786259542,-0.022900763358778626,0.015267175572519083,180.20330287667355,130.4154333800184,0.015267175572519083,0.007633587786259542,0.03816793893129771,103.0,130.0,-3.0,-6.0,0.0,79.47,96.65,-5.0,1.0,0.0,
2.248,89.98610480973113,89.98610480973113,0.0,-0.0,0.0,210.2589403744108,14.723868533574965,-0.007633587786259542,0.007633587786259542,0.0,-38.97626510725957,148.52599163075496,-0.007633587786259542,-0.022900763358778626,0.015267175572519083,180.2032410074621,130.4086025166778,0.015267175572519083,0.007633587786259542,0.03816793893129771,103.0,130.0,-3.0,-6.0,0.0,79.42,96.59,-6.0,0.0,3.0,
2.285,89.98818908827145,89.98818908827145,0.0,-0.0,0.0,210.30634713218942,14.719418943142013,-0.007633587786259542,0.007633587786259542,0.0,-39.104860514276396,148.55483044720728,-0.007633587786259542,-0.022900763358778626,0.015267175572519083,180.2038561845079,130.4050861388931,0.022900763358778626,-0.0,0.022900763358778626,103.0,130.0,-3.0,-6.0,0.0,79.45,96.55,-5.0,0.0,2.0,
2.322,89.98996072503074,89.98996072503074,0.0,-0.0,0.0,210.23402123907476,14.723692419511966,0.0,0.007633587786259542,0.0,-39.214166610240696,148.57934344119175,-0.007633587786259542,-0.022900763358778626,0.015267175572519083,180.20437908499684,130.40209721777612,0.022900763358778626,-0.0,0.022900763358778626,103.0,130.0,-3.0,-6.0,0.0,79.6,96.62,-5.0,0.0,-1.0,
2.359,89.99146661627613,89.99146661627613,0.0,-0.0,0.0,210.2679203823019,14.710905348246637,-0.007633587786259542,0.007633587786259542,0.007633587786259542,-39.30707679181035,148.60017948607856,-0.007633587786259542,-0.022900763358778626,0.015267175572519083,180.20482355041247,130.39955663482667,0.022900763358778626,-0.0,0.022900763358778626,103.0,130.0,-3.0,-6.0,0.0,79.62,96.46,-5.0,0.0,0.0,
2.397,89.9927466238347,89.9927466238347,0.0,-0.0,0.0,210.296734654045,14.700036337671108,-0.007633587786259542,0.007633587786259542,0.007633587786259542,-39.38605044614456,148.61789012423233,-0.007633587786259542,-0.022900763358778626,0.015267175572519083,180.19483429205272,130.37820564254073,0.022900763358778626,-0.0,0.022900763358778626,103.0,130.0,-2.0,-6.0,0.0,79.54,96.42,-4.0,0.0,0.0,
2.434,89.9938346302595,89.9938346302595,0.0,-0.0,0.0,210.32122678502662,14.690797678681907,-0.007633587786259542,0.007633587786259542,0.007633587786259542,-39.45317805232863,148.63294416666304,-0.007633587786259542,-0.022900763358778626,0.015267175572519083,180.18634342244692,130.3600572990977,0.022900763358778626,-0.0,0.022900763358778626,103.0,129.0,-2.0,-7.0,0.0,79.54,96.43,-5.0,-1.0,0.0,
2.47,89.99475943572057,89.99475943572057,0.0,-0.0,0.0,210.4146577007939,14.685522040750696,0.0,0.007633587786259542,0.015267175572519083,-39.5102365175851,148.64574010272915,-0.007633587786259542,-0.022900763358778626,0.015267175572519083,180.179126183282,130.34463120717112,0.022900763358778626,-0.0,0.022900763358778626,103.0,129.0,-2.0,-7.0,0.0,79.47,96.54,-4.0,0.0,0.0,
2.507,89.99554552036248,89.99554552036248,0.0,-0.0,0.0,210.3800892684849,14.686824424241385,-0.007633587786259542,-0.0,0.0,-39.558736213053095,148.65661664838535,-0.007633587786259542,-0.022900763358778626,0.015267175572519083,180.1729915299918,130.33151902903353,0.022900763358778626,-0.0,0.022900763358778626,103.0,129.0,-2.0,-7.0,0.0,79.56,96.47,-4.0,0.0,0.0,
2.544,89.9962136923081,89.9962136923081,0.0,-0.0,0.0,210.35070610102227,14.68793145020847,-0.007633587786259542,-0.0,0.0,-39.5971918383589,148.65506458181216,0.0,-0.007633587786259542,0.007633587786259542,180.16777707469515,130.32037367761657,0.022900763358778626,-0.0,0.022900763358778626,103.0,129.0,-2.0,-7.0,0.0,79.52,96.52,-3.0,0.0,-4.0,
2.581,89.99678163846188,89.99678163846188,0.0,-0.0,0.0,210.32899292851556,14.64964720729373,-0.007633587786259542,0.007633587786259542,0.015267175572519083,-39.62987911986884,148.65374532522495,0.0,-0.007633587786259542,0.007633587786259542,180.16334478769298,130.31090012891215,0.022900763358778626,-0.0,0.022900763358778626,103.0,129.0,-2.0,-7.0,0.0,79.54,96.45,-3.0,0.0,0.0,
2.618,89.9972643926926,89.9972643926926,0.0,-0.0,0.0,210.34078354803341,14.669333033703673,-0.007633587786259542,0.015267175572519083,0.030534351145038167,-39.657663309152284,148.6526239571258,0.0,-0.007633587786259542,0.007633587786259542,180.15957734374115,130.3028476125134,0.022900763358778626,-0.0,0.022900763358778626,103.0,129.0,-2.0,-7.0,0.0,79.42,96.57,-3.0,0.0,-4.0,
2.655,89.99767473378871,89.99767473378871,0.0,-0.0,0.0,210.3508055746236,14.686065986152123,-0.007633587786259542,0.015267175572519083,0.030534351145038167,-39.69323071541339,148.69252380013626,-0.015267175572519083,-0.007633587786259542,0.007633587786259542,180.15637501638207,130.29600297357447,0.022900763358778626,-0.0,0.022900763358778626,103.0,129.0,-2.0,-7.0,0.0,79.24,96.38,-4.0,0.0,1.0,
2.692,89.9980235237204,89.9980235237204,0.0,-0.0,0.0,210.35932429722524,14.700288995733306,-0.007633587786259542,0.015267175572519083,0.030534351145038167,-39.7086980609967,148.60756234378127,-0.007633587786259542,-0.0,0.0,180.15365303812686,130.29018503047638,0.022900763358778626,-0.0,0.022900763358778626,103.0,129.0,-2.0,-7.0,0.0,79.35,96.52,-3.0,0.0,0.0,
2.728,89.99831999516235,89.99831999516235,0.0,-0.0,0.0,210.36656521143664,14.712378553877311,-0.007633587786259542,0.015267175572519083,0.030534351145038167,-39.721845304742516,148.53534510587951,-0.007633587786259542,-0.0,0.0,180.15133935660995,130.285239778843,0.022900763358778626,-0.0,0.022900763358778626,103.0,130.0,-2.0,-7.0,0.0,79.23,96.34,-5.0,0.0,-1.0,
2.766,89.998571995888,89.998571995888,0.0,-0.0,0.0,210.3727199885163,14.722654678299715,-0.007633587786259542,0.015267175572519083,0.030534351145038167,-39.73302046192646,148.47396045366304,-0.007633587786259542,-0.0,0.0,180.14937272732058,130.2810363149546,0.022900763358778626,-0.0,0.022900763358778626,103.0,130.0,-2.0,-6.0,0.0,79.25,96.45,-4.0,0.0,5.0,
2.803,89.9987861965048,89.9987861965048,0.0,-0.0,0.0,210.37795154903404,14.731389384058758,-0.007633587786259542,0.015267175572519083,0.030534351145038167,-39.742519345532806,148.42178349927903,-0.007633587786259542,-0.0,0.0,180.14797991387155,130.27746257898536,0.0,-0.0,0.022900763358778626,103.0,130.0,-2.0,-6.0,0.0,79.29,96.46,-5.0,1.0,-1.0,
2.84,89.99896826702907,89.99896826702907,0.0,-0.0,0.0,210.4164821812516,14.737415663148797,-0.007633587786259542,0.015267175572519083,0.015267175572519083,-39.750593396598205,148.3774330880526,-0.007633587786259542,-0.0,0.0,180.14679602243987,130.2744249034115,0.0,-0.0,0.022900763358778626,103.0,130.0,-2.0,-6.0,0.0,79.33,96.52,-5.0,0.0,0.0,
2.877,89.99912302697471,89.99912302697471,0.0,-0.0,0.0,210.44923321863655,14.74253800037533,-0.007633587786259542,0.015267175572519083,0.015267175572519083,-39.75745634000379,148.33973523851017,-0.007633587786259542,-0.0,0.0,180.14578971472295,130.2718428791737,0.0,-0.0,0.022900763358778626,103.0,130.0,-2.0,-7.0,0.0,79.42,96.62,-4.0,0.0,0.0,
2.914,89.9992545729285,89.9992545729285,0.0,-0.0,0.0,210.40336518145617,14.728239518771037,-0.015267175572519083,0.007633587786259542,0.0,-39.76328984189854,148.3076920663991,-0.007633587786259542,-0.0,0.0,180.14493435316356,130.26964815857158,0.0,-0.0,0.022900763358778626,103.0,130.0,-2.0,-7.0,0.0,79.36,96.6,-3.0,0.0,-2.0,
2.951,89.99936638698922,89.99936638698922,0.0,-0.0,0.0,210.36437734985282,14.716085809407389,-0.015267175572519083,0.007633587786259542,0.0,-39.75338604543926,148.3474088214242,0.0,-0.022900763358778626,0.0,180.1442072958381,130.26778264605977,0.0,-0.0,0.022900763358778626,103.0,130.0,-2.0,-7.0,0.0,79.29,96.68,-3.0,0.0,0.0,
2.988,89.99946142894083,89.99946142894083,0.0,-0.0,0.0,210.33123769299,14.705755156448287,-0.015267175572519083,0.007633587786259542,0.0,-39.73467231939507,148.3922757406537,0.0,-0.022900763358778626,0.0,180.14358929711145,130.26619696042474,0.0,-0.0,0.022900763358778626,103.0,130.0,-2.0,-7.0,0.0,79.29,96.77,-4.0,0.0,1.0,
3.024,89.9995422145997,89.9995422145997,0.0,-0.0,0.0,210.30306898465656,14.69697410143305,-0.015267175572519083,0.007633587786259542,0.0,-39.71876565225751,148.43041262199878,0.0,-0.022900763358778626,0.0,180.14341414537645,130.26688087411958,0.022900763358778626,0.03816793893129771,-0.007633587786259542,103.0,130.0,-2.0,-7.0,0.0,79.36,96.79,-4.0,0.0,-1.0,
3.061,89.99961088240974,89.99961088240974,0.0,-0.0,0.0,210.27912558257316,14.689510204670096,-0.015267175572519083,0.007633587786259542,0.0,-39.70524498519058,148.4628289711421,0.0,-0.022900763358778626,0.0,180.14389191883703,130.26449042856007,0.022900763358778626,0.030534351145038167,0.0,103.0,130.0,-2.0,-7.0,0.0,79.27,96.66,-4.0,0.0,0.0,
3.099,89.99966925004827,89.99966925004827,0.0,-0.0,0.0,210.25877369080226,14.683165892421588,-0.015267175572519083,0.007633587786259542,0.0,-39.69375241818369,148.49038286791392,0.0,-0.022900763358778626,0.0,180.14333215430642,130.26327232633935,0.030534351145038167,0.04580152671755725,0.007633587786259542,103.0,130.0,-2.0,-7.0,0.0,79.33,96.84,-4.0,0.0,1.0,
3.136,89.99971886254103,89.99971886254103,0.0,-0.0,0.0,210.241474582797,14.677773227010356,-0.015267175572519083,0.007633587786259542,0.0,-39.68398373622784,148.51380368016996,0.0,-0.022900763358778626,0.0,180.15317362755763,130.28133250920428,0.030534351145038167,0.04580152671755725,0.007633587786259542,103.0,130.0,-3.0,-7.0,0.0,79.25,96.6,-4.0,1.0,-2.0,
3.173,89.99976103315987,89.99976103315987,0.0,-0.0,0.0,210.22677034099254,14.673189461410807,-0.015267175572519083,0.007633587786259542,0.0,-39.91670469822477,148.55998921445345,0.007633587786259542,-0.03816793893129771,0.007633587786259542,180.16153887982117,130.2966836646395,0.030534351145038167,0.04580152671755725,0.007633587786259542,103.0,130.0,-3.0,-7.0,0.0,79.14,96.65,-4.0,0.0,0.0,
3.21,89.99979687818589,89.99979687818589,0.0,-0.0,0.0,210.21427173545874,14.669293260651191,-0.015267175572519083,0.007633587786259542,0.0,-40.11451751592216,148.59924691859442,0.007633587786259542,-0.03816793893129771,0.007633587786259542,180.16864934424515,130.30973214675942,0.030534351145038167,0.04580152671755725,0.007633587786259542,103.0,130.0,-3.0,-7.0,0.0,79.03,96.59,-5.0,0.0,3.0,
3.247,89.999827346458,89.999827346458,0.0,-0.0,0.0,210.25398332621478,14.697987086666924,0.0,0.030534351145038167,0.0,-40.28265841096494,148.63261596711422,0.007633587786259542,-0.03816793893129771,0.007633587786259542,180.17469323900556,130.32082335656133,0.030534351145038167,0.04580152671755725,0.007633587786259542,103.0,130.0,-3.0,-7.0,0.0,79.11,96.72,-4.0,0.0,-1.0,
3.283,89.9998532444893,89.9998532444893,0.0,-0.0,0.0,210.28773817835742,14.722376838780296,0.0,0.030534351145038167,0.0,-40.37826674979179,148.71786145840076,0.0,-0.03816793893129771,0.022900763358778626,180.1798305495519,130.330250884893,0.030534351145038167,0.04580152671755725,0.007633587786259542,103.0,130.0,-3.0,-7.0,0.0,79.06,96.8,-4.0,0.0,-1.0,
3.32,89.9998752578159,89.9998752578159,0.0,-0.0,0.0,210.31642980267864,14.743108128076663,0.0,0.030534351145038167,0.0,-40.459533837794616,148.79032012599433,0.0,-0.03816793893129771,0.022900763358778626,180.18419726351627,130.3382642839749,0.030534351145038167,0.04580152671755725,0.007633587786259542,103.0,130.0,-3.0,-7.0,0.0,79.04,96.75,-4.0,0.0,2.0,
3.357,89.99989396914351,89.99989396914351,0.0,-0.0,0.0,210.38232688152243,14.710512556834384,-0.007633587786259542,0.04580152671755725,0.0,-40.52861086259702,148.85190999344886,0.0,-0.03816793893129771,0.022900763358778626,180.187908970386,130.34507567319451,0.030534351145038167,0.04580152671755725,0.007633587786259542,103.0,130.0,-3.0,-7.0,0.0,79.11,96.65,-4.0,0.0,0.0,
3.394,89.99990987377198,89.99990987377198,0.0,-0.0,0.0,210.43833939853965,14.682806321278449,-0.007633587786259542,0.04580152671755725,0.0,-40.61868511000796,148.867330326696,0.0,-0.04580152671755725,0.007633587786259542,180.19106392122526,130.35086535403119,0.030534351145038167,0.04580152671755725,0.007633587786259542,103.0,130.0,-3.0,-7.0,0.0,79.16,96.6,-4.0,0.0,-1.0,
3.432,89.99992339270618,89.99992339270618,0.0,-0.0,0.0,210.4859500380043,14.659256021055903,-0.007633587786259542,0.04580152671755725,0.0,-40.78977100475655,148.875961789257,-0.007633587786259542,-0.015267175572519083,0.022900763358778626,180.19374562943864,130.35578658274235,0.030534351145038167,0.04580152671755725,0.007633587786259542,103.0,130.0,-3.0,-7.0,0.0,79.03,96.54,-4.0,0.0,2.0,
3.469,89.99993488380025,89.99993488380025,0.0,-0.0,0.0,210.57435522498906,14.679938856971326,-0.007633587786259542,0.05343511450381679,0.0,-40.93519401529286,148.88329853243383,-0.007633587786259542,-0.015267175572519083,0.022900763358778626,180.19602508142,130.35996962714685,0.030534351145038167,0.04580152671755725,0.007633587786259542,103.0,130.0,-3.0,-7.0,0.0,79.01,96.61,-4.0,0.0,-1.0,
3.506,89.99994465123021,89.99994465123021,0.0,-0.0,0.0,210.64949963392613,14.697519267499434,-0.007633587786259542,0.05343511450381679,0.0,-41.05880357424872,148.88953476413414,-0.007633587786259542,-0.015267175572519083,0.022900763358778626,180.198892861335,130.36132200796044,0.030534351145038167,0.061068702290076333,0.007633587786259542,103.0,130.0,-3.0,-7.0,0.0,78.93,96.63,-4.0,0.0,0.0,
3.543,89.99995295354567,89.99995295354567,0.0,-0.0,0.0,210.83706193252974,14.65874578040021,-0.007633587786259542,0.022900763358778626,0.015267175572519083,-41.1638716993612,148.89483556107942,-0.007633587786259542,-0.015267175572519083,0.022900763358778626,180.20133047426273,130.362471531652,0.030534351145038167,0.061068702290076333,0.007633587786259542,103.0,130.0,-3.0,-7.0,0.0,79.04,96.77,-4.0,0.0,-1.0,
3.58,89.99996001051382,89.99996001051382,0.0,-0.0,0.0,210.92571481808352,14.693639263194603,-0.007633587786259542,0.022900763358778626,0.015267175572519083,-41.25317960570681,148.8993412384829,-0.007633587786259542,-0.015267175572519083,0.022900763358778626,180.2034024452513,130.36344862678982,0.030534351145038167,0.061068702290076333,0.007633587786259542,103.0,130.0,-3.0,-7.0,0.0,78.98,96.76,-5.0,1.0,-2.0,
3.617,89.99996600893674,89.99996600893674,0.0,-0.0,0.0,211.0189073540543,14.654173272178376,-0.007633587786259542,0.015267175572519083,0.007633587786259542,-41.32909132610058,148.90317106427585,-0.007633587786259542,-0.015267175572519083,0.022900763358778626,180.20516362059158,130.364279157657,0.030534351145038167,0.061068702290076333,0.007633587786259542,103.0,130.0,-3.0,-7.0,0.0,78.92,96.66,-4.0,0.0,2.0,
3.654,89.99997110759622,89.99997110759622,0.0,-0.0,0.0,211.09510022853425,14.654261524230328,-0.015267175572519083,0.022900763358778626,0.0,-41.39361628843528,148.90642641619988,-0.007633587786259542,-0.015267175572519083,0.022900763358778626,180.2066606196308,130.36498510889407,0.030534351145038167,0.061068702290076333,0.007633587786259542,103.0,130.0,-3.0,-7.0,0.0,78.9,96.64,-3.0,0.0,-1.0,
3.691,89.99997544145678,89.99997544145678,0.0,-0.0,0.0,211.11728450368798,14.667103749366309,-0.015267175572519083,0.03816793893129771,0.007633587786259542,-41.44846250641978,148.90919346533528,-0.007633587786259542,-0.015267175572519083,0.022900763358778626,180.20793306881416,130.3655851674456,0.030534351145038167,0.061068702290076333,0.007633587786259542,103.0,130.0,-3.0,-7.0,0.0,78.86,96.7,-4.0,2.0,0.0,
3.729,89.99997912523827,89.99997912523827,0.0,-0.0,0.0,211.26964007564857,14.699485142860352,-0.015267175572519083,0.03816793893129771,0.0,-41.4950817917066,148.91154545710037,-0.007633587786259542,-0.015267175572519083,0.022900763358778626,180.20901465062002,130.3660952172144,0.030534351145038167,0.061068702290076333,0.007633587786259542,103.0,130.0,-3.0,-7.0,0.0,78.93,96.76,-4.0,0.0,2.0,
3.766,89.99998225645253,89.99998225645253,0.0,-0.0,0.0,211.39914231181507,14.727009327330288,-0.015267175572519083,0.03816793893129771,0.0,-41.534708184200404,148.9135446501007,-0.007633587786259542,-0.015267175572519083,0.022900763358778626,180.20993399515498,130.36652875951785,0.030534351145038167,0.061068702290076333,0.007633587786259542,102.0,129.0,-3.0,-6.0,0.0,78.96,96.77,-3.0,0.0,0.0,
3.803,73.9992604803589,99.9524248179594,0.007633587786259542,-0.022900763358778626,0.0,211.50921921255662,14.750404884129734,-0.015267175572519083,0.03816793893129771,0.0,-41.568390617820135,148.915243964151,-0.007633587786259542,-0.015267175572519083,0.022900763358778626,180.21071543800971,130.36689727047582,0.030534351145038167,0.061068702290076333,0.007633587786259542,102.0,129.0,-3.0,-6.0,0.0,78.98,96.84,-3.0,1.0,0.0,
3.842,60.39864697067932,108.41200099524023,0.007633587786259542,-0.022900763358778626,0.0,211.52199961996308,14.747543901501386,-0.007633587786259542,0.03816793893129771,0.0,-41.5970206863969,148.91668838109373,-0.007633587786259542,-0.015267175572519083,0.022900763358778626,180.21137966443624,130.36721050479008,0.030534351145038167,0.061068702290076333,0.007633587786259542,102.0,129.0,-3.0,-6.0,0.0,79.02,96.92,-4.0,1.0,0.0,
3.88,48.838125487451684,115.60264074592894,0.007633587786259542,-0.022900763358778626,0.0,211.5328629662586,14.74511206626729,-0.007633587786259542,0.03816793893129771,0.0,-41.621356244687156,148.91791613549506,-0.007633587786259542,-0.015267175572519083,0.022900763358778626,180.2119442568988,130.3674767539572,0.030534351145038167,0.061068702290076333,0.007633587786259542,102.0,129.0,-3.0,-6.0,0.0,79.03,96.87,-4.0,0.0,0.0,
3.918,39.011682226708196,121.71468453401434,0.007633587786259542,-0.022900763358778626,0.0,211.54209681060976,14.743045006318306,-0.007633587786259542,0.03816793893129771,0.0,-41.642041469233874,148.9189597267362,-0.007633587786259542,-0.015267175572519083,0.022900763358778626,180.2143984023125,130.3673097507745,0.015267175572519083,0.05343511450381679,-0.015267175572519083,102.0,129.0,-3.0,-6.0,0.0,79.04,96.88,-3.0,0.0,-1.0,
3.957,30.659205455076222,126.90992175388693,0.007633587786259542,-0.022900763358778626,0.0,211.6109822768643,14.731483253817743,-0.007633587786259542,0.03816793893129771,0.007633587786259542,-41.65962391009858,148.91984677929116,-0.007633587786259542,-0.015267175572519083,0.022900763358778626,180.21648442591416,130.3671677980692,0.015267175572519083,0.05343511450381679,-0.015267175572519083,102.0,129.0,-3.0,-6.0,0.0,79.21,96.88,-4.0,0.0,-1.0,
3.996,23.559600199189045,131.32587339077864,0.007633587786259542,-0.022900763358778626,0.0,211.6872000622773,14.682200606637505,-0.007633587786259542,0.03816793893129771,0.007633587786259542,-41.674568984833584,148.9206007739629,-0.007633587786259542,-0.015267175572519083,0.022900763358778626,180.21825754597558,130.3670471382697,0.015267175572519083,0.05343511450381679,-0.015267175572519083,102.0,129.0,-3.0,-6.0,0.0,79.25,96.86,-3.0,0.0,-2.0,
4.035,17.524935731684945,135.0794322821366,0.007633587786259542,-0.022900763358778626,0.0,211.75198517987835,14.640310356534304,-0.007633587786259542,0.03816793893129771,0.007633587786259542,-42.181019426656185,149.17465758137087,0.0,-0.015267175572519083,-0.007633587786259542,180.21976469802777,130.36694457744014,0.015267175572519083,0.05343511450381679,-0.015267175572519083,102.0,129.0,-3.0,-6.0,0.0,79.22,96.95,-3.0,0.0,-2.0,
4.074,12.39547093430646,138.26995733979084,0.007633587786259542,-0.022900763358778626,0.0,211.8353034981233,14.626090903841265,0.0,0.05343511450381679,0.0,-42.611502302205395,149.39060586766766,0.0,-0.015267175572519083,-0.007633587786259542,180.22104577727214,130.366857400735,0.015267175572519083,0.05343511450381679,-0.015267175572519083,102.0,129.0,-3.0,-6.0,0.0,79.19,96.92,-3.0,1.0,-2.0,
4.112,8.03542585653475,140.98190363879695,0.007633587786259542,-0.022900763358778626,0.0,211.9061240686315,14.614004369052182,0.0,0.05343511450381679,0.0,-42.977412746422225,149.57416191101993,0.0,-0.015267175572519083,-0.007633587786259542,180.22206723851835,130.3678411488912,0.04580152671755725,0.061068702290076333,0.015267175572519083,102.0,129.0,-3.0,-6.0,0.0,79.21,96.85,-5.0,0.0,-1.0,
4.151,4.329387540428797,143.28705799295216,0.007633587786259542,-0.022900763358778626,0.0,212.0840372190582,14.54461784639331,0.0,0.03816793893129771,0.022900763358778626,-43.28843662400653,149.73018454786936,0.0,-0.015267175572519083,-0.007633587786259542,180.22293548057763,130.36867733482396,0.04580152671755725,0.061068702290076333,0.015267175572519083,102.0,129.0,-3.0,-6.0,0.0,79.17,96.82,-4.0,1.0,-1.0,
4.1899999999999995,1.1792549717387364,145.24643919398406,0.007633587786259542,-0.022900763358778626,0.0,212.23526339692086,14.485639302133269,0.0,0.03816793893129771,0.022900763358778626,-43.552806919953184,149.86280378919136,0.0,-0.015267175572519083,-0.007633587786259542,180.223673486328,130.3693880928668,0.04580152671755725,0.061068702290076333,0.015267175572519083,102.0,129.0,-3.0,-7.0,-1.0,79.12,96.92,-5.0,1.0,0.0,
4.228,-1.4983577116478153,146.9119132148612,0.007633587786259542,-0.022900763358778626,0.0,212.36380564810418,14.435507539512233,0.0,0.03816793893129771,0.022900763358778626,-43.77752167150784,149.97553014431506,0.0,-0.015267175572519083,-0.007633587786259542,180.22430079121585,130.36999223720323,0.04580152671755725,0.061068702290076333,0.015267175572519083,102.0,129.0,-3.0,-7.0,0.0,79.17,96.73,-4.0,1.0,0.0,
4.267,-3.7743284925263842,148.32756613260673,0.007633587786259542,-0.022900763358778626,0.0,212.45208179674617,14.430703059150137,-0.022900763358778626,0.022900763358778626,0.007633587786259542,-43.9685292103293,150.07134754617022,0.0,-0.015267175572519083,-0.007633587786259542,180.22483400037052,130.3705057598892,0.04580152671755725,0.061068702290076333,0.015267175572519083,102.0,129.0,-3.0,-7.0,0.0,79.17,96.79,-4.0,0.0,-1.0,
4.304,-5.708903656273168,149.53087111269045,0.007633587786259542,-0.022900763358778626,0.0,212.52711652309188,14.426619250842355,-0.022900763358778626,0.022900763358778626,0.007633587786259542,-44.13088561832754,150.1527923377471,0.0,-0.015267175572519083,-0.007633587786259542,180.22528722815198,130.37094225417226,0.04580152671755725,0.061068702290076333,0.015267175572519083,102.0,129.0,-3.0,-6.0,0.0,79.22,96.78,-5.0,0.0,1.0,
4.343,-7.353292545457934,150.55368034576162,0.007633587786259542,-0.022900763358778626,0.0,212.5912986648391,14.475662180541198,-0.007633587786259542,0.022900763358778626,0.030534351145038167,-44.26888856512605,150.22202041058745,0.0,-0.015267175572519083,-0.007633587786259542,180.22567247176622,130.37131327431288,0.04580152671755725,0.061068702290076333,0.015267175572519083,102.0,129.0,-3.0,-6.0,0.0,79.29,96.92,-4.0,1.0,-4.0,
4.382,-8.751023101264984,151.42306819387213,0.007633587786259542,-0.022900763358778626,0.0,212.6458534853242,14.517348670785214,-0.007633587786259542,0.022900763358778626,0.030534351145038167,-44.386191069904775,150.28086427250176,0.0,-0.015267175572519083,-0.007633587786259542,180.22452318151088,130.37755224472087,0.0,0.007633587786259542,0.015267175572519083,102.0,129.0,-3.0,-6.0,0.0,79.14,96.71,-4.0,0.0,-2.0,
4.42,-9.939094073700977,152.16204786476607,0.007633587786259542,-0.022900763358778626,0.0,212.73070534522302,14.499848707337446,-0.007633587786259542,0.007633587786259542,0.007633587786259542,-44.485898198966694,150.3308815551289,0.0,-0.015267175572519083,-0.007633587786259542,180.22354628479383,130.38285536956766,0.0,0.007633587786259542,0.015267175572519083,102.0,129.0,-3.0,-6.0,0.0,79.09,96.72,-3.0,1.0,0.0,
4.459,-10.948954400271571,152.7901805850259,0.007633587786259542,-0.022900763358778626,0.0,212.802829426137,14.484973738406842,-0.007633587786259542,0.007633587786259542,0.007633587786259542,-44.76360197175277,150.3303241709036,0.007633587786259542,-0.007633587786259542,-0.015267175572519083,180.22271592258434,130.38736302568742,0.0,0.007633587786259542,0.015267175572519083,102.0,129.0,-3.0,-6.0,0.0,79.19,96.73,-5.0,0.0,1.0,
4.498,-11.807335677856575,153.32409339724674,0.007633587786259542,-0.022900763358778626,0.0,212.86413489491392,14.472330014815828,-0.007633587786259542,0.007633587786259542,0.007633587786259542,-44.88397619607008,150.237181010994,0.0,-0.015267175572519083,0.0,180.22201011470628,130.3911945333892,0.0,0.007633587786259542,0.015267175572519083,102.0,129.0,-3.0,-6.0,0.0,79.15,96.7,-4.0,0.0,-2.0,
4.536,-12.536959763803829,153.7779192876345,0.007633587786259542,-0.022900763358778626,0.0,212.91624454337426,14.461582849763467,-0.007633587786259542,0.007633587786259542,0.007633587786259542,-45.026121769368125,150.23724058373264,0.0,-0.022900763358778626,-0.015267175572519083,180.22141017800993,130.39445131493574,0.0,0.007633587786259542,0.015267175572519083,102.0,129.0,-3.0,-6.0,0.0,79.18,96.59,-4.0,0.0,1.0,
4.575,-13.157140236858993,154.16367129446405,0.007633587786259542,-0.022900763358778626,0.0,212.98063052233596,14.447507220764571,-0.015267175572519083,0.015267175572519083,0.015267175572519083,-45.146945506671464,150.2372912205605,0.0,-0.022900763358778626,-0.015267175572519083,180.22090023181804,130.39721957925028,0.0,0.007633587786259542,0.015267175572519083,102.0,129.0,-3.0,-6.0,0.0,79.21,96.67,-5.0,0.0,-1.0,
4.614,-13.684293638955886,154.4915605002692,0.007633587786259542,-0.022900763358778626,0.0,213.0353586044534,14.435542936115509,-0.015267175572519083,0.015267175572519083,0.015267175572519083,-45.249645683379306,150.2373342618642,0.0,-0.022900763358778626,-0.015267175572519083,180.23134550806145,130.42021229403954,0.0,0.007633587786259542,0.015267175572519083,103.0,129.0,-4.0,-5.0,0.0,79.25,96.63,-5.0,1.0,0.0,
4.652,-14.132374030738244,154.77026632520358,0.007633587786259542,-0.022900763358778626,0.0,213.08187747425322,14.425373294163807,-0.015267175572519083,0.015267175572519083,0.015267175572519083,-45.33694083358097,150.2373708469723,0.0,-0.022900763358778626,-0.015267175572519083,180.21846642727,130.398473103718,0.0,0.007633587786259542,0.015267175572519083,103.0,129.0,-2.0,-6.0,0.0,79.19,96.54,-4.0,1.0,0.0,
4.69,-14.51324236375325,155.00716627639778,0.007633587786259542,-0.022900763358778626,0.0,213.0004957172828,14.372260652414285,-0.015267175572519083,0.015267175572519083,0.022900763358778626,-45.411141711252384,150.23740194431423,0.0,-0.022900763358778626,-0.015267175572519083,180.20751920859726,130.37999479194468,0.0,0.007633587786259542,0.015267175572519083,103.0,129.0,-2.0,-6.0,0.0,79.21,96.54,-5.0,1.0,0.0,
4.728,-14.836980446816003,155.20853123491287,0.007633587786259542,-0.022900763358778626,0.0,212.93132122385796,14.327114906927191,-0.015267175572519083,0.015267175572519083,0.022900763358778626,-45.47421245727308,150.23742837705487,0.0,-0.022900763358778626,-0.015267175572519083,180.20909290781725,130.3849315347079,0.0,0.007633587786259542,0.015267175572519083,103.0,129.0,-3.0,-6.0,0.0,79.21,96.51,-4.0,0.0,-1.0,
4.767,-15.112157817419344,155.3796914496507,0.007633587786259542,-0.022900763358778626,0.0,212.9236412061218,14.311197525000376,0.0,0.015267175572519083,0.0,-45.52782259139068,150.2374508448844,0.0,-0.022900763358778626,-0.015267175572519083,180.21043055215426,130.38912776605662,0.0,0.007633587786259542,0.015267175572519083,103.0,129.0,-3.0,-6.0,0.0,79.21,96.48,-4.0,0.0,-1.0,
4.806,-15.346058582432182,155.52517763217784,0.007633587786259542,-0.022900763358778626,0.0,212.93070028828834,14.288233530256816,-0.007633587786259542,0.022900763358778626,0.007633587786259542,-45.573391205390635,150.2374699425395,0.0,-0.022900763358778626,-0.015267175572519083,180.2115675498407,130.39269456270304,0.0,0.007633587786259542,0.015267175572519083,103.0,129.0,-3.0,-6.0,0.0,79.26,96.53,-3.0,0.0,-3.0,
4.844,-15.544874232693093,155.64884088732592,0.007633587786259542,-0.022900763358778626,0.0,212.9367005081299,14.26871413472479,-0.007633587786259542,0.022900763358778626,0.007633587786259542,-45.6121245272906,150.23748617554634,0.0,-0.022900763358778626,-0.015267175572519083,180.2125339978742,130.3957263398525,0.0,0.007633587786259542,0.015267175572519083,103.0,129.0,-3.0,-6.0,0.0,79.29,96.56,-3.0,-2.0,-1.0,
4.883,-15.71386753541487,155.75395465420178,0.007633587786259542,-0.022900763358778626,0.0,212.9418006949952,14.252122648522569,-0.007633587786259542,0.022900763358778626,0.007633587786259542,-45.64504785090556,150.23749997360216,0.0,-0.022900763358778626,-0.015267175572519083,180.2242342092092,130.41894304055143,0.0,0.007633587786259542,0.015267175572519083,103.0,129.0,-4.0,-5.0,0.0,79.42,96.55,-3.0,-2.0,-3.0,
4.922,-15.857511842728378,155.84330135604625,0.007633587786259542,-0.022900763358778626,0.0,212.9253741616692,14.304328869659512,-0.015267175572519083,0.03816793893129771,0.015267175572519083,-45.673032675978284,150.2375117019496,0.0,-0.022900763358778626,-0.015267175572519083,180.23417938884393,130.4386772361455,0.0,0.007633587786259542,0.015267175572519083,103.0,129.0,-4.0,-5.0,0.0,79.36,96.44,-4.0,-1.0,-2.0,
4.961,-15.979609503944861,155.91924605261406,0.007633587786259542,-0.022900763358778626,0.0,212.91936119985672,14.344857854368882,-0.022900763358778626,0.04580152671755725,0.04580152671755725,-45.6968197772901,150.2375216710449,0.0,-0.022900763358778626,-0.015267175572519083,180.24263279153345,130.4554513024005,0.0,0.007633587786259542,0.015267175572519083,103.0,129.0,-4.0,-5.0,0.0,79.43,96.6,-3.0,-1.0,0.0,
4.999,-16.083392515978872,155.9837990446967,0.007633587786259542,-0.022900763358778626,0.0,212.91425018231615,14.379307491371847,-0.022900763358778626,0.04580152671755725,0.04580152671755725,-45.95855197259103,150.26401475726578,0.0916030534351145,-0.1450381679389313,0.03816793893129771,180.24981818381957,130.46970925871722,0.0,0.007633587786259542,0.015267175572519083,103.0,129.0,-4.0,-5.0,0.0,79.52,96.39,-5.0,0.0,-5.0,
5.038,-16.171608076207782,156.03866908796692,0.007633587786259542,-0.022900763358778626,0.0,212.90990581740664,14.408589682824367,-0.022900763358778626,0.04580152671755725,0.04580152671755725,-46.18102433859682,150.28653388055355,0.0916030534351145,-0.1450381679389313,0.03816793893129771,180.22328929684795,130.41989980345315,0.0,0.007633587786259542,0.015267175572519083,103.0,128.0,-1.0,-7.0,1.0,79.68,96.61,-5.0,3.0,-3.0,
5.077,-16.246591302402358,156.08530862474663,0.007633587786259542,-0.022900763358778626,0.0,212.90621310723355,14.43347954555901,-0.022900763358778626,0.04580152671755725,0.04580152671755725,-46.370125849701736,150.30567513534814,0.0916030534351145,-0.1450381679389313,0.03816793893129771,180.22249748283036,130.41885079449008,0.0,0.007633587786259542,0.015267175572519083,103.0,128.0,-3.0,-6.0,3.0,79.59,96.69,-4.0,4.0,-2.0,
5.115,-16.310327044667744,156.1249522310094,0.007633587786259542,-0.022900763358778626,0.0,212.90307430358644,14.454635928883455,-0.022900763358778626,0.04580152671755725,0.04580152671755725,-47.43320006284813,150.42739100682545,0.48091603053435117,-0.6259541984732825,0.09923664122137404,180.2218244409154,130.41795913687147,0.0,0.007633587786259542,0.015267175572519083,103.0,128.0,-3.0,-6.0,3.0,78.56,96.1,-1.0,0.0,-12.0,
5.153,-16.364502425593326,156.15864929633273,0.007633587786259542,-0.022900763358778626,0.0,213.3947028041521,14.588249995133939,-0.015267175572519083,0.05343511450381679,0.44274809160305345,-48.336813144022564,150.53084949758116,0.48091603053435117,-0.6259541984732825,0.09923664122137404,180.2212523552877,130.41720122789567,0.0,0.007633587786259542,0.015267175572519083,103.0,128.0,-3.0,-6.0,3.0,78.64,96.14,-5.0,7.0,-1.0,
5.192,-16.41055149938007,156.18729180185755,0.007633587786259542,-0.022900763358778626,0.0,213.78082031240535,14.849726515954302,-0.04580152671755725,0.1297709923664122,0.33587786259541985,-49.104884263020836,150.6187892147235,0.48091603053435117,-0.6259541984732825,0.09923664122137404,180.22076608250413,130.41655700526624,0.0,0.007633587786259542,0.015267175572519083,103.0,128.0,-3.0,-6.0,3.0,78.7,95.95,-8.0,9.0,-1.0,
5.232,-16.4496932120988,156.21163793155367,0.007633587786259542,-0.022900763358778626,0.0,214.10902019442062,15.071981558651611,-0.04580152671755725,0.1297709923664122,0.33587786259541985,-51.99416069237975,151.39121870134872,0.7557251908396947,-1.1755725190839694,0.3435114503816794,180.2203527506381,130.41600941603122,0.0,0.007633587786259542,0.015267175572519083,103.0,128.0,-3.0,-6.0,3.0,78.7,96.09,-5.0,7.0,3.0,
5.271,-16.482963667909722,156.23233214179535,0.007633587786259542,-0.022900763358778626,0.0,214.57811663542103,15.401221135739487,0.03816793893129771,0.1984732824427481,0.2595419847328244,-54.45004565733483,152.04778376498015,0.7557251908396947,-1.1755725190839694,0.3435114503816794,180.220001418552,130.41554396518146,0.0,0.007633587786259542,0.015267175572519083,103.0,128.0,-3.0,-6.0,3.0,78.71,96.0,-6.0,5.0,7.0,
5.31,-16.511243555349004,156.2499222205008,0.007633587786259542,-0.022900763358778626,0.0,215.2224486282028,16.07758241613113,-0.007633587786259542,0.4351145038167939,-0.022900763358778626,-56.53754787754665,152.60586406906685,0.7557251908396947,-1.1755725190839694,0.3435114503816794,180.2197027862788,130.41514833195916,0.0,0.007633587786259542,0.015267175572519083,103.0,128.0,-3.0,-6.0,3.0,78.68,96.16,-6.0,8.0,0.0,
5.349,-16.535281459672394,156.26487378740043,0.007633587786259542,-0.022900763358778626,0.0,215.7701308220673,16.65248950446402,-0.007633587786259542,0.4351145038167939,-0.022900763358778626,-58.3119247647267,153.08023232754056,0.7557251908396947,-1.1755725190839694,0.3435114503816794,180.278329305804,135.12783752154533,0.46564885496183206,1.5267175572519085,-0.3816793893129771,103.0,128.0,-3.0,-6.0,3.0,78.72,96.43,-7.0,4.0,9.0,
5.388,-16.555713678347278,156.2775826192651,0.007633587786259542,-0.022900763358778626,0.0,216.2356606868521,17.14116052954698,-0.007633587786259542,0.4351145038167939,-0.022900763358778626,-59.820145118829736,153.4834453472432,0.7557251908396947,-1.1755725190839694,0.3435114503816794,180.43294555360214,139.82061309806295,0.46564885496183206,1.5267175572519085,-0.3816793893129771,103.0,129.0,-7.0,-9.0,1.0,78.92,96.28,-9.0,6.0,-2.0,
5.427,-16.57308106422093,156.28838512635008,0.007633587786259542,-0.022900763358778626,0.0,216.68479312750986,17.496208102515002,-0.11450381679389313,0.5801526717557252,-0.21374045801526717,-61.102132419817316,153.82617641399045,0.7557251908396947,-1.1755725190839694,0.3435114503816794,180.56436936423057,143.80947233810292,0.46564885496183206,1.5267175572519085,-0.3816793893129771,103.0,129.0,-7.0,-9.0,1.0,79.2,96.3,-7.0,8.0,9.0,
5.466,-16.58784334221353,156.29756725737232,0.007633587786259542,-0.022900763358778626,0.0,217.2848412298689,17.695154971553073,-0.10687022900763359,0.5572519083969466,-0.366412213740458,-62.19182162565676,154.11749782072562,0.7557251908396947,-1.1755725190839694,0.3435114503816794,180.67607960326475,147.2000026921369,0.46564885496183206,1.5267175572519085,-0.3816793893129771,103.0,129.0,-7.0,-9.0,1.0,79.5,96.08,-10.0,10.0,9.0,
5.506,-16.600391278507242,156.3053720687412,0.007633587786259542,-0.022900763358778626,0.0,217.79488211687413,17.864259810235435,-0.10687022900763359,0.5572519083969466,-0.366412213740458,-63.118057450620284,154.3651210164505,0.7557251908396947,-1.1755725190839694,0.3435114503816794,180.74484127451828,149.9931388360397,0.46564885496183206,1.5267175572519085,-0.3816793893129771,104.0,129.0,-6.0,-10.0,2.0,79.84,95.56,-10.0,11.0,4.0,
5.544,-16.6110570243569,156.31200615840478,0.007633587786259542,-0.022900763358778626,0.0,218.67763363806634,17.26321644166216,-0.13740458015267176,0.21374045801526717,-0.4961832061068702,-63.90535790183928,154.57560073281667,0.7557251908396947,-1.1755725190839694,0.3435114503816794,180.80328869508378,152.36730455835703,0.46564885496183206,1.5267175572519085,-0.3816793893129771,104.0,129.0,-6.0,-10.0,2.0,80.15,95.33,-9.0,11.0,2.0,
5.584,-16.620122908329105,156.3176451346188,0.007633587786259542,-0.022900763358778626,0.0,219.4279724310797,16.752329578374873,-0.13740458015267176,0.21374045801526717,-0.4961832061068702,-64.57456328537543,154.7545084917279,0.7557251908396947,-1.1755725190839694,0.3435114503816794,180.8267740499926,154.26217140445306,0.46564885496183206,1.5267175572519085,-0.3816793893129771,104.0,129.0,-5.0,-6.0,9.0,80.65,95.33,-10.0,17.0,-2.0,
5.624,-16.62782890970548,156.32243826440072,0.007633587786259542,-0.022900763358778626,0.0,220.06576040514105,16.318075744580682,-0.13740458015267176,0.21374045801526717,-0.4961832061068702,-65.14338786138116,154.90658008680245,0.7557251908396947,-1.1755725190839694,0.3435114503816794,180.92531221149028,156.1518026322947,0.46564885496183206,1.5267175572519085,-0.3816793893129771,104.0,128.0,-8.0,-3.0,7.0,81.1,95.13,-9.0,15.0,1.0,
5.663,-16.634379010875403,156.32651242471536,0.007633587786259542,-0.022900763358778626,0.0,220.95052784556367,15.621811038704402,-0.15267175572519084,-0.015267175572519083,-0.183206106870229,-65.62688875098603,155.0358409426158,0.7557251908396947,-1.1755725190839694,0.3435114503816794,181.0090696487633,157.7579891759601,0.46564885496183206,1.5267175572519085,-0.3816793893129771,104.0,128.0,-8.0,-3.0,7.0,81.49,95.1,-7.0,15.0,-2.0,
5.702,-16.639946596869834,156.3299754609828,0.007633587786259542,-0.022900763358778626,0.0,221.7025801699229,15.029986038709565,-0.15267175572519084,-0.015267175572519083,-0.183206106870229,-66.03786450715016,155.14571267005715,0.7557251908396947,-1.1755725190839694,0.3435114503816794,181.1326285594536,159.21754261894358,0.46564885496183206,1.5267175572519085,-0.3816793893129771,104.0,127.0,-10.0,-2.0,4.0,82.07,94.88,-9.0,14.0,-5.0,
5.742,-16.644679044965102,156.33291904181013,0.007633587786259542,-0.022900763358778626,0.0,222.34182464562826,14.526934788713952,-0.15267175572519084,-0.015267175572519083,-0.183206106870229,-66.38719389988968,155.23910363838232,0.7557251908396947,-1.1755725190839694,0.3435114503816794,181.23765363354036,160.45816304547955,0.46564885496183206,1.5267175572519085,-0.3816793893129771,105.0,127.0,-10.0,-1.0,6.0,82.62,94.6,-10.0,15.0,3.0,
5.781,-16.64870162584608,156.33542108551336,0.007633587786259542,-0.022900763358778626,0.0,222.47612618173864,14.221289937392346,-0.05343511450381679,-0.030534351145038167,0.05343511450381679,-66.68412388371827,155.3184859614587,0.7557251908396947,-1.1755725190839694,0.3435114503816794,181.3269249465141,161.51269040803513,0.46564885496183206,1.5267175572519085,-0.3816793893129771,105.0,127.0,-10.0,-1.0,6.0,83.51,94.28,-11.0,17.0,-2.0,
5.82,-16.65212081959491,156.3375478226611,0.007633587786259542,-0.022900763358778626,0.0,222.59028248743243,13.96149181376898,-0.05343511450381679,-0.030534351145038167,0.05343511450381679,-18.07824382239133,156.26387727898435,-0.07633587786259542,0.05343511450381679,-0.15267175572519084,181.4028055625418,162.40903866620735,0.46564885496183206,1.5267175572519085,-0.3816793893129771,105.0,127.0,-10.0,-1.0,6.0,84.51,94.11,-13.0,17.0,-3.0,
5.86,-16.655027134281415,156.33935554923667,0.007633587786259542,-0.022900763358778626,0.0,222.68731534727218,13.74066340868912,-0.05343511450381679,-0.030534351145038167,0.05343511450381679,23.163002328307307,157.10330980116882,-0.06870229007633588,0.022900763358778626,-0.13740458015267176,181.4673040861653,163.17093468565375,0.46564885496183206,1.5267175572519085,-0.3816793893129771,105.0,127.0,-10.0,-1.0,6.0,85.31,93.96,-13.0,21.0,0.0,
5.899,-16.657497501764944,156.34089211682593,0.007633587786259542,-0.022900763358778626,0.0,223.08425331573693,13.342348926845858,-0.06870229007633588,0.08396946564885496,0.061068702290076333,58.218061556401146,157.8168274450256,-0.06870229007633588,0.022900763358778626,-0.13740458015267176,181.5221278312453,163.8185463021832,0.46564885496183206,1.5267175572519085,-0.3816793893129771,105.0,127.0,-10.0,-1.0,6.0,86.04,93.7,-11.0,16.0,2.0,
5.938,-16.659597314125943,156.3421981992768,0.007633587786259542,-0.022900763358778626,0.0,223.42165058893193,13.003781617279085,-0.06870229007633588,0.08396946564885496,0.061068702290076333,87.84300114653429,158.48244332979354,0.0,0.015267175572519083,-0.10687022900763359,181.5687280145633,164.3690161762332,0.46564885496183206,1.5267175572519085,-0.3816793893129771,105.0,127.0,-10.0,-1.0,6.0,86.7,93.5,-11.0,14.0,-3.0,
5.977,-16.661382154632793,156.34330836936002,0.007633587786259542,-0.022900763358778626,0.0,223.7084382711477,12.715999404147327,-0.06870229007633588,0.08396946564885496,0.061068702290076333,113.02419979814746,159.04821683184628,0.0,0.015267175572519083,-0.10687022900763359,181.55597308137538,164.74262068830782,0.46564885496183206,1.5267175572519085,-0.3816793893129771,106.0,124.0,-8.0,-5.0,2.0,87.33,93.24,-10.0,15.0,0.0,
6.017,-16.662899269063615,156.34425201393077,0.007633587786259542,-0.022900763358778626,0.0,223.96619339570154,12.610722452231874,-0.015267175572519083,0.05343511450381679,0.030534351145038167,134.42821865201864,159.5291243085911,0.0,0.015267175572519083,-0.10687022900763359,181.54513138816566,165.06018452357125,0.46564885496183206,1.5267175572519085,-0.3816793893129771,106.0,124.0,-8.0,-5.0,2.0,87.87,93.09,-10.0,12.0,-1.0,
6.055,-16.664188816329816,156.3450541118159,0.007633587786259542,-0.022900763358778626,0.0,224.18528525157228,12.521237043103739,-0.015267175572519083,0.05343511450381679,0.030534351145038167,152.62163467780914,159.93789566382418,0.0,0.015267175572519083,-0.10687022900763359,181.53591594893737,165.33011378354516,0.46564885496183206,1.5267175572519085,-0.3816793893129771,106.0,124.0,-8.0,-5.0,0.0,88.33,92.84,-8.0,11.0,1.0,
6.094,-16.665284931506086,156.34573589501827,0.007633587786259542,-0.022900763358778626,0.0,224.37151332906242,12.445174445344824,-0.015267175572519083,0.05343511450381679,0.030534351145038167,168.78779665485672,160.26707291832753,0.05343511450381679,0.007633587786259542,0.0,181.52808282559334,165.559553654523,0.46564885496183206,1.5267175572519085,-0.3816793893129771,106.0,124.0,-8.0,-5.0,0.0,88.93,92.64,-8.0,10.0,-1.0,
6.133,-16.666216629405916,156.34631541074026,0.007633587786259542,-0.022900763358778626,0.0,224.52980719492905,12.380521237249745,-0.015267175572519083,0.05343511450381679,0.030534351145038167,182.28165839724713,160.57110944205414,0.06870229007633588,-0.0,-0.015267175572519083,181.52142467075092,165.75457754485416,0.46564885496183206,1.5267175572519085,-0.3816793893129771,106.0,124.0,-8.0,-5.0,0.0,89.42,92.5,-7.0,10.0,0.0,
6.172,-16.66700857262077,156.34680799910396,0.007633587786259542,-0.022900763358778626,0.0,224.66435698091567,12.325566010368929,-0.015267175572519083,0.05343511450381679,0.030534351145038167,193.75144087827897,160.82954048722175,0.06870229007633588,-0.0,-0.015267175572519083,181.43718962930964,165.6413534429756,0.46564885496183206,1.5267175572519085,-0.3816793893129771,106.0,123.0,-5.0,-5.0,0.0,89.92,92.32,-9.0,12.0,0.0,
6.211,-16.667681724353397,156.3472266992131,0.007633587786259542,-0.022900763358778626,0.0,224.9073429598617,12.229507527204122,-0.007633587786259542,0.06870229007633588,0.030534351145038167,203.50075598715605,161.04920687561423,0.06870229007633588,-0.0,-0.015267175572519083,181.36558984408455,165.54511295637883,0.46564885496183206,1.5267175572519085,-0.3816793893129771,106.0,123.0,-5.0,-5.0,0.0,90.23,92.16,-12.0,15.0,2.0,
6.249,-16.66825390332613,156.3475825943059,0.007633587786259542,-0.022900763358778626,0.0,225.1138810419658,12.147857816514035,-0.007633587786259542,0.06870229007633588,0.030534351145038167,210.7998934640593,161.17765069897732,0.04580152671755725,-0.0,0.08396946564885496,181.30473002664323,165.46330854277159,0.46564885496183206,1.5267175572519085,-0.3816793893129771,106.0,123.0,-5.0,-5.0,0.0,90.5,91.92,-12.0,14.0,-2.0,
6.288,-16.668740255452953,156.34788510513476,0.007633587786259542,-0.022900763358778626,0.0,225.2894384117543,12.078455562427461,-0.007633587786259542,0.06870229007633588,0.030534351145038167,217.00416031942706,161.28682794883593,0.04580152671755725,-0.0,0.08396946564885496,186.43967221296006,147.56943570823256,0.0,-0.0,0.022900763358778626,106.0,123.0,-5.0,-5.0,0.0,90.88,91.87,-7.0,11.0,0.0,
6.327,-16.669153654760752,156.3481422393393,0.007633587786259542,-0.022900763358778626,0.0,225.43866217607453,12.019463646453874,-0.007633587786259542,0.06870229007633588,0.030534351145038167,222.27778714648966,161.37962861121576,0.04580152671755725,-0.0,0.08396946564885496,195.70350998517853,132.3920784064081,0.007633587786259542,-0.0,0.007633587786259542,106.0,123.0,-5.0,-5.0,0.0,91.41,91.58,-8.0,10.0,2.0,
6.365,-16.669505044172382,156.34836080341316,0.007633587786259542,-0.022900763358778626,0.0,225.56550237574672,11.969320517876325,-0.007633587786259542,0.06870229007633588,0.030534351145038167,226.76036994949285,161.4585091742386,0.04580152671755725,-0.0,0.08396946564885496,204.08274119165569,119.38482628658593,0.007633587786259542,-0.0,0.007633587786259542,107.0,123.0,-6.0,-7.0,2.0,92.01,91.29,-10.0,11.0,1.0,
6.404,-16.669803725172265,156.34854658287594,0.007633587786259542,-0.022900763358778626,0.0,225.67331654546808,11.926698858585407,-0.007633587786259542,0.06870229007633588,0.030534351145038167,230.5705653320456,161.52555765280803,0.04580152671755725,-0.0,0.08396946564885496,211.86489352116456,108.11883378394994,0.007633587786259542,-0.0,0.007633587786259542,107.0,123.0,-8.0,-9.0,0.0,92.52,90.83,-11.0,13.0,3.0,
6.441,-16.670057604022166,156.3487044954193,0.007633587786259542,-0.022900763358778626,0.0,225.79911439669735,11.907432881778425,0.0,0.061068702290076333,0.03816793893129771,233.8092314072154,161.58254885959204,0.04580152671755725,-0.0,0.08396946564885496,218.4797230012471,98.54274015670934,0.007633587786259542,-0.0,0.007633587786259542,107.0,123.0,-8.0,-9.0,0.0,93.13,90.43,-12.0,10.0,-2.0,
6.479,-16.670273401044582,156.34883872108114,0.007633587786259542,-0.022900763358778626,0.0,225.90604257024222,11.89105680149249,0.0,0.061068702290076333,0.03816793893129771,237.37501931046842,161.7180367792205,0.007633587786259542,-0.015267175572519083,-0.007633587786259542,224.10232805931724,90.40306057355484,0.007633587786259542,-0.0,0.007633587786259542,107.0,123.0,-8.0,-9.0,0.0,93.54,90.15,-8.0,8.0,-1.0,
6.518,-16.670456828513636,156.3489528128937,0.007633587786259542,-0.022900763358778626,0.0,225.99693151775537,11.877137133249445,0.0,0.061068702290076333,0.03816793893129771,240.4059390282335,161.8332015109047,0.007633587786259542,-0.015267175572519083,-0.007633587786259542,229.1076577227515,83.38128148989585,0.007633587786259542,-0.0,0.007633587786259542,107.0,122.0,-9.0,-6.0,3.0,93.98,90.0,-7.0,7.0,0.0,
6.556,-16.67061274186233,156.3490497909344,0.007633587786259542,-0.022900763358778626,0.0,226.07418712314154,11.865305415242856,0.0,0.061068702290076333,0.03816793893129771,242.9822207883338,161.93109153283626,0.007633587786259542,-0.015267175572519083,-0.007633587786259542,189.21108928121282,77.76573525418895,0.03816793893129771,0.007633587786259542,0.0,107.0,122.0,-9.0,-6.0,3.0,94.46,89.77,-7.0,6.0,1.0,
6.594,-16.670745268208723,156.349132222269,0.007633587786259542,-0.022900763358778626,0.0,226.1398543877198,11.855248454937257,0.0,0.061068702290076333,0.03816793893129771,245.14957662926204,161.96743137401913,0.0,-0.022900763358778626,-0.030534351145038167,155.29900610590497,72.9925209538381,0.03816793893129771,0.007633587786259542,0.0,107.0,122.0,-9.0,-6.0,3.0,94.82,89.56,-7.0,7.0,0.0,
6.633,-16.670857915603158,156.3492022889034,0.007633587786259542,-0.022900763358778626,0.0,226.2969115885792,11.90461914567643,0.0,0.030534351145038167,0.030534351145038167,246.99182909405104,161.99832023902457,0.0,-0.022900763358778626,-0.030534351145038167,126.47373540689327,68.93528879853986,0.03816793893129771,0.007633587786259542,0.0,107.0,122.0,-9.0,-6.0,3.0,95.18,89.4,-7.0,6.0,0.0,
6.671,-16.670953665888426,156.34926184554263,0.007633587786259542,-0.022900763358778626,0.0,226.4304102093097,11.946584232804726,0.0,0.030534351145038167,0.030534351145038167,248.5577436891217,162.02457577427919,0.0,-0.022900763358778626,-0.030534351145038167,140.8007569928544,65.40127782126974,0.015267175572519083,-0.0,0.022900763358778626,107.0,122.0,-9.0,-6.0,3.0,95.53,89.27,-5.0,6.0,0.0,
6.71,-16.671035053630902,156.34931246868598,0.007633587786259542,-0.022900763358778626,0.0,226.54388403693065,11.98225455686378,0.0,0.030534351145038167,0.030534351145038167,249.88877109493177,162.04689297924563,0.0,-0.022900763358778626,-0.030534351145038167,151.32520694447044,62.625812084561865,0.015267175572519083,-0.0,0.022900763358778626,106.0,120.0,-6.0,-7.0,1.0,95.83,89.27,-6.0,5.0,0.0,
6.748,-16.67110423321201,156.34935549835782,0.007633587786259542,-0.022900763358778626,0.0,226.64033679040844,12.012574332313974,0.0,0.030534351145038167,0.030534351145038167,251.02014438987032,162.06586260346708,0.0,-0.022900763358778626,-0.030534351145038167,169.12642593365186,60.24700481943763,0.007633587786259542,-0.0,0.030534351145038167,106.0,120.0,-6.0,-7.0,1.0,96.12,89.17,-6.0,6.0,2.0,
6.786,-16.67116303585595,156.34939207357888,0.007633587786259542,-0.022900763358778626,0.0,226.72232163086457,12.03834614144664,0.0,0.030534351145038167,0.030534351145038167,251.9818116905681,162.08198678405535,0.0,-0.022900763358778626,-0.030534351145038167,138.70395189350663,58.111908752315074,0.015267175572519083,-0.0,0.015267175572519083,106.0,120.0,-6.0,-7.0,1.0,96.33,89.01,-6.0,6.0,0.0,
6.823,-16.671213018103302,156.34942316251679,0.007633587786259542,-0.022900763358778626,0.0,226.79200874525228,12.060252179209405,0.0,0.030534351145038167,0.030534351145038167,252.7992288961612,162.09569233755536,0.0,-0.022900763358778626,-0.030534351145038167,113.54016847421309,56.3955283603845,0.015267175572519083,-0.0,0.015267175572519083,106.0,120.0,-5.0,-7.0,0.0,96.63,88.9,-7.0,6.0,1.0,
6.862,-16.671255503013548,156.34944958811403,0.007633587786259542,-0.022900763358778626,0.0,226.85124279248183,12.078872311307755,0.0,0.030534351145038167,0.030534351145038167,253.49403352091534,162.10734205803038,0.0,-0.022900763358778626,-0.030534351145038167,92.15095256781359,54.93660502724352,0.015267175572519083,-0.0,0.015267175572519083,107.0,119.0,-5.0,-8.0,0.0,96.9,88.82,-6.0,6.0,0.0,
6.9,-16.671291615187258,156.34947204987168,0.007633587786259542,-0.022900763358778626,0.0,226.90159173262694,12.094699423591353,0.0,0.030534351145038167,0.030534351145038167,254.21443140415522,162.20855048843012,-0.007633587786259542,-0.0,0.0,73.97011904737401,53.696520194073685,0.015267175572519083,-0.0,0.015267175572519083,107.0,119.0,-5.0,-8.0,0.0,97.12,88.67,-7.0,5.0,0.0,
6.938,-16.67132231053491,156.34949114236568,0.007633587786259542,-0.022900763358778626,0.0,226.9443883317503,12.108152469032412,0.0,0.030534351145038167,0.030534351145038167,254.82676960490912,162.29457765426992,-0.007633587786259542,-0.0,0.0,51.07102614696128,52.75381401218095,0.022900763358778626,-0.007633587786259542,0.007633587786259542,107.0,119.0,-5.0,-8.0,0.0,97.36,88.61,-6.0,4.0,0.0,
6.976,-16.671348401580417,156.34950737098558,0.007633587786259542,-0.022900763358778626,0.0,226.98076544100516,12.119587557657312,0.0,0.030534351145038167,0.030534351145038167,255.34725707554995,162.36770074523375,-0.007633587786259542,-0.0,0.0,77.16037224805609,51.98164910891092,0.022900763358778626,-0.0,0.015267175572519083,107.0,119.0,-5.0,-8.0,0.0,97.56,88.5,-6.0,4.0,0.0,
7.015,-16.671370578969096,156.3495211653125,0.007633587786259542,-0.022900763358778626,0.0,227.01168598387179,12.129307382988475,0.0,0.030534351145038167,0.030534351145038167,255.7704695444214,162.41033859469326,0.0,-0.007633587786259542,-0.007633587786259542,99.33631643398667,51.3253089411314,0.022900763358778626,-0.0,0.015267175572519083,107.0,119.0,-5.0,-8.0,0.0,97.85,88.44,-6.0,4.0,0.0,
7.053,-16.671389429749475,156.34953289049037,0.007633587786259542,-0.022900763358778626,0.0,227.03796844530842,12.137569234519965,0.0,0.030534351145038167,0.030534351145038167,256.1302001429621,162.44658076673386,0.0,-0.007633587786259542,-0.007633587786259542,118.18586899202766,50.767419798518794,0.022900763358778626,-0.0,0.015267175572519083,106.0,119.0,-5.0,-7.0,2.0,98.06,88.44,-5.0,3.0,0.0,
7.091,-16.671405452912794,156.34954285689156,0.007633587786259542,-0.022900763358778626,0.0,227.06030853752955,12.144591808321731,0.0,0.030534351145038167,0.030534351145038167,256.43597115172173,162.47738661296836,0.0,-0.007633587786259542,-0.007633587786259542,140.95798867407552,50.29969962662008,0.007633587786259542,-0.0,0.015267175572519083,106.0,119.0,-5.0,-7.0,2.0,98.18,88.28,-6.0,4.0,0.0,
7.129,-16.671419072601616,156.34955132833258,0.007633587786259542,-0.022900763358778626,0.0,227.11549012258138,12.17541185339568,-0.007633587786259542,0.007633587786259542,0.0,256.6958765091674,162.50357158226768,0.0,-0.007633587786259542,-0.007633587786259542,160.3142904038162,49.902137480506184,0.007633587786259542,-0.0,0.015267175572519083,106.0,119.0,-5.0,-7.0,2.0,98.36,88.21,-6.0,3.0,-1.0,
7.166,-16.671430649337115,156.34955852905745,0.007633587786259542,-0.022900763358778626,0.0,227.16239446987544,12.201608891708538,-0.007633587786259542,0.007633587786259542,0.0,256.91679606299624,162.52582880617211,0.0,-0.007633587786259542,-0.007633587786259542,176.76714687409574,49.557594285995,0.007633587786259542,-0.0,0.015267175572519083,106.0,119.0,-5.0,-7.0,2.0,98.5,88.1,-6.0,3.0,1.0,
7.205,-16.67144048956229,156.34956464967357,0.007633587786259542,-0.022900763358778626,0.0,227.2022631650754,12.223876374274468,-0.007633587786259542,0.007633587786259542,0.0,257.10457768375073,162.54474744649087,0.0,-0.007633587786259542,-0.007633587786259542,190.75207487383338,49.2647325706605,0.007633587786259542,-0.0,0.015267175572519083,106.0,119.0,-5.0,-6.0,0.0,98.67,88.04,-5.0,2.0,0.0,
7.243,-16.671448853753688,156.34956985219728,0.007633587786259542,-0.022900763358778626,0.0,227.19068030534376,12.279951235647236,-0.007633587786259542,0.015267175572519083,0.015267175572519083,257.26419206139207,162.56082829076183,0.0,-0.007633587786259542,-0.007633587786259542,202.63926367361037,49.015800112626174,0.007633587786259542,-0.0,0.015267175572519083,106.0,119.0,-5.0,-6.0,0.0,98.79,87.93,-5.0,2.0,1.0,
7.281,-16.671455963316376,156.34957427434244,0.007633587786259542,-0.022900763358778626,0.0,227.18083487457187,12.327614867814088,-0.007633587786259542,0.015267175572519083,0.015267175572519083,257.3998642823872,162.57449700839214,0.0,-0.007633587786259542,-0.007633587786259542,212.7433741534208,48.875759806052606,0.007633587786259542,-0.0,0.015267175572519083,106.0,118.0,-4.0,-5.0,0.0,98.94,87.81,-5.0,2.0,0.0,
7.32,-16.67146200644466,156.3495780331658,0.007633587786259542,-0.022900763358778626,0.0,227.21747140451316,12.415173364390062,-0.007633587786259542,0.015267175572519083,0.015267175572519083,257.5151856702331,162.58611541837791,0.0,-0.007633587786259542,-0.007633587786259542,221.33186806125968,48.75672554546507,0.007633587786259542,-0.0,0.015267175572519083,106.0,118.0,-4.0,-5.0,0.0,99.09,87.73,-6.0,1.0,0.0,
7.358,-16.6714671431037,156.34958122816568,0.007633587786259542,-0.022900763358778626,0.0,227.24861245496325,12.48959808647964,-0.007633587786259542,0.015267175572519083,0.015267175572519083,257.60278356414807,162.624483257557,-0.007633587786259542,-0.0,-0.007633587786259542,228.63208788292272,48.65554642396567,0.007633587786259542,-0.0,0.015267175572519083,106.0,118.0,-4.0,-5.0,0.0,99.14,87.63,-4.0,1.0,2.0,
7.396,-16.67147150926389,156.34958394391558,0.007633587786259542,-0.022900763358778626,0.0,227.27508234784582,12.552859100255782,-0.007633587786259542,0.015267175572519083,0.015267175572519083,257.67724177397577,162.6570959208592,-0.007633587786259542,-0.0,-0.007633587786259542,234.8372747313363,48.569544170691174,0.007633587786259542,-0.0,0.015267175572519083,106.0,118.0,-4.0,-7.0,0.0,99.17,87.62,-6.0,2.0,0.0,
7.434,-16.671475220500046,156.349586252303,0.007633587786259542,-0.022900763358778626,0.0,227.29758175679603,12.606630961965502,-0.007633587786259542,0.015267175572519083,0.015267175572519083,257.6848091850136,162.65302428260884,0.0,-0.0,-0.015267175572519083,240.11168355248785,48.49644225540786,0.007633587786259542,-0.0,0.015267175572519083,106.0,118.0,-4.0,-7.0,0.0,99.24,87.5,-5.0,1.0,0.0,
7.473,-16.671478375050782,156.3495882144323,0.007633587786259542,-0.022900763358778626,0.0,227.35310500516758,12.64932586497406,-0.007633587786259542,0.015267175572519083,0.007633587786259542,257.69124148439573,162.64956339009603,0.0,-0.0,-0.015267175572519083,244.59493105046667,48.43430562741704,0.007633587786259542,-0.0,0.015267175572519083,106.0,118.0,-4.0,-7.0,0.0,99.26,87.45,-4.0,0.0,0.0,
7.511,-16.671481056418905,156.34958988224219,0.007633587786259542,-0.022900763358778626,0.0,227.40029976628338,12.685616532531332,-0.007633587786259542,0.015267175572519083,0.007633587786259542,257.69670893887053,162.64662163146016,0.0,-0.0,-0.015267175572519083,248.40569142374866,48.45324464195773,0.007633587786259542,-0.0,0.015267175572519083,106.0,118.0,-3.0,-6.0,0.0,99.38,87.49,-5.0,0.0,-1.0,
7.548,-16.67148333558181,156.34959129988061,0.007633587786259542,-0.022900763358778626,0.0,227.44041531323182,12.716463599955015,-0.007633587786259542,0.015267175572519083,0.007633587786259542,257.77804197375497,162.67070647280528,0.0,-0.0,0.0,251.64483774103834,48.46934280431732,0.007633587786259542,-0.0,0.015267175572519083,106.0,118.0,-3.0,-6.0,0.0,99.4,87.37,-3.0,0.0,0.0,
7.587,-16.67148527287028,156.34959250487327,0.007633587786259542,-0.022900763358778626,0.0,227.43752044713784,12.63402004446898,-0.007633587786259542,0.007633587786259542,0.0,257.8471750534068,162.69117858794863,0.0,-0.0,0.0,254.3981121107346,48.48302624232297,0.007633587786259542,-0.0,0.015267175572519083,106.0,118.0,-3.0,-6.0,0.0,99.41,87.31,-3.0,-1.0,-2.0,
7.625,-16.67148691956548,156.34959352911702,0.007633587786259542,-0.022900763358778626,0.0,227.4350598109579,12.56394302230585,-0.007633587786259542,0.007633587786259542,0.0,257.9059381711108,162.70857988582048,0.0,-0.0,0.0,256.7383953249764,48.494657164627775,0.007633587786259542,-0.0,0.015267175572519083,106.0,118.0,-3.0,-6.0,-1.0,99.4,87.29,-2.0,-1.0,0.0,
7.663,-16.6714883192564,156.3495943997242,0.007633587786259542,-0.022900763358778626,0.0,227.44608589293534,12.604897599538951,-0.007633587786259542,0.015267175572519083,0.007633587786259542,257.9558868211592,162.72337098901156,0.0,-0.0,0.0,258.7276360570819,48.50454344858686,0.007633587786259542,-0.0,0.015267175572519083,106.0,118.0,-3.0,-6.0,-1.0,99.39,87.37,-2.0,-1.0,0.0,
7.702,-16.671489508993684,156.3495951397403,0.007633587786259542,-0.022900763358778626,0.0,227.45545806261617,12.639708990187088,-0.007633587786259542,0.015267175572519083,0.007633587786259542,257.99834317370033,162.73594342672396,0.0,-0.0,0.0,260.4184906793716,48.65686519741262,0.007633587786259542,-0.0,0.015267175572519083,106.0,118.0,-1.0,-7.0,0.0,99.28,87.41,-3.0,0.0,-1.0,
7.74,-16.671490520270375,156.349595768754,0.007633587786259542,-0.022900763358778626,0.0,227.46342440684487,12.669298672238005,-0.007633587786259542,0.015267175572519083,0.007633587786259542,258.0344310733603,162.7466299987795,0.0,-0.0,0.0,261.85571710831783,48.78633868391452,0.007633587786259542,-0.0,0.015267175572519083,106.0,118.0,-1.0,-7.0,-1.0,99.2,87.45,-2.0,-1.0,-1.0,
7.778,-16.67149137985556,156.34959630341564,0.007633587786259542,-0.022900763358778626,0.0,227.51486970290912,12.630019296386905,-0.007633587786259542,0.007633587786259542,0.007633587786259542,258.06510578807126,162.7557135850267,0.0,-0.0,0.0,263.07735957292215,48.896391147441136,0.007633587786259542,-0.0,0.015267175572519083,106.0,118.0,-1.0,-7.0,-1.0,99.14,87.48,-2.0,-1.0,-1.0,
7.817,-16.671492110502967,156.34959675787803,0.007633587786259542,-0.022900763358778626,0.0,227.55859820456376,12.59663182691347,-0.007633587786259542,0.007633587786259542,0.007633587786259542,258.0911792955756,162.76343463333686,0.0,-0.0,0.0,264.1157556678358,48.989935741438764,0.007633587786259542,-0.0,0.015267175572519083,106.0,118.0,-1.0,-6.0,-1.0,99.13,87.62,-2.0,-1.0,-1.0,
7.855,-16.671492731553265,156.34959714417107,0.007633587786259542,-0.022900763358778626,0.0,227.5957674309702,12.56825247786105,-0.007633587786259542,0.007633587786259542,0.007633587786259542,258.1133417769543,162.76999752440048,0.0,-0.0,0.0,264.9983923485124,49.06655852567635,0.0,-0.0,0.022900763358778626,106.0,118.0,-1.0,-6.0,-1.0,99.02,87.63,-2.0,0.0,0.0,
7.894,-16.671493259446017,156.34959747252014,0.007633587786259542,-0.022900763358778626,0.0,227.62736127341566,12.544130031166493,-0.007633587786259542,0.007633587786259542,0.007633587786259542,258.1321798861262,162.77557598180454,0.0,-0.0,0.0,265.7486335270876,49.1316878922783,0.0,-0.0,0.022900763358778626,106.0,118.0,-1.0,-6.0,-1.0,98.96,87.66,-2.0,-1.0,-1.0,
7.931,-16.671493708154856,156.34959775161687,0.007633587786259542,-0.022900763358778626,0.0,227.65421603949432,12.523625951476118,-0.007633587786259542,0.007633587786259542,0.007633587786259542,258.1481922789223,162.78031767059798,0.0,-0.0,0.0,266.3863385288764,49.18704785388996,0.0,-0.0,0.022900763358778626,106.0,118.0,-1.0,-6.0,-1.0,98.92,87.74,-3.0,-1.0,-1.0,
7.969,-16.67149408955737,156.3495979888491,0.007633587786259542,-0.022900763358778626,0.0,227.63933810121438,12.539489969452704,-0.007633587786259542,-0.0,0.0,258.16180281279895,162.78434810607243,0.0,-0.0,0.0,266.928387780397,49.234103821259865,0.0,-0.0,0.022900763358778626,106.0,118.0,-1.0,-6.0,-1.0,98.88,87.81,-2.0,-1.0,0.0,
8.008,-16.671494413749507,156.34959819049647,0.007633587786259542,-0.022900763358778626,0.0,227.6266918536764,12.552974384732803,-0.007633587786259542,-0.0,0.0,258.17337176659413,162.7877739762257,0.0,-0.0,0.0,225.19263972486988,49.26772989211328,0.0,-0.0,0.015267175572519083,106.0,118.0,-1.0,-6.0,-1.0,98.82,87.93,-2.0,-1.0,-1.0,
8.046,-16.671494689312823,156.34959836189674,0.007633587786259542,-0.022900763358778626,0.0,227.5958555065157,12.521556392039903,-0.007633587786259542,0.007633587786259542,0.007633587786259542,258.18320537732,162.790685965856,0.0,-0.0,0.0,189.71725387767185,49.29631205233868,0.0,-0.0,0.015267175572519083,106.0,118.0,-1.0,-6.0,-1.0,98.79,87.99,-2.0,-1.0,0.0,
8.084,-16.67149492354164,156.34959850758696,0.007633587786259542,-0.022900763358778626,0.0,227.5696446114291,12.494851098250939,-0.007633587786259542,0.007633587786259542,0.007633587786259542,258.19156394643704,162.79316115704174,0.0,-0.0,0.0,154.50966577288207,49.340327099539486,0.007633587786259542,-0.0,0.007633587786259542,106.0,118.0,-1.0,-6.0,-1.0,98.71,87.99,-3.0,0.0,-1.0,
8.123000000000001,-16.671495122636138,156.34959863142367,0.007633587786259542,-0.022900763358778626,0.0,227.5473653506055,12.472151598530319,-0.007633587786259542,0.007633587786259542,0.007633587786259542,258.1986687301865,162.79526506954963,0.0,-0.0,0.0,124.58321588381077,49.37773988966018,0.007633587786259542,-0.0,0.007633587786259542,106.0,118.0,-1.0,-6.0,0.0,98.63,88.04,-3.0,0.0,-1.0,
8.161,-16.67149529186646,156.34959873668487,0.007633587786259542,-0.022900763358778626,0.0,227.52842797890543,12.452857023767791,-0.007633587786259542,0.007633587786259542,0.007633587786259542,258.20470779637355,162.79705339518134,0.0,-0.0,0.0,139.64573352437816,49.40035145325672,0.0,-0.0,0.015267175572519083,106.0,118.0,-1.0,-6.0,0.0,98.52,88.09,-2.0,0.0,0.0,
8.199,-16.671495435712234,156.3495988261569,0.007633587786259542,-0.022900763358778626,0.0,227.51233121296036,12.436456635219642,-0.007633587786259542,0.007633587786259542,0.007633587786259542,258.20118110200633,162.80221413332532,-0.007633587786259542,-0.0,0.0,152.4488735188604,49.41957128231378,0.0,-0.0,0.015267175572519083,106.0,118.0,-1.0,-6.0,0.0,98.45,88.08,-4.0,0.0,-1.0,
8.238,-16.671495557981142,156.3495989022081,0.007633587786259542,-0.022900763358778626,0.0,227.49864896190707,12.422516304953716,-0.007633587786259542,0.007633587786259542,0.007633587786259542,258.19818341179416,162.8066007607477,-0.007633587786259542,-0.0,0.0,163.33154251417034,49.43590813701228,0.0,-0.0,0.015267175572519083,106.0,118.0,-1.0,-6.0,0.0,98.37,88.18,-4.0,0.0,0.0,
8.275,-16.671495661909713,156.34959896685163,0.007633587786259542,-0.022900763358778626,0.0,227.4815470074446,12.38507232404008,-0.007633587786259542,0.007633587786259542,0.007633587786259542,258.1956353751138,162.8103293940567,-0.007633587786259542,-0.0,0.0,172.58181116018378,49.449794463505995,0.0,-0.0,0.015267175572519083,106.0,118.0,-1.0,-6.0,0.0,98.33,88.23,-4.0,0.0,-1.0,
8.314,-16.671495750248997,156.34959902179864,0.007633587786259542,-0.022900763358778626,0.0,227.46701034615148,12.353244940263489,-0.007633587786259542,0.007633587786259542,0.007633587786259542,258.1934695439355,162.81349873236937,-0.007633587786259542,-0.0,0.0,184.42929719041015,49.320336612224246,0.0,-0.0,0.015267175572519083,106.0,118.0,-3.0,-6.0,0.0,98.3,88.22,-3.0,0.0,-1.0,
8.352,-16.671495825337388,156.34959906850358,0.007633587786259542,-0.022900763358778626,0.0,227.45465418405234,12.326191664053388,-0.007633587786259542,0.007633587786259542,0.007633587786259542,258.19162858743397,162.81619266993513,-0.007633587786259542,-0.0,0.0,193.28014496158568,49.280879686928934,0.0,-0.0,0.015267175572519083,106.0,118.0,-2.0,-7.0,0.0,98.26,88.32,-4.0,0.0,-1.0,
8.39,-16.67149588916252,156.3495991082028,0.007633587786259542,-0.022900763358778626,0.0,227.44415144626805,12.303196379274802,-0.007633587786259542,0.007633587786259542,0.007633587786259542,258.19006377440763,162.81848251686606,-0.007633587786259542,-0.0,0.0,202.02288092160177,49.17675905213375,0.0,-0.0,0.015267175572519083,107.0,118.0,-3.0,-6.0,0.0,98.22,88.35,-4.0,0.0,0.0,
8.428,-16.671495943413884,156.34959914194712,0.007633587786259542,-0.022900763358778626,0.0,227.43522411915143,12.283650387213003,-0.007633587786259542,0.007633587786259542,0.007633587786259542,258.1887336833353,162.82042888675733,-0.007633587786259542,-0.0,0.0,168.63604198147468,49.07146626735845,0.015267175572519083,-0.0,0.007633587786259542,107.0,118.0,-3.0,-6.0,0.0,98.22,88.31,-3.0,0.0,0.0,
8.467,-16.671495989527543,156.3495991706298,0.007633587786259542,-0.022900763358778626,0.0,227.42763589110228,12.267036293960475,-0.007633587786259542,0.007633587786259542,0.007633587786259542,258.18760310592376,162.8220833011649,-0.007633587786259542,-0.0,0.0,183.84063571510546,49.03737194435948,0.015267175572519083,-0.0,0.015267175572519083,107.0,118.0,-3.0,-6.0,0.0,98.0,88.43,-5.0,0.0,1.0,
8.505,-16.671496028724153,156.3495991950101,0.007633587786259542,-0.022900763358778626,0.0,227.4206647905021,12.390060735784754,-0.007633587786259542,0.007633587786259542,0.015267175572519083,258.18664211512396,162.82348955341135,-0.007633587786259542,-0.0,0.0,196.76454038869164,49.008391769810345,0.015267175572519083,-0.0,0.015267175572519083,107.0,118.0,-3.0,-6.0,0.0,98.26,88.68,-2.0,-2.0,3.0,
8.543,-16.67149606204127,156.34959921573332,0.007633587786259542,-0.022900763358778626,0.0,227.41473935499192,12.494631511335392,-0.007633587786259542,0.007633587786259542,0.015267175572519083,258.18582527294416,162.82468486782082,-0.007633587786259542,-0.0,0.0,162.60529582984367,48.95276551600365,0.007633587786259542,-0.0,0.015267175572519083,107.0,118.0,-3.0,-6.0,0.0,98.42,88.77,-6.0,2.0,-1.0,
8.582,-16.671496090360822,156.34959923334807,0.007633587786259542,-0.022900763358778626,0.0,227.4097027348083,12.583516670553433,-0.007633587786259542,0.007633587786259542,0.015267175572519083,258.1851309570913,162.82570088506887,-0.007633587786259542,-0.0,0.0,133.5699379548229,48.905483200267966,0.007633587786259542,-0.0,0.015267175572519083,106.0,118.0,-3.0,-6.0,0.0,98.09,88.73,-5.0,0.0,8.0,
8.62,-16.67149611443244,156.3495992483206,0.007633587786259542,-0.022900763358778626,0.0,227.40542160765222,12.659069055888768,-0.007633587786259542,0.007633587786259542,0.015267175572519083,258.3020582180329,162.8881914225742,0.0,-0.0,-0.007633587786259542,108.88988376105524,48.86529323189263,0.007633587786259542,-0.0,0.015267175572519083,106.0,118.0,-3.0,-6.0,0.0,98.18,88.62,-7.0,-6.0,7.0,
8.658,-16.671496134893317,156.34959926104725,0.007633587786259542,-0.022900763358778626,0.0,227.42792771964474,12.739094958339674,-0.007633587786259542,0.007633587786259542,0.007633587786259542,258.40144638983327,162.94130837945374,0.0,-0.0,-0.007633587786259542,87.91183769635273,48.831131758773594,0.007633587786259542,-0.0,0.015267175572519083,106.0,118.0,-3.0,-6.0,0.0,98.13,88.31,-6.0,1.0,6.0,
8.696,-16.671496152285062,156.34959927186492,0.007633587786259542,-0.022900763358778626,0.0,227.4470579148384,12.807116975422943,-0.007633587786259542,0.007633587786259542,0.007633587786259542,258.4859263358636,162.98645779280136,0.0,-0.0,-0.007633587786259542,115.22506207275181,48.76304535463243,0.007633587786259542,-0.0,0.022900763358778626,106.0,118.0,-3.0,-6.0,0.0,97.79,88.19,-4.0,2.0,-4.0,
8.734,-16.671496167068046,156.34959928105994,0.007633587786259542,-0.022900763358778626,0.0,227.46331858075303,12.864935689943724,-0.007633587786259542,0.007633587786259542,0.007633587786259542,258.36730657731675,162.91665387226192,-0.007633587786259542,-0.0,0.0,138.44130279269103,48.705171911112444,0.007633587786259542,-0.0,0.022900763358778626,106.0,118.0,-3.0,-6.0,0.0,97.81,88.24,-3.0,-1.0,0.0,
8.773,-16.671496179633582,156.34959928887568,0.007633587786259542,-0.022900763358778626,0.0,227.4771401467804,12.914081597286387,-0.007633587786259542,0.007633587786259542,0.007633587786259542,258.2664797825519,162.8573205398034,-0.007633587786259542,-0.0,0.0,158.17510740463936,48.73701778644613,0.007633587786259542,-0.0,0.022900763358778626,106.0,118.0,-2.0,-8.0,0.0,98.07,88.54,-1.0,0.0,0.0,
8.811,-16.671496190314286,156.34959929551908,0.007633587786259542,-0.022900763358778626,0.0,227.48888847790369,12.95585561852765,-0.007633587786259542,0.007633587786259542,0.007633587786259542,258.18077700700184,162.80688720721366,-0.007633587786259542,-0.0,0.0,166.50235144404087,48.80903726207444,0.007633587786259542,-0.0,0.015267175572519083,106.0,118.0,-2.0,-8.0,0.0,98.14,88.65,-6.0,-4.0,4.0,
8.849,-16.671496199392884,156.34959930116597,0.007633587786259542,-0.022900763358778626,0.0,227.4988745593585,12.991363536582725,-0.007633587786259542,0.007633587786259542,0.007633587786259542,258.1862587505865,162.82124148343217,0.0,-0.0,-0.007633587786259542,173.58050887753217,48.8702538163585,0.007633587786259542,-0.0,0.015267175572519083,106.0,118.0,-2.0,-8.0,0.0,98.06,88.83,-6.0,0.0,3.0,
8.888,-16.671496207109694,156.34959930596582,0.007633587786259542,-0.022900763358778626,0.0,227.50736272859507,13.021545266929536,-0.007633587786259542,0.007633587786259542,0.007633587786259542,258.1909182326334,162.8334426182179,0.0,-0.0,-0.007633587786259542,177.30867488792637,48.981020356038954,0.007633587786259542,-0.0,0.015267175572519083,106.0,118.0,-1.0,-7.0,0.0,97.63,88.83,-3.0,1.0,-1.0,
8.926,-16.67149621366898,156.3495993100457,0.007633587786259542,-0.022900763358778626,0.0,227.5145776724462,13.047199737724327,-0.007633587786259542,0.007633587786259542,0.007633587786259542,258.2382336616127,162.86753067473,0.0,-0.0,-0.015267175572519083,180.47761599676144,49.07517191476734,0.007633587786259542,-0.0,0.015267175572519083,106.0,118.0,-1.0,-7.0,0.0,97.43,88.71,-1.0,-2.0,-2.0,
8.964,-16.671496219244375,156.3495993135136,0.007633587786259542,-0.022900763358778626,0.0,227.55056911234223,13.008069025180216,-0.007633587786259542,0.007633587786259542,0.007633587786259542,258.2784517762451,162.8965055227653,0.0,-0.0,-0.015267175572519083,183.17121593927126,49.155200739686464,0.007633587786259542,-0.0,0.015267175572519083,106.0,118.0,-1.0,-7.0,0.0,97.46,88.71,-4.0,2.0,-1.0,
9.003,-16.67149622398346,156.3495993164613,0.007633587786259542,-0.022900763358778626,0.0,227.58116183625387,12.974807919517723,-0.007633587786259542,0.007633587786259542,0.007633587786259542,258.3126371736827,162.92113414359528,0.0,-0.0,-0.015267175572519083,187.74904369847803,49.164492772328714,0.007633587786259542,-0.0,0.015267175572519083,106.0,119.0,-2.0,-7.0,0.0,97.57,88.7,-5.0,1.0,0.0,
9.04,-16.671496228011684,156.34959931896685,0.007633587786259542,-0.022900763358778626,0.0,227.60716565157875,12.946535979704603,-0.007633587786259542,0.007633587786259542,0.007633587786259542,258.3416947615046,162.9420684713008,0.0,-0.0,-0.015267175572519083,191.64019729380374,49.17239100007464,0.007633587786259542,-0.0,0.015267175572519083,106.0,119.0,-2.0,-6.0,0.0,97.73,88.75,-5.0,0.0,5.0,
9.078,-16.671496231435672,156.34959932109658,0.007633587786259542,-0.022900763358778626,0.0,227.6292688946049,12.922504830863451,-0.007633587786259542,0.007633587786259542,0.007633587786259542,258.3663937111532,162.95986264985046,0.0,-0.0,-0.015267175572519083,203.39416773058517,49.167164802494774,0.007633587786259542,-0.0,0.015267175572519083,106.0,119.0,-2.0,-6.0,0.0,97.72,88.68,-5.0,0.0,0.0,
9.117,-16.671496234346062,156.34959932290684,0.007633587786259542,-0.022900763358778626,0.0,227.64805665117714,12.902078354348472,-0.007633587786259542,0.007633587786259542,0.007633587786259542,258.3873878183545,162.9749877016177,0.0,-0.0,-0.015267175572519083,213.3850426018494,49.098099105461145,0.007633587786259542,-0.0,0.015267175572519083,106.0,119.0,-3.0,-7.0,0.0,97.71,88.55,-5.0,-1.0,1.0,
9.155,-16.671496236819895,156.34959932444556,0.007633587786259542,-0.022900763358778626,0.0,227.66402624426354,12.884715849310739,-0.007633587786259542,0.007633587786259542,0.007633587786259542,258.3564591206901,162.9424128000985,0.0,-0.0,-0.007633587786259542,221.87728624242396,49.039393262982564,0.007633587786259542,-0.0,0.015267175572519083,106.0,119.0,-3.0,-7.0,0.0,97.51,88.55,-6.0,1.0,1.0,
9.193,-16.671496238922654,156.34959932575347,0.007633587786259542,-0.022900763358778626,0.0,227.6411917067641,12.867575579550289,-0.007633587786259542,0.007633587786259542,0.007633587786259542,258.33016972767535,162.91472413380723,0.0,-0.0,-0.007633587786259542,229.09569333691235,48.98949329687577,0.007633587786259542,-0.0,0.015267175572519083,106.0,119.0,-3.0,-7.0,0.0,97.5,88.58,-6.0,1.0,2.0,
9.231,-16.67149624071,156.3495993268652,0.007633587786259542,-0.022900763358778626,0.0,227.62178234988957,12.853006350253906,-0.007633587786259542,0.007633587786259542,0.007633587786259542,258.30782374361286,162.89118876745962,0.0,-0.0,-0.007633587786259542,227.2618240049976,48.93663692851308,0.0,-0.0,0.007633587786259542,106.0,119.0,-3.0,-7.0,0.0,97.49,88.58,-5.0,2.0,0.0,
9.27,-16.671496242229242,156.34959932781015,0.007633587786259542,-0.022900763358778626,0.0,227.6052843965462,12.84062250535198,-0.007633587786259542,0.007633587786259542,0.007633587786259542,258.2888296571597,162.87118370606416,0.0,-0.0,-0.007633587786259542,225.70303507287008,48.89170901540479,0.0,-0.0,0.007633587786259542,106.0,119.0,-3.0,-6.0,-1.0,97.55,88.63,-5.0,2.0,0.0,
9.308,-16.671496243520597,156.34959932861338,0.007633587786259542,-0.022900763358778626,0.0,227.59126113620437,12.830096237185344,-0.007633587786259542,0.007633587786259542,0.007633587786259542,258.27268468367447,162.85417940387802,0.0,-0.0,-0.007633587786259542,229.58233751619352,48.829108850642655,0.007633587786259542,-0.0,0.022900763358778626,106.0,119.0,-3.0,-6.0,-1.0,97.54,88.59,-6.0,3.0,-1.0,
9.347,-16.67149624461825,156.34959932929613,0.007633587786259542,-0.022900763358778626,0.0,227.5793413649138,12.821148909243703,-0.007633587786259542,0.007633587786259542,0.007633587786259542,258.2589614562121,162.8397257470198,0.0,-0.0,-0.007633587786259542,189.61450222014238,48.8074116591833,0.007633587786259542,-0.0,0.007633587786259542,106.0,119.0,-3.0,-6.0,-1.0,97.61,88.51,-5.0,2.0,1.0,
9.384,-16.671496245551253,156.34959932987644,0.007633587786259542,-0.022900763358778626,0.0,227.56920955931682,12.813543680493309,-0.007633587786259542,0.007633587786259542,0.007633587786259542,258.23681856065036,162.83747764543008,0.0,-0.0,-0.007633587786259542,155.6418422184989,48.78896904644285,0.007633587786259542,-0.0,0.007633587786259542,106.0,119.0,-3.0,-6.0,-1.0,97.58,88.48,-6.0,3.0,0.0,
9.422,-16.671496246344308,156.34959933036973,0.007633587786259542,-0.022900763358778626,0.0,227.56603077900792,12.800654334016633,-0.007633587786259542,0.007633587786259542,0.0,258.2179970994229,162.83556675907883,0.0,-0.0,-0.007633587786259542,126.76508121710197,48.77329282561347,0.007633587786259542,-0.0,0.007633587786259542,106.0,119.0,-3.0,-6.0,-1.0,97.64,88.48,-5.0,1.0,0.0,
9.461,-16.671496247018403,156.349599330789,0.007633587786259542,-0.022900763358778626,0.0,227.56332881574536,12.789698389511457,-0.007633587786259542,0.007633587786259542,0.0,258.2019988573796,162.83394250568026,0.0,-0.0,-0.007633587786259542,101.00031901139768,48.69435136484192,0.007633587786259542,-0.0,0.007633587786259542,106.0,119.0,-4.0,-6.0,0.0,97.88,88.41,-5.0,2.0,0.0,
9.499,-16.671496247591385,156.3495993311454,0.007633587786259542,-0.022900763358778626,0.0,227.5610321469722,12.780385836682058,-0.007633587786259542,0.007633587786259542,0.0,258.1884003516427,162.83256189029146,0.0,-0.0,-0.007633587786259542,79.10027113654903,48.62725112318611,0.007633587786259542,-0.0,0.007633587786259542,106.0,119.0,-4.0,-6.0,1.0,97.97,88.35,-3.0,1.0,0.0,
9.538,-16.67149624807842,156.34959933144836,0.007633587786259542,-0.022900763358778626,0.0,227.559079978515,12.772470166777069,-0.007633587786259542,0.007633587786259542,0.0,258.28414712676,162.8661868150694,0.0,-0.015267175572519083,-0.015267175572519083,60.485230442927666,48.57021591777867,0.007633587786259542,-0.0,0.007633587786259542,106.0,119.0,-4.0,-6.0,1.0,98.02,88.28,-4.0,2.0,-3.0,
9.576,-16.6714962484924,156.34959933170586,0.007633587786259542,-0.022900763358778626,0.0,227.5677758931269,12.78393017932519,0.0,0.022900763358778626,0.0,258.36553188560964,162.89476800113064,0.0,-0.015267175572519083,-0.015267175572519083,44.66244585334951,48.52173599318235,0.007633587786259542,-0.0,0.007633587786259542,106.0,119.0,-4.0,-6.0,1.0,98.01,88.14,-4.0,3.0,1.0,
9.614,-16.67149624884428,156.34959933192474,0.007633587786259542,-0.022900763358778626,0.0,227.57516742054702,12.793671189991091,0.0,0.022900763358778626,0.0,258.43470893063187,162.9190620092827,0.0,-0.015267175572519083,-0.015267175572519083,78.46320877719145,48.51576792646682,0.007633587786259542,0.015267175572519083,0.0,106.0,119.0,-4.0,-6.0,1.0,98.03,88.21,-3.0,5.0,-2.0,
9.653,-16.67149624914338,156.34959933211078,0.007633587786259542,-0.022900763358778626,0.0,227.58145021885412,12.801951049057108,0.0,0.022900763358778626,0.0,258.4322008659705,162.98159896309252,-0.030534351145038167,-0.0,0.022900763358778626,107.1938572624571,48.510695069758626,0.007633587786259542,0.015267175572519083,0.0,106.0,119.0,-4.0,-6.0,1.0,98.03,88.32,-4.0,11.0,-3.0,
9.691,-16.671496249397617,156.34959933226892,0.007633587786259542,-0.022900763358778626,0.0,227.58679059741513,12.808988929263222,0.0,0.022900763358778626,0.0,258.43006901100836,163.03475537383088,-0.030534351145038167,-0.0,0.022900763358778626,131.6149084749329,48.67714919478543,0.007633587786259542,0.015267175572519083,0.0,106.0,118.0,-1.0,-7.0,-1.0,98.12,88.37,-5.0,16.0,0.0,
9.729,-16.671496249613718,156.34959933240333,0.007633587786259542,-0.022900763358778626,0.0,227.591329919192,12.814971127438419,0.0,0.022900763358778626,0.0,258.4282569342905,163.07993832295847,-0.030534351145038167,-0.0,0.022900763358778626,140.56935674864903,48.7993872759012,0.022900763358778626,0.022900763358778626,0.0,106.0,118.0,-1.0,-7.0,-1.0,97.88,88.39,-5.0,22.0,0.0,
9.767,-16.6714962497974,156.34959933251758,0.007633587786259542,-0.022900763358778626,0.0,227.59518834270233,12.820055995887335,0.0,0.022900763358778626,0.0,258.32418711319264,163.01042721659923,-0.015267175572519083,0.030534351145038167,0.06870229007633588,148.18063778130775,48.903289644849615,0.022900763358778626,0.022900763358778626,0.0,106.0,118.0,-1.0,-7.0,-1.0,97.91,88.5,-11.0,26.0,-2.0,
9.806,-18.087001105383944,156.7293665459062,0.0,0.007633587786259542,0.04580152671755725,227.5984680026861,12.824378134068915,0.0,0.022900763358778626,0.0,258.23572776525947,162.95134277619388,-0.015267175572519083,0.030534351145038167,0.06870229007633588,154.65022665906767,48.991606658455765,0.022900763358778626,0.022900763358778626,0.0,106.0,118.0,-1.0,-7.0,-1.0,98.09,88.47,-14.0,36.0,5.0,
9.844,-19.29018023263251,157.05216867728655,0.0,0.007633587786259542,0.04580152671755725,227.60125571367234,12.828051951523259,0.0,0.022900763358778626,0.0,258.16053731951627,162.90112100184933,-0.015267175572519083,0.030534351145038167,0.06870229007633588,167.59469672770652,48.46279539376052,0.022900763358778626,0.022900763358778626,0.0,106.0,119.0,-9.0,1.0,-1.0,98.65,88.43,-18.0,45.0,3.0,
9.883,-20.31288249079379,157.3265504889598,0.0,0.007633587786259542,0.04580152671755725,227.60362526801066,12.831174696359449,0.0,0.022900763358778626,0.0,258.2328548421906,162.73264089877188,-0.06870229007633588,0.007633587786259542,0.03816793893129771,178.59749628604953,48.01330581876957,0.022900763358778626,0.022900763358778626,0.0,106.0,119.0,-9.0,1.0,-1.0,99.53,88.21,-22.0,53.0,9.0,
9.921,-21.182179410230876,157.5597750288821,0.0,0.007633587786259542,0.04580152671755725,227.47277890926142,12.635453733578508,-0.007633587786259542,0.061068702290076333,-0.05343511450381679,258.2943247364638,162.58943281115603,-0.06870229007633588,0.007633587786259542,0.03816793893129771,187.9498759106411,47.63123968002725,0.022900763358778626,0.022900763358778626,0.0,106.0,119.0,-9.0,1.0,-1.0,100.31,88.08,-22.0,61.0,9.0,
9.96,-21.921081791752403,157.75801588781604,0.0,0.007633587786259542,0.04580152671755725,227.3615595043246,12.469090915214707,-0.007633587786259542,0.061068702290076333,-0.05343511450381679,258.3223295407693,162.55688998169623,0.0,-0.015267175572519083,-0.007633587786259542,195.89939859154393,47.30648346209628,0.022900763358778626,0.022900763358778626,0.0,106.0,119.0,-9.0,1.0,-1.0,101.3,88.07,-27.0,68.0,5.0,
9.999,-22.5491488160457,157.9265206179099,0.0,0.007633587786259542,0.04580152671755725,227.32140136882774,12.326596172168596,-0.06870229007633588,0.09923664122137404,-0.06870229007633588,258.346133624429,162.5292285766554,0.0,-0.015267175572519083,-0.007633587786259542,202.65649287031133,47.03044067685496,0.022900763358778626,0.022900763358778626,0.0,106.0,119.0,-9.0,1.0,-1.0,102.14,88.13,-30.0,74.0,6.0,
10.038,-23.083005786695,158.06974963848967,0.0,0.007633587786259542,0.04580152671755725,227.13060468193152,12.28858202401246,-0.030534351145038167,0.08396946564885496,0.015267175572519083,258.3663670955397,162.5057163823707,0.0,-0.015267175572519083,-0.007633587786259542,208.40002300726363,46.795804309399834,0.022900763358778626,0.022900763358778626,0.0,106.0,119.0,-9.0,1.0,-1.0,103.91,87.77,-36.0,80.0,0.0,
10.077,-23.53678421174691,158.19149430598247,0.0,0.007633587786259542,0.04580152671755725,226.96842749806973,12.256269998079743,-0.030534351145038167,0.08396946564885496,0.015267175572519083,258.38356554598386,162.48573101722872,0.0,-0.015267175572519083,-0.007633587786259542,216.64533705010703,44.56359290688951,0.022900763358778626,0.022900763358778626,0.0,108.0,117.0,-43.0,-4.0,10.0,105.66,87.0,-43.0,77.0,-7.0,
10.116,-23.92249587304103,158.29497727335135,0.0,0.007633587786259542,0.04580152671755725,226.7669349782836,12.225792844631638,-0.022900763358778626,0.16030534351145037,0.015267175572519083,258.3981842288614,162.46874345685802,0.0,-0.015267175572519083,-0.007633587786259542,223.65385398652393,42.66621321475573,0.022900763358778626,0.022900763358778626,0.0,108.0,117.0,-43.0,-4.0,10.0,108.81,85.69,-45.0,77.0,-4.0,
10.155,-24.25035078514103,158.3829377956149,0.0,0.007633587786259542,0.04580152671755725,226.59566633646537,12.199887264200747,-0.022900763358778626,0.16030534351145037,0.015267175572519083,258.4106101093073,162.45430403054294,0.0,-0.015267175572519083,-0.007633587786259542,230.4067864525389,41.75541584436116,-0.022900763358778626,0.09923664122137404,0.04580152671755725,108.0,117.0,-43.0,-4.0,10.0,112.63,82.74,-40.0,69.0,17.0,
10.193,-24.529027460426033,158.45770423953894,0.0,0.007633587786259542,0.04580152671755725,226.58003998915342,12.61051398878369,-0.030534351145038167,0.08396946564885496,-0.06870229007633588,258.4211721076863,162.4420305181751,0.0,-0.015267175572519083,-0.007633587786259542,236.14677904865167,40.981238079525774,-0.022900763358778626,0.09923664122137404,0.04580152671755725,108.0,117.0,-43.0,-4.0,10.0,115.74,81.32,-37.0,64.0,-17.0,
10.232,-24.765902634418286,158.52125571687435,0.0,0.007633587786259542,0.04580152671755725,226.56675759393826,12.959546704679191,-0.030534351145038167,0.08396946564885496,-0.06870229007633588,258.4895242924028,162.53648936218895,0.022900763358778626,-0.08396946564885496,0.183206106870229,241.0257727553475,40.323186979415695,-0.022900763358778626,0.09923664122137404,0.04580152671755725,108.0,117.0,-43.0,-4.0,10.0,119.46,80.17,-29.0,33.0,-7.0,
10.272,-24.967246532311698,158.57527447260946,0.0,0.007633587786259542,0.04580152671755725,226.5554675580054,13.256224513190368,-0.030534351145038167,0.08396946564885496,-0.06870229007633588,258.5476236494118,162.6167793796007,0.022900763358778626,-0.08396946564885496,0.183206106870229,245.22198748338735,39.2674481758006,-0.022900763358778626,0.09923664122137404,0.04580152671755725,107.0,110.0,-57.0,-27.0,22.0,121.98,78.49,-11.0,14.0,26.0,
10.311,-25.1383888455211,158.6211904149843,0.0,0.007633587786259542,0.04580152671755725,226.54587102746245,13.508400650424868,-0.030534351145038167,0.08396946564885496,-0.06870229007633588,258.59700810286944,162.68502589440067,0.022900763358778626,-0.08396946564885496,0.183206106870229,202.2533303783515,37.97538075787649,0.015267175572519083,0.22137404580152673,0.0916030534351145,107.0,110.0,-57.0,-27.0,22.0,123.83,77.27,-7.0,-2.0,-8.0,
10.351,-25.283859811749092,158.66021896600293,0.0,0.007633587786259542,0.04580152671755725,226.90995538829367,13.05274706620906,-0.25190839694656486,0.366412213740458,-0.09923664122137404,258.63898488830847,162.74303543198067,0.022900763358778626,-0.08396946564885496,0.183206106870229,165.72997183907103,36.877123452641,0.015267175572519083,0.22137404580152673,0.0916030534351145,107.0,110.0,-57.0,-27.0,22.0,125.23,76.2,-9.0,-12.0,1.0,
10.391,-25.407510133042884,158.69339323436876,0.0,0.007633587786259542,0.04580152671755725,227.5693811985778,12.668976089340983,-0.29770992366412213,0.48091603053435117,-0.05343511450381679,258.6746651559316,162.79234353892366,0.022900763358778626,-0.08396946564885496,0.183206106870229,134.68511708068263,35.94360474319083,0.015267175572519083,0.22137404580152673,0.0916030534351145,107.0,110.0,-57.0,-27.0,22.0,125.71,75.58,7.0,-24.0,5.0,
10.43,-25.512612906142607,158.7215913624797,0.0,0.007633587786259542,0.04580152671755725,228.1298931373193,12.342770759003118,-0.29770992366412213,0.48091603053435117,-0.05343511450381679,258.7049933834113,162.8342554298252,0.022900763358778626,-0.08396946564885496,0.183206106870229,110.03675165132523,35.94147705366096,0.015267175572519083,0.22137404580152673,0.0916030534351145,105.0,100.0,-37.0,-27.0,8.0,126.76,75.07,3.0,-29.0,-6.0,
10.47,-25.601950263277374,158.74555977137402,0.0,0.007633587786259542,0.04580152671755725,228.60632828524956,12.065496228215933,-0.29770992366412213,0.48091603053435117,-0.05343511450381679,258.73077237676904,162.8698805370915,0.022900763358778626,-0.08396946564885496,0.183206106870229,89.28800719783806,36.03328944654137,0.015267175572519083,0.22137404580152673,0.0916030534351145,104.0,97.0,-35.0,-36.0,6.0,126.9,74.73,11.0,-42.0,6.0,
10.509,-25.677887016841925,158.76593291893417,0.0,0.007633587786259542,0.04580152671755725,230.28882232567224,34.88182263612731,-0.366412213740458,0.7099236641221374,-0.3282442748091603,258.7526845211231,162.90016187826785,0.022900763358778626,-0.08396946564885496,0.183206106870229,71.65157441237396,36.111329980489714,0.015267175572519083,0.22137404580152673,0.0916030534351145,104.0,97.0,-35.0,-36.0,6.0,126.5,74.22,5.0,-47.0,1.0,
10.549,-25.742433257371793,158.7832500943603,0.0,0.007633587786259542,0.04580152671755725,231.71894226003155,54.27570008285198,-0.366412213740458,0.7099236641221374,-0.3282442748091603,258.77130984382404,162.92590101826778,0.022900763358778626,-0.08396946564885496,0.183206106870229,57.18944882490993,36.42375683372376,0.015267175572519083,0.22137404580152673,0.0916030534351145,102.0,94.0,-30.0,-40.0,-7.0,126.73,73.72,7.0,-46.0,-11.0,
10.588,-25.79729756182218,158.79796969347254,0.0,0.007633587786259542,0.04580152671755725,233.89497967386717,71.29368770091182,-0.3816793893129771,1.0076335877862594,-0.1984732824427481,258.7871413681199,162.94777928726768,0.022900763358778626,-0.08396946564885496,0.183206106870229,44.89664207556551,36.6893196589727,0.015267175572519083,0.22137404580152673,0.0916030534351145,102.0,94.0,-30.0,-40.0,-7.0,125.69,74.35,16.0,-53.0,-5.0,
10.628,-25.84393222060501,158.81048135271791,0.0,0.007633587786259542,0.04580152671755725,235.74461147562744,85.75897717626268,-0.3816793893129771,1.0076335877862594,-0.1984732824427481,258.8005981637713,162.96637581591762,0.022900763358778626,-0.08396946564885496,0.183206106870229,36.089729779981745,37.69062366124988,0.015267175572519083,0.22137404580152673,0.0916030534351145,100.0,91.0,-16.0,-40.0,-19.0,124.29,75.13,15.0,-54.0,1.0,
10.668,-25.883571680570412,158.82111626307648,0.0,0.007633587786259542,0.04580152671755725,237.53471136382257,97.7248217302337,-0.24427480916030533,0.916030534351145,-0.48854961832061067,258.8120364400751,162.9821828652701,0.022900763358778626,-0.08396946564885496,0.183206106870229,28.603854328735547,38.54173206318549,0.015267175572519083,0.22137404580152673,0.0916030534351145,100.0,91.0,-16.0,-40.0,-19.0,123.23,75.22,7.0,-44.0,1.0,
10.706,-25.917265221541008,158.83015593688125,0.0,0.007633587786259542,0.04580152671755725,239.05629626878843,107.89578960110907,-0.24427480916030533,0.916030534351145,-0.48854961832061067,258.82175897493323,162.99561885721965,0.022900763358778626,-0.08396946564885496,0.183206106870229,23.26875588383247,54.1313225367972,-0.07633587786259542,-0.0,0.0916030534351145,100.0,91.0,-16.0,-40.0,-19.0,122.42,75.4,-5.0,-34.0,-17.0,
10.746,-25.945904731366014,158.83783965961533,0.0,0.007633587786259542,0.04580152671755725,241.2583974107267,116.18488482897843,-0.183206106870229,0.816793893129771,-0.4732824427480916,258.8300231295627,163.0070394503768,0.022900763358778626,-0.08396946564885496,0.183206106870229,18.73392220566485,67.38247443936714,-0.07633587786259542,-0.0,0.0916030534351145,100.0,91.0,-16.0,-40.0,-19.0,121.28,75.56,0.0,-27.0,-4.0,
10.786,-25.970248314717267,158.8443708239393,0.0,0.007633587786259542,0.04580152671755725,243.42659526630564,123.48818095104745,-0.1450381679389313,0.8091603053435115,-0.31297709923664124,258.8370476609977,163.01674695456035,0.022900763358778626,-0.08396946564885496,0.183206106870229,14.879313579222375,78.6459535565516,-0.07633587786259542,-0.0,0.0916030534351145,100.0,91.0,-16.0,-40.0,-19.0,120.92,76.01,-2.0,-24.0,-6.0,
10.826,-25.990940360565833,158.84992231361466,0.0,0.007633587786259542,0.04580152671755725,245.4641959519585,129.631843389022,-0.12213740458015267,0.7557251908396947,-0.25190839694656486,258.8430185127175,163.0249983331164,0.022900763358778626,-0.08396946564885496,0.183206106870229,11.60289624674627,88.2199108061584,-0.07633587786259542,-0.0,0.0916030534351145,100.0,91.0,-16.0,-40.0,-19.0,119.75,75.84,-10.0,-19.0,10.0,
10.866,-26.008528599537115,158.85464107983873,0.0,0.007633587786259542,0.04580152671755725,248.1129814689872,134.76578706483932,-0.09923664122137404,0.6641221374045801,-0.29770992366412213,258.8480937366793,163.03201200488905,0.022900763358778626,-0.08396946564885496,0.183206106870229,8.817941514141584,96.35777446832417,-0.07633587786259542,-0.0,0.0916030534351145,100.0,91.0,-16.0,-40.0,-19.0,118.97,75.66,-3.0,-15.0,1.0,
10.905,-26.023478602662703,158.85865203112917,0.0,0.007633587786259542,0.04580152671755725,251.17782062815797,139.116016230475,-0.1297709923664122,0.6412213740458015,-0.26717557251908397,258.8524076770468,163.0379736258958,0.022900763358778626,-0.08396946564885496,0.183206106870229,6.4507299914275995,103.27495858116507,-0.07633587786259542,-0.0,0.0916030534351145,100.0,91.0,-16.0,-40.0,-19.0,118.61,76.12,0.0,-10.0,1.0,
10.945,-26.036186105319455,158.86206133972604,0.0,0.007633587786259542,0.04580152671755725,253.05172743585032,142.866891533066,-0.12213740458015267,0.6564885496183206,-0.11450381679389313,258.85607452635924,163.0430410037515,0.022900763358778626,-0.08396946564885496,0.183206106870229,4.438600197120714,109.15456507707984,-0.07633587786259542,-0.0,0.0916030534351145,100.0,91.0,-16.0,-40.0,-19.0,117.78,76.01,-7.0,-9.0,11.0,
10.984,-26.046987482577695,158.8649592520334,0.0,0.007633587786259542,0.04580152671755725,254.64454822238883,146.05513554026834,-0.12213740458015267,0.6564885496183206,-0.11450381679389313,258.85919134827475,163.04734827492888,0.022900763358778626,-0.08396946564885496,0.183206106870229,3.5760269845261337,112.6614376770137,-0.07633587786259542,-0.0,0.0916030534351145,90.0,84.0,-3.0,-20.0,-9.0,117.13,76.01,-2.0,-4.0,-4.0,
11.024,-26.056168653247198,158.86742247749464,0.0,0.007633587786259542,0.04580152671755725,255.99844589094656,148.7651429463903,-0.12213740458015267,0.6564885496183206,-0.11450381679389313,258.861840646903,163.05100945542966,0.022900763358778626,-0.08396946564885496,0.183206106870229,2.711752800030226,115.89239465861166,-0.07633587786259542,-0.0,0.0916030534351145,90.0,84.0,-5.0,-13.0,-7.0,116.2,76.45,-1.0,-4.0,4.0,
11.063,-26.063972648316273,158.8695162191367,0.0,0.007633587786259542,0.04580152671755725,258.04595356560947,150.95487890082407,-0.1297709923664122,0.4198473282442748,-0.12213740458015267,258.8640925507369,163.05412145885532,0.022900763358778626,-0.08396946564885496,0.183206106870229,1.9771197432087042,118.63870809296994,-0.07633587786259542,-0.0,0.0916030534351145,90.0,84.0,-5.0,-13.0,-7.0,115.39,76.45,-2.0,-5.0,14.0,
11.102,-26.07060604412499,158.87129589953244,0.0,0.007633587786259542,0.04580152671755725,259.7863350890729,152.81615446209275,-0.1297709923664122,0.4198473282442748,-0.12213740458015267,258.8660066689958,163.05676666176709,0.022900763358778626,-0.08396946564885496,0.183206106870229,1.6149471860983253,120.46952985993047,-0.07633587786259542,-0.0,0.0916030534351145,89.0,83.0,-1.0,-10.0,-3.0,114.8,76.68,1.0,0.0,1.0,
11.141,-26.076244430562397,158.87280862786884,0.0,0.007633587786259542,0.04580152671755725,261.2656593840169,154.39823868917114,-0.1297709923664122,0.4198473282442748,-0.12213740458015267,257.7930218205273,162.68582506232383,0.015267175572519083,-0.12213740458015267,-0.05343511450381679,1.3071005125545032,122.02572836184693,-0.07633587786259542,-0.0,0.0916030534351145,89.0,83.0,-1.0,-10.0,-3.0,114.59,77.26,-2.0,0.0,6.0,
11.18,-26.081037059034195,158.87409444695476,0.0,0.007633587786259542,0.04580152671755725,262.5230850347192,155.74301028218775,-0.1297709923664122,0.4198473282442748,-0.12213740458015267,256.88098469932913,162.37052470279707,0.015267175572519083,-0.12213740458015267,-0.05343511450381679,0.7176752007146849,123.97521575859362,-0.07633587786259542,-0.0,0.0916030534351145,88.0,84.0,-6.0,-9.0,7.0,114.0,77.16,-4.0,0.0,12.0,
11.218,-26.085110793235224,158.8751873931778,0.0,0.007633587786259542,0.04580152671755725,263.5918968378162,156.88606613625188,-0.1297709923664122,0.4198473282442748,-0.12213740458015267,256.1057531463107,162.10251939719933,0.015267175572519083,-0.12213740458015267,-0.05343511450381679,0.28215378379049455,125.5091060279546,-0.07633587786259542,-0.0,0.0916030534351145,88.0,84.0,-5.0,-8.0,6.0,113.53,77.41,-4.0,4.0,5.0,
11.256,-26.088573467306098,158.8761163974674,0.0,0.007633587786259542,0.04580152671755725,264.50038687044866,157.8576636122064,-0.1297709923664122,0.4198473282442748,-0.12213740458015267,255.446806326245,161.87471488744126,0.015267175572519083,-0.12213740458015267,-0.05343511450381679,-0.5389443232775251,126.70975454042463,-0.015267175572519083,0.04580152671755725,0.022900763358778626,88.0,84.0,-5.0,-8.0,6.0,113.31,77.5,-4.0,5.0,2.0,
11.295,-26.09151674026634,158.87690605111354,0.0,0.007633587786259542,0.04580152671755725,265.2726033981862,158.68352146676776,-0.1297709923664122,0.4198473282442748,-0.12213740458015267,255.54173627133343,161.7504884636261,0.015267175572519083,-0.015267175572519083,-0.0916030534351145,-1.2368777142853418,127.73030577602414,-0.015267175572519083,0.04580152671755725,0.022900763358778626,88.0,84.0,-5.0,-8.0,6.0,112.88,77.76,-5.0,2.0,0.0,
11.333,-26.094018522282546,158.87757725671275,0.0,0.007633587786259542,0.04580152671755725,213.1167056756564,159.16569274661632,-0.04580152671755725,0.022900763358778626,-0.06870229007633588,255.6224267246586,161.64489600338322,0.015267175572519083,-0.015267175572519083,-0.0916030534351145,-1.830121096641986,128.59777432628374,-0.015267175572519083,0.04580152671755725,0.022900763358778626,88.0,84.0,-5.0,-8.0,6.0,112.55,77.81,-3.0,2.0,0.0,
11.372,-26.096145036996322,158.8781477814721,0.0,0.007633587786259542,0.04580152671755725,168.40804661619134,159.57789056386912,-0.05343511450381679,0.030534351145038167,-0.03816793893129771,255.691013609985,161.5551424121768,0.015267175572519083,-0.015267175572519083,-0.0916030534351145,-2.3343779716451336,129.3351225940044,-0.015267175572519083,0.04580152671755725,0.022900763358778626,88.0,84.0,-5.0,-8.0,6.0,112.02,78.01,-2.0,0.0,1.0,
11.411,-26.09795257450303,158.87863272751756,0.0,0.007633587786259542,0.04580152671755725,130.40568641564604,159.928258708534,-0.05343511450381679,0.030534351145038167,-0.03816793893129771,255.74931246251242,161.47885185965131,0.015267175572519083,-0.015267175572519083,-0.0916030534351145,-2.204476513237804,130.2192121516357,-0.022900763358778626,0.007633587786259542,-0.030534351145038167,88.0,84.0,-5.0,-8.0,6.0,111.9,78.19,-8.0,2.0,-4.0,
11.449,-26.099488981383733,158.87904493165618,0.0,0.007633587786259542,0.04580152671755725,98.47486481134848,160.29287757939932,-0.04580152671755725,0.007633587786259542,0.0,255.79886648716075,161.41400489000466,0.015267175572519083,-0.015267175572519083,-0.0916030534351145,-2.094060273591574,130.97068827562234,-0.022900763358778626,0.007633587786259542,-0.030534351145038167,88.0,84.0,-5.0,-8.0,6.0,111.82,78.36,-7.0,1.0,-3.0,
11.488,-26.10079492723233,158.87939530517403,0.0,0.007633587786259542,0.04580152671755725,71.0034041471997,160.5866750531232,-0.03816793893129771,0.022900763358778626,0.022900763358778626,255.84098740811183,161.358884965805,0.015267175572519083,-0.015267175572519083,-0.0916030534351145,-2.0002064698922783,131.60944298101097,-0.022900763358778626,0.007633587786259542,-0.030534351145038167,88.0,84.0,-5.0,-8.0,6.0,111.61,78.49,-5.0,1.0,0.0,
11.527,-26.101904981203635,158.87969312266418,0.0,0.007633587786259542,0.04580152671755725,47.652662582673244,160.83640290578847,-0.03816793893129771,0.022900763358778626,0.022900763358778626,255.87679019092025,161.31203303023528,0.015267175572519083,-0.015267175572519083,-0.0916030534351145,-1.920430736747877,132.1523844805913,-0.022900763358778626,0.007633587786259542,-0.030534351145038167,88.0,85.0,-5.0,-5.0,-6.0,111.45,78.73,-2.0,4.0,-7.0,
11.566,-26.102848527079246,158.8799462675308,0.0,0.007633587786259542,0.04580152671755725,27.80453225282575,161.04867158055396,-0.03816793893129771,0.022900763358778626,0.022900763358778626,255.9072225563074,161.27220888500102,0.015267175572519083,-0.015267175572519083,-0.0916030534351145,-1.8526213635751356,132.61388475523458,-0.022900763358778626,0.007633587786259542,-0.030534351145038167,88.0,85.0,-5.0,-7.0,-4.0,111.44,78.73,-1.0,2.0,0.0,
11.603,-26.103650541073517,158.88016144066745,0.0,0.007633587786259542,0.04580152671755725,10.574093488013682,161.2590657054361,-0.03816793893129771,0.015267175572519083,0.007633587786259542,255.93309006688648,161.23835836155192,0.015267175572519083,-0.015267175572519083,-0.0916030534351145,-1.7949833963783055,133.00615998868136,-0.022900763358778626,0.007633587786259542,-0.030534351145038167,88.0,85.0,-5.0,-7.0,-4.0,111.5,79.14,1.0,1.0,-3.0,
11.642,-26.104332252968646,158.8803443378336,0.0,0.007633587786259542,0.04580152671755725,-3.7998373489314776,161.32954005186056,-0.030534351145038167,-0.0,0.0,255.9550774508787,161.20958541662017,0.015267175572519083,-0.015267175572519083,-0.0916030534351145,-1.745991124261,133.33959393711115,-0.022900763358778626,0.007633587786259542,-0.030534351145038167,88.0,85.0,-5.0,-7.0,-4.0,111.23,79.53,0.0,0.0,8.0,
11.68,-26.104911708079506,158.88049980042481,0.0,0.007633587786259542,0.04580152671755725,-16.017678560334865,161.38944324632135,-0.030534351145038167,-0.0,0.0,255.97376672727208,161.18512841342817,0.015267175572519083,-0.015267175572519083,-0.0916030534351145,-1.6602975713389876,133.4692816781678,-0.022900763358778626,0.007633587786259542,-0.030534351145038167,89.0,86.0,-4.0,-2.0,3.0,111.13,79.81,-4.0,5.0,-2.0,
