time,pitch,roll,gyrx,gyry,gyrz,f1,f2,f3,f4,f5,f6,f7,g1,g2,g3
0.376,30.63,54.98,-9.94,-0.47,0.2,2.0,0.0,0.0,2.0,0.0,0.0,0.0,0.0,0.0,0.49,
0.401,37.614000000000004,66.869,-9.92,1.06,1.21,2.0,0.0,0.0,2.0,0.0,0.0,0.0,0.0,0.0,0.69,
0.424,43.8564,78.0479,-10.37,4.05,3.47,2.0,0.0,0.0,2.0,0.0,0.0,0.0,0.0,0.0,0.49,
0.448,48.84564,87.61679000000001,-10.2,5.05,3.2,2.0,0.0,0.0,2.0,0.0,0.0,0.0,0.0,0.0,0.49,
0.472,53.124564,95.800679,-9.36,0.23,2.86,2.0,0.0,0.0,2.0,0.0,0.0,0.0,0.0,0.0,0.69,
0.495,57.21545640000001,102.4960679,-10.31,0.05,4.82,2.0,0.0,0.0,2.0,0.0,0.0,0.0,0.0,0.0,0.69,
0.52,61.02654564000001,108.20560679,-13.24,-0.24,4.55,2.0,0.0,0.0,2.0,0.0,0.0,0.0,0.0,0.0,0.59,
0.543,64.080654564,113.159560679,-13.81,5.15,4.6,2.0,0.0,0.0,2.0,0.0,0.0,0.0,0.0,0.59,0.59,
0.567,66.1410654564,117.5519560679,-13.71,6.11,1.43,2.0,0.0,0.0,2.0,0.0,0.0,0.0,0.0,0.0,0.69,
0.591,67.78710654564,121.58219560679,-10.13,3.19,0.72,2.0,0.0,0.0,2.0,0.0,0.0,0.0,0.0,0.0,0.69,
0.615,69.508710654564,124.820219560679,-6.44,-0.93,1.98,2.0,0.0,0.0,2.0,0.0,0.0,0.0,0.0,0.0,0.49,
0.638,71.2288710654564,127.3670219560679,-6.71,-1.11,4.66,2.0,0.0,0.0,2.0,0.0,0.0,0.0,0.0,0.0,0.69,
0.663,72.44488710654564,129.43970219560677,-8.52,1.49,4.36,2.0,0.0,0.0,2.0,0.0,0.0,0.0,0.0,0.0,0.59,
0.687,73.16048871065456,131.4019702195607,-7.25,0.37,1.8,2.0,0.0,0.0,2.0,0.0,0.0,0.0,0.0,0.0,0.59,
0.71,73.67304887106545,133.12819702195605,-4.96,-1.31,-0.75,2.0,0.0,0.0,2.0,0.0,0.0,0.0,0.0,0.0,0.78,
0.735,74.31830488710655,134.5698197021956,-3.68,-3.39,-1.85,2.0,0.0,0.0,2.0,0.0,0.0,0.0,0.0,0.0,0.88,
0.758,75.45383048871066,135.64098197021954,-2.78,-4.11,-0.45,2.0,0.0,0.0,2.0,0.0,0.0,0.0,0.0,0.0,0.88,
0.782,76.69238304887106,136.46809819702196,-2.18,-3.36,3.02,2.0,0.0,0.0,2.0,0.0,0.0,0.0,0.0,0.0,0.59,
0.806,77.5182383048871,136.9828098197022,-3.64,-0.65,3.9,2.0,0.0,0.0,2.0,0.0,0.0,0.0,0.0,0.0,0.69,
0.83,78.1948238304887,137.57428098197022,-4.4,-0.29,1.09,2.0,0.0,0.0,2.0,0.0,0.0,0.0,0.0,0.0,0.78,
0.854,78.86548238304887,137.966428098197,-5.01,-1.87,-1.21,2.0,0.0,0.0,2.0,0.0,0.0,0.0,0.0,0.0,0.88,
0.878,79.64354823830489,138.2486428098197,-5.95,-1.24,-0.63,2.0,0.0,0.0,2.0,0.0,0.0,0.0,0.0,0.0,0.98,
0.902,79.96435482383049,138.40286428098196,-6.95,2.24,-0.79,2.0,0.0,0.0,2.0,0.0,0.0,0.0,0.0,0.0,0.88,
0.925,80.00543548238305,138.6702864280982,-7.24,2.39,-1.0,2.0,0.0,0.0,2.0,0.0,0.0,0.0,0.0,0.0,0.78,
0.95,80.0005435482383,139.00302864280982,-7.2,-0.21,-1.01,2.0,0.0,0.0,2.0,0.0,0.0,0.0,0.0,0.0,0.88,
0.973,79.93705435482384,139.35130286428097,-5.66,-0.92,1.04,2.0,0.0,0.0,2.0,0.0,0.0,0.0,0.0,0.0,0.98,
0.997,79.86770543548238,139.4941302864281,-5.49,-0.48,-0.38,2.0,0.0,0.0,2.0,0.0,0.0,0.0,0.0,0.0,0.98,
1.021,79.71677054354824,139.5264130286428,-6.63,-0.27,-0.31,2.0,0.0,0.0,2.0,0.0,0.0,0.0,0.0,0.0,0.98,
1.045,79.55767705435484,139.7726413028643,-6.1,-3.82,-0.34,2.0,0.0,0.0,2.0,0.0,0.0,0.0,0.0,0.0,0.98,
1.07,79.50576770543547,140.04926413028645,-4.17,-2.01,-0.45,2.0,0.0,0.0,2.0,0.0,0.0,0.0,0.0,0.0,0.98,
1.093,79.57257677054355,140.17592641302866,-3.03,-1.89,-1.73,2.0,0.0,0.0,2.0,0.0,0.0,0.0,0.0,0.0,0.88,
1.117,80.02025767705436,140.15259264130287,-3.16,-4.26,-0.33,2.0,0.0,0.0,2.0,0.0,0.0,0.0,0.0,0.0,0.98,
1.141,80.64102576770543,140.2672592641303,-3.11,-2.73,2.34,2.0,0.0,0.0,2.0,0.0,0.0,0.0,0.0,0.0,1.08,
1.165,80.82010257677054,140.33272592641305,-3.69,1.02,1.98,2.0,0.0,0.0,2.0,0.0,0.0,0.0,0.0,0.0,0.88,
1.188,80.85601025767706,140.4202725926413,-2.6,-0.22,-0.62,2.0,0.0,0.0,2.0,0.0,0.0,0.0,0.0,0.0,0.98,
1.213,81.1836010257677,140.37502725926413,-1.67,-3.92,-1.3,2.0,0.0,0.0,2.0,0.0,0.0,0.0,0.0,0.0,0.98,
1.236,81.44136010257678,140.1905027259264,-3.25,0.97,1.47,2.0,0.0,0.0,2.0,0.0,0.0,0.0,0.0,0.0,0.98,
1.26,81.40413601025769,140.19005027259266,-4.57,1.51,-0.49,2.0,0.0,0.0,2.0,0.0,0.0,0.0,0.0,0.0,0.49,
1.284,81.16641360102577,140.24400502725928,-4.22,0.0,-0.08,2.0,0.0,0.0,2.0,0.0,0.0,0.0,0.0,0.0,0.39,
1.308,81.07964136010257,140.1144005027259,-3.53,-1.41,1.73,2.0,0.0,0.0,2.0,0.0,0.0,0.0,0.0,0.0,0.49,
1.332,80.95396413601026,139.8944400502726,-4.6,-0.09,1.5,2.0,0.0,0.0,2.0,0.0,0.0,0.0,0.0,0.0,0.59,
1.355,80.80639641360104,139.69244400502726,-6.76,-1.19,1.24,2.0,0.0,0.0,2.0,0.0,0.0,0.0,0.0,0.0,0.49,
1.38,80.73763964136012,139.71724440050272,-6.88,-2.13,0.47,2.0,0.0,0.0,2.0,0.0,0.0,0.0,0.0,0.0,0.59,
1.403,80.53276396413601,139.92672444005026,-5.25,0.05,-0.78,2.0,0.0,0.0,2.0,0.0,0.0,0.0,0.0,0.0,0.49,
1.427,80.7102763964136,140.24467244400503,-4.53,-3.4,-1.97,2.0,0.0,0.0,2.0,0.0,0.0,0.0,0.0,0.0,0.59,
1.452,80.93502763964135,140.3574672444005,-3.11,-3.24,0.64,2.0,0.0,0.0,2.0,0.0,0.0,0.0,0.0,0.0,0.59,
1.475,80.96650276396414,140.17974672444007,-5.48,-1.51,0.18,2.0,0.0,0.0,2.0,0.0,0.0,0.0,0.0,0.0,0.49,
1.499,81.20365027639642,140.17997467244402,-4.96,-2.31,-1.56,2.0,0.0,0.0,2.0,0.0,0.0,0.0,0.0,0.0,0.59,
1.523,81.52436502763965,140.2429974672444,-3.81,-2.31,-0.94,2.0,0.0,0.0,2.0,0.0,0.0,0.0,0.0,0.0,0.78,
1.547,81.80843650276397,140.39329974672444,-2.73,-2.07,-1.05,2.0,0.0,0.0,2.0,0.0,0.0,0.0,0.0,0.0,0.69,
1.571,81.8728436502764,140.33632997467245,-2.95,1.66,0.97,2.0,0.0,0.0,2.0,0.0,0.0,0.0,0.0,0.0,0.78,
1.595,81.72628436502764,140.15063299746726,-3.37,-0.13,1.9,2.0,0.0,0.0,2.0,0.0,0.0,0.0,0.0,0.0,0.69,
1.618,81.71162843650276,140.04206329974673,-3.6,-1.25,2.86,2.0,0.0,0.0,2.0,0.0,0.0,0.0,0.0,0.0,0.59,
1.642,81.62916284365029,139.85120632997467,-4.35,-0.43,1.74,2.0,0.0,0.0,2.0,0.0,0.0,0.0,0.0,0.0,0.78,
1.667,81.76491628436503,139.64312063299747,-5.43,0.18,0.04,2.0,0.0,0.0,2.0,0.0,0.0,0.0,0.0,0.0,0.69,
1.69,82.0664916284365,139.28931206329975,-6.34,-0.5,1.82,2.0,0.0,0.0,2.0,0.0,0.0,0.0,0.0,0.0,0.88,
1.714,82.45664916284365,138.83093120632998,-9.92,0.47,4.02,2.0,0.0,0.0,2.0,0.0,0.0,0.0,0.0,0.0,0.98,
1.737,83.05366491628438,138.533093120633,-11.95,1.28,5.6,2.0,0.0,0.0,2.0,0.0,0.0,0.0,0.0,0.0,0.78,
1.762,83.85136649162844,138.03530931206328,-12.96,2.66,6.95,2.0,0.0,0.0,2.0,0.0,0.0,0.0,0.0,0.0,0.78,
1.785,84.96613664916285,137.2475309312063,-17.51,6.05,8.48,2.0,0.0,0.0,2.0,0.0,0.0,0.0,0.0,0.0,0.78,
1.809,86.36461366491628,136.16075309312063,-23.14,9.36,13.76,2.0,0.0,0.0,2.0,0.0,0.0,0.0,0.0,0.0,0.98,
1.833,87.75546136649163,134.61207530931205,-28.79,12.87,18.17,2.0,0.0,0.0,2.0,0.0,0.0,0.0,0.0,0.0,0.98,
1.857,89.26254613664918,132.75620753093122,-37.97,19.37,22.38,2.0,0.0,0.0,2.0,0.0,0.0,0.0,0.0,0.0,0.78,
1.882,90.74525461366491,130.7886207530931,-48.4,24.04,27.77,2.0,0.0,0.0,2.0,0.0,0.0,0.0,0.0,0.0,0.98,
1.905,92.19852546136649,128.8548620753093,-57.83,30.75,32.78,2.0,0.0,0.0,2.0,0.0,0.0,0.0,0.0,0.0,0.88,
1.929,93.36085254613664,126.53748620753093,-66.47,36.37,38.5,2.0,0.0,0.0,2.0,0.0,0.0,0.0,0.0,0.0,1.08,
1.953,94.26008525461367,123.84874862075308,-75.58,40.03,41.5,2.0,0.0,0.0,2.0,0.0,0.0,0.0,0.0,0.0,1.18,
1.977,95.11500852546136,121.0508748620753,-84.96,38.49,45.73,2.0,0.0,0.0,2.0,0.0,0.0,0.0,0.0,0.0,1.08,
2.001,96.01050085254613,118.53008748620752,-96.46,39.21,40.44,2.0,0.0,0.0,2.0,0.0,0.0,0.0,0.0,0.0,1.08,
2.025,96.91905008525461,116.59500874862076,-104.43,40.24,47.89,2.0,0.0,0.0,2.0,0.0,0.0,0.0,0.0,0.0,1.08,
2.05,97.57690500852547,115.28550087486208,-109.81,42.08,54.89,2.0,0.0,0.0,2.0,0.0,0.0,0.0,0.0,0.0,1.18,
2.073,97.93069050085255,114.25455008748621,-108.69,37.05,56.54,2.0,0.0,0.0,2.0,0.0,0.0,0.0,0.0,0.0,0.78,
2.098,98.07406905008526,112.88245500874862,-107.4,29.15,50.22,2.0,0.0,0.0,2.0,0.0,0.0,0.0,0.0,0.0,0.49,
2.122,97.92640690500852,111.84524550087487,-110.18,19.38,40.54,2.0,0.0,0.0,2.0,0.0,0.0,0.0,0.0,0.0,0.59,
2.146,98.16364069050084,111.10252455008748,-109.2,14.73,29.04,2.0,0.0,0.0,2.0,0.0,0.0,0.0,0.0,0.0,0.59,
2.17,98.31336406905008,110.27225245500875,-108.73,24.4,30.45,2.0,0.0,0.0,2.0,0.0,0.0,0.0,0.0,0.0,0.69,
2.194,98.553336406905,109.33422524550087,-104.02,13.55,24.13,2.0,0.0,0.0,2.0,0.0,0.0,0.0,0.0,0.0,0.98,
2.219,98.99133364069051,108.45742252455008,-104.5,19.01,29.85,2.0,0.0,0.0,2.0,0.0,0.0,0.0,0.0,0.0,0.78,
2.242,99.09813336406904,107.30774225245501,-103.53,12.16,29.18,2.0,0.0,0.0,2.0,0.0,0.0,0.0,0.0,0.0,1.08,
2.267,99.4238133364069,106.4187742252455,-102.15,5.95,29.75,2.0,0.0,0.0,2.0,0.0,0.0,0.0,0.0,0.0,1.57,
2.29,100.18538133364068,106.08687742252454,-92.05,4.84,27.09,2.0,0.0,0.0,2.0,0.0,0.0,0.0,0.0,0.0,1.37,
2.315,100.92753813336407,105.43268774225245,-84.35,1.69,22.98,2.0,0.0,0.0,2.0,0.0,0.0,0.0,0.0,0.0,0.88,
2.338,101.52375381333641,105.46626877422524,-74.6,7.95,28.66,2.0,0.0,0.0,2.0,0.0,0.0,0.0,0.0,0.0,0.78,
2.363,101.66437538133366,105.53262687742253,-65.79,-4.73,34.41,2.0,0.0,0.0,2.0,0.0,0.0,0.0,0.0,0.0,0.88,
2.386,101.54343753813338,105.47626268774225,-52.99,-4.24,36.76,2.0,0.0,0.0,2.0,0.0,0.0,0.0,0.0,0.0,0.88,
2.411,101.48634375381334,105.54262626877423,-41.26,-5.32,19.93,2.0,0.0,0.0,2.0,0.0,0.0,0.0,0.0,0.0,1.86,
2.436,101.67863437538134,105.75626262687742,-32.76,-7.21,16.52,2.0,0.0,0.0,2.0,0.0,0.0,0.0,0.0,0.0,1.37,
2.459,102.12086343753813,105.92162626268774,-21.6,-6.94,19.89,2.0,0.0,0.0,2.0,0.0,0.0,0.0,0.0,0.0,0.88,
2.484,102.47108634375381,105.69516262626878,-7.55,-3.03,20.77,2.0,0.0,0.0,2.0,0.0,0.0,0.0,0.0,0.0,1.08,
2.507,102.72210863437539,105.08751626262688,3.89,-9.74,18.85,2.0,0.0,0.0,2.0,0.0,0.0,0.0,0.0,0.0,1.08,
2.532,102.82821086343755,103.88375162626268,9.36,-11.94,22.76,2.0,0.0,0.0,2.0,0.0,0.0,0.0,0.0,0.0,0.98,
2.555,102.73082108634375,101.92737516262626,13.27,-14.4,21.99,2.0,0.0,0.0,3.0,0.0,0.0,0.0,0.0,0.0,0.69,
2.58,102.80208210863438,99.72473751626264,13.75,-18.63,17.23,2.0,0.0,0.0,3.0,0.0,0.0,0.0,0.0,0.0,1.08,
2.604,102.94420821086344,97.54247375162626,11.09,-12.62,17.4,2.0,0.0,0.0,3.0,0.0,0.0,0.0,0.0,0.0,0.69,
2.628,103.01242082108635,95.33524737516262,8.64,-7.52,8.79,2.0,0.0,0.0,3.0,0.0,0.0,0.0,0.0,0.0,0.69,
2.652,103.15424208210864,93.29652473751625,4.8,-6.92,9.91,2.0,0.0,0.0,3.0,0.0,0.0,0.0,0.0,0.0,0.78,
2.675,103.23142420821085,91.50865247375162,2.95,-5.95,13.19,2.0,0.0,0.0,3.0,0.0,0.0,0.0,0.0,0.0,0.49,
2.699,103.19414242082108,90.06986524737516,4.63,-10.01,9.56,2.0,0.0,0.0,3.0,0.0,0.0,0.0,0.0,0.0,0.69,
2.723,103.22641424208211,88.91798652473751,4.76,-9.85,9.88,2.0,0.0,0.0,3.0,0.0,0.0,0.0,0.0,0.0,1.08,
2.747,103.05864142420822,87.83979865247376,2.61,-9.42,9.29,2.0,0.0,0.0,3.0,0.0,0.0,0.0,0.0,0.0,0.69,
2.77,102.87086414242081,86.84097986524738,0.02,-6.36,4.12,2.0,0.0,0.0,3.0,0.0,0.0,0.0,0.0,0.0,0.78,
2.794,102.76208641424209,86.25509798652473,-1.36,-2.09,1.85,2.0,0.0,0.0,3.0,0.0,0.0,0.0,0.0,0.0,0.69,
2.819,102.7692086414242,85.73750979865248,-0.03,-2.73,-4.81,2.0,0.0,0.0,3.0,0.0,0.0,0.0,0.0,0.0,0.78,
2.842,102.85092086414241,85.49675097986525,0.82,-20.48,-0.21,2.0,0.0,0.0,3.0,0.0,0.0,0.0,0.0,0.0,0.88,
2.866,102.49909208641424,85.61667509798652,1.06,-15.17,-4.09,3.0,0.0,0.0,3.0,0.0,0.0,0.0,0.0,0.0,0.1,
2.89,101.82490920864143,86.16866750979865,1.05,-15.5,-8.13,3.0,1.0,0.0,3.0,0.0,0.0,0.0,0.0,0.0,0.1,
2.914,101.37949092086414,86.39486675097987,0.84,-7.04,3.31,3.0,1.0,0.0,3.0,0.0,0.0,0.0,0.0,0.0,0.39,
2.937,100.64194909208642,86.120486675098,2.34,-1.69,6.17,3.0,1.0,0.0,3.0,0.0,0.0,0.0,0.0,0.0,0.1,
2.962,100.36119490920863,85.8500486675098,2.58,-2.18,-0.63,3.0,1.0,0.0,3.0,0.0,0.0,0.0,0.0,0.0,0.1,
2.985,100.36011949092085,85.59800486675097,0.31,-7.47,-11.85,3.0,1.0,0.0,3.0,0.0,0.0,0.0,0.0,0.0,0.2,
3.009,100.52201194909209,85.8968004866751,3.04,-11.37,-15.18,4.0,1.0,0.0,3.0,0.0,0.0,0.0,0.0,0.0,0.59,
3.034,100.70920119490921,86.2236800486675,5.52,-8.08,-3.79,4.0,1.0,0.0,3.0,0.0,0.0,0.0,0.0,0.0,0.78,
3.057,100.37692011949093,86.58936800486674,7.39,-10.34,0.0,4.0,1.0,0.0,3.0,0.0,0.0,0.0,0.0,0.0,0.59,
3.081,100.10069201194909,86.93193680048667,3.18,-3.24,1.98,4.0,1.0,0.0,3.0,0.0,0.0,0.0,0.0,0.0,0.59,
3.105,99.54206920119492,86.80419368004867,1.44,-3.46,-1.05,4.0,1.0,0.0,3.0,0.0,0.0,0.0,0.0,0.0,0.39,
3.129,99.57620692011949,87.14241936800487,1.13,-1.14,-3.6,5.0,1.0,0.0,3.0,0.0,0.0,0.0,0.0,0.0,0.39,
3.152,99.67862069201195,87.49124193680049,-2.83,-2.12,-0.71,5.0,2.0,0.0,3.0,0.0,0.0,0.0,0.0,0.0,0.49,
3.176,99.57186206920119,87.57112419368005,-2.31,-1.11,0.89,5.0,2.0,0.0,3.0,0.0,0.0,0.0,0.0,0.0,0.69,
3.201,99.41718620692012,87.624112419368,-2.15,-0.52,0.38,5.0,2.0,0.0,3.0,0.0,0.0,0.0,0.0,0.0,0.39,
3.224,99.36571862069202,87.71041124193681,-4.31,-0.61,-0.8,5.0,2.0,0.0,4.0,0.0,0.0,0.0,0.0,0.0,0.49,
3.248,99.5045718620692,87.7190411241937,-4.03,-0.4,-0.22,5.0,2.0,0.0,4.0,0.0,0.0,0.0,0.0,0.0,0.49,
3.271,99.59045718620692,87.74690411241937,-4.04,0.43,0.46,5.0,2.0,0.0,4.0,0.0,0.0,0.0,0.0,0.0,0.78,
3.296,99.69804571862068,87.79469041124193,-4.11,0.45,-0.53,5.0,2.0,0.0,4.0,0.0,0.0,0.0,0.0,0.0,0.69,
3.319,99.71780457186208,87.7904690411242,-5.18,-2.71,1.07,5.0,2.0,0.0,4.0,0.0,0.0,0.0,0.0,0.0,0.59,
3.343,99.6117804571862,87.71804690411241,-5.8,-1.31,-0.78,5.0,2.0,0.0,4.0,0.0,0.0,0.0,0.0,0.0,1.28,
3.367,99.57417804571861,87.71980469041125,-5.63,-3.3,-0.69,6.0,2.0,0.0,4.0,0.0,0.0,0.0,0.0,0.0,0.88,
3.391,99.47141780457186,87.71098046904112,-4.21,-2.38,0.11,110.0,2.0,0.0,4.0,0.0,0.0,0.0,0.0,0.0,0.69,
3.416,99.4341417804572,87.66509804690412,-3.89,-0.05,0.17,134.0,2.0,0.0,4.0,0.0,0.0,0.0,0.0,0.0,0.0,
3.439,99.40341417804572,87.66050980469042,-3.92,-0.41,0.05,225.0,2.0,0.0,4.0,0.0,0.0,0.0,0.0,0.0,0.0,
3.464,99.37334141780458,87.67805098046905,-4.07,0.17,-0.17,225.0,2.0,0.0,4.0,0.0,0.0,0.0,0.0,0.0,0.0,
3.487,99.38833414178046,87.63480509804691,-4.19,-1.09,-0.24,246.0,2.0,0.0,4.0,0.0,0.0,0.0,0.0,0.0,0.39,
3.512,99.44383341417806,87.6304805098047,-3.68,-1.11,0.29,246.0,2.0,0.0,4.0,0.0,0.0,0.0,0.0,0.0,0.39,
3.535,99.5483833414178,87.60304805098048,-3.73,-0.98,-0.41,246.0,2.0,0.0,4.0,0.0,0.0,0.0,0.0,0.0,0.2,
3.56,99.60383833414178,87.60930480509805,-4.15,-1.85,0.0,383.0,2.0,0.0,4.0,0.0,0.0,0.0,0.0,0.0,0.2,
3.584,99.57338383341417,87.6459304805098,-4.34,-2.5,-0.47,246.0,2.0,0.0,4.0,0.0,0.0,0.0,0.0,0.0,0.0,
3.608,99.4983383833414,87.60459304805099,-4.32,-0.95,0.74,272.0,2.0,0.0,4.0,0.0,0.0,0.0,0.0,0.0,0.39,
3.633,99.59883383833414,87.5734593048051,-4.85,-0.97,-0.19,272.0,2.0,0.0,4.0,0.0,0.0,0.0,0.0,0.0,0.49,
3.656,99.68988338383342,87.56134593048051,-4.4,-2.08,-0.25,272.0,2.0,0.0,4.0,0.0,0.0,0.0,0.0,0.0,0.78,
3.681,99.69898833838334,87.55113459304805,-4.46,-1.71,-0.37,246.0,2.0,0.0,4.0,0.0,0.0,0.0,0.0,0.0,0.78,
3.704,99.71789883383833,87.50511345930481,-4.59,-1.81,-0.49,272.0,2.0,0.0,4.0,0.0,0.0,0.0,0.0,0.0,0.98,
3.729,99.76478988338383,87.50051134593048,-4.02,-2.31,-0.11,272.0,2.0,0.0,4.0,0.0,0.0,0.0,0.0,0.0,1.18,
3.752,99.76047898833839,87.47305113459305,-3.79,-2.2,-0.15,272.0,2.0,0.0,4.0,0.0,0.0,0.0,0.0,0.0,1.37,
3.777,99.69704789883384,87.5153051134593,-3.89,-1.4,0.42,306.0,2.0,0.0,4.0,0.0,0.0,0.0,0.0,0.0,0.98,
3.802,99.67270478988338,87.50153051134593,-3.79,-1.35,0.1,306.0,2.0,0.0,4.0,0.0,0.0,0.0,0.0,0.0,0.69,
3.825,99.60727047898834,87.49115305113459,-3.76,-1.73,-0.26,306.0,2.0,0.0,4.0,0.0,0.0,0.0,0.0,0.0,0.69,
3.85,99.62772704789883,87.43611530511347,-3.77,-1.31,0.63,306.0,2.0,0.0,4.0,0.0,0.0,0.0,0.0,0.0,0.98,
3.873,99.62977270478989,87.43961153051134,-3.37,-1.21,0.08,306.0,2.0,0.0,5.0,0.0,0.0,0.0,0.0,0.0,0.78,
3.898,99.62997727047899,87.38596115305113,-3.28,-1.08,0.23,272.0,2.0,0.0,5.0,0.0,0.0,0.0,0.0,0.0,1.08,
3.921,99.61199772704789,87.38959611530511,-3.15,-0.52,0.23,272.0,2.0,0.0,5.0,0.0,0.0,0.0,0.0,0.0,0.98,
3.946,99.65519977270479,87.3629596115305,-3.08,-1.11,0.06,306.0,2.0,0.0,5.0,0.0,0.0,0.0,0.0,0.0,0.98,
3.97,99.74951997727048,87.34229596115306,-3.32,-0.76,0.03,306.0,2.0,0.0,5.0,0.0,0.0,0.0,0.0,0.0,0.78,
3.994,99.71395199772704,87.33122959611529,-3.42,-1.79,0.26,306.0,2.0,0.0,5.0,0.0,0.0,0.0,0.0,0.0,0.39,
4.018,99.5933951997727,87.33012295961151,-3.62,-1.71,0.07,306.0,2.0,0.0,5.0,0.0,0.0,0.0,0.0,0.0,0.39,
4.042,99.59933951997726,87.26701229596115,-3.68,-1.4,-0.18,306.0,2.0,0.0,5.0,0.0,0.0,0.0,0.0,0.0,0.1,
4.066,99.60893395199773,87.25170122959612,-3.53,-1.76,-0.18,306.0,2.0,0.0,5.0,0.0,0.0,0.0,0.0,0.0,0.29,
4.09,99.59189339519978,87.2411701229596,-3.76,-1.71,-0.31,306.0,2.0,0.0,5.0,0.0,0.0,0.0,0.0,0.0,0.49,
4.115,99.54518933952,87.15911701229597,-3.61,-1.16,-0.02,306.0,2.0,0.0,5.0,0.0,0.0,0.0,0.0,0.0,0.59,
4.139,99.585518933952,87.1599117012296,-3.53,-1.24,-0.5,306.0,2.0,0.0,5.0,0.0,0.0,0.0,0.0,0.0,0.69,
4.163,99.5895518933952,87.21399117012297,-3.5,-1.57,-0.53,306.0,2.0,0.0,5.0,0.0,0.0,0.0,0.0,0.0,0.29,
4.187,99.56295518933952,87.1743991170123,-4.15,-2.03,-0.37,306.0,2.0,0.0,5.0,0.0,0.0,0.0,0.0,0.0,0.69,
4.211,99.54229551893397,87.13443991170124,-3.59,-1.83,0.19,306.0,2.0,0.0,5.0,0.0,0.0,0.0,0.0,0.0,0.59,
4.235,99.5402295518934,87.13044399117013,-3.72,-1.44,0.61,306.0,2.0,0.0,5.0,0.0,0.0,0.0,0.0,0.0,0.78,
4.259,99.61202295518933,87.07604439911701,-2.81,-0.95,-1.89,272.0,2.0,0.0,5.0,0.0,0.0,0.0,0.0,0.0,0.78,
4.283,99.60120229551893,87.0886044399117,-3.41,-0.87,0.99,306.0,2.0,0.0,5.0,0.0,0.0,0.0,0.0,0.0,0.69,
4.307,99.61812022955189,87.05386044399117,-3.05,-1.08,0.47,306.0,2.0,0.0,5.0,0.0,0.0,0.0,0.0,0.0,0.59,
4.332,99.65581202295519,87.06838604439912,-3.02,-1.77,0.12,345.0,2.0,0.0,5.0,0.0,0.0,0.0,0.0,0.0,0.69,
4.356,99.65958120229553,87.07883860443991,-3.45,-1.5,-0.03,272.0,2.0,0.0,5.0,0.0,0.0,0.0,0.0,0.0,0.88,
4.38,99.64195812022956,87.12488386044399,-3.29,-1.42,0.16,306.0,2.0,0.0,5.0,0.0,0.0,0.0,0.0,0.0,0.59,
4.404,99.64019581202295,87.1204883860444,-3.04,-0.83,0.12,306.0,2.0,0.0,5.0,0.0,0.0,0.0,0.0,0.0,0.78,
4.428,99.6220195812023,87.12904883860443,-3.11,-1.33,0.21,306.0,2.0,0.0,5.0,0.0,0.0,0.0,0.0,0.0,0.69,
4.452,99.62920195812023,87.10290488386045,-3.05,-1.49,0.33,306.0,2.0,0.0,5.0,0.0,0.0,0.0,0.0,0.0,0.69,
4.476,99.65692019581202,87.10029048838604,-3.18,-1.22,0.31,345.0,2.0,0.0,5.0,0.0,0.0,0.0,0.0,0.0,0.98,
4.5,99.6146920195812,87.1000290488386,-2.89,-1.5,0.11,272.0,2.0,0.0,5.0,0.0,0.0,0.0,0.0,0.0,1.18,
4.525,99.65546920195811,87.13600290488387,-2.94,-1.37,0.25,306.0,2.0,0.0,5.0,0.0,0.0,0.0,0.0,0.0,0.49,
4.548,99.69554692019581,87.14860029048839,-2.88,-1.04,-0.07,306.0,2.0,0.0,5.0,0.0,0.0,0.0,0.0,0.0,0.29,
4.573,99.72655469201959,87.15886002904884,-2.93,-0.44,-0.33,306.0,2.0,0.0,5.0,0.0,0.0,0.0,0.0,0.0,0.29,
4.597,99.74765546920196,87.16888600290488,-2.65,-1.13,0.21,306.0,2.0,0.0,5.0,0.0,0.0,0.0,0.0,0.0,0.49,
4.621,99.7047655469202,87.19688860029049,-2.72,-1.04,0.18,272.0,2.0,0.0,5.0,0.0,0.0,0.0,0.0,0.0,0.29,
4.645,99.67347655469202,87.23568886002904,-2.92,-1.44,0.04,306.0,2.0,0.0,5.0,0.0,0.0,0.0,0.0,0.0,0.49,
4.669,99.6253476554692,87.20356888600291,-2.95,-0.96,-0.06,306.0,2.0,0.0,5.0,0.0,0.0,0.0,0.0,0.0,0.59,
4.694,99.67453476554692,87.2003568886003,-2.66,-1.21,0.08,272.0,2.0,0.0,5.0,0.0,0.0,0.0,0.0,0.0,0.69,
4.717,99.5984534765547,87.18203568886003,-2.84,-1.01,0.42,306.0,2.0,0.0,5.0,0.0,0.0,0.0,0.0,0.0,0.59,
4.742,99.69884534765546,87.189203568886,-2.81,-1.06,0.26,306.0,2.0,0.0,5.0,0.0,0.0,0.0,0.0,0.0,0.59,
4.765,99.78088453476555,87.1899203568886,-2.88,-1.53,0.26,306.0,2.0,0.0,5.0,0.0,0.0,0.0,0.0,0.0,0.59,
4.79,99.76208845347657,87.18999203568886,-3.15,-1.57,0.02,306.0,2.0,0.0,5.0,0.0,0.0,0.0,0.0,0.0,0.59,
4.813,99.71520884534765,87.26199920356888,-2.99,-1.44,0.14,306.0,2.0,0.0,5.0,0.0,0.0,0.0,0.0,0.0,0.69,
4.838,99.74652088453476,87.2331999203569,-2.84,-0.52,0.04,306.0,2.0,0.0,5.0,0.0,0.0,0.0,0.0,0.0,0.88,
4.861,99.73165208845347,87.23031999203569,-2.78,-0.65,0.34,306.0,2.0,0.0,5.0,0.0,0.0,0.0,0.0,0.0,0.88,
4.886,99.73016520884535,87.23903199920356,-2.77,-1.8,-0.09,306.0,2.0,0.0,5.0,0.0,0.0,0.0,0.0,0.0,0.69,
4.91,99.73001652088453,87.24890319992036,-2.93,-1.23,0.02,383.0,2.0,0.0,5.0,0.0,0.0,0.0,0.0,0.0,0.78,
4.934,99.72100165208846,87.19589031999203,-3.0,-0.86,-0.07,272.0,2.0,0.0,5.0,0.0,0.0,0.0,0.0,0.0,0.78,
4.959,99.71110016520883,87.2085890319992,-2.94,-1.15,0.02,306.0,2.0,0.0,5.0,0.0,0.0,0.0,0.0,0.0,0.98,
4.982,99.75511001652089,87.21885890319993,-2.79,-1.5,0.1,306.0,2.0,0.0,5.0,0.0,0.0,0.0,0.0,0.0,0.98,
5.007,99.76851100165209,87.20188589032,-3.11,-1.38,0.11,306.0,2.0,0.0,5.0,0.0,0.0,0.0,0.0,0.0,0.88,
5.03,99.7698511001652,87.19118858903201,-3.08,-1.6,-0.07,306.0,2.0,0.0,5.0,0.0,0.0,0.0,0.0,0.0,0.88,
5.055,99.82398511001651,87.1721188589032,-3.05,-1.26,0.05,306.0,2.0,0.0,5.0,0.0,0.0,0.0,0.0,0.0,0.49,
5.079,99.76639851100165,87.17021188589032,-2.84,-0.76,0.1,306.0,2.0,0.0,5.0,0.0,0.0,0.0,0.0,0.0,0.39,
5.103,99.77863985110017,87.13402118858903,-2.96,-1.1,0.27,306.0,2.0,0.0,5.0,0.0,0.0,0.0,0.0,0.0,0.39,
5.127,99.77986398511003,87.13040211885891,-2.99,-0.78,-0.06,383.0,2.0,0.0,5.0,0.0,0.0,0.0,0.0,0.0,0.39,
5.151,99.78898639851101,87.10304021188588,-3.02,-1.27,0.1,306.0,2.0,0.0,5.0,0.0,0.0,0.0,0.0,0.0,0.49,
5.175,99.7358986398511,87.08230402118859,-3.15,-1.98,0.18,306.0,2.0,0.0,5.0,0.0,0.0,0.0,0.0,0.0,0.39,
5.199,99.70358986398512,87.10723040211886,-3.29,-1.34,0.05,306.0,2.0,0.0,5.0,0.0,0.0,0.0,0.0,0.0,0.49,
5.223,99.69135898639851,87.16372304021189,-3.12,-1.27,0.05,306.0,2.0,0.0,5.0,0.0,0.0,0.0,0.0,0.0,0.39,
5.248,99.66313589863985,87.1783723040212,-3.23,-0.66,0.07,383.0,2.0,0.0,5.0,0.0,0.0,0.0,0.0,0.0,0.49,
5.271,99.69631358986399,87.19783723040211,-3.33,-1.39,-0.15,306.0,2.0,0.0,5.0,0.0,0.0,0.0,0.0,0.0,0.98,
5.296,99.7086313589864,87.2357837230402,-3.15,-1.19,0.03,306.0,2.0,0.0,5.0,0.0,0.0,0.0,0.0,0.0,0.69,
5.319,99.74586313589865,87.19457837230402,-3.31,-1.7,0.18,306.0,2.0,0.0,5.0,0.0,0.0,0.0,0.0,0.0,0.78,
5.344,99.70458631358987,87.15445783723041,-3.44,-1.81,0.09,306.0,2.0,0.0,5.0,0.0,0.0,0.0,0.0,0.0,0.59,
5.367,99.67345863135898,87.17744578372304,-3.21,-1.04,-0.08,306.0,2.0,0.0,5.0,0.0,0.0,0.0,0.0,0.0,0.59,
5.392,99.64334586313589,87.2067445783723,-2.94,-1.06,0.23,306.0,2.0,0.0,5.0,0.0,0.0,0.0,0.0,0.0,0.39,
5.415,99.67633458631359,87.22767445783724,-3.0,-0.67,0.24,306.0,2.0,0.0,5.0,0.0,0.0,0.0,0.0,0.0,0.78,
5.44,99.74263345863136,87.2117674457837,-3.17,-1.44,-0.05,306.0,2.0,0.0,5.0,0.0,0.0,0.0,0.0,0.0,0.88,
5.465,99.82126334586313,87.20117674457838,-3.19,-1.8,-0.02,306.0,2.0,0.0,5.0,0.0,0.0,0.0,0.0,0.0,0.88,
5.488,99.8471263345863,87.18211767445784,-2.86,-1.78,-0.11,345.0,2.0,0.0,5.0,0.0,0.0,0.0,0.0,0.0,0.88,
5.513,99.86771263345864,87.19821176744578,-3.23,-1.4,-0.25,306.0,2.0,0.0,5.0,0.0,0.0,0.0,0.0,0.0,0.78,
5.536,99.79777126334587,87.22682117674458,-3.19,-1.27,-0.17,306.0,2.0,0.0,5.0,0.0,0.0,0.0,0.0,0.0,0.98,
5.561,99.79077712633459,87.22068211767446,-3.04,-1.1,0.28,306.0,2.0,0.0,5.0,0.0,0.0,0.0,0.0,0.0,0.88,
5.585,99.80807771263346,87.20206821176745,-2.83,-1.25,-0.01,306.0,2.0,0.0,5.0,0.0,0.0,0.0,0.0,0.0,0.59,
5.609,99.72880777126335,87.17320682117675,-3.08,-1.04,0.11,306.0,2.0,0.0,5.0,0.0,0.0,0.0,0.0,0.0,0.29,
5.634,99.70288077712634,87.15232068211768,-2.95,-1.03,0.15,306.0,2.0,0.0,5.0,0.0,0.0,0.0,0.0,0.0,0.39,
5.657,99.71828807771263,87.13223206821176,-2.82,-1.2,-0.08,306.0,2.0,0.0,5.0,0.0,0.0,0.0,0.0,0.0,0.69,
5.682,99.75582880777127,87.15722320682117,-3.21,-1.45,-0.02,306.0,2.0,0.0,5.0,0.0,0.0,0.0,0.0,0.0,0.39,
5.705,99.68758288077713,87.14172232068212,-2.98,-1.08,0.25,306.0,2.0,0.0,5.0,0.0,0.0,0.0,0.0,0.0,0.69,
5.73,99.66275828807771,87.12217223206821,-2.87,-0.79,-0.04,306.0,2.0,0.0,5.0,0.0,0.0,0.0,0.0,0.0,0.49,
5.754,99.66027582880777,87.13821722320682,-2.85,-0.92,0.03,306.0,2.0,0.0,5.0,0.0,0.0,0.0,0.0,0.0,0.59,
5.778,99.64202758288077,87.13082172232069,-2.95,-0.95,0.12,306.0,2.0,0.0,5.0,0.0,0.0,0.0,0.0,0.0,0.78,
5.803,99.64920275828808,87.14808217223207,-2.99,-1.74,0.09,306.0,2.0,0.0,5.0,0.0,0.0,0.0,0.0,0.0,0.69,
5.826,99.6499202758288,87.19480821722321,-2.96,-1.4,0.1,306.0,2.0,0.0,5.0,0.0,0.0,0.0,0.0,0.0,0.49,
5.851,99.71299202758289,87.19948082172232,-2.94,-1.18,0.09,306.0,2.0,0.0,5.0,0.0,0.0,0.0,0.0,0.0,0.69,
5.874,99.7282992027583,87.25394808217223,-3.37,-1.41,0.14,306.0,2.0,0.0,5.0,0.0,0.0,0.0,0.0,0.0,0.88,
5.899,99.72082992027583,87.27739480821722,-3.37,-1.55,-0.11,272.0,2.0,0.0,5.0,0.0,0.0,0.0,0.0,0.0,0.98,
5.922,99.72008299202759,87.25273948082173,-3.12,-1.55,-0.08,306.0,2.0,0.0,5.0,0.0,0.0,0.0,0.0,0.0,0.88,
5.947,99.72900829920276,87.27727394808218,-3.0,-1.31,-0.08,306.0,2.0,0.0,5.0,0.0,0.0,0.0,0.0,0.0,0.69,
5.971,99.77490082992028,87.33372739480822,-3.04,-1.05,0.05,306.0,2.0,0.0,5.0,0.0,0.0,0.0,0.0,0.0,0.78,
5.995,99.79749008299203,87.32137273948081,-3.04,-1.63,0.01,306.0,2.0,0.0,5.0,0.0,0.0,0.0,0.0,0.0,0.88,
6.02,99.8087490082992,87.35613727394808,-3.17,-0.98,-0.37,306.0,2.0,0.0,5.0,0.0,0.0,0.0,0.0,0.0,0.98,
6.043,99.89087490082993,87.3776137273948,-3.08,-1.24,-0.27,306.0,2.0,0.0,5.0,0.0,0.0,0.0,0.0,0.0,0.78,
6.068,99.899087490083,87.40676137273948,-3.09,-1.72,0.27,306.0,2.0,0.0,5.0,0.0,0.0,0.0,0.0,0.0,0.78,
6.092,99.8729087490083,87.38267613727395,-3.3,-1.49,0.02,306.0,2.0,0.0,5.0,0.0,0.0,0.0,0.0,0.0,0.69,
6.116,99.87029087490083,87.36226761372738,-3.23,-1.18,-0.55,272.0,2.0,0.0,5.0,0.0,0.0,0.0,0.0,0.0,0.49,
6.14,99.88802908749008,87.36922676137274,-2.87,-1.66,0.14,306.0,2.0,0.0,5.0,0.0,0.0,0.0,0.0,0.0,0.39,
6.164,99.907802908749,87.31592267613728,-2.92,-1.37,0.09,306.0,2.0,0.0,5.0,0.0,0.0,0.0,0.0,0.0,0.39,
6.189,99.9457802908749,87.27459226761371,-2.75,-1.12,0.18,272.0,2.0,0.0,5.0,0.0,0.0,0.0,0.0,0.0,0.59,
6.212,99.85957802908749,87.25245922676137,-3.21,-1.18,-0.02,306.0,2.0,0.0,5.0,0.0,0.0,0.0,0.0,0.0,0.49,
6.237,99.78795780290875,87.26824592267613,-3.0,-1.4,-0.02,306.0,2.0,0.0,5.0,0.0,0.0,0.0,0.0,0.0,0.59,
6.26,99.77179578029086,87.3148245922676,-2.76,-1.18,0.18,306.0,2.0,0.0,5.0,0.0,0.0,0.0,0.0,0.0,0.49,
6.285,99.78817957802909,87.34648245922675,-3.1,-1.43,0.08,306.0,2.0,0.0,5.0,0.0,0.0,0.0,0.0,0.0,0.69,
6.308,99.76281795780291,87.28664824592268,-3.54,-2.03,0.21,306.0,2.0,0.0,5.0,0.0,0.0,0.0,0.0,0.0,0.69,
6.333,99.7512817957803,87.23566482459228,-3.6,-1.54,0.15,272.0,2.0,0.0,5.0,0.0,0.0,0.0,0.0,0.0,0.69,
6.356,99.75012817957804,87.20356648245922,-3.5,-1.05,-0.26,306.0,2.0,0.0,5.0,0.0,0.0,0.0,0.0,0.0,0.78,
6.381,99.7410128179578,87.20035664824593,-3.74,-1.31,-0.69,306.0,2.0,0.0,5.0,0.0,0.0,0.0,0.0,0.0,0.78,
6.406,99.66810128179578,87.1100356648246,-3.34,-1.12,-0.35,306.0,2.0,0.0,5.0,0.0,0.0,0.0,0.0,0.0,0.78,
6.429,99.67881012817958,87.13700356648246,-2.06,0.34,0.37,272.0,2.0,0.0,5.0,0.0,0.0,0.0,0.0,0.0,0.69,
6.454,99.74288101281796,87.13070035664825,-2.18,2.21,-0.02,306.0,2.0,0.0,5.0,0.0,0.0,0.0,0.0,0.0,0.98,
6.477,99.86628810128178,87.19307003566483,-1.98,-0.22,-0.48,442.0,2.0,0.0,4.0,0.0,0.0,0.0,0.0,0.0,1.08,
6.502,99.80662881012817,87.14530700356649,-2.34,-0.01,-1.47,306.0,2.0,0.0,4.0,0.0,0.0,0.0,0.0,0.0,1.28,
6.525,99.89966288101282,87.23953070035665,-1.71,-0.53,-0.92,272.0,2.0,0.0,4.0,0.0,0.0,0.0,0.0,0.0,0.0,
6.55,99.89096628810128,87.25795307003567,-2.12,-2.37,-1.15,5.0,1.0,0.0,3.0,0.0,0.0,0.0,0.0,0.0,0.0,
6.574,99.80909662881012,87.16979530700357,-0.75,-0.02,-0.31,5.0,1.0,0.0,3.0,0.0,0.0,0.0,0.0,0.0,5.59,
6.598,99.79190966288101,87.10697953070036,-0.33,-1.79,-1.52,4.0,1.0,0.0,3.0,0.0,0.0,0.0,0.0,0.0,1.47,
6.622,99.7091909662881,87.02869795307004,-1.54,-1.14,-2.52,4.0,1.0,0.0,3.0,0.0,0.0,0.0,0.0,0.0,0.88,
6.646,99.70091909662881,87.011869795307,-1.95,-1.44,-4.96,4.0,1.0,0.0,3.0,0.0,0.0,0.0,0.0,0.0,1.28,
6.67,99.82609190966289,87.2981869795307,-2.21,-2.06,-5.02,4.0,1.0,0.0,3.0,0.0,0.0,0.0,0.0,0.0,1.08,
6.694,100.14460919096629,87.37181869795306,-1.55,-1.41,-1.41,4.0,1.0,0.0,3.0,0.0,0.0,0.0,0.0,0.0,0.59,
6.718,100.23946091909664,87.4601818697953,-0.94,-2.83,-0.58,4.0,1.0,0.0,3.0,0.0,0.0,0.0,0.0,0.0,0.49,
6.743,100.20394609190967,87.58601818697953,-0.99,0.07,-0.03,4.0,1.0,0.0,3.0,0.0,0.0,0.0,0.0,0.0,0.49,
6.766,100.10139460919098,87.48160181869795,0.69,2.74,1.91,4.0,1.0,0.0,3.0,0.0,0.0,0.0,0.0,0.0,0.59,
6.79,100.1271394609191,87.42616018186979,3.04,0.73,2.02,4.0,1.0,0.0,3.0,0.0,0.0,0.0,0.0,0.0,0.59,
6.813,100.29171394609192,87.46561601818698,5.44,3.05,2.72,5.0,1.0,0.0,3.0,0.0,0.0,0.0,0.0,0.0,0.29,
6.837,100.1911713946092,87.4425616018187,7.83,4.5,-4.17,5.0,1.0,0.0,3.0,0.0,0.0,0.0,0.0,0.0,0.1,
6.861,100.17211713946092,87.72825616018187,6.77,4.81,-1.12,5.0,1.0,0.0,3.0,0.0,0.0,0.0,0.0,0.0,0.0,
6.885,100.37721171394611,88.21582561601818,7.5,6.51,6.75,5.0,1.0,0.0,3.0,0.0,0.0,0.0,0.0,0.0,0.0,
6.908,100.51472117139461,88.23758256160181,7.92,11.2,-1.01,6.0,2.0,0.0,3.0,0.0,0.0,0.0,0.0,0.0,0.0,
6.932,100.97847211713946,88.93275825616018,10.56,12.86,-0.74,272.0,2.0,0.0,3.0,0.0,0.0,0.0,0.0,0.0,0.0,
6.957,101.36684721171395,89.49727582561601,1.29,12.04,-8.11,272.0,2.0,0.0,3.0,0.0,0.0,0.0,0.0,0.0,0.0,
6.981,101.90968472117139,89.56272758256159,-3.56,13.44,-14.04,272.0,3.0,0.0,3.0,0.0,0.0,0.0,0.0,0.0,0.0,
7.005,102.07196847211713,89.73127275825617,-7.62,15.92,-14.5,246.0,3.0,0.0,4.0,0.0,0.0,0.0,0.0,0.0,0.0,
7.029,102.52019684721171,90.17112727582563,-16.0,13.56,-15.39,306.0,4.0,0.0,5.0,0.0,0.0,0.0,0.0,0.0,0.0,
7.054,102.46601968472118,89.86411272758255,-15.96,10.77,-10.39,306.0,5.0,0.0,6.0,0.0,0.0,0.0,0.0,0.0,0.0,
7.078,102.28960196847211,89.11341127275827,-9.63,9.91,-10.44,345.0,6.0,0.0,7.0,0.0,0.0,0.0,0.0,0.0,0.0,
7.102,103.0459601968472,88.60634112727581,-5.4,2.81,-1.12,306.0,6.0,0.0,8.0,0.0,0.0,0.0,0.0,0.0,0.0,
7.127,103.28359601968472,88.58263411272758,-11.94,-2.61,-1.72,383.0,7.0,0.0,9.0,0.0,0.0,0.0,0.0,0.0,0.0,
7.151,103.10935960196848,88.36426341127276,-9.88,-2.26,-3.43,522.0,7.0,0.0,10.0,0.0,0.0,0.0,0.0,0.0,0.0,
7.175,103.19093596019685,88.36042634112728,-10.12,-1.67,-0.46,3300.0,8.0,0.0,10.0,0.0,0.0,0.0,0.0,0.0,0.0,
7.199,103.04609359601969,88.04504263411273,-6.13,1.46,3.04,-33.0,8.0,0.0,11.0,0.0,0.0,0.0,0.0,0.0,0.0,
7.224,103.06760935960196,87.91450426341129,-3.25,2.55,1.54,3300.0,8.0,0.0,11.0,0.0,0.0,0.0,0.0,0.0,0.0,
7.248,103.2497609359602,87.99145042634113,0.42,-0.19,3.27,1633.0,8.0,0.0,11.0,0.0,0.0,0.0,0.0,0.0,0.0,
7.272,103.39397609359602,88.17914504263412,-1.7,-1.43,2.78,-33.0,8.0,0.0,11.0,0.0,0.0,0.0,0.0,0.0,0.1,
7.297,103.4353976093596,88.30591450426341,-4.85,-2.02,1.66,3300.0,8.0,0.0,11.0,0.0,0.0,0.0,0.0,0.0,0.0,
7.321,103.39453976093596,88.43559145042634,-11.79,-3.12,-0.39,-33.0,8.0,0.0,12.0,0.0,0.0,0.0,0.0,0.0,0.29,
7.346,103.3814539760936,88.28655914504263,-10.6,-0.05,0.14,1077.0,8.0,0.0,12.0,0.0,0.0,0.0,0.0,0.0,0.39,
7.369,103.50614539760934,88.21765591450426,-4.58,-0.06,0.82,-33.0,8.0,0.0,12.0,0.0,0.0,1.0,0.0,0.0,2.35,
7.394,103.50061453976093,88.19276559145042,-1.85,-0.25,3.28,-33.0,8.0,0.0,12.0,0.0,0.0,1.0,0.0,0.0,1.47,
7.418,103.6080614539761,88.19927655914505,-2.01,0.22,2.15,-33.0,7.0,0.0,11.0,0.0,0.0,1.0,0.0,0.0,1.08,
7.443,103.7718061453976,88.0019276559145,-1.07,-1.02,1.33,-33.0,7.0,0.0,11.0,0.0,0.0,1.0,0.0,0.0,0.78,
7.467,103.97718061453976,87.84719276559144,0.34,-1.65,2.39,-33.0,7.0,0.0,11.0,0.0,0.0,1.0,0.0,0.0,0.59,
7.491,103.88971806145398,87.97571927655915,-1.44,-1.63,1.05,-33.0,6.0,0.0,10.0,0.0,0.0,1.0,0.0,0.0,0.59,
7.515,103.8539718061454,88.1415719276559,-1.47,-0.29,1.88,-33.0,6.0,0.0,10.0,0.0,0.0,1.0,0.0,0.0,0.78,
7.539,103.84139718061454,88.23915719276559,-1.85,1.08,1.81,-33.0,6.0,0.0,9.0,0.0,0.0,1.0,0.0,0.0,0.78,
7.564,103.92113971806145,88.06891571927656,0.47,0.28,3.89,-33.0,6.0,0.0,9.0,0.0,0.0,0.0,0.0,0.0,0.98,
7.587,104.01011397180613,88.16889157192766,-0.59,-0.26,2.92,3300.0,6.0,0.0,8.0,0.0,0.0,0.0,0.0,0.0,0.59,
7.612,104.03701139718062,88.16088915719276,-2.63,-1.41,1.25,3300.0,6.0,0.0,8.0,0.0,0.0,0.0,0.0,0.0,0.29,
7.635,104.09370113971806,88.23208891571927,-2.98,-2.66,1.1,3300.0,6.0,0.0,8.0,0.0,0.0,0.0,0.0,0.0,0.0,
7.66,104.06337011397181,88.30220889157192,-7.64,-1.66,0.0,633.0,6.0,0.0,8.0,0.0,0.0,0.0,0.0,0.0,0.0,
7.685,103.98833701139719,88.34522088915719,-9.13,-2.59,-0.6,800.0,6.0,0.0,8.0,0.0,0.0,0.0,0.0,0.0,0.0,
7.708,103.89983370113973,88.32252208891572,-9.64,-3.82,0.14,3300.0,6.0,0.0,8.0,0.0,0.0,0.0,0.0,0.0,0.59,
7.733,103.65698337011396,88.43725220889158,-7.08,-0.91,1.14,-33.0,6.0,0.0,8.0,0.0,0.0,1.0,0.0,0.0,0.88,
7.757,103.8576983370114,88.27772522088917,-8.08,-3.88,-0.19,-33.0,6.0,0.0,8.0,0.0,0.0,1.0,0.0,0.0,0.69,
7.781,103.99476983370114,88.16277252208891,-6.59,-2.81,0.63,3300.0,6.0,0.0,8.0,0.0,0.0,1.0,0.0,0.0,0.29,
7.805,103.92747698337011,88.1242772522089,-8.47,-3.36,-0.73,3300.0,6.0,0.0,8.0,0.0,0.0,1.0,0.0,0.0,0.29,
7.83,103.92074769833701,87.9224277252209,-6.79,-3.94,0.79,-33.0,6.0,0.0,9.0,0.0,0.0,1.0,0.0,0.0,0.59,
7.854,103.9470747698337,87.8752427725221,-7.67,-5.61,-0.19,3300.0,6.0,0.0,9.0,0.0,0.0,1.0,0.0,0.0,0.69,
7.878,103.81470747698337,87.76252427725221,-9.87,-6.08,-1.63,3300.0,6.0,0.0,9.0,0.0,0.0,1.0,0.0,0.0,0.59,
7.903,103.73847074769833,87.56225242772523,-10.52,-7.73,-3.01,3300.0,6.0,0.0,9.0,0.0,0.0,2.0,0.0,0.0,0.59,
7.927,103.55084707476983,87.39822524277251,-9.63,-7.61,-1.35,3300.0,6.0,0.0,10.0,0.0,0.0,2.0,0.0,0.0,0.29,
7.952,103.39708470747698,87.23782252427725,-7.3,-3.76,-0.56,1633.0,7.0,0.0,10.0,0.0,0.0,2.0,0.0,0.0,0.49,
7.975,103.26470847074769,87.05078225242772,-4.22,-1.13,1.01,1077.0,7.0,0.0,10.0,0.0,0.0,2.0,0.0,0.0,0.78,
8.0,103.16147084707478,86.92407822524277,-3.42,1.55,1.53,-33.0,7.0,0.0,10.0,0.0,0.0,2.0,0.0,0.0,0.1,
8.025,103.20514708470748,86.92040782252428,-2.24,1.19,3.05,3300.0,7.0,0.0,10.0,0.0,0.0,2.0,0.0,0.0,0.0,
8.048,103.19151470847075,86.92904078225243,-4.56,0.27,1.39,1633.0,7.0,0.0,10.0,0.0,0.0,2.0,0.0,0.0,0.0,
8.073,103.12715147084708,86.81290407822524,-3.33,1.16,2.11,1633.0,8.0,0.0,11.0,0.0,0.0,2.0,0.0,0.0,0.1,
8.097,103.0217151470847,86.77429040782252,-3.89,1.6,0.37,-33.0,8.0,0.0,11.0,0.0,0.0,2.0,0.0,0.0,0.0,
8.121,103.17317151470846,86.68042904078226,-5.15,0.55,-0.56,3300.0,8.0,0.0,11.0,0.0,0.0,2.0,0.0,0.0,0.0,
8.145,103.32331715147085,86.53604290407822,-3.86,-0.85,0.05,3300.0,8.0,0.0,11.0,0.0,0.0,2.0,0.0,0.0,0.0,
8.17,103.22133171514707,86.53060429040784,-3.6,-1.38,1.74,1077.0,8.0,0.0,11.0,0.0,0.0,2.0,0.0,0.0,0.0,
8.195,103.1661331715147,86.44906042904078,-4.03,0.28,0.95,3300.0,8.0,0.0,11.0,0.0,0.0,2.0,0.0,0.0,0.29,
8.218,103.28661331715146,86.42290604290409,-4.63,-1.23,-0.38,3300.0,8.0,0.0,12.0,0.0,0.0,2.0,0.0,0.0,0.2,
8.243,103.35266133171514,86.47429060429042,-4.2,-2.09,0.24,3300.0,8.0,0.0,0.0,0.0,0.0,2.0,0.0,0.0,0.2,
8.267,103.18826613317152,86.49742906042906,-5.3,-2.3,-0.98,-33.0,8.0,0.0,1.0,0.0,0.0,2.0,0.0,0.0,0.1,
8.292,103.17182661331717,86.44574290604291,-4.89,-0.34,-0.31,-33.0,8.0,0.0,1.0,0.0,0.0,2.0,0.0,0.0,0.29,
8.315,103.26018266133171,86.35957429060429,-2.84,1.5,0.21,-33.0,8.0,0.0,1.0,0.0,0.0,2.0,0.0,0.0,0.59,
8.34,103.29601826613316,86.35995742906043,-1.13,2.5,1.53,3300.0,8.0,0.0,1.0,0.0,0.0,2.0,0.0,0.0,0.69,
8.364,103.31760182661331,86.36899574290605,-0.56,2.22,1.77,-33.0,9.0,0.0,2.0,0.0,0.0,2.0,0.0,0.0,0.49,
8.388,103.37376018266133,86.38789957429061,-0.34,2.07,1.54,-33.0,9.0,0.0,1.0,0.0,0.0,2.0,0.0,0.0,0.2,
8.412,103.49637601826613,86.38978995742906,-0.49,0.91,1.3,-33.0,9.0,0.0,1.0,0.0,0.0,2.0,0.0,0.0,0.2,
8.436,103.64363760182661,86.39897899574291,0.19,1.88,1.6,-33.0,9.0,0.0,1.0,0.0,0.0,2.0,0.0,0.0,0.0,
8.46,103.68536376018265,86.50789789957429,0.29,1.13,1.63,-33.0,9.0,0.0,0.0,0.0,0.0,2.0,0.0,0.0,0.0,
8.484,103.82453637601827,86.55478978995744,-1.87,0.05,0.92,3300.0,9.0,0.0,0.0,0.0,0.0,2.0,0.0,0.0,0.0,
8.508,103.79345363760183,86.65847897899575,-0.89,1.82,2.4,3300.0,9.0,0.0,1.0,0.0,0.0,2.0,0.0,0.0,0.1,
8.532,103.71834536376018,86.73184789789957,-1.88,1.63,1.74,3300.0,9.0,0.0,1.0,0.0,0.0,2.0,0.0,0.0,0.2,
8.556,103.75583453637601,86.75718478978996,-2.43,1.69,1.34,3300.0,9.0,0.0,1.0,0.0,0.0,2.0,0.0,0.0,0.0,
8.581,103.94858345363761,86.768718478979,-2.56,0.89,1.16,-33.0,9.0,0.0,0.0,0.0,0.0,2.0,0.0,0.0,0.0,
8.605,103.98585834536375,86.7158718478979,-3.07,0.07,0.76,3300.0,9.0,0.0,0.0,0.0,0.0,2.0,0.0,0.0,0.0,
8.629,104.00758583453639,86.73758718478979,-2.25,-0.29,0.73,3300.0,9.0,0.0,0.0,0.0,0.0,2.0,0.0,0.0,0.1,
8.653,104.00075858345365,86.76675871847898,-2.66,-0.82,0.44,800.0,9.0,0.0,0.0,0.0,0.0,2.0,0.0,0.0,0.2,
8.678,104.01807585834536,86.70667587184789,-3.01,0.29,0.25,3300.0,9.0,0.0,2.0,0.0,0.0,2.0,0.0,0.0,0.2,
8.701,104.15480758583453,86.6466675871848,-3.02,0.34,0.42,3300.0,9.0,0.0,0.0,0.0,0.0,2.0,0.0,0.0,0.1,
8.726,104.27648075858346,86.6226667587185,-3.45,-0.44,0.28,3300.0,9.0,0.0,1.0,0.0,0.0,2.0,0.0,0.0,0.0,
8.75,104.33364807585835,86.62926667587185,-3.85,-1.13,0.47,3300.0,9.0,0.0,0.0,0.0,0.0,2.0,0.0,0.0,0.1,
8.774,104.32136480758582,86.61192666758718,-4.51,-1.31,0.24,3300.0,9.0,0.0,1.0,0.0,0.0,2.0,0.0,0.0,0.39,
8.799,104.32913648075859,86.79019266675873,-5.54,0.06,1.5,3300.0,10.0,0.0,0.0,0.0,0.0,3.0,0.0,0.0,0.69,
8.822,104.35691364807586,86.76301926667587,-5.32,-1.09,0.07,3300.0,10.0,0.0,0.0,0.0,0.0,3.0,0.0,0.0,0.49,
8.847,104.39569136480759,86.6343019266676,-4.38,-1.38,0.16,3300.0,10.0,0.0,1.0,0.0,0.0,3.0,0.0,0.0,0.2,
8.871,104.36356913648076,86.63943019266677,-4.06,-1.98,0.53,3300.0,10.0,0.0,2.0,0.0,0.0,3.0,0.0,0.0,0.2,
8.896,104.35135691364806,86.6759430192667,-3.85,-2.27,0.44,1077.0,10.0,0.0,2.0,0.0,0.0,3.0,0.0,0.0,0.2,
8.92,104.36813569136481,86.63459430192667,-4.42,-2.6,-0.28,3300.0,10.0,0.0,2.0,0.0,0.0,3.0,0.0,0.0,0.0,
8.944,104.29781356913648,86.55845943019266,-4.88,-3.21,0.11,1633.0,10.0,0.0,2.0,0.0,0.0,3.0,0.0,0.0,0.0,
8.969,104.22778135691365,86.51484594301927,-4.84,-3.99,-0.34,3300.0,10.0,0.0,2.0,0.0,0.0,3.0,0.0,0.0,0.1,
8.993,104.20277813569136,86.49248459430191,-4.54,-4.76,0.0,1633.0,10.0,0.0,2.0,0.0,0.0,3.0,0.0,0.0,0.39,
9.018,104.18227781356914,86.42724845943019,-4.82,-6.88,-0.21,3300.0,9.0,0.0,2.0,0.0,0.0,3.0,0.0,0.0,0.29,
9.041,104.13522778135692,86.39372484594303,-4.82,-9.3,-1.16,3300.0,9.0,0.0,1.0,0.0,0.0,3.0,0.0,0.0,0.39,
9.066,104.11252277813568,86.3093724845943,-6.56,-13.85,-3.92,3300.0,8.0,0.0,12.0,0.0,0.0,3.0,0.0,0.0,0.49,
9.091,103.84925227781356,86.17493724845943,-4.73,-13.99,-2.6,1633.0,7.0,0.0,11.0,0.0,0.0,2.0,0.0,0.0,0.88,
9.115,103.47192522778136,86.30549372484595,-4.87,-12.21,-2.37,272.0,7.0,0.0,10.0,0.0,0.0,2.0,0.0,0.0,1.57,
9.14,103.14619252277814,86.2825493724846,-8.27,-15.26,-6.66,246.0,5.0,0.0,8.0,0.0,0.0,1.0,0.0,0.0,2.06,
9.164,102.78961925227782,85.88425493724846,-1.13,-14.16,-2.91,225.0,4.0,0.0,7.0,0.0,0.0,1.0,0.0,0.0,2.65,
9.188,102.98796192522778,86.32142549372485,-9.5,-13.85,-2.64,225.0,3.0,0.0,5.0,0.0,0.0,1.0,0.0,0.0,5.0,
9.212,102.95379619252277,86.0591425493725,-10.73,-22.18,10.33,-33.0,2.0,0.0,4.0,0.0,0.0,1.0,0.0,0.0,6.47,
9.237,102.26637961925228,85.52891425493725,-3.52,-5.56,23.43,4.0,1.0,0.0,3.0,0.0,0.0,0.0,0.0,0.0,5.0,
9.262,101.77463796192522,85.25989142549373,1.67,-5.42,15.15,3.0,0.0,0.0,2.0,0.0,0.0,0.0,0.0,0.0,11.48,
9.285,101.61746379619251,85.26898914254937,8.95,-6.18,12.37,2.0,0.0,0.0,2.0,0.0,0.0,0.0,0.0,0.0,8.34,
9.309,101.26874637961924,85.87289891425493,18.91,-26.86,4.33,2.0,0.0,0.0,2.0,0.0,0.0,0.0,0.0,0.0,6.28,
9.333,100.44187463796192,85.7262898914255,20.6,-17.68,0.31,3.0,0.0,0.0,2.0,0.0,0.0,0.0,0.0,0.0,4.22,
9.357,100.5301874637962,84.33462898914256,4.55,11.16,-17.89,3.0,1.0,0.0,3.0,0.0,0.0,0.0,0.0,0.0,2.16,
9.381,98.59501874637962,85.18546289891427,1.16,35.03,49.46,4.0,1.0,0.0,3.0,0.0,0.0,0.0,0.0,0.0,1.18,
9.405,98.59050187463797,86.43154628989143,-9.77,23.93,-4.98,5.0,2.0,0.0,4.0,0.0,0.0,0.0,0.0,0.0,0.0,
9.43,98.7250501874638,86.34015462898914,-1.49,13.05,-2.89,175.0,2.0,0.0,4.0,0.0,0.0,0.0,0.0,0.0,0.0,
9.453,99.08950501874638,86.73601546289892,1.86,17.31,5.91,522.0,3.0,0.0,5.0,0.0,0.0,0.0,0.0,0.0,0.0,
9.478,99.85495050187464,86.9016015462899,0.09,14.81,-2.31,-33.0,3.0,0.0,5.0,0.0,0.0,0.0,0.0,0.0,0.0,
9.501,100.60649505018746,87.03516015462898,2.85,12.31,-4.52,-33.0,3.0,0.0,5.0,0.0,0.0,0.0,0.0,0.0,0.0,
9.526,101.18564950501874,87.31851601546289,2.18,10.32,2.72,-33.0,4.0,0.0,6.0,0.0,0.0,0.0,0.0,0.0,0.0,
9.549,101.47756495050189,87.40985160154628,-1.32,9.24,-2.0,-33.0,4.0,0.0,6.0,0.0,0.0,0.0,0.0,0.0,0.0,
9.574,101.8037564950502,87.58998516015463,1.27,10.31,4.4,3300.0,5.0,0.0,7.0,0.0,0.0,0.0,0.0,0.0,0.0,
9.598,102.16937564950501,87.76999851601548,-1.02,8.57,2.89,-33.0,5.0,0.0,7.0,0.0,0.0,0.0,0.0,0.0,0.0,
9.622,102.5389375649505,87.70699985160155,0.18,6.82,2.57,-33.0,6.0,0.0,7.0,0.0,0.0,0.0,0.0,0.0,0.0,
9.647,102.83689375649506,87.75469998516016,-0.76,4.58,0.44,-33.0,6.0,0.0,8.0,0.0,0.0,0.0,0.0,0.0,0.0,
9.67,103.1546893756495,87.75946999851602,-2.5,3.3,-0.68,-33.0,6.0,0.0,8.0,0.0,0.0,1.0,0.0,0.0,0.0,
9.695,103.25846893756494,87.8409469998516,-3.16,4.63,0.31,-33.0,6.0,0.0,8.0,0.0,0.0,1.0,0.0,0.0,0.0,
9.718,103.3678468937565,87.91209469998516,-2.66,5.26,1.78,-33.0,7.0,0.0,9.0,0.0,0.0,1.0,0.0,0.0,0.0,
9.743,103.55878468937564,87.88320946999852,-1.95,5.08,2.23,-33.0,7.0,0.0,9.0,0.0,0.0,1.0,0.0,0.0,0.0,
9.766,103.85687846893757,87.98832094699985,-3.5,2.41,1.47,-33.0,7.0,0.0,9.0,0.0,0.0,1.0,0.0,0.0,0.0,
9.791,104.11168784689376,88.0528320947,-3.55,1.6,0.49,-33.0,7.0,0.0,9.0,0.0,0.0,1.0,0.0,0.0,0.0,
9.815,104.22716878468938,88.03228320947,-3.94,2.03,0.62,-33.0,7.0,0.0,10.0,0.0,0.0,1.0,0.0,0.0,0.0,
9.839,104.29271687846894,88.06622832094699,-5.05,1.81,0.95,-33.0,8.0,0.0,10.0,0.0,0.0,1.0,0.0,0.0,0.0,
9.863,104.3622716878469,88.04262283209471,-3.92,1.54,1.53,-33.0,8.0,0.0,10.0,0.0,0.0,1.0,0.0,0.0,0.0,
9.887,104.53122716878468,88.06726228320946,-3.32,0.33,0.43,-33.0,8.0,0.0,10.0,0.0,0.0,1.0,0.0,0.0,0.0,
9.912,104.63812271687847,88.06972622832093,-3.75,-0.67,0.57,-33.0,8.0,0.0,10.0,0.0,0.0,1.0,0.0,0.0,0.0,
9.935,104.72081227168785,87.9709726228321,-4.21,-1.77,-0.76,-33.0,8.0,0.0,11.0,0.0,0.0,1.0,0.0,0.0,0.0,
9.96,104.7830812271688,87.9790972622832,-4.63,-1.85,-0.19,-33.0,8.0,0.0,11.0,0.0,0.0,1.0,0.0,0.0,0.0,
9.985,104.81630812271688,87.95290972622831,-4.93,-0.85,0.47,-33.0,8.0,0.0,11.0,0.0,0.0,1.0,0.0,0.0,0.0,
10.008,104.8646308122717,87.95029097262284,-3.9,-1.14,0.46,-33.0,8.0,0.0,11.0,0.0,0.0,1.0,0.0,0.0,0.0,
10.033,104.86946308122718,87.92302909726229,-3.6,-1.21,0.48,-33.0,8.0,0.0,11.0,0.0,0.0,1.0,0.0,0.0,0.2,
10.057,104.92394630812272,87.83930290972623,-3.14,-0.97,0.11,-33.0,8.0,0.0,11.0,0.0,0.0,1.0,0.0,0.0,0.49,
10.082,104.97439463081227,87.80393029097262,-2.77,-1.19,0.34,-33.0,8.0,0.0,11.0,0.0,0.0,1.0,0.0,0.0,0.2,
10.105,104.97943946308122,87.78239302909726,-3.31,-2.02,-0.3,-33.0,8.0,0.0,11.0,0.0,0.0,1.0,0.0,0.0,0.1,
10.13,105.03394394630811,87.79823930290972,-3.95,-3.34,-0.6,633.0,8.0,0.0,11.0,0.0,0.0,1.0,0.0,0.0,0.2,
10.155,105.0393943946308,87.84482393029097,-4.37,-3.37,-0.6,633.0,8.0,0.0,11.0,0.0,0.0,1.0,0.0,0.0,0.59,
10.179,104.99493943946308,87.85848239302909,-4.49,-3.09,-0.34,383.0,8.0,0.0,11.0,0.0,0.0,1.0,0.0,0.0,0.98,
10.204,104.9904939439463,87.8238482393029,-4.27,-3.23,-0.08,633.0,8.0,0.0,11.0,0.0,0.0,1.0,0.0,0.0,0.49,
10.228,104.99004939439463,87.80238482393028,-4.58,-3.95,-0.26,522.0,8.0,0.0,11.0,0.0,0.0,1.0,0.0,0.0,0.39,
10.253,104.85500493943947,87.75523848239304,-5.83,-3.57,-0.88,633.0,8.0,0.0,11.0,0.0,0.0,1.0,0.0,0.0,0.2,
10.277,104.84150049394395,87.68752384823931,-5.0,-2.92,-0.66,633.0,8.0,0.0,11.0,0.0,0.0,1.0,0.0,0.0,0.0,
10.301,104.87615004939438,87.67175238482393,-4.99,-3.52,-0.31,633.0,8.0,0.0,11.0,0.0,0.0,1.0,0.0,0.0,0.0,
10.326,104.84361500493944,87.6341752384824,-5.15,-3.23,-0.89,633.0,8.0,0.0,11.0,0.0,0.0,1.0,0.0,0.0,0.1,
10.35,104.80436150049394,87.57641752384824,-3.98,-2.42,-0.25,522.0,8.0,0.0,11.0,0.0,0.0,1.0,0.0,0.0,0.39,
10.375,104.73743615004939,87.56164175238483,-3.54,-2.28,-0.53,633.0,8.0,0.0,11.0,0.0,0.0,1.0,0.0,0.0,0.69,
10.399,104.67674361500494,87.52416417523848,-3.19,-2.07,-0.45,633.0,8.0,0.0,11.0,0.0,0.0,1.0,0.0,0.0,0.59,
10.424,104.61667436150049,87.47541641752385,-3.15,-2.14,-0.16,633.0,8.0,0.0,11.0,0.0,0.0,1.0,0.0,0.0,0.49,
10.448,104.60166743615005,87.47054164175238,-2.73,-1.94,0.11,633.0,8.0,0.0,11.0,0.0,0.0,1.0,0.0,0.0,0.29,
10.472,104.528166743615,87.47005416417524,-2.82,-1.87,0.13,800.0,8.0,0.0,11.0,0.0,0.0,1.0,0.0,0.0,0.49,
10.497,104.5478166743615,87.49700541641752,-2.91,-2.22,-0.11,633.0,8.0,0.0,10.0,0.0,0.0,1.0,0.0,0.0,0.78,
10.521,104.50478166743615,87.55370054164175,-3.91,-3.08,-0.36,633.0,8.0,0.0,10.0,0.0,0.0,1.0,0.0,0.0,0.98,
10.546,104.4734781667436,87.49637005416417,-4.15,-2.37,-0.4,633.0,8.0,0.0,11.0,0.0,0.0,1.0,0.0,0.0,0.39,
10.57,104.49734781667435,87.48163700541642,-3.67,-2.08,0.01,633.0,8.0,0.0,11.0,0.0,0.0,1.0,0.0,0.0,0.29,
10.594,104.44573478166743,87.47116370054164,-3.92,-2.02,-0.37,633.0,8.0,0.0,11.0,0.0,0.0,1.0,0.0,0.0,0.1,
10.618,104.42257347816675,87.43411637005417,-3.88,-2.2,-0.45,522.0,8.0,0.0,11.0,0.0,0.0,1.0,0.0,0.0,0.1,
10.643,104.34825734781668,87.4574116370054,-3.35,-1.47,0.05,633.0,8.0,0.0,11.0,0.0,0.0,1.0,0.0,0.0,0.0,
10.668,104.34082573478167,87.45974116370054,-3.17,-1.57,-0.02,633.0,8.0,0.0,11.0,0.0,0.0,1.0,0.0,0.0,0.2,
10.692,104.34008257347817,87.45997411637005,-3.17,-1.85,-0.14,800.0,8.0,0.0,11.0,0.0,0.0,1.0,0.0,0.0,0.59,
10.716,104.35800825734782,87.441997411637,-2.82,-0.96,0.28,522.0,8.0,0.0,11.0,0.0,0.0,1.0,0.0,0.0,0.59,
10.74,104.34180082573478,87.4941997411637,-1.96,-0.13,0.77,1077.0,8.0,0.0,11.0,0.0,0.0,1.0,0.0,0.0,0.39,
10.765,104.36718008257348,87.51741997411636,-3.15,-1.05,-0.02,522.0,8.0,0.0,11.0,0.0,0.0,1.0,0.0,0.0,0.29,
10.789,104.30671800825735,87.50174199741164,-2.98,-1.29,-0.24,522.0,8.0,0.0,10.0,0.0,0.0,1.0,0.0,0.0,0.39,
10.814,104.30967180082574,87.47317419974117,-3.37,-2.09,-0.52,442.0,8.0,0.0,10.0,0.0,0.0,1.0,0.0,0.0,0.69,
10.839,104.30096718008258,87.47931741997411,-4.08,-1.53,-0.44,522.0,8.0,0.0,11.0,0.0,0.0,1.0,0.0,0.0,0.88,
10.863,104.30909671800826,87.4169317419974,-3.02,-0.66,0.13,522.0,8.0,0.0,10.0,0.0,0.0,1.0,0.0,0.0,0.69,
10.887,104.31890967180081,87.44669317419974,-3.02,-0.77,0.15,522.0,8.0,0.0,10.0,0.0,0.0,1.0,0.0,0.0,0.59,
10.911,104.27489096718008,87.44966931741997,-3.19,-0.76,0.09,522.0,8.0,0.0,11.0,0.0,0.0,1.0,0.0,0.0,0.39,
10.936,104.27048909671801,87.40496693174201,-2.44,-0.63,0.29,522.0,8.0,0.0,11.0,0.0,0.0,1.0,0.0,0.0,0.0,
10.96,104.2970489096718,87.43649669317419,-2.73,-0.96,0.53,633.0,8.0,0.0,11.0,0.0,0.0,1.0,0.0,0.0,0.0,
10.984,104.26370489096718,87.43964966931742,-2.88,-0.89,0.7,522.0,8.0,0.0,11.0,0.0,0.0,1.0,0.0,0.0,0.1,
11.009,104.3143704890967,87.45796496693174,-2.7,-1.24,0.81,522.0,8.0,0.0,11.0,0.0,0.0,1.0,0.0,0.0,0.29,
11.033,104.35543704890968,87.45079649669317,-3.72,-1.98,0.31,522.0,8.0,0.0,11.0,0.0,0.0,1.0,0.0,0.0,0.49,
11.058,104.36854370489097,87.43207964966933,-3.47,-1.74,0.24,522.0,8.0,0.0,11.0,0.0,0.0,1.0,0.0,0.0,0.49,
11.081,104.4058543704891,87.43020796496694,-4.17,-1.68,-0.22,442.0,8.0,0.0,11.0,0.0,0.0,2.0,0.0,0.0,0.29,
11.106,104.3825854370489,87.41202079649669,-4.36,-1.22,-0.25,306.0,8.0,0.0,11.0,0.0,0.0,2.0,0.0,0.0,0.29,
11.13,104.4252585437049,87.38320207964966,-4.15,-1.23,-0.25,522.0,8.0,0.0,11.0,0.0,0.0,2.0,0.0,0.0,0.59,
11.155,104.41152585437048,87.36232020796496,-3.73,-1.44,-0.2,522.0,8.0,0.0,11.0,0.0,0.0,2.0,0.0,0.0,0.88,
11.18,104.44615258543706,87.3152320207965,-3.48,-1.27,-0.15,522.0,8.0,0.0,11.0,0.0,0.0,2.0,0.0,0.0,0.98,
11.204,104.43161525854372,87.30152320207964,-3.37,-1.05,-0.3,633.0,8.0,0.0,11.0,0.0,0.0,2.0,0.0,0.0,0.69,
11.229,104.40316152585437,87.28215232020797,-2.69,-0.76,-0.07,522.0,8.0,0.0,11.0,0.0,0.0,2.0,0.0,0.0,0.49,
11.252,104.43631615258543,87.28921523202081,-2.44,-0.44,0.03,522.0,9.0,0.0,11.0,0.0,0.0,2.0,0.0,0.0,0.39,
11.277,104.46663161525854,87.25392152320208,-2.18,-0.6,0.02,522.0,8.0,0.0,11.0,0.0,0.0,2.0,0.0,0.0,0.0,
11.301,104.47866316152586,87.2953921523202,-1.95,-0.7,0.04,522.0,8.0,0.0,11.0,0.0,0.0,2.0,0.0,0.0,0.0,
11.326,104.47086631615258,87.28153921523203,-1.91,-0.18,0.45,522.0,8.0,0.0,11.0,0.0,0.0,2.0,0.0,0.0,0.1,
11.35,104.47908663161526,87.3521539215232,-2.04,-0.45,0.02,522.0,8.0,0.0,11.0,0.0,0.0,2.0,0.0,0.0,0.39,
11.374,104.48890866316152,87.35921539215231,-2.3,-0.79,-0.63,522.0,8.0,0.0,11.0,0.0,0.0,2.0,0.0,0.0,0.49,
11.399,104.48989086631614,87.40492153921522,-1.96,-0.41,-0.44,522.0,8.0,0.0,11.0,0.0,0.0,2.0,0.0,0.0,0.29,
11.423,104.48098908663162,87.44549215392152,-2.05,-0.73,0.14,522.0,8.0,0.0,11.0,0.0,0.0,1.0,0.0,0.0,0.1,
11.448,104.48909890866315,87.45854921539215,-2.76,-1.37,-0.27,522.0,8.0,0.0,11.0,0.0,0.0,1.0,0.0,0.0,0.39,
11.472,104.51690989086632,87.45985492153922,-3.03,-1.12,-0.07,522.0,8.0,0.0,11.0,0.0,0.0,1.0,0.0,0.0,0.49,
11.496,104.51069098908664,87.48698549215392,-2.72,-1.31,-0.08,522.0,8.0,0.0,11.0,0.0,0.0,1.0,0.0,0.0,0.69,
11.521,104.46506909890866,87.5616985492154,-3.34,-1.85,-0.37,522.0,8.0,0.0,11.0,0.0,0.0,2.0,0.0,0.0,0.69,
11.545,104.46050690989085,87.56916985492154,-3.15,-1.49,-0.08,522.0,8.0,0.0,12.0,0.0,0.0,2.0,0.0,0.0,0.49,
11.57,104.4780506909891,87.52491698549215,-3.28,-1.6,0.2,522.0,9.0,0.0,12.0,0.0,0.0,2.0,0.0,0.0,0.29,
11.594,104.47980506909892,87.53849169854922,-3.97,-2.36,-0.21,522.0,9.0,0.0,12.0,0.0,0.0,2.0,0.0,0.0,0.59,
11.619,104.52498050690988,87.53984916985492,-3.79,-2.37,-0.17,522.0,8.0,0.0,12.0,0.0,0.0,2.0,0.0,0.0,0.0,
11.642,104.46649805069099,87.53098491698549,-4.89,-2.94,-0.82,522.0,9.0,0.0,12.0,0.0,0.0,2.0,0.0,0.0,0.0,
11.667,104.4696498050691,87.47609849169855,-4.98,-3.27,-0.87,522.0,9.0,0.0,12.0,0.0,0.0,2.0,0.0,0.0,0.1,
11.692,104.45196498050692,87.44360984916985,-4.92,-2.91,-0.67,522.0,9.0,0.0,12.0,0.0,0.0,2.0,0.0,0.0,0.49,
11.716,104.4231964980507,87.40436098491699,-4.63,-2.57,-0.36,522.0,9.0,0.0,12.0,0.0,0.0,2.0,0.0,0.0,0.49,
11.741,104.39331964980508,87.3374360984917,-4.08,-1.6,-0.37,522.0,9.0,0.0,12.0,0.0,0.0,2.0,0.0,0.0,0.29,
11.765,104.42633196498052,87.33074360984916,-3.16,-1.89,-0.08,522.0,9.0,0.0,12.0,0.0,0.0,2.0,0.0,0.0,0.2,
11.79,104.44763319649806,87.40207436098491,-3.89,-2.18,-0.37,522.0,9.0,0.0,12.0,0.0,0.0,2.0,0.0,0.0,0.49,
11.813,104.4137633196498,87.40920743609848,-4.22,-2.78,-0.35,522.0,9.0,0.0,0.0,0.0,0.0,2.0,0.0,0.0,0.78,
11.838,104.35637633196497,87.31092074360984,-4.13,-3.04,-0.35,522.0,9.0,0.0,0.0,0.0,0.0,2.0,0.0,0.0,0.88,
11.863,104.2876376331965,87.310092074361,-3.8,-2.86,-0.31,522.0,9.0,0.0,0.0,0.0,0.0,2.0,0.0,0.0,0.78,
11.887,104.28076376331965,87.31000920743611,-3.65,-2.18,0.5,522.0,9.0,0.0,0.0,0.0,0.0,2.0,0.0,0.0,0.49,
11.911,104.28007637633196,87.29200092074362,-3.48,-1.21,1.78,522.0,9.0,0.0,0.0,0.0,0.0,2.0,0.0,0.0,0.49,
11.935,104.2530076376332,87.21820009207435,-5.08,-1.06,0.97,633.0,9.0,0.0,0.0,0.0,0.0,2.0,0.0,0.0,0.69,
11.96,104.26830076376332,87.19282000920744,-4.76,-1.77,0.61,522.0,9.0,0.0,0.0,0.0,0.0,2.0,0.0,0.0,0.0,
11.983,104.21583007637634,87.14528200092074,-4.66,-1.94,0.25,522.0,9.0,0.0,1.0,0.0,0.0,2.0,0.0,0.0,0.1,
12.008,104.15658300763765,87.11352820009208,-4.81,-2.37,-0.18,522.0,9.0,0.0,1.0,0.0,0.0,2.0,0.0,0.0,0.29,
12.033,104.14165830076377,87.02935282000921,-4.96,-2.95,-0.53,442.0,9.0,0.0,2.0,0.0,0.0,2.0,0.0,0.0,0.49,
12.057,104.11316583007637,86.99393528200092,-5.31,-3.44,-1.09,522.0,9.0,0.0,2.0,0.0,0.0,3.0,0.0,0.0,0.49,
12.081,104.04731658300764,86.97239352820009,-4.63,-3.31,-1.04,442.0,9.0,0.0,2.0,0.0,0.0,3.0,0.0,0.0,0.29,
12.105,103.99573165830076,86.97023935282,-4.55,-3.05,-0.67,522.0,9.0,0.0,3.0,0.0,0.0,3.0,0.0,0.0,0.29,
12.13,103.99057316583007,86.961023935282,-4.82,-3.14,-0.61,522.0,9.0,0.0,3.0,0.0,0.0,3.0,0.0,0.0,0.69,
12.154,103.936057316583,86.91510239352819,-4.93,-2.63,-0.6,633.0,9.0,0.0,3.0,0.0,0.0,3.0,0.0,0.0,0.78,
12.179,103.8946057316583,86.87451023935283,-3.95,-1.2,-0.03,522.0,9.0,0.0,4.0,0.0,0.0,3.0,0.0,0.0,0.78,
12.203,103.80946057316584,86.78945102393529,-4.31,0.61,1.09,522.0,9.0,0.0,4.0,0.0,0.0,3.0,0.0,0.0,0.59,
12.227,103.74694605731658,86.75394510239353,-2.15,3.18,2.79,633.0,10.0,0.0,4.0,0.0,0.0,3.0,0.0,0.0,0.29,
12.252,103.75869460573165,86.67839451023936,-1.59,4.43,2.38,522.0,10.0,0.0,5.0,0.0,0.0,3.0,0.0,0.0,0.29,
12.275,103.85886946057317,86.67983945102395,-1.72,3.21,1.76,522.0,10.0,0.0,5.0,0.0,0.0,3.0,0.0,0.0,0.59,
12.3,104.03088694605731,86.67098394510239,-1.01,3.5,2.56,633.0,10.0,0.0,6.0,0.0,0.0,3.0,0.0,0.0,0.69,
12.324,104.14708869460573,86.71509839451024,-2.15,1.11,1.17,522.0,10.0,0.0,6.0,0.0,0.0,3.0,0.0,0.0,0.49,
12.348,104.15870886946057,86.89050983945101,-2.27,0.72,1.0,633.0,10.0,0.0,6.0,0.0,0.0,3.0,0.0,0.0,0.39,
12.372,104.21387088694605,86.8090509839451,-1.79,0.53,0.32,345.0,10.0,0.0,6.0,0.0,0.0,3.0,0.0,0.0,0.2,
12.397,104.2553870886946,86.6029050983945,1.88,2.85,1.13,522.0,10.0,0.0,6.0,0.0,0.0,3.0,0.0,0.0,0.0,
12.422,104.25953870886946,86.51929050983946,5.6,8.69,1.79,522.0,10.0,0.0,5.0,0.0,0.0,3.0,0.0,0.0,0.0,
12.445,104.50295387088694,86.72692905098395,6.46,7.98,3.66,633.0,10.0,0.0,4.0,0.0,0.0,3.0,0.0,0.0,0.0,
12.47,104.7342953870887,86.87369290509841,2.73,4.89,-0.61,522.0,10.0,0.0,2.0,0.0,0.0,2.0,0.0,0.0,0.1,
12.493,104.97342953870887,87.05936929050984,3.06,1.94,1.72,522.0,10.0,0.0,2.0,0.0,0.0,2.0,0.0,0.0,0.0,
12.518,104.95234295387088,87.28493692905099,2.79,1.66,4.0,522.0,9.0,0.0,0.0,0.0,0.0,2.0,0.0,0.0,0.0,
12.542,105.0672342953871,87.55049369290509,2.44,0.77,6.71,522.0,9.0,0.0,12.0,0.0,0.0,2.0,0.0,0.0,0.1,
12.566,105.50172342953871,87.9280493692905,-2.98,-7.63,12.76,633.0,9.0,0.0,12.0,0.0,0.0,2.0,0.0,0.0,0.0,
12.591,105.09517234295387,88.49680493692905,-18.92,-20.08,-8.75,522.0,9.0,0.0,12.0,0.0,0.0,2.0,0.0,0.0,0.39,
12.615,105.42351723429539,89.5526804936929,-38.12,-59.69,-67.43,442.0,8.0,0.0,0.0,0.0,0.0,3.0,0.0,0.0,1.57,
12.64,104.97035172342953,89.9732680493693,-48.56,-27.04,10.24,345.0,7.0,0.0,11.0,0.0,0.0,3.0,0.0,0.0,4.02,
12.664,103.48503517234295,90.08732680493694,-87.7,-48.06,71.1,206.0,3.0,0.0,8.0,0.0,0.0,4.0,0.0,0.0,20.4,
12.689,101.6265035172343,89.2527326804937,-120.17,1.51,57.04,1.0,0.0,0.0,5.0,0.0,0.0,4.0,0.0,0.0,21.48,
12.713,102.97965035172342,89.25027326804937,-123.63,79.35,-26.62,0.0,0.0,0.0,5.0,0.0,0.0,3.0,0.0,0.0,24.52,
12.738,102.66496503517234,91.48202732680494,-87.5,86.4,59.23,2.0,0.0,0.0,3.0,0.0,0.0,1.0,0.0,0.0,26.78,
12.762,110.31949650351723,101.40720273268049,-22.41,-24.69,16.63,2.0,0.0,0.0,2.0,0.0,0.0,0.0,0.2,0.0,17.17,
12.786,109.18594965035173,107.31372027326805,14.38,-61.56,-4.84,2.0,0.0,0.0,2.0,0.0,0.0,0.0,0.1,0.0,14.91,
12.811,106.57059496503517,109.52437202732679,37.66,-32.09,-8.99,2.0,0.0,0.0,2.0,0.0,0.0,0.0,0.29,0.0,7.65,
12.835,105.8050594965035,111.3834372027327,52.08,-36.7,-20.34,2.0,0.0,0.0,2.0,0.0,0.0,0.0,0.2,0.0,10.59,
12.86,104.29750594965034,111.54234372027328,68.29,-34.41,-22.48,2.0,0.0,0.0,2.0,0.0,0.0,0.0,0.1,0.0,4.32,
12.884,103.28275059496504,110.87423437202733,78.75,-11.63,-33.17,2.0,0.0,0.0,2.0,0.0,0.0,0.0,0.1,0.0,3.63,
12.909,103.08227505949651,110.34842343720274,89.93,-5.74,-34.02,2.0,0.0,0.0,2.0,0.0,0.0,0.0,0.1,0.0,3.92,
12.933,101.97322750594964,109.39584234372028,100.21,-0.4,-42.09,2.0,0.0,0.0,2.0,0.0,0.0,0.0,0.1,0.0,2.84,
12.957,100.75532275059497,108.61658423437203,109.13,-16.35,-46.92,2.0,0.0,0.0,2.0,0.0,0.0,0.0,0.1,0.0,2.65,
12.982,99.4545322750595,107.67465842343721,115.18,-29.86,-49.35,1.0,0.0,0.0,2.0,0.0,0.0,0.0,0.1,0.0,2.26,
13.006,98.72145322750595,106.60846584234372,107.13,-32.06,-43.32,1.0,0.0,0.0,2.0,0.0,0.0,0.0,0.1,0.59,2.06,
13.031,98.56714532275059,105.27784658423437,98.93,-33.15,-34.35,1.0,0.0,0.0,2.0,0.0,0.0,0.0,0.0,0.0,2.16,
13.054,99.06471453227508,103.04778465842342,102.27,-13.68,-20.77,1.0,0.0,0.0,1.0,0.0,0.0,0.0,0.1,0.0,2.35,
13.079,100.10447145322752,100.51177846584235,103.99,-28.31,-25.61,1.0,0.0,0.0,1.0,0.0,0.0,0.0,0.1,0.0,1.18,
13.104,101.62144714532275,97.81017784658424,92.85,-37.64,-5.5,1.0,0.0,0.0,2.0,0.0,0.0,0.0,0.1,0.0,0.39,
13.127,102.93414471453228,94.46201778465843,83.37,-28.92,8.62,1.0,0.0,0.0,2.0,0.0,0.0,0.0,0.1,0.0,0.2,
13.152,103.30841447145323,90.65320177846584,54.68,-25.46,37.75,1.0,0.0,0.0,2.0,0.0,0.0,0.0,0.1,0.0,0.0,
13.175,103.32784144714532,86.07832017784658,-34.64,16.89,46.95,1.0,0.0,0.0,1.0,0.0,0.0,0.0,0.1,0.0,0.0,
13.2,101.00778414471452,80.13083201778466,-83.5,17.98,17.28,0.0,0.0,0.0,1.0,0.0,0.0,0.0,0.2,0.0,0.0,
13.223,101.54977841447145,85.35008320177846,-122.83,68.13,4.88,0.0,0.0,0.0,0.0,0.0,0.0,0.0,0.29,0.0,2.55,
13.248,102.17097784144713,84.32400832017785,-201.23,79.48,-11.93,1.0,0.0,0.0,1.0,0.0,0.0,0.0,0.29,0.0,10.99,
13.273,103.99709778414471,81.07140083201779,-213.98,121.69,-28.27,4.0,1.0,0.0,2.0,0.0,0.0,0.0,0.88,0.0,0.0,
13.296,107.18570977841446,77.37114008320177,-84.1,52.47,-7.9,-33.0,4.0,0.0,4.0,0.0,0.0,0.0,0.2,24.62,0.0,
13.321,107.43257097784144,79.64711400832019,-33.66,9.53,-4.09,1077.0,5.0,0.0,7.0,0.0,0.0,0.0,0.0,0.0,0.0,
13.345,107.61025709778414,81.89971140083202,-36.73,9.74,0.32,1633.0,7.0,0.0,10.0,0.0,0.0,0.0,0.0,0.0,0.0,
13.37,107.44802570977842,82.9799711400832,-28.21,-0.75,4.26,800.0,9.0,0.0,1.0,0.0,0.0,1.0,0.0,0.0,0.0,
13.394,107.08080257097785,83.26799711400832,-25.08,-0.82,-1.44,1077.0,11.0,0.0,7.0,0.0,0.0,2.0,0.0,0.0,0.0,
13.419,106.78308025709778,83.84579971140084,-17.85,-1.56,1.09,442.0,12.0,0.0,11.0,0.0,0.0,3.0,0.0,0.0,0.0,
13.444,106.69030802570978,84.39857997114008,-16.04,-7.06,-3.52,1077.0,2.0,0.0,15.0,0.0,0.0,4.0,0.0,0.0,0.0,
13.468,106.46503080257098,84.759857997114,-15.82,-9.37,-1.79,1633.0,3.0,0.0,19.0,0.0,0.0,4.0,0.0,0.0,0.0,
13.493,106.25350308025709,85.2549857997114,-11.82,-10.47,2.61,1077.0,4.0,0.0,21.0,0.0,0.0,5.0,0.0,0.0,0.0,
13.517,105.7733503080257,85.44849857997114,-6.38,-14.53,29.92,800.0,4.0,0.0,23.0,0.0,0.0,5.0,0.0,0.0,0.0,
13.541,105.51833503080258,85.6928498579971,-11.61,-20.18,10.51,1633.0,4.0,0.0,25.0,0.0,0.0,5.0,0.0,0.0,0.0,
13.566,104.88083350308027,85.91528498579972,-9.62,-22.87,35.49,-33.0,4.0,0.0,26.0,0.0,0.0,6.0,0.0,0.0,0.0,
13.591,104.77208335030804,85.54152849857998,-11.32,-17.8,17.61,1077.0,4.0,0.0,27.0,0.0,0.0,7.0,0.0,0.0,0.0,
13.616,104.79720833503079,85.62115284985799,-14.48,-16.27,-0.02,1077.0,5.0,0.0,28.0,0.0,0.0,7.0,0.0,0.0,0.0,
13.64,104.37672083350309,85.8181152849858,-15.88,-23.04,13.7,1077.0,5.0,0.0,31.0,0.0,0.0,7.0,0.0,0.0,0.1,
13.665,103.48867208335031,85.44181152849859,-17.5,-22.8,13.23,1077.0,5.0,0.0,32.0,0.0,0.0,7.0,0.0,0.0,0.2,
13.69,103.08486720833503,84.99918115284986,-15.02,-8.05,12.43,1633.0,5.0,0.0,34.0,0.0,0.0,7.0,0.0,0.0,3.92,
13.715,103.94448672083351,84.87391811528498,-12.92,-9.36,6.21,3300.0,5.0,0.0,34.0,0.0,0.0,8.0,0.0,0.0,7.65,
13.74,104.26444867208335,84.4923918115285,-6.89,-30.12,4.01,1633.0,5.0,0.0,35.0,0.0,0.0,8.0,0.0,0.0,2.84,
13.764,103.05444486720833,85.23723918115284,-17.99,-32.06,33.49,800.0,5.0,0.0,37.0,0.0,0.0,9.0,0.0,0.0,1.28,
13.789,101.52044448672083,85.05072391811528,-31.0,0.31,28.56,800.0,6.0,0.0,39.0,0.0,1.0,10.0,0.0,0.0,0.49,
13.813,101.11504444867208,84.92407239181152,-35.4,12.73,19.79,800.0,5.0,0.0,40.0,0.0,1.0,11.0,2.26,0.0,0.0,
13.838,101.36250444486721,84.06540723918116,-40.47,9.89,17.37,1077.0,2.0,0.0,40.0,0.0,1.0,0.0,16.48,0.0,1.18,
13.862,102.03525044448672,83.63754072391812,-41.88,-1.17,14.5,1077.0,11.0,0.0,37.0,0.0,1.0,3.0,25.31,0.0,0.59,
13.888,100.82452504444866,83.22575407239182,-52.15,18.92,42.69,800.0,9.0,0.0,34.0,0.0,2.0,8.0,30.12,0.0,0.0,
13.913,99.21845250444487,83.11257540723918,-66.18,30.16,-4.19,522.0,6.0,0.0,30.0,0.0,2.0,11.0,35.9,0.0,0.0,
13.937,99.99384525044448,82.18325754072391,-72.67,19.89,12.82,800.0,3.0,0.0,25.0,0.0,2.0,15.0,45.03,0.0,1.28,
13.962,100.95338452504446,80.4703257540724,-71.95,16.19,24.92,-33.0,1.0,0.0,20.0,0.0,2.0,19.0,57.39,0.0,1.37,
13.986,102.04833845250445,78.92203257540724,-79.79,4.39,25.08,-33.0,0.0,0.0,16.0,0.0,2.0,22.0,63.86,0.0,7.06,
14.011,101.57283384525044,77.39920325754073,-94.76,15.44,26.54,-33.0,0.0,0.0,13.0,0.0,2.0,20.0,68.28,0.0,22.07,
14.036,100.49928338452504,76.66192032575407,-115.93,38.23,-4.69,1077.0,0.0,0.0,16.0,0.0,2.0,20.0,69.36,0.0,35.32,
14.061,101.4989283384525,77.3351920325754,-147.45,56.75,55.16,6.0,1.0,0.0,14.0,0.0,2.0,21.0,63.57,0.0,34.04,
14.086,101.13989283384524,75.65651920325755,-217.89,61.37,61.61,3300.0,2.0,0.0,14.0,0.0,2.0,7.0,42.38,0.0,45.91,
14.111,101.35598928338453,73.85965192032575,-248.79,93.31,-9.4,0.0,1.0,0.0,7.0,0.0,3.0,11.0,38.65,0.0,118.8,
14.136,102.36759892833845,76.42496519203257,-227.08,176.34,-67.92,1.0,0.0,0.0,6.0,0.0,2.0,4.0,14.32,0.0,91.23,
14.16,120.91875989283385,99.10949651920325,-188.61,250.14,14.05,3.0,0.0,0.0,1.0,0.0,2.0,3.0,0.0,0.0,26.29,
14.185,105.8538759892834,113.12294965192032,120.28,85.95,141.0,3.0,0.0,0.0,3.0,0.0,2.0,2.0,0.0,0.0,24.62,
14.21,104.42838759892834,122.88529496519203,175.65,-78.26,242.15,1.0,0.0,0.0,4.0,0.0,2.0,1.0,0.0,0.0,0.0,
14.234,95.37583875989284,132.76252949651922,216.92,-77.34,9.37,2.0,0.0,0.0,4.0,0.0,2.0,0.0,0.0,0.0,0.0,
14.259,85.11058387598929,126.43325294965193,233.27,-72.14,102.93,1.0,0.0,0.0,5.0,0.0,2.0,0.0,0.0,0.0,0.0,
14.282,78.67505838759892,113.3803252949652,221.64,-102.67,32.2,1.0,0.0,0.0,6.0,0.0,2.0,0.0,0.0,31.78,0.0,
14.307,82.6755058387599,102.26503252949652,214.57,4.15,-118.92,1.0,0.0,0.0,5.0,0.0,2.0,0.0,0.0,27.86,0.1,
14.331,84.73155058387599,94.97050325294965,184.75,-65.27,-107.57,1.0,0.0,0.0,4.0,0.0,2.0,0.0,0.0,56.7,6.77,
14.356,89.78815505838759,89.76805032529496,172.07,-55.83,-107.95,1.0,0.0,0.0,4.0,0.0,2.0,0.0,0.0,47.87,3.24,
14.381,93.97481550583875,84.6488050325295,148.54,-51.09,-72.83,0.0,0.0,0.0,5.0,0.0,2.0,0.0,0.0,0.0,1.37,
14.404,96.30148155058389,79.71788050325294,116.31,-26.08,-60.09,1.0,0.0,0.0,5.0,0.0,2.0,0.0,0.0,0.0,6.67,
14.429,98.33414815505839,75.21978805032529,96.34,-21.29,-60.09,1.0,0.0,0.0,4.0,0.0,2.0,0.0,0.0,0.0,6.67,
14.452,99.55441481550584,72.60997880503253,79.76,-40.61,-27.11,1.0,0.0,0.0,4.0,0.0,2.0,0.0,0.0,0.0,3.83,
14.477,100.69344148155058,70.06299788050325,12.32,20.16,-15.47,1.0,0.0,0.0,4.0,0.0,2.0,0.0,0.0,0.0,0.78,
14.501,101.13134414815507,67.52229978805032,-74.61,21.99,-30.5,0.0,0.0,0.0,3.0,0.0,2.0,0.0,0.0,0.0,0.0,
14.525,99.79813441481551,67.48422997880503,-124.71,17.37,-70.63,1.0,0.0,0.0,2.0,0.0,2.0,0.0,0.0,0.0,0.0,
14.55,105.68581344148156,60.1454229978805,-86.31,81.91,9.35,3.0,1.0,0.0,1.0,0.0,2.0,0.0,0.0,0.0,0.0,
14.573,110.36958134414816,53.19254229978805,85.21,-212.53,59.44,6.0,2.0,0.0,3.0,0.0,2.0,0.0,0.0,0.0,0.0,
14.598,110.82895813441482,58.86025422997881,0.64,113.05,129.76,633.0,4.0,0.0,5.0,0.0,2.0,0.0,0.0,0.0,0.0,
14.622,109.77689581344148,62.586025422997885,-28.23,28.15,-39.69,272.0,5.0,0.0,8.0,0.0,2.0,1.0,0.0,0.0,0.0,
14.647,108.88868958134415,66.34260254229979,-6.05,-3.18,-28.73,3300.0,6.0,0.0,9.0,0.0,2.0,1.0,0.0,0.0,0.0,
14.671,107.81886895813442,69.01326025422998,-3.65,16.7,-17.44,-33.0,6.0,0.0,9.0,1.0,2.0,2.0,0.0,0.0,0.0,
14.696,108.32388689581344,72.187326025423,-4.82,10.18,7.68,-33.0,7.0,0.0,10.0,1.0,2.0,2.0,0.0,0.0,0.0,
14.721,108.17638868958133,74.60173260254231,-1.22,3.26,9.27,-33.0,7.0,0.0,11.0,1.0,2.0,2.0,0.0,0.0,0.0,
14.745,107.87363886895814,76.78717326025424,-3.98,3.94,3.02,3300.0,8.0,0.0,11.0,1.0,2.0,3.0,0.0,0.0,0.0,
14.77,107.4113638868958,78.53571732602542,-4.76,0.22,1.89,-33.0,8.0,0.0,12.0,2.0,2.0,3.0,0.0,0.0,0.0,
14.794,106.93313638868958,80.06057173260255,-8.3,-3.07,-1.11,-33.0,8.0,0.0,1.0,2.0,2.0,4.0,0.0,0.0,0.0,
14.819,106.58831363886895,81.13105717326026,-9.24,-2.87,-3.76,3300.0,9.0,0.0,4.0,2.0,2.0,5.0,0.0,0.0,0.0,
14.843,106.35583136388689,82.16510571732603,-9.79,-8.03,-3.71,-33.0,9.0,0.0,6.0,2.0,2.0,5.0,0.0,0.0,0.0,
14.867,106.0445831363887,82.9435105717326,-10.44,-7.94,-6.15,-33.0,10.0,0.0,8.0,2.0,2.0,5.0,0.0,0.0,0.0,
14.892,105.78845831363888,83.53435105717325,-8.67,-5.76,-5.13,-33.0,10.0,0.0,10.0,2.0,2.0,5.0,0.0,0.0,0.0,
14.916,105.5828458313639,84.04343510571732,-6.09,-4.26,-0.09,-33.0,10.0,0.0,11.0,3.0,2.0,5.0,0.0,0.0,0.0,
14.942,105.37328458313638,84.44534351057173,-5.25,-3.34,-0.18,-33.0,10.0,0.0,12.0,3.0,2.0,6.0,0.0,0.0,0.0,
14.966,105.25332845831363,84.85453435105718,-6.86,-4.72,-1.51,-33.0,10.0,0.0,13.0,3.0,2.0,6.0,0.0,0.0,0.0,
14.991,104.95333284583135,85.10245343510572,-6.82,-4.63,-2.07,-33.0,10.0,0.0,14.0,3.0,2.0,6.0,0.0,0.0,0.0,
15.015,104.65333328458314,85.36124534351057,-5.49,-3.56,-0.06,-33.0,11.0,0.0,14.0,3.0,2.0,6.0,0.0,0.0,0.0,
15.04,104.55133332845833,85.57612453435105,-2.99,-1.91,0.91,-33.0,11.0,0.0,14.0,3.0,2.0,6.0,0.0,0.0,0.0,
15.065,104.46013333284584,85.8406124534351,-3.37,-2.64,0.79,-33.0,11.0,0.0,14.0,2.0,2.0,6.0,0.0,0.0,0.0,
15.089,104.31601333328459,86.0470612453435,-2.89,-2.28,1.53,-33.0,11.0,0.0,14.0,2.0,2.0,6.0,0.0,0.0,0.0,
15.114,104.18460133332846,86.25670612453435,-3.08,-1.59,0.83,-33.0,11.0,0.0,14.0,2.0,2.0,6.0,0.0,0.0,0.0,
15.138,104.20746013333284,86.46667061245343,-3.31,-2.11,0.6,-33.0,11.0,0.0,14.0,2.0,2.0,6.0,0.0,0.0,0.0,
15.163,104.14674601333328,86.55966706124534,-3.01,-1.66,0.68,-33.0,11.0,0.0,14.0,2.0,2.0,6.0,0.0,0.0,0.0,
15.186,104.00567460133333,86.62296670612453,-3.42,-2.44,1.18,-33.0,11.0,0.0,15.0,2.0,2.0,6.0,0.0,0.0,0.0,
15.211,103.96456746013332,86.71029667061245,-2.11,-0.37,1.11,-33.0,11.0,0.0,15.0,2.0,2.0,5.0,0.0,0.0,0.0,
15.236,103.79845674601333,86.81802966706125,-1.93,-0.71,1.29,-33.0,11.0,0.0,15.0,2.0,2.0,5.0,0.0,0.0,0.0,
15.26,103.74584567460133,86.86480296670614,-2.43,-1.22,0.17,-33.0,11.0,0.0,14.0,2.0,2.0,5.0,0.0,0.0,0.0,
15.285,103.72258456746013,86.92348029667062,-2.27,-1.01,0.72,-33.0,11.0,0.0,14.0,2.0,2.0,5.0,0.0,0.0,0.0,
15.309,103.72025845674601,86.90234802966707,-2.02,-0.31,1.06,3300.0,11.0,0.0,14.0,2.0,2.0,5.0,0.0,0.0,0.0,
15.334,103.8280258456746,86.92723480296671,-1.04,0.22,2.79,-33.0,11.0,0.0,13.0,2.0,2.0,4.0,0.0,0.0,0.0,
15.358,103.77580258456746,86.98372348029666,-0.27,0.85,1.68,-33.0,10.0,0.0,13.0,1.0,2.0,4.0,0.0,0.0,0.0,
15.383,103.77058025845675,87.08837234802967,-2.09,-0.64,-0.3,-33.0,10.0,0.0,12.0,1.0,2.0,4.0,0.0,0.0,0.0,
15.408,103.68905802584568,87.15283723480297,-2.75,-0.9,-0.01,-33.0,10.0,0.0,12.0,1.0,2.0,4.0,0.0,0.0,0.0,
15.432,103.67190580258456,87.1592837234803,-2.56,-0.83,-0.24,-33.0,10.0,0.0,12.0,1.0,2.0,4.0,0.0,0.0,0.0,
15.457,103.76019058025845,87.11492837234803,-2.53,-1.35,-0.14,-33.0,10.0,0.0,12.0,1.0,2.0,3.0,0.0,0.0,0.1,
15.481,103.81401905802585,87.1824928372348,-2.6,-1.55,-0.35,-33.0,10.0,0.0,11.0,1.0,2.0,3.0,0.0,0.0,0.1,
15.506,103.76540190580258,87.20724928372347,-2.67,-0.73,0.23,-33.0,10.0,0.0,11.0,1.0,2.0,3.0,0.0,0.0,0.0,
15.531,103.85954019058026,87.24572492837235,-2.11,-0.02,0.15,-33.0,10.0,0.0,11.0,1.0,2.0,3.0,0.0,0.0,0.0,
15.555,103.91395401905802,87.28557249283725,-2.61,-1.73,0.24,-33.0,10.0,0.0,11.0,1.0,2.0,3.0,0.0,0.0,0.0,
15.58,103.9013954019058,87.28055724928373,-3.71,-1.62,-0.81,3300.0,10.0,0.0,11.0,1.0,2.0,3.0,0.0,0.0,0.0,
15.604,103.88213954019058,87.31605572492836,-3.27,-1.77,-0.27,-33.0,10.0,0.0,11.0,1.0,2.0,3.0,0.0,0.0,0.0,
15.629,103.92521395401906,87.33760557249285,-2.98,-1.31,-0.05,-33.0,10.0,0.0,11.0,1.0,2.0,3.0,0.0,0.0,0.0,
15.653,103.9025213954019,87.3667605572493,-2.84,-0.69,0.39,-33.0,10.0,0.0,11.0,1.0,2.0,3.0,0.0,0.0,0.2,
15.678,103.98125213954017,87.29767605572493,-2.9,-0.98,0.09,-33.0,10.0,0.0,11.0,1.0,2.0,3.0,0.0,0.0,0.2,
15.703,104.02512521395403,87.24576760557248,-2.7,-0.72,0.26,-33.0,10.0,0.0,11.0,1.0,2.0,3.0,0.0,0.0,0.0,
15.727,104.06551252139539,87.25857676055725,-2.4,-0.37,0.4,-33.0,10.0,0.0,11.0,1.0,2.0,3.0,0.0,0.0,0.0,
15.752,104.10555125213953,87.26885767605572,-2.72,-1.15,-0.06,-33.0,10.0,0.0,11.0,1.0,2.0,3.0,0.0,0.0,0.0,
15.776,104.09155512521396,87.28788576760557,-2.85,-1.42,-0.07,-33.0,10.0,0.0,10.0,1.0,2.0,3.0,0.0,0.0,0.0,
15.801,104.1171555125214,87.29878857676054,-3.23,-1.15,-0.11,3300.0,10.0,0.0,10.0,1.0,2.0,3.0,0.0,0.0,0.0,
15.825,104.12871555125214,87.35387885767605,-3.07,-1.67,-0.06,-33.0,10.0,0.0,11.0,1.0,2.0,3.0,0.0,0.0,1.18,
15.85,104.1118715551252,87.3503878857676,-3.91,-2.8,-0.87,-33.0,10.0,0.0,11.0,1.0,2.0,3.0,0.0,0.0,0.78,
15.875,104.04718715551253,87.33203878857675,-3.9,-2.36,-0.53,3300.0,10.0,0.0,10.0,1.0,2.0,3.0,0.0,0.0,0.0,
15.9,104.05871871555127,87.34820387885767,-3.25,-1.66,-0.15,-33.0,10.0,0.0,10.0,1.0,2.0,3.0,0.0,0.0,0.0,
15.925,104.05987187155513,87.32282038788576,-4.12,-2.31,-0.55,-33.0,10.0,0.0,11.0,1.0,2.0,3.0,0.0,0.0,0.0,
15.949,104.02398718715551,87.36528203878858,-3.6,-1.31,-0.01,-33.0,10.0,0.0,11.0,1.0,2.0,3.0,0.0,0.0,0.0,
15.974,104.01139871871555,87.36052820387886,-3.27,-1.68,0.15,-33.0,10.0,0.0,11.0,1.0,2.0,3.0,0.0,0.0,0.0,
15.998,103.98313987187156,87.35105282038788,-3.15,-1.49,0.05,-33.0,10.0,0.0,10.0,1.0,2.0,3.0,0.0,0.0,0.2,
16.023,103.96231398718714,87.3681052820388,-3.35,-1.08,-0.75,1633.0,10.0,0.0,8.0,1.0,2.0,3.0,0.0,0.0,0.0,
16.048,104.05923139871871,87.38781052820387,-3.81,-1.89,-1.74,-33.0,10.0,0.0,10.0,1.0,2.0,3.0,0.0,0.0,0.0,
16.072,104.17692313987187,87.3717810528204,-4.14,-2.89,-1.31,-33.0,10.0,0.0,10.0,1.0,2.0,3.0,0.0,0.0,0.0,
16.097,104.18869231398719,87.33417810528204,-4.11,-2.97,-1.25,3300.0,10.0,0.0,9.0,1.0,2.0,3.0,0.0,0.0,0.0,
16.121,104.09086923139871,87.33041781052819,-3.89,-3.27,-0.69,-33.0,10.0,0.0,9.0,1.0,2.0,3.0,0.0,0.0,0.0,
16.146,103.81108692313987,87.71704178105283,1.83,5.76,7.03,-33.0,10.0,0.0,9.0,1.0,2.0,3.0,0.0,0.0,0.0,
16.169,103.79210869231399,87.71070417810527,-2.95,-2.7,0.21,-33.0,9.0,0.0,9.0,1.0,2.0,3.0,0.0,0.0,0.0,
16.194,103.7452108692314,87.64707041781053,-3.63,-1.53,1.81,-33.0,10.0,0.0,10.0,1.0,2.0,3.0,0.0,0.0,0.39,
16.219,103.67752108692314,87.59570704178105,-4.03,-1.85,0.31,-33.0,10.0,0.0,8.0,1.0,2.0,3.0,0.0,0.0,0.39,
16.243,103.64375210869231,87.5545707041781,-3.93,-1.82,-0.86,-33.0,10.0,0.0,8.0,1.0,2.0,3.0,0.0,0.0,0.0,
16.268,103.63137521086922,87.4964570704178,-4.85,-2.35,-1.49,-33.0,9.0,0.0,9.0,1.0,2.0,3.0,0.0,0.0,0.0,
16.292,103.59413752108694,87.42764570704178,-4.31,-2.03,-1.22,-33.0,10.0,0.0,9.0,1.0,2.0,3.0,0.0,0.0,0.0,
16.317,103.60841375210869,87.37576457070419,-5.22,-3.27,-2.31,-33.0,10.0,0.0,8.0,1.0,2.0,3.0,0.0,0.0,0.29,
16.342,103.67284137521088,87.26257645707042,-4.87,-2.92,-1.1,-33.0,10.0,0.0,9.0,1.0,2.0,3.0,0.0,0.0,0.39,
16.366,103.68828413752108,87.23325764570704,-3.96,-3.29,-0.61,-33.0,9.0,0.0,8.0,1.0,2.0,3.0,0.0,0.0,0.59,
16.391,103.5998284137521,87.1943257645707,-4.24,-3.71,-0.68,3300.0,9.0,0.0,9.0,1.0,2.0,3.0,0.0,0.0,0.39,
16.415,103.5279828413752,87.28943257645706,-3.15,-1.93,-0.38,-33.0,9.0,0.0,9.0,1.0,2.0,3.0,0.0,0.0,0.0,
16.439,103.54779828413751,87.28094325764572,-3.33,-1.69,0.23,-33.0,9.0,0.0,8.0,1.0,2.0,3.0,0.0,0.0,0.0,
16.463,103.51377982841376,87.24409432576456,-3.51,-1.56,0.12,-33.0,9.0,0.0,8.0,1.0,2.0,3.0,0.0,0.0,0.0,
16.488,103.48337798284138,87.15040943257645,-2.72,-0.76,1.24,-33.0,9.0,0.0,8.0,1.0,2.0,3.0,0.0,0.0,0.2,
16.513,103.41733779828414,87.04204094325765,-1.11,0.92,2.79,-33.0,9.0,0.0,8.0,1.0,2.0,3.0,0.0,0.0,0.2,
16.537,103.39273377982842,87.10320409432576,-2.08,-0.08,1.07,-33.0,9.0,0.0,8.0,1.0,2.0,3.0,0.0,0.0,0.2,
16.561,103.36327337798284,87.08232040943257,-3.27,-1.26,-0.31,-33.0,9.0,0.0,8.0,1.0,2.0,3.0,0.0,0.0,0.0,
16.585,103.47732733779827,87.08023204094326,-3.7,-1.82,-0.27,-33.0,9.0,0.0,8.0,1.0,2.0,3.0,0.0,0.0,0.0,
16.61,103.45273273377983,87.05302320409433,-3.91,-1.86,-0.5,-33.0,9.0,0.0,8.0,1.0,2.0,3.0,0.0,0.0,0.0,
16.634,103.43227327337799,86.98730232040944,-2.82,-0.54,0.2,-33.0,9.0,0.0,8.0,1.0,2.0,3.0,0.0,0.0,0.59,
16.659,103.4482273273378,87.01673023204094,-1.69,0.9,0.73,-33.0,9.0,0.0,8.0,1.0,2.0,3.0,0.0,0.0,0.59,
16.684,103.44982273273378,87.02867302320409,-2.15,0.42,0.67,3300.0,9.0,0.0,8.0,1.0,2.0,3.0,0.0,0.0,0.69,
16.707,103.50398227327338,86.99386730232041,-2.15,0.64,0.49,-33.0,9.0,0.0,7.0,1.0,2.0,3.0,0.0,0.0,0.29,
16.732,103.49139822732732,87.00838673023205,-1.66,0.48,0.85,-33.0,9.0,0.0,8.0,1.0,2.0,3.0,0.0,0.0,0.2,
16.756,103.58013982273275,87.0278386730232,-1.74,1.04,1.2,-33.0,9.0,0.0,8.0,1.0,2.0,3.0,0.0,0.0,0.0,
16.78,103.66101398227327,87.07478386730232,-0.82,1.66,1.72,3300.0,9.0,0.0,7.0,1.0,2.0,3.0,0.0,0.0,0.0,
16.804,103.66910139822733,87.16047838673023,-0.85,2.18,1.69,-33.0,9.0,0.0,6.0,1.0,2.0,3.0,0.0,0.0,0.0,
16.829,103.72391013982273,87.19604783867302,-0.41,2.29,1.61,-33.0,9.0,0.0,6.0,1.0,2.0,3.0,0.0,0.0,0.0,
16.854,103.81039101398227,87.2716047838673,-1.08,0.9,1.58,-33.0,9.0,0.0,6.0,1.0,2.0,3.0,0.0,0.0,0.29,
16.877,103.85503910139823,87.30616047838674,-1.89,0.13,0.87,-33.0,9.0,0.0,6.0,1.0,2.0,3.0,0.0,0.0,0.0,
16.902,103.94950391013981,87.33661604783867,-1.74,0.63,0.89,-33.0,9.0,0.0,6.0,1.0,2.0,3.0,0.0,0.0,0.0,
16.926,104.04895039101399,87.35766160478386,-1.6,-0.15,0.69,-33.0,9.0,0.0,6.0,1.0,2.0,3.0,0.0,0.0,0.0,
16.951,104.07689503910139,87.48576616047839,-2.06,-0.18,1.01,-33.0,9.0,0.0,6.0,1.0,2.0,3.0,0.0,0.0,0.0,
16.974,104.05268950391013,87.49857661604784,-1.07,0.58,1.03,3300.0,9.0,0.0,6.0,1.0,2.0,3.0,0.0,0.0,0.59,
16.999,104.11326895039102,87.55385766160478,-1.33,0.56,1.52,-33.0,9.0,0.0,6.0,1.0,2.0,2.0,0.0,0.0,0.39,
17.024,104.11932689503911,87.59538576616048,-2.02,-0.1,0.84,3300.0,9.0,0.0,6.0,1.0,2.0,2.0,0.0,0.0,0.1,
17.048,104.17393268950393,87.59953857661606,-2.11,-0.54,0.66,-33.0,9.0,0.0,6.0,1.0,2.0,2.0,0.0,0.0,0.0,
17.073,104.20639326895039,87.6359538576616,-2.63,-1.29,-0.11,1633.0,9.0,0.0,6.0,1.0,2.0,2.0,0.0,0.0,0.0,
17.096,104.21863932689504,87.58559538576617,-1.47,0.49,0.92,-33.0,9.0,0.0,6.0,1.0,2.0,2.0,0.0,0.0,0.0,
17.121,104.25586393268951,87.59855953857662,-1.31,0.4,0.83,1633.0,9.0,0.0,6.0,1.0,2.0,2.0,0.0,0.0,0.0,
17.145,104.31358639326893,87.63585595385767,-1.76,-1.05,0.25,-33.0,9.0,0.0,5.0,1.0,2.0,2.0,0.0,0.0,0.0,
17.17,104.31935863932688,87.66658559538577,-2.37,-0.7,0.08,-33.0,9.0,0.0,6.0,1.0,2.0,2.0,0.0,0.0,0.0,
17.195,104.38293586393269,87.66965855953858,-2.34,0.31,0.36,-33.0,9.0,0.0,6.0,1.0,2.0,2.0,0.0,0.0,0.0,
17.218,104.44329358639328,87.70596585595385,-1.43,-0.13,0.39,-33.0,9.0,0.0,6.0,1.0,2.0,2.0,0.0,0.0,0.0,
17.243,104.47632935863933,87.70959658559538,-2.04,-0.78,0.29,-33.0,9.0,0.0,6.0,1.0,2.0,2.0,0.0,0.0,0.0,
17.267,104.49763293586393,87.75495965855954,-1.49,-0.47,0.32,3300.0,9.0,0.0,6.0,1.0,2.0,2.0,0.0,0.0,0.0,
17.292,104.5357632935864,87.77749596585596,-0.66,0.4,0.31,-33.0,9.0,0.0,6.0,1.0,2.0,2.0,0.0,0.0,0.1,
17.315,104.51257632935865,87.7797495965856,-0.49,0.02,-0.03,-33.0,9.0,0.0,6.0,1.0,2.0,2.0,0.0,0.0,0.29,
17.34,104.65425763293587,87.80697495965858,-0.87,-0.02,0.38,-33.0,9.0,0.0,6.0,0.0,2.0,2.0,0.0,0.0,0.1,
17.364,104.61442576329358,87.86369749596587,-1.47,-0.14,0.56,-33.0,9.0,0.0,6.0,1.0,2.0,2.0,0.0,0.0,0.0,
17.389,104.61044257632936,87.86036974959659,-0.17,1.21,1.08,-33.0,9.0,0.0,6.0,0.0,2.0,2.0,0.0,0.0,0.0,
17.414,104.65504425763294,87.95903697495966,0.62,1.47,1.88,-33.0,9.0,0.0,6.0,0.0,2.0,2.0,0.0,0.0,0.0,
17.437,104.68650442576329,88.10390369749597,-0.84,0.76,1.19,-33.0,10.0,0.0,6.0,0.0,2.0,2.0,0.0,0.0,0.39,
17.462,104.77065044257634,88.1633903697496,-3.14,-0.67,1.77,1077.0,10.0,0.0,6.0,0.0,2.0,2.0,0.0,0.0,0.0,
17.486,104.86006504425764,88.20533903697495,-0.98,-0.02,0.9,-33.0,10.0,0.0,6.0,1.0,2.0,2.0,0.0,0.0,0.0,
17.511,104.86900650442577,88.24553390369749,-0.53,0.28,0.83,3300.0,10.0,0.0,7.0,1.0,2.0,2.0,0.0,0.0,0.0,
17.536,104.88790065044257,88.27655339036974,-0.47,1.26,-0.11,-33.0,10.0,0.0,7.0,1.0,2.0,2.0,0.0,0.0,0.0,
17.56,104.97079006504426,88.27965533903696,-0.03,1.91,0.41,-33.0,10.0,0.0,7.0,1.0,2.0,2.0,0.0,0.0,0.0,
17.584,105.22207900650443,88.4149655339037,-0.82,0.5,-0.55,-33.0,10.0,0.0,8.0,1.0,2.0,2.0,0.0,0.0,0.0,
17.608,105.28320790065045,88.49149655339038,-1.44,-1.05,-0.04,-33.0,10.0,0.0,8.0,1.0,2.0,2.0,0.0,0.0,0.0,
17.633,105.20832079006505,88.55314965533904,-0.49,0.17,1.16,-33.0,10.0,0.0,6.0,0.0,2.0,2.0,0.0,0.0,0.39,
17.657,105.0748320790065,88.46031496553391,0.96,3.18,-1.25,-33.0,10.0,0.0,8.0,0.0,2.0,2.0,0.0,0.0,0.29,
17.682,105.18748320790066,88.3970314965534,0.16,1.95,-3.56,-33.0,10.0,0.0,8.0,0.0,0.0,2.0,0.0,0.0,0.1,
17.707,105.39674832079007,88.77770314965534,-1.36,0.08,-0.31,-33.0,10.0,0.0,8.0,0.0,0.0,2.0,0.0,0.0,0.0,
17.731,105.525674832079,88.89677031496554,-2.27,-0.34,-1.82,-33.0,10.0,0.0,8.0,0.0,0.0,1.0,0.0,0.0,0.1,
17.756,105.38556748320791,88.89067703149655,-2.56,0.29,-2.35,-33.0,10.0,0.0,8.0,0.0,0.0,1.0,0.0,0.0,0.49,
17.779,105.46155674832079,89.00706770314964,-0.31,2.5,-3.51,-33.0,10.0,0.0,8.0,0.0,0.0,1.0,0.0,0.0,0.1,
17.804,105.67615567483209,89.37870677031498,-1.06,2.05,-1.63,-33.0,10.0,0.0,8.0,0.0,0.0,1.0,0.0,0.0,0.0,
17.828,105.8686155674832,89.4608706770315,-1.73,-0.08,-3.49,-33.0,10.0,0.0,8.0,0.0,0.0,1.0,0.0,0.0,0.0,
17.853,105.93286155674832,89.43308706770316,-0.5,0.34,-0.69,-33.0,10.0,0.0,8.0,0.0,0.0,1.0,0.0,0.0,0.0,
17.878,105.80428615567484,89.4393087067703,0.73,1.5,1.69,-33.0,10.0,0.0,8.0,0.0,0.0,1.0,0.0,0.0,0.0,
17.902,105.7914286155675,89.22393087067704,-0.47,1.74,-6.93,-33.0,10.0,0.0,7.0,0.0,0.0,1.0,0.0,0.0,0.0,
17.927,105.95214286155675,89.38239308706771,-0.66,0.08,-0.71,-33.0,10.0,0.0,6.0,0.0,0.0,1.0,0.0,0.0,0.2,
17.951,105.98621428615566,89.42523930870678,-2.81,-1.44,0.66,-33.0,10.0,0.0,6.0,0.0,0.0,1.0,0.0,0.0,0.0,
17.975,105.98962142861555,89.45652393087067,-3.93,-1.89,0.37,-33.0,10.0,0.0,7.0,0.0,0.0,1.0,0.0,0.0,0.39,
17.999,105.98096214286156,89.44165239308705,-3.77,-1.76,0.11,-33.0,10.0,0.0,7.0,0.0,0.0,1.0,0.0,0.0,0.2,
18.024,105.98909621428615,89.39516523930871,-3.53,-1.97,0.52,-33.0,10.0,0.0,8.0,0.0,0.0,1.0,0.0,0.0,0.1,
18.049,105.98990962142861,89.40851652393087,-3.75,-2.21,0.11,-33.0,10.0,0.0,8.0,0.0,0.0,1.0,0.0,0.0,0.0,
18.073,105.90899096214287,89.4188516523931,-5.02,-2.56,0.37,-33.0,10.0,0.0,8.0,0.0,0.0,1.0,0.0,0.0,0.29,
18.098,106.08989909621428,89.63588516523932,-5.26,-3.08,0.08,-33.0,10.0,0.0,9.0,1.0,0.0,1.0,0.0,0.0,0.0,
18.122,106.05398990962142,89.26158851652393,-7.41,-3.47,-3.08,-33.0,10.0,0.0,10.0,1.0,0.0,1.0,0.0,0.0,0.0,
18.147,105.96039899096215,89.11615885165239,-7.41,-4.3,-1.2,-33.0,10.0,0.0,11.0,1.0,0.0,2.0,0.0,0.0,0.0,
18.171,105.78903989909621,89.11061588516523,-7.79,-5.04,-4.81,-33.0,11.0,0.0,11.0,1.0,0.0,2.0,0.0,0.0,0.1,
18.196,105.60990398990963,88.98406158851652,-7.49,-3.34,-3.97,3300.0,11.0,0.0,13.0,1.0,0.0,2.0,0.0,0.0,0.0,
18.221,105.53799039899096,88.79140615885166,-5.79,-1.82,-4.07,-33.0,11.0,0.0,14.0,1.0,0.0,2.0,0.0,0.0,0.1,
18.245,105.6657990398991,88.76314061588516,-5.66,-3.33,-0.71,-33.0,11.0,0.0,14.0,1.0,0.0,2.0,0.0,0.0,0.0,
18.27,105.6875799039899,88.79631406158852,-5.33,-3.14,-0.31,3300.0,11.0,0.0,14.0,1.0,0.0,2.0,0.0,0.0,0.0,
18.294,105.572757990399,88.69163140615886,-4.28,-2.76,-0.35,-33.0,11.0,0.0,15.0,1.0,0.0,2.0,0.0,0.0,0.49,
18.319,105.4892757990399,88.67216314061588,-4.66,-2.51,-0.21,-33.0,11.0,0.0,16.0,1.0,0.0,2.0,0.0,0.0,0.59,
18.343,105.39092757990399,88.61621631406157,-4.97,-2.84,-1.15,-33.0,11.0,0.0,16.0,1.0,0.0,2.0,0.0,0.0,0.49,
18.369,105.4620927579904,88.65562163140615,-4.23,-2.44,-0.06,-33.0,11.0,0.0,16.0,1.0,0.0,2.0,0.0,0.0,0.59,
18.394,105.45120927579904,88.71356216314061,-4.14,-2.46,-0.07,-33.0,11.0,0.0,16.0,1.0,0.0,2.0,0.0,0.0,0.2,
18.418,105.3691209275799,88.67435621631405,-4.56,-3.37,0.39,-33.0,11.0,0.0,17.0,2.0,0.0,3.0,0.0,0.0,0.0,
18.443,105.288912092758,88.6344356216314,-4.52,-3.0,0.08,3300.0,11.0,0.0,17.0,2.0,0.0,3.0,0.0,0.0,0.0,
18.467,105.30789120927581,88.63044356216314,-5.54,-3.79,-0.78,-33.0,11.0,0.0,17.0,2.0,0.0,3.0,0.0,0.0,0.0,
18.492,105.28278912092759,88.5580443562163,-5.85,-4.49,-0.9,-33.0,11.0,0.0,18.0,2.0,0.0,3.0,0.0,0.0,0.49,
18.516,105.21727891209275,88.52380443562163,-5.82,-4.87,0.4,-33.0,11.0,0.0,17.0,2.0,0.0,3.0,0.0,0.0,0.49,
18.541,105.11172789120927,88.50238044356217,-5.5,-4.35,0.27,-33.0,11.0,0.0,18.0,2.0,0.0,3.0,0.0,0.0,0.39,
18.566,104.99317278912092,88.38323804435622,-5.44,-4.11,0.33,-33.0,11.0,0.0,18.0,2.0,0.0,3.0,0.0,0.0,0.2,
18.59,104.99031727891209,88.34432380443562,-4.46,-3.63,-0.36,-33.0,11.0,0.0,18.0,2.0,0.0,3.0,0.0,0.0,0.39,
18.615,104.99903172789121,88.30443238044356,-4.79,-3.31,0.64,-33.0,11.0,0.0,18.0,2.0,0.0,3.0,0.0,0.0,0.49,
18.639,104.89190317278911,88.31844323804435,-4.05,-2.27,0.37,3300.0,11.0,0.0,18.0,2.0,0.0,3.0,0.0,0.0,0.78,
18.664,104.89019031727891,88.29284432380445,-4.23,-2.89,-0.45,-33.0,11.0,0.0,19.0,2.0,0.0,3.0,0.0,0.0,0.0,
18.689,104.9260190317279,88.26328443238046,-4.75,-3.56,0.09,-33.0,11.0,0.0,19.0,2.0,0.0,3.0,0.0,0.0,0.0,
18.713,105.00160190317278,88.20632844323805,-5.44,-4.11,-1.07,3300.0,11.0,0.0,19.0,2.0,0.0,3.0,0.0,0.0,0.2,
18.738,104.91016019031728,88.16463284432379,-4.84,-2.56,-0.62,-33.0,11.0,0.0,19.0,2.0,0.0,3.0,0.0,0.0,0.0,
18.762,104.83801601903173,88.17846328443238,-4.37,-2.1,-0.5,3300.0,11.0,0.0,20.0,2.0,0.0,3.0,0.0,0.0,0.0,
18.787,104.75880160190317,88.14384632844325,-4.45,-1.65,-0.47,-33.0,12.0,0.0,20.0,2.0,0.0,4.0,0.0,0.0,0.1,
18.811,104.7418801601903,88.08638463284433,-3.9,-0.21,-0.56,-33.0,11.0,0.0,20.0,2.0,0.0,4.0,0.0,0.0,0.69,
18.836,104.83018801601904,88.10763846328445,-2.04,0.64,2.08,-33.0,12.0,0.0,20.0,2.0,0.0,4.0,0.0,0.0,0.69,
18.861,104.86601880160191,88.06476384632845,-3.22,0.26,1.37,-33.0,12.0,0.0,20.0,2.0,0.0,4.0,0.0,0.0,0.1,
18.885,104.7976018801602,88.04247638463285,-2.27,1.16,1.56,-33.0,12.0,0.0,20.0,2.0,0.0,4.0,0.0,0.0,0.0,
18.91,104.80876018801602,87.95024763846328,-1.51,1.22,0.38,-33.0,12.0,0.0,20.0,2.0,0.0,4.0,0.0,0.0,0.0,
18.934,104.82787601880159,87.95002476384633,-1.08,2.28,0.84,-33.0,12.0,0.0,20.0,2.0,0.0,3.0,0.0,0.0,0.2,
18.959,104.88378760188016,87.98600247638464,-1.11,2.03,-0.03,-33.0,12.0,0.0,20.0,2.0,0.0,3.0,0.0,0.0,0.0,
18.983,104.97037876018801,88.00760024763846,-2.07,1.46,0.87,-33.0,12.0,0.0,20.0,2.0,0.0,3.0,0.0,0.0,0.0,
19.007,104.95203787601879,88.08176002476385,-1.85,0.31,0.19,-33.0,12.0,0.0,19.0,2.0,0.0,3.0,0.0,0.0,0.0,
19.032,104.96820378760188,88.1611760024764,-2.69,0.5,-0.49,3300.0,12.0,0.0,19.0,2.0,0.0,3.0,0.0,0.0,0.29,
19.056,105.03282037876019,88.14211760024764,-2.42,0.82,-1.01,-33.0,11.0,0.0,19.0,2.0,0.0,3.0,0.0,0.0,0.29,
19.081,105.12028203787602,88.23921176002476,-1.09,2.44,0.58,-33.0,12.0,0.0,18.0,2.0,0.0,3.0,0.0,0.0,0.0,
19.105,105.1380282037876,88.25792117600248,-1.47,1.7,-0.54,-33.0,12.0,0.0,19.0,2.0,0.0,3.0,0.0,0.0,0.0,
19.13,105.20280282037875,88.24179211760024,-0.01,3.5,-0.2,-33.0,12.0,0.0,19.0,2.0,0.0,3.0,0.0,0.0,0.1,
19.154,105.32628028203789,88.19517921176002,2.09,5.54,1.68,3300.0,11.0,0.0,16.0,2.0,0.0,2.0,0.0,0.0,0.49,
19.179,105.5276280282038,88.298517921176,4.18,7.55,0.73,-33.0,11.0,0.0,14.0,2.0,0.0,2.0,0.0,0.0,0.39,
19.204,105.69176280282038,88.4168517921176,1.93,5.57,-2.98,-33.0,11.0,0.0,11.0,2.0,0.0,2.0,0.0,0.0,0.2,
19.228,105.77117628028203,88.60868517921176,1.32,3.6,-0.32,3300.0,11.0,0.0,11.0,1.0,0.0,2.0,0.0,0.0,0.0,
19.253,105.76111762802822,88.78086851792118,-0.28,2.11,-0.21,-33.0,11.0,0.0,11.0,1.0,0.0,1.0,0.0,0.0,0.2,
19.277,105.82311176280282,88.81608685179212,0.2,2.26,-0.49,-33.0,11.0,0.0,10.0,1.0,0.0,1.0,0.0,0.0,0.0,
19.302,105.91031117628029,88.81960868517922,0.33,1.29,0.18,-33.0,11.0,0.0,9.0,1.0,0.0,1.0,0.0,0.0,0.0,
19.325,106.00903111762801,88.93696086851793,0.65,0.77,-0.2,-33.0,11.0,0.0,8.0,1.0,0.0,1.0,0.0,0.0,0.0,
19.35,106.0459031117628,89.03869608685179,0.66,0.07,-0.18,-33.0,11.0,0.0,7.0,1.0,0.0,1.0,0.0,0.0,0.2,
19.375,106.09459031117628,89.18386960868517,0.06,-0.63,0.76,-33.0,11.0,0.0,6.0,1.0,0.0,1.0,0.0,0.0,0.29,
19.399,106.20745903111762,89.37838696086853,-3.44,-2.63,0.15,-33.0,11.0,0.0,6.0,1.0,0.0,0.0,0.0,0.0,0.0,
19.424,106.22774590311175,89.35283869608685,-4.82,-3.47,-0.82,-33.0,11.0,0.0,6.0,1.0,0.0,1.0,0.0,0.0,0.0,
19.447,106.20277459031117,89.31428386960869,-4.51,-3.53,-0.63,-33.0,11.0,0.0,8.0,1.0,0.0,1.0,0.0,0.0,0.0,
19.472,106.19127745903111,89.28342838696088,-4.02,-2.86,-0.27,3300.0,11.0,0.0,8.0,1.0,0.0,1.0,0.0,0.0,0.39,
19.497,106.19012774590311,89.29834283869609,-4.21,-2.82,-0.66,-33.0,11.0,0.0,8.0,1.0,0.0,1.0,0.0,0.0,0.69,
19.522,106.2170127745903,89.3718342838696,-5.02,-3.2,-0.78,-33.0,11.0,0.0,8.0,1.0,0.0,1.0,0.0,0.0,0.59,
19.546,106.20170127745902,89.35218342838695,-5.18,-3.62,-0.91,-33.0,11.0,0.0,8.0,1.0,0.0,1.0,0.0,0.0,0.39,
19.57,106.11917012774589,89.37721834283869,-4.83,-3.49,-0.4,-33.0,11.0,0.0,8.0,1.0,0.0,1.0,0.0,0.0,0.59,
19.595,106.11091701277458,89.38872183428387,-5.71,-3.84,-0.66,-33.0,11.0,0.0,8.0,1.0,0.0,1.0,0.0,0.0,0.1,
19.619,106.08309170127745,89.30887218342839,-5.48,-3.31,-0.9,-33.0,11.0,0.0,8.0,1.0,0.0,1.0,0.0,0.0,0.0,
19.644,106.03530917012775,89.23788721834283,-4.55,-3.01,-0.3,-33.0,11.0,0.0,9.0,1.0,0.0,1.0,0.0,0.0,0.0,
19.668,105.97653091701278,89.21278872183429,-4.08,-2.76,-0.14,-33.0,11.0,0.0,9.0,1.0,0.0,1.0,0.0,0.0,0.29,
19.693,105.97965309170128,89.21927887218342,-3.69,-2.42,-0.4,-33.0,11.0,0.0,9.0,1.0,0.0,1.0,0.0,0.0,0.49,
19.718,105.95296530917012,89.21092788721835,-3.68,-2.0,-0.24,3300.0,11.0,0.0,10.0,1.0,0.0,1.0,0.0,0.0,0.39,
19.742,105.93229653091701,89.24609278872184,-4.35,-2.18,-0.27,-33.0,11.0,0.0,9.0,1.0,0.0,1.0,0.0,0.0,0.1,
19.767,105.8942296530917,89.1866092788722,-4.55,-2.62,-0.07,3300.0,11.0,0.0,10.0,1.0,0.0,1.0,0.0,0.0,0.0,
19.792,105.78242296530917,89.15366092788723,-4.5,-2.03,0.04,-33.0,11.0,0.0,10.0,1.0,0.0,1.0,0.0,0.0,0.49,
19.817,105.73524229653093,89.05136609278873,-3.84,-1.45,0.04,-33.0,11.0,0.0,10.0,1.0,0.0,1.0,0.0,0.0,0.69,
19.841,105.69452422965308,89.05013660927887,-3.53,-1.64,0.26,-33.0,11.0,0.0,10.0,1.0,0.0,1.0,0.0,0.0,0.78,
19.865,105.7174524229653,89.0140136609279,-3.6,-1.26,0.36,-33.0,11.0,0.0,11.0,1.0,0.0,1.0,0.0,0.0,0.29,
19.89,105.73774524229653,88.95640136609279,-3.55,-1.18,0.56,-33.0,11.0,0.0,11.0,1.0,0.0,2.0,0.0,0.0,0.2,
19.914,105.79377452422965,88.92364013660928,-3.42,-1.55,0.32,-33.0,11.0,0.0,10.0,1.0,0.0,2.0,0.0,0.0,0.1,
19.939,105.79937745242296,88.95636401366092,-3.93,-1.77,-0.22,3300.0,11.0,0.0,11.0,1.0,0.0,2.0,0.0,0.0,0.0,
19.964,105.81793774524229,88.9506364013661,-3.63,-1.38,-0.16,-33.0,11.0,0.0,11.0,1.0,0.0,2.0,0.0,0.0,0.0,
19.989,105.81079377452423,88.92306364013662,-3.21,-1.16,-0.27,3300.0,11.0,0.0,11.0,1.0,0.0,2.0,0.0,0.0,0.0,
20.014,105.79207937745244,88.89330636401367,-3.11,-1.22,0.18,-33.0,11.0,0.0,11.0,1.0,0.0,2.0,0.0,0.0,0.49,
20.038,105.75420793774524,88.82733063640137,-3.5,-0.95,0.23,-33.0,11.0,0.0,11.0,1.0,0.0,2.0,0.0,0.0,0.59,
20.063,105.75942079377454,88.76673306364013,-2.95,-0.78,-0.03,-33.0,11.0,0.0,11.0,1.0,0.0,2.0,0.0,0.0,0.29,
20.087,105.69694207937745,88.80567330636401,-1.85,-0.29,0.33,-33.0,11.0,0.0,11.0,1.0,0.0,2.0,0.0,0.0,0.0,
20.112,105.70869420793774,88.8095673306364,-2.12,-0.27,-0.05,-33.0,11.0,0.0,11.0,1.0,0.0,2.0,0.0,0.0,0.1,
20.136,105.76386942079377,88.80995673306364,-1.93,-0.34,0.15,-33.0,11.0,0.0,11.0,1.0,0.0,1.0,0.0,0.0,0.0,
20.161,105.7873869420794,88.78299567330636,-1.04,-0.05,0.32,-33.0,11.0,0.0,10.0,1.0,0.0,1.0,0.0,0.0,0.0,
20.186,105.85273869420794,88.82529956733063,-0.57,-0.21,-0.46,-33.0,11.0,0.0,10.0,1.0,0.0,1.0,0.0,0.0,0.0,
20.21,105.9582738694208,88.89252995673307,-0.75,-0.05,-1.15,-33.0,11.0,0.0,9.0,1.0,0.0,1.0,0.0,0.0,0.2,
20.235,106.00482738694208,88.94425299567331,-2.05,-0.28,0.11,3300.0,11.0,0.0,8.0,1.0,0.0,1.0,0.0,0.0,0.39,
20.259,105.98248273869422,88.98542529956732,-2.3,-0.37,0.83,-33.0,11.0,0.0,8.0,1.0,0.0,1.0,0.0,0.0,0.29,
20.284,106.07024827386941,88.99854252995674,-2.22,-0.38,0.64,-33.0,11.0,0.0,8.0,1.0,0.0,1.0,0.0,0.0,0.0,
20.307,106.09702482738693,89.07185425299566,-2.05,-0.69,0.24,-33.0,10.0,0.0,8.0,1.0,0.0,1.0,0.0,0.0,0.1,
20.332,106.13570248273868,89.10618542529956,-2.64,-1.0,-0.15,-33.0,11.0,0.0,8.0,1.0,0.0,1.0,0.0,0.0,0.59,
20.357,106.11257024827385,89.10961854252994,-2.31,-1.02,-0.24,1077.0,10.0,0.0,8.0,1.0,0.0,1.0,0.0,0.0,0.69,
20.381,106.11925702482739,89.12796185425299,-2.15,-0.97,-0.02,-33.0,11.0,0.0,8.0,1.0,0.0,1.0,0.0,0.0,0.69,
20.406,106.11992570248275,89.1657961854253,-3.35,-1.55,-0.23,-33.0,10.0,0.0,8.0,1.0,0.0,1.0,0.0,0.0,0.2,
20.43,106.06599257024828,89.14257961854253,-3.53,-1.8,-0.55,-33.0,10.0,0.0,8.0,1.0,0.0,1.0,0.0,0.0,0.59,
20.455,106.06059925702483,89.17625796185426,-3.47,-1.72,-0.17,-33.0,11.0,0.0,8.0,1.0,0.0,1.0,0.0,0.0,0.0,
20.48,106.05105992570248,89.13462579618542,-3.26,-1.55,-0.17,-33.0,11.0,0.0,8.0,1.0,0.0,1.0,0.0,0.0,0.0,
20.504,106.03210599257025,89.15746257961854,-2.87,-1.56,0.09,-33.0,10.0,0.0,8.0,1.0,0.0,1.0,0.0,0.0,0.0,
20.529,106.00321059925703,89.17774625796187,-3.49,-1.51,-0.01,-33.0,11.0,0.0,6.0,1.0,0.0,1.0,0.0,0.0,0.39,
20.553,106.00932105992571,89.1797746257962,-3.63,-2.06,-0.52,-33.0,10.0,0.0,8.0,1.0,0.0,1.0,0.0,0.0,0.49,
20.578,106.00093210599258,89.20697746257962,-3.63,-1.98,-0.07,-33.0,11.0,0.0,8.0,1.0,0.0,1.0,0.0,0.0,0.0,
20.602,106.00009321059926,89.19169774625796,-3.54,-1.73,-0.16,-33.0,11.0,0.0,8.0,1.0,0.0,1.0,0.0,0.0,0.0,
20.627,106.00900932105993,89.1451697746258,-3.31,-1.73,0.07,-33.0,11.0,0.0,8.0,1.0,0.0,1.0,0.0,0.0,0.0,
20.652,106.00990093210599,89.21251697746258,-3.47,-2.13,-0.18,-33.0,11.0,0.0,8.0,1.0,0.0,1.0,0.0,0.0,0.29,
20.676,105.9739900932106,89.15625169774627,-3.7,-1.66,0.07,-33.0,11.0,0.0,9.0,1.0,0.0,1.0,0.0,0.0,0.88,
20.701,105.95239900932106,89.11462516977463,-3.37,-1.66,0.05,-33.0,11.0,0.0,8.0,1.0,0.0,1.0,0.0,0.0,0.78,
20.725,105.9412399009321,89.09246251697748,-3.11,-1.33,-0.22,-33.0,11.0,0.0,9.0,1.0,0.0,1.0,0.0,0.0,0.39,
20.75,105.94912399009321,89.09924625169774,-2.4,-0.89,-0.01,-33.0,11.0,0.0,10.0,1.0,0.0,1.0,0.0,0.0,0.29,
20.774,105.95891239900931,89.09992462516976,-2.66,-1.21,0.11,-33.0,11.0,0.0,9.0,1.0,0.0,1.0,0.0,0.0,0.1,
20.799,105.95989123990091,89.13599246251698,-2.94,-1.3,-0.3,-33.0,11.0,0.0,9.0,1.0,0.0,1.0,0.0,0.0,0.0,
20.824,105.9779891239901,89.1935992462517,-3.08,-1.86,-0.38,-33.0,11.0,0.0,10.0,1.0,0.0,1.0,0.0,0.0,0.0,
20.848,105.88979891239902,89.19935992462517,-3.5,-1.71,-0.2,-33.0,11.0,0.0,9.0,1.0,0.0,1.0,0.0,0.0,0.1,
20.873,105.8719798912399,89.25393599246252,-3.08,-1.21,-0.05,-33.0,11.0,0.0,9.0,1.0,0.0,1.0,0.0,0.0,0.49,
20.897,105.888197989124,89.25939359924625,-2.79,-0.92,0.26,-33.0,11.0,0.0,9.0,1.0,0.0,1.0,0.0,0.0,0.59,
20.921,105.9078197989124,89.25093935992463,-2.99,-1.27,-0.24,-33.0,11.0,0.0,9.0,1.0,0.0,1.0,0.0,0.0,0.2,
20.945,105.88278197989123,89.23209393599247,-2.6,-1.06,0.11,-33.0,11.0,0.0,9.0,1.0,0.0,1.0,0.0,0.0,0.1,
20.97,105.89827819798913,89.23020939359924,-2.89,-1.29,0.0,-33.0,11.0,0.0,9.0,1.0,0.0,1.0,0.0,0.0,0.1,
20.995,105.92682781979892,89.20302093935993,-3.19,-0.74,0.19,-33.0,11.0,0.0,9.0,1.0,0.0,1.0,0.0,0.0,0.88,
21.019,105.94768278197989,89.19130209393599,-2.61,-0.99,-0.11,-33.0,11.0,0.0,9.0,1.0,0.0,1.0,0.0,0.0,0.88,
21.044,105.88676827819799,89.1181302093936,-2.73,-0.79,-0.02,-33.0,11.0,0.0,9.0,1.0,0.0,1.0,0.0,0.0,0.1,
21.068,105.9166768278198,89.11981302093938,-2.84,-1.15,-0.18,-33.0,11.0,0.0,9.0,1.0,0.0,1.0,0.0,0.0,0.2,
21.093,105.91066768278198,88.98498130209394,-2.47,-0.83,-0.48,3300.0,11.0,0.0,9.0,1.0,0.0,1.0,0.0,0.0,0.1,
21.117,105.8740667682782,88.9444981302094,-2.61,-1.02,0.5,-33.0,11.0,0.0,9.0,1.0,0.0,1.0,0.0,0.0,0.0,
21.142,105.92440667682781,88.95844981302093,-2.88,-1.18,0.37,-33.0,11.0,0.0,9.0,1.0,0.0,1.0,0.0,0.0,0.0,
21.167,105.96544066768278,88.9958449813021,-2.99,-1.41,-0.12,-33.0,11.0,0.0,9.0,1.0,0.0,1.0,0.0,0.0,0.0,
21.191,105.93354406676828,88.97258449813022,-3.23,-1.5,-0.41,-33.0,11.0,0.0,9.0,1.0,0.0,1.0,0.0,0.0,0.29,
21.216,105.92135440667683,89.00625844981303,-3.2,-1.47,0.22,-33.0,11.0,0.0,10.0,1.0,0.0,1.0,0.0,0.0,0.59,
21.24,105.93813544066768,89.0906258449813,-3.52,-1.79,0.64,-33.0,11.0,0.0,10.0,1.0,0.0,1.0,0.0,0.0,0.49,
21.265,105.94881354406677,89.14406258449814,-3.2,-1.41,0.32,-33.0,11.0,0.0,10.0,1.0,0.0,1.0,0.0,0.0,0.2,
21.289,106.00388135440667,89.17640625844983,-3.34,-1.13,-0.11,-33.0,11.0,0.0,10.0,1.0,0.0,1.0,0.0,0.0,0.2,
21.314,106.01838813544066,89.24264062584498,-3.66,-1.27,0.41,-33.0,11.0,0.0,10.0,1.0,0.0,1.0,0.0,0.0,0.49,
21.339,105.98383881354407,89.1682640625845,-3.42,-1.29,-0.7,-33.0,11.0,0.0,10.0,1.0,0.0,1.0,0.0,0.0,0.0,
21.363,105.98038388135441,89.20582640625845,-2.84,-1.11,0.69,-33.0,11.0,0.0,10.0,1.0,0.0,1.0,0.0,0.0,0.0,
21.388,106.08803838813543,89.32658264062584,-2.97,-0.9,0.5,-33.0,11.0,0.0,10.0,1.0,0.0,1.0,0.0,0.0,0.0,
21.412,106.13480383881354,89.42865826406258,-3.11,-0.56,0.55,-33.0,11.0,0.0,10.0,1.0,0.0,1.0,0.0,0.0,0.29,
21.436,106.13048038388135,89.37586582640625,-2.79,-1.58,0.01,-33.0,11.0,0.0,10.0,1.0,0.0,1.0,0.0,0.0,0.39,
21.46,106.10304803838812,89.31658658264062,-3.19,-1.55,0.1,-33.0,11.0,0.0,10.0,1.0,0.0,1.0,0.0,0.0,0.0,
21.485,106.11830480383883,89.27465865826406,-3.1,-1.19,-0.26,-33.0,11.0,0.0,10.0,1.0,0.0,1.0,0.0,0.0,0.0,
21.511,106.06583048038388,89.27946586582641,-2.79,-0.99,0.05,-33.0,11.0,0.0,10.0,1.0,0.0,1.0,0.0,0.0,0.29,
21.534,106.0425830480384,89.31594658658263,-3.15,-1.27,-0.21,3300.0,11.0,0.0,10.0,1.0,0.0,1.0,0.0,0.0,0.69,
21.56,106.06725830480383,89.30159465865826,-3.24,-1.21,-0.27,-33.0,11.0,0.0,10.0,1.0,0.0,1.0,0.0,0.0,0.69,
21.584,106.07872583048038,89.31815946586582,-3.13,-1.08,0.2,-33.0,11.0,0.0,11.0,1.0,0.0,1.0,0.0,0.0,0.49,
21.609,106.07987258304803,89.27481594658659,-3.18,-1.41,0.11,3300.0,11.0,0.0,10.0,1.0,0.0,1.0,0.0,0.0,0.39,
21.634,106.0799872583048,89.26148159465866,-3.22,-1.49,0.04,-33.0,11.0,0.0,10.0,1.0,0.0,1.0,0.0,0.0,0.1,
21.658,106.01699872583049,89.24214815946587,-3.7,-1.63,-0.13,-33.0,11.0,0.0,10.0,1.0,0.0,1.0,0.0,0.0,0.0,
21.683,106.02869987258305,89.21321481594659,-3.33,-1.61,-0.16,-33.0,11.0,0.0,10.0,1.0,0.0,1.0,0.0,0.0,0.0,
21.707,106.01186998725831,89.16532148159466,-3.44,-1.91,-0.31,-33.0,11.0,0.0,10.0,1.0,0.0,1.0,0.0,0.0,0.0,
21.732,105.93818699872583,89.15153214815948,-3.65,-1.49,-0.11,-33.0,11.0,0.0,11.0,1.0,0.0,1.0,0.0,0.0,0.49,
21.756,105.87681869987259,89.19515321481595,-3.02,-1.21,-0.08,-33.0,11.0,0.0,10.0,1.0,0.0,1.0,0.0,0.0,0.59,
21.781,105.85268186998725,89.1635153214816,-3.29,-1.55,-0.12,-33.0,11.0,0.0,11.0,1.0,0.0,1.0,0.0,0.0,0.29,
21.806,105.90426818699872,89.10635153214815,-3.11,-1.47,-0.05,-33.0,11.0,0.0,11.0,1.0,0.0,1.0,0.0,0.0,0.1,
21.83,105.98142681869986,89.10963515321481,-3.15,-1.42,0.27,-33.0,11.0,0.0,11.0,1.0,0.0,1.0,0.0,0.0,0.2,
21.855,105.98014268186999,89.0649635153215,-2.9,-1.49,0.04,-33.0,11.0,0.0,11.0,1.0,0.0,1.0,0.0,0.0,0.59,
21.879,105.980014268187,89.06049635153215,-2.89,-1.28,-0.1,3300.0,11.0,0.0,10.0,1.0,0.0,1.0,0.0,0.0,0.88,
21.904,105.9710014268187,89.0510496351532,-2.47,-0.85,0.24,-33.0,11.0,0.0,10.0,1.0,0.0,1.0,0.0,0.0,0.1,
21.928,106.03310014268187,89.10410496351531,-2.98,-1.04,0.02,-33.0,11.0,0.0,11.0,1.0,0.0,1.0,0.0,0.0,0.29,
21.953,106.0393100142682,89.10941049635153,-3.44,-1.69,0.12,-33.0,11.0,0.0,11.0,1.0,0.0,1.0,0.0,0.0,0.29,
21.978,106.03993100142682,89.05594104963515,-3.32,-1.46,0.09,-33.0,11.0,0.0,11.0,1.0,0.0,1.0,0.0,0.0,0.0,
22.002,105.98599310014268,89.05959410496352,-3.03,-1.19,0.01,-33.0,11.0,0.0,11.0,1.0,0.0,1.0,0.0,0.0,0.0,
22.027,105.96259931001426,89.06895941049635,-2.96,-0.77,0.14,3300.0,11.0,0.0,11.0,1.0,0.0,1.0,0.0,0.0,0.0,
22.051,105.91525993100143,89.06089594104964,-2.88,-0.89,0.01,-33.0,11.0,0.0,11.0,1.0,0.0,1.0,0.0,0.0,0.39,
22.076,105.90152599310014,89.08708959410498,-2.96,-1.11,-0.18,-33.0,11.0,0.0,11.0,1.0,0.0,1.0,0.0,0.0,0.69,
22.1,105.93615259931002,89.1077089594105,-2.78,-1.03,-0.31,-33.0,11.0,0.0,11.0,1.0,0.0,1.0,0.0,0.0,0.49,
22.125,105.930615259931,89.10077089594105,-2.66,-1.06,-0.03,-33.0,11.0,0.0,10.0,1.0,0.0,1.0,0.0,0.0,0.29,
22.15,105.9300615259931,89.11807708959412,-2.79,-1.19,-0.11,-33.0,11.0,0.0,11.0,1.0,0.0,1.0,0.0,0.0,0.1,
22.174,105.9210061525993,89.07480770895941,-3.12,-1.11,-0.63,-33.0,11.0,0.0,10.0,1.0,0.0,1.0,0.0,0.0,0.2,
22.199,105.92010061525993,89.05248077089594,-2.57,-1.02,-0.35,-33.0,11.0,0.0,10.0,1.0,0.0,1.0,0.0,0.0,0.0,
22.223,105.938010061526,89.07724807708959,-2.63,-1.0,-0.08,-33.0,11.0,0.0,10.0,1.0,0.0,1.0,0.0,0.0,0.0,
22.248,105.9488010061526,89.11572480770897,-2.74,-1.4,-0.85,-33.0,11.0,0.0,10.0,1.0,0.0,1.0,0.0,0.0,0.29,
22.273,105.94088010061526,89.11957248077091,-2.63,-0.85,-0.53,-33.0,11.0,0.0,10.0,1.0,0.0,1.0,0.0,0.0,0.49,
22.297,106.04808801006153,89.18295724807709,-2.98,-0.95,-0.63,3300.0,11.0,0.0,10.0,1.0,0.0,1.0,0.0,0.0,0.29,
22.323,106.00480880100616,89.1982957248077,-3.27,-0.19,-0.6,-33.0,11.0,0.0,10.0,1.0,0.0,1.0,0.0,0.0,0.1,
22.347,105.87448088010062,89.32582957248077,-1.84,4.09,0.68,-33.0,11.0,0.0,10.0,1.0,0.0,1.0,0.0,0.0,0.0,
22.371,105.93344808801007,89.33858295724808,-1.9,0.7,0.42,-33.0,11.0,0.0,10.0,1.0,0.0,1.0,0.0,0.0,0.29,
22.395,106.00234480880101,89.38485829572481,-2.39,0.53,0.12,-33.0,11.0,0.0,9.0,1.0,0.0,1.0,0.0,0.0,0.59,
22.42,105.9912344808801,89.36248582957248,-2.44,0.17,0.22,-33.0,11.0,0.0,10.0,1.0,0.0,1.0,0.0,0.0,0.88,
22.445,106.00812344808801,89.36024858295725,-3.18,-0.12,0.31,-33.0,11.0,0.0,9.0,1.0,0.0,1.0,0.0,0.0,0.39,
22.469,106.0638123448088,89.34202485829573,-3.82,-0.68,0.41,1633.0,11.0,0.0,10.0,1.0,0.0,1.0,0.0,0.0,0.49,
22.494,106.07838123448087,89.29520248582958,-3.26,-0.47,0.94,-33.0,11.0,0.0,10.0,1.0,0.0,1.0,0.0,0.0,0.2,
22.518,106.09783812344808,89.29052024858296,-2.51,-0.48,2.12,-33.0,11.0,0.0,9.0,1.0,0.0,1.0,0.0,0.0,0.0,
22.543,106.1627838123448,89.3530520248583,-1.39,-1.02,3.14,-33.0,11.0,0.0,8.0,1.0,0.0,1.0,0.0,0.0,0.0,
22.567,106.14227838123448,89.39530520248584,-2.42,-4.17,2.53,-33.0,11.0,0.0,6.0,1.0,0.0,1.0,0.0,0.0,0.0,
22.592,105.90622783812344,89.29153052024859,-0.96,-8.44,2.28,-33.0,10.0,0.0,3.0,1.0,0.0,1.0,0.0,0.0,0.69,
22.616,105.63062278381233,89.61415305202486,3.62,-20.42,8.99,-33.0,8.0,0.0,10.0,1.0,0.0,1.0,0.0,0.0,1.18,
22.64,104.75706227838123,89.41241530520249,-3.23,-19.11,13.71,1633.0,6.0,0.0,6.0,0.0,0.0,1.0,0.0,0.0,1.67,
22.665,104.04870622783812,89.83324153052024,-17.52,6.82,0.98,3300.0,3.0,0.0,3.0,0.0,0.0,1.0,0.0,0.0,2.55,
22.689,103.8608706227838,90.82032415305203,-33.4,80.93,12.53,3300.0,1.0,0.0,2.0,0.0,0.0,1.0,0.0,0.0,7.65,
22.714,100.95308706227837,90.10003241530521,-54.08,60.94,3.34,3.0,0.0,0.0,2.0,0.0,0.0,2.0,0.0,0.0,11.28,
22.738,99.48330870622783,87.77800324153051,-50.78,57.12,-12.7,2.0,0.0,0.0,1.0,0.0,0.0,1.0,0.0,0.0,34.24,
22.763,96.75333087062279,87.84280032415305,-40.82,-1.19,-1.08,2.0,0.0,0.0,1.0,0.0,0.0,0.0,0.0,0.0,107.32,
22.787,91.48533308706229,88.53328003241529,-29.19,-61.89,-26.71,2.0,0.0,0.0,1.0,0.0,0.0,0.0,0.0,0.0,92.12,
22.811,86.80053330870624,90.43832800324154,-23.39,-73.53,-41.08,3.0,0.0,0.0,1.0,0.0,0.0,0.0,0.0,0.0,26.49,
22.836,86.06205333087063,93.19383280032416,-11.31,-96.6,-72.32,3.0,0.0,0.0,2.0,0.0,0.0,0.0,0.0,0.0,13.83,
22.86,89.41720533308707,93.84738328003242,-14.77,-107.62,-86.41,3.0,0.0,0.0,2.0,0.0,0.0,0.0,0.1,0.0,9.91,
22.885,94.67572053330872,93.13873832800324,-18.96,-74.26,-27.92,2.0,0.0,0.0,2.0,0.0,0.0,0.0,0.0,0.0,7.06,
22.908,101.13257205333086,88.33387383280032,-48.74,21.76,131.7,2.0,0.0,0.0,2.0,0.0,0.0,0.0,0.0,0.0,0.0,
22.933,108.84325720533309,84.35238738328003,46.26,7.56,-133.18,4.0,1.0,0.0,6.0,0.0,0.0,1.0,0.0,0.0,0.0,
22.958,113.26832572053331,86.24923873832799,3.95,-20.53,10.3,-33.0,4.0,0.0,10.0,1.0,0.0,2.0,0.0,0.0,0.0,
22.982,108.70683257205334,84.6749238738328,19.76,-7.61,-35.54,-33.0,6.0,0.0,12.0,1.0,0.0,3.0,0.0,0.0,0.0,
23.007,106.46868325720533,83.68049238738327,6.75,31.47,-12.82,-33.0,8.0,0.0,5.0,1.0,0.0,4.0,0.0,0.0,0.0,
23.031,106.50586832572054,85.25504923873834,11.78,25.71,-2.21,-33.0,9.0,0.0,9.0,1.0,0.0,4.0,0.0,0.0,0.0,
23.056,106.16758683257204,85.73650492387384,5.89,14.71,-1.65,-33.0,10.0,0.0,10.0,2.0,0.0,4.0,0.0,0.0,0.0,
23.08,106.2147586832572,86.18065049238739,2.21,10.4,7.21,-33.0,10.0,0.0,11.0,2.0,0.0,4.0,0.0,0.0,0.0,
23.104,106.18347586832573,86.13506504923873,-1.54,7.6,0.92,-33.0,10.0,0.0,11.0,1.0,0.0,4.0,0.0,0.0,0.0,
23.129,105.78434758683257,86.40950650492388,2.63,10.5,0.32,-33.0,11.0,0.0,13.0,1.0,0.0,4.0,0.0,0.0,0.0,
23.153,105.57343475868326,86.75195065049239,1.76,8.57,-1.76,-33.0,11.0,0.0,13.0,1.0,0.0,4.0,0.0,0.0,0.0,
23.178,105.50734347586832,87.00219506504924,0.18,4.79,1.62,-33.0,12.0,0.0,13.0,1.0,0.0,4.0,0.0,0.0,0.0,
23.202,105.43773434758684,87.11721950650492,-1.56,1.04,1.25,1633.0,12.0,0.0,14.0,1.0,0.0,5.0,0.0,0.0,0.0,
23.227,105.21477343475868,86.98472195065048,-2.3,2.91,-0.94,-33.0,12.0,0.0,14.0,1.0,0.0,5.0,0.0,0.0,0.0,
23.251,105.11147734347587,87.07047219506505,-0.53,3.98,-2.02,-33.0,0.0,0.0,15.0,1.0,0.0,5.0,0.0,0.0,0.0,
23.276,105.07414773434759,87.24104721950651,0.57,4.61,-3.5,-33.0,1.0,0.0,15.0,1.0,0.0,5.0,0.0,0.0,0.0,
23.301,104.98941477343476,87.48310472195065,0.52,1.85,-0.86,-33.0,1.0,0.0,16.0,1.0,0.0,5.0,0.0,0.0,0.0,
