time,pitch,roll,gyrx,gyry,gyrz,f1,f2,f3,f4,f5,f6,f7,g1,g2,g3
0.389,40.74,42.4,-3.95,-1.08,2.41,4.0,0.0,0.0,1.0,0.0,0.0,0.0,0.0,0.0,0.0,
0.412,46.662,48.790000000000006,-3.02,-0.58,3.82,4.0,0.0,0.0,1.0,0.0,0.0,0.0,0.0,0.0,11.97,
0.436,52.1682,54.37,-2.76,-2.01,2.05,4.0,0.0,0.0,1.0,0.0,0.0,0.0,0.0,0.0,4.51,
0.46,57.01182,59.113,-2.28,-2.41,-2.47,4.0,0.0,0.0,1.0,0.0,0.0,0.0,0.0,0.0,2.65,
0.484,61.348181999999994,63.466300000000004,-3.48,-1.56,-0.69,4.0,0.0,0.0,1.0,0.0,0.0,0.0,0.0,0.0,2.16,
0.508,64.8418182,66.95263,-4.53,-1.81,1.3,4.0,0.0,0.0,1.0,0.0,0.0,0.0,0.0,0.0,0.0,
0.532,67.72918182,69.88426299999999,-5.33,-2.2,-0.76,4.0,0.0,0.0,1.0,0.0,0.0,0.0,0.0,0.0,0.0,
0.556,70.28591818199999,72.59842630000001,-5.73,-2.47,-0.84,4.0,0.0,0.0,1.0,0.0,0.0,0.0,0.0,0.0,10.4,
0.58,72.4765918182,74.75984263,-5.27,-1.98,-1.49,4.0,0.0,0.0,1.0,0.0,0.0,0.0,0.0,0.0,3.73,
0.604,74.44165918182,76.793984263,-4.6,-2.08,-3.16,4.0,0.0,0.0,1.0,0.0,0.0,0.0,0.0,0.0,2.45,
0.628,76.25816591818199,78.7163984263,-4.69,-1.95,0.13,4.0,0.0,0.0,1.0,0.0,0.0,0.0,0.0,0.0,2.35,
0.652,77.6278165918182,80.30363984263,-5.06,-1.51,3.59,4.0,0.0,0.0,1.0,0.0,0.0,0.0,0.0,0.0,2.06,
0.675,78.70078165918181,81.524363984263,-3.86,-0.68,1.64,4.0,0.0,0.0,1.0,0.0,0.0,0.0,0.0,0.0,2.06,
0.7,79.62707816591819,82.57343639842631,-2.88,-0.89,0.24,4.0,0.0,0.0,1.0,0.0,0.0,0.0,0.0,0.0,2.16,
0.723,80.39470781659182,83.41634363984264,-2.79,-1.9,0.6,4.0,0.0,0.0,1.0,0.0,0.0,0.0,0.0,0.0,2.06,
0.747,81.07447078165919,84.13063436398426,-2.75,-2.25,0.0,4.0,0.0,0.0,1.0,0.0,0.0,0.0,0.0,0.0,2.06,
0.772,81.70944707816592,84.80506343639843,-2.74,-1.75,0.34,4.0,0.0,0.0,1.0,0.0,0.0,0.0,0.0,0.0,2.16,
0.795,82.16894470781659,85.35850634363985,-2.57,-2.05,1.79,4.0,0.0,0.0,1.0,0.0,0.0,0.0,0.0,0.0,2.16,
0.819,82.50289447078165,85.81885063436398,-2.15,-1.92,1.83,4.0,0.0,0.0,1.0,0.0,0.0,0.0,0.0,0.0,2.16,
0.843,82.85128944707816,86.08988506343641,-2.11,-1.16,1.05,4.0,0.0,0.0,1.0,0.0,0.0,0.0,0.0,0.0,2.06,
0.867,83.14712894470782,86.20698850634363,-2.95,-1.44,0.93,4.0,0.0,0.0,1.0,0.0,0.0,0.0,0.0,0.0,2.16,
0.89,83.38371289447079,86.34469885063436,-3.47,-2.07,1.75,4.0,0.0,0.0,1.0,0.0,0.0,0.0,0.0,0.0,2.16,
0.915,83.60537128944708,86.33146988506344,-3.37,-1.76,0.32,4.0,0.0,0.0,1.0,0.0,0.0,0.0,0.0,0.0,2.16,
0.939,83.7805371289447,86.35714698850634,-3.89,-1.34,-1.58,4.0,0.0,0.0,1.0,0.0,0.0,0.0,0.0,0.0,2.26,
0.963,83.94205371289446,86.58471469885063,-3.89,-1.77,-1.19,4.0,0.0,0.0,1.0,0.0,0.0,0.0,0.0,0.0,2.16,
0.987,84.04820537128946,86.78747146988506,-3.96,-2.13,0.18,4.0,0.0,0.0,1.0,0.0,0.0,0.0,0.0,0.0,2.16,
1.01,84.13982053712895,86.7357471469885,-3.85,-1.9,-0.89,4.0,0.0,0.0,1.0,0.0,0.0,0.0,0.0,0.0,2.16,
1.035,84.37398205371291,86.88357471469885,-4.4,-0.88,-2.44,4.0,0.0,0.0,1.0,0.0,0.0,0.0,0.0,0.0,2.26,
1.058,84.5683982053713,87.2943574714699,-4.29,-0.57,-0.48,4.0,0.0,0.0,1.0,0.0,0.0,0.0,0.0,0.0,2.16,
1.083,84.62383982053713,87.596435747147,-3.63,-1.32,1.72,4.0,0.0,0.0,1.0,0.0,0.0,0.0,0.0,0.0,0.0,
1.106,84.65638398205371,87.71664357471471,-3.05,-1.86,-0.11,4.0,0.0,0.0,1.0,0.0,0.0,0.0,0.0,0.0,1.57,
1.13,84.76763839820538,87.89066435747146,-2.28,-1.37,-1.5,4.0,0.0,0.0,1.0,0.0,0.0,0.0,0.1,0.0,1.18,
1.155,84.87776383982053,88.15106643574715,-1.55,-0.16,0.45,4.0,0.0,0.0,1.0,0.0,0.0,0.0,0.1,0.0,1.67,
1.178,84.85277638398205,88.2041066435747,-1.27,-0.65,2.19,4.0,0.0,0.0,1.0,0.0,0.0,0.0,0.1,0.0,1.57,
1.202,84.7512776383982,88.10141066435747,-1.31,-1.48,0.64,4.0,0.0,0.0,1.0,0.0,0.0,0.0,0.0,0.1,1.77,
1.226,84.70512776383983,88.05514106643575,-1.02,-0.56,-0.48,4.0,0.0,0.0,1.0,0.0,0.0,0.0,0.1,0.1,1.77,
1.25,84.69151277638399,88.01451410664357,-1.6,-0.56,0.53,4.0,0.0,0.0,1.0,0.0,0.0,0.0,0.1,0.0,1.57,
1.274,84.5911512776384,87.81245141066437,-2.21,-1.13,0.76,4.0,0.0,0.0,1.0,0.0,0.0,0.0,0.0,0.1,1.77,
1.298,84.63511512776384,87.81924514106643,-2.37,-0.7,-0.77,4.0,0.0,0.0,1.0,0.0,0.0,0.0,0.0,0.1,1.67,
1.321,84.58551151277638,87.90092451410663,-2.41,-0.85,1.57,4.0,0.0,0.0,1.0,0.0,0.0,0.0,0.1,0.0,1.86,
1.346,84.58055115127763,87.82809245141065,-2.92,-1.5,2.28,4.0,0.0,0.0,1.0,0.0,0.0,0.0,0.0,0.1,1.77,
1.37,84.51705511512777,87.73080924514107,-3.1,-1.16,1.59,4.0,0.0,0.0,1.0,0.0,0.0,0.0,0.0,0.1,1.96,
1.393,84.41170551151278,87.8380809245141,-3.59,-2.44,1.49,4.0,0.0,0.0,1.0,0.0,0.0,0.0,0.0,0.0,2.06,
1.418,84.41017055115127,87.94780809245141,-3.45,-2.6,2.69,4.0,0.0,0.0,1.0,0.0,0.0,0.0,0.0,0.0,2.06,
1.441,84.35601705511512,87.72478080924515,-2.18,-3.66,0.79,4.0,0.0,0.0,1.0,0.0,0.0,0.0,0.0,0.0,1.96,
1.465,84.54860170551152,87.75647808092452,-2.23,-3.04,-1.95,4.0,0.0,0.0,1.0,0.0,0.0,0.0,0.0,0.0,1.96,
1.489,84.78386017055115,87.92164780809244,-3.73,-1.94,0.92,4.0,0.0,0.0,1.0,0.0,0.0,0.0,0.0,0.0,2.06,
1.513,84.70838601705512,87.85716478080924,-4.71,-1.96,2.76,4.0,0.0,0.0,1.0,0.0,0.0,0.0,0.0,0.0,2.06,
1.537,84.4668386017055,87.47271647808094,-2.85,-3.01,-2.81,4.0,0.0,0.0,1.0,0.0,0.0,0.0,0.0,0.0,2.06,
1.561,84.48768386017055,87.53327164780809,-2.61,-3.59,-7.12,4.0,0.0,0.0,1.0,0.0,0.0,0.0,0.0,0.0,2.16,
1.585,84.58876838601705,87.88132716478081,-2.99,-2.62,-3.81,4.0,0.0,0.0,1.0,0.0,0.0,0.0,0.1,0.0,2.06,
1.609,84.4728768386017,88.10513271647807,-3.0,-2.89,-0.59,4.0,0.0,0.0,1.0,0.0,0.0,0.0,0.0,0.0,1.96,
1.633,84.29928768386017,88.11851327164781,-1.35,-4.31,-1.97,4.0,0.0,0.0,1.0,0.0,0.0,0.0,0.1,0.0,2.06,
1.657,84.45292876838602,88.27285132716479,-1.76,-4.31,-2.02,4.0,0.0,0.0,1.0,0.0,0.0,0.0,0.0,0.0,1.96,
1.681,84.54929287683859,88.27928513271647,-3.44,-3.34,-0.31,4.0,0.0,0.0,1.0,0.0,0.0,0.0,0.0,0.0,2.06,
1.704,84.32492928768386,88.00092851327165,-3.9,-3.02,-1.83,4.0,0.0,0.0,1.0,0.0,0.0,0.0,0.0,0.0,2.06,
1.729,84.1404929287684,87.56809285132717,-4.69,-4.08,-6.49,4.0,0.0,0.0,1.0,0.0,0.0,0.0,0.0,0.0,2.06,
1.753,84.17604929287685,87.33580928513273,-4.6,-3.98,-7.17,4.0,0.0,0.0,1.0,0.0,0.0,0.0,0.0,0.0,2.16,
1.777,84.2606049292877,87.40258092851327,-7.55,-3.08,-4.05,4.0,0.0,0.0,1.0,0.0,0.0,0.0,0.0,0.0,2.06,
1.801,84.05306049292878,87.20225809285132,-8.91,-2.84,-3.34,4.0,0.0,0.0,1.0,0.0,0.0,0.0,0.0,0.0,2.16,
1.825,83.82530604929288,86.96622580928512,-8.11,-2.53,-6.19,4.0,0.0,0.0,1.0,0.0,0.0,0.0,0.0,0.0,2.16,
1.849,83.73953060492929,86.77162258092851,-7.51,-2.08,-9.08,4.0,0.0,0.0,1.0,0.0,0.0,0.0,0.0,0.0,1.57,
1.872,83.76695306049292,86.54516225809284,-8.25,-1.33,-9.05,4.0,0.0,0.0,1.0,0.0,0.0,0.0,0.1,0.0,1.57,
1.897,83.74269530604928,86.37851622580929,-11.3,-1.96,-7.33,4.0,0.0,0.0,1.0,0.0,0.0,0.0,0.0,0.0,1.57,
1.921,83.74926953060492,86.22685162258092,-12.23,-2.4,-5.86,4.0,0.0,0.0,1.0,0.0,0.0,0.0,0.0,0.0,1.57,
1.945,83.7589269530605,86.04068516225809,-11.46,-3.14,-6.66,4.0,0.0,0.0,1.0,0.0,0.0,0.0,0.0,0.0,1.77,
1.969,83.80489269530605,85.97706851622581,-11.97,-3.2,-7.49,4.0,0.0,0.0,1.0,0.0,0.0,0.0,0.0,0.0,1.86,
1.993,83.7824892695306,85.87170685162258,-13.13,-3.13,-8.96,4.0,0.0,0.0,1.0,0.0,0.0,0.0,0.0,0.0,2.06,
2.017,83.70824892695306,85.91517068516225,-12.68,-3.47,-10.05,4.0,0.0,0.0,1.0,0.0,0.0,0.0,0.0,0.0,2.06,
2.041,83.62882489269532,86.00051706851623,-12.73,-4.6,-9.15,4.0,0.0,0.0,1.0,0.0,0.0,0.0,0.0,0.0,2.06,
2.065,83.50388248926953,85.82905170685162,-13.44,-4.89,-9.49,4.0,0.0,0.0,1.0,0.0,0.0,0.0,0.0,0.0,1.86,
2.089,83.35638824892695,85.65890517068517,-15.18,-3.5,-11.12,4.0,0.0,0.0,1.0,0.0,0.0,0.0,0.0,0.0,1.86,
2.113,83.2786388248927,85.55189051706851,-11.98,-3.83,-15.82,4.0,0.0,0.0,1.0,0.0,0.0,0.0,0.0,0.0,2.16,
2.138,83.50486388248927,85.74818905170685,-9.47,-2.51,-12.55,4.0,0.0,0.0,1.0,0.0,0.0,0.0,0.0,0.0,2.45,
2.161,83.97748638824893,85.64181890517068,-11.46,-0.89,-7.66,3.0,0.0,0.0,1.0,0.0,0.0,0.0,0.0,0.0,1.77,
2.186,84.2407486388249,85.08218189051706,-13.91,-2.12,-5.01,3.0,0.0,0.0,1.0,0.0,0.0,0.0,0.0,0.0,1.57,
2.209,84.4920748638825,84.5582181890517,-13.73,0.56,-7.01,3.0,0.0,0.0,1.0,0.0,0.0,0.0,0.0,0.0,1.86,
2.234,84.77820748638825,84.30782181890517,-13.89,5.35,-9.16,3.0,0.0,0.0,1.0,0.0,0.0,0.0,0.0,0.0,1.67,
2.257,85.00482074863882,84.34578218189051,-13.06,6.12,-7.38,3.0,0.0,0.0,1.0,0.0,0.0,0.0,0.0,0.0,1.47,
2.282,84.82048207486388,84.42157821818905,-12.7,-0.01,-0.07,3.0,0.0,0.0,1.0,0.0,0.0,0.0,0.0,0.0,2.45,
2.306,84.39704820748638,84.18615782181891,-11.34,-2.79,-0.69,3.0,0.0,0.0,1.0,0.0,0.0,0.0,0.0,0.0,2.06,
2.33,84.05770482074863,83.81161578218189,-8.66,-3.44,-6.33,3.0,0.0,0.0,1.0,0.0,0.0,0.0,0.0,0.0,1.67,
2.354,83.95177048207486,83.57616157821818,-8.44,-4.16,-8.37,3.0,0.0,0.0,1.0,0.0,0.0,0.0,0.0,0.0,1.67,
2.378,83.86917704820749,83.54361615782182,-8.06,-2.24,-8.63,3.0,0.0,0.0,1.0,0.0,0.0,0.0,0.0,0.0,2.16,
2.402,83.59991770482074,83.37836161578218,-6.82,-5.98,-7.63,3.0,0.0,0.0,1.0,0.0,0.0,0.0,0.0,0.0,1.77,
2.425,83.49199177048207,82.88483616157822,-6.02,-8.33,-13.38,3.0,0.0,0.0,1.0,0.0,0.0,0.0,0.0,0.0,0.0,
2.45,83.7331991770482,82.75448361615781,-5.31,-4.18,-16.92,3.0,0.0,0.0,1.0,0.0,0.0,0.0,0.0,0.0,0.0,
2.473,89.17531991770483,83.63244836161579,-13.66,2.03,-17.85,4.0,0.0,0.0,1.0,0.0,0.0,0.0,0.0,0.0,0.0,
2.498,90.72753199177049,86.25824483616157,-10.61,0.72,19.73,5.0,0.0,0.0,1.0,0.0,0.0,0.0,0.0,0.39,0.0,
2.523,88.30875319917705,84.50482448361616,-19.53,-9.06,2.37,5.0,0.0,0.0,1.0,0.0,0.0,0.0,0.0,2.55,0.0,
2.546,85.86187531991771,82.96148244836162,-9.88,-2.91,-15.86,5.0,0.0,0.0,1.0,0.0,0.0,0.0,0.0,2.45,0.0,
2.571,85.18518753199177,82.13214824483617,-8.08,6.63,-23.14,5.0,0.0,0.0,2.0,0.0,0.0,0.0,0.0,1.86,0.0,
2.594,85.76551875319917,81.73421482448362,-9.15,7.85,-15.55,5.0,0.0,0.0,2.0,0.0,0.0,0.0,0.0,1.67,0.0,
2.619,86.49855187531992,81.74842148244836,-10.24,6.34,-9.11,5.0,0.0,0.0,2.0,0.0,0.0,1.0,0.0,1.67,3.34,
2.642,87.54385518753199,82.04684214824483,-8.04,-6.61,-2.17,5.0,0.0,0.0,2.0,0.0,0.0,1.0,0.0,2.16,9.22,
2.667,87.37838551875319,81.91468421482449,-11.53,-2.9,4.44,5.0,0.0,0.0,2.0,0.0,0.0,1.0,0.0,2.45,10.3,
2.692,86.62383855187532,81.42446842148246,-12.36,3.78,7.02,5.0,0.0,0.0,3.0,0.0,1.0,1.0,0.0,2.55,0.0,
2.715,86.06238385518753,80.88944684214825,-10.0,6.69,2.63,6.0,0.0,0.0,3.0,0.0,1.0,1.0,0.0,3.04,9.22,
2.739,85.70023838551874,80.43994468421482,-9.09,3.67,3.63,6.0,0.0,0.0,3.0,0.0,1.0,1.0,0.0,3.63,6.87,
2.763,85.76302383855187,80.2779944684215,-7.85,0.9,8.68,6.0,0.0,0.0,3.0,0.0,1.0,2.0,0.0,3.83,1.96,
2.787,85.2383023838552,79.44279944684214,-5.69,5.9,-2.06,6.0,0.0,0.0,4.0,0.0,1.0,2.0,0.0,3.92,1.08,
2.811,85.22183023838552,79.18827994468421,-3.89,-2.47,5.59,6.0,0.0,0.0,4.0,0.0,1.0,2.0,0.0,4.41,1.08,
2.835,85.01318302383855,79.03682799446841,-4.02,-5.05,6.15,7.0,0.0,0.0,4.0,0.0,1.0,2.0,0.0,5.2,0.1,
2.86,84.74931830238386,78.96768279944683,-3.82,-4.54,5.91,7.0,0.0,0.0,4.0,0.0,1.0,1.0,0.0,5.98,0.0,
2.883,84.48893183023839,78.86176827994468,-2.65,-4.62,1.36,8.0,0.0,0.0,4.0,0.0,1.0,1.0,0.0,6.47,4.51,
2.907,84.51689318302384,78.86017682799447,-2.15,-4.82,0.62,8.0,0.0,0.0,4.0,0.0,1.0,1.0,0.0,6.77,0.0,
2.931,84.56468931830238,78.97701768279944,-3.42,-6.48,3.62,8.0,0.0,0.0,4.0,0.0,1.0,1.0,0.0,7.06,0.0,
2.955,84.47946893183024,78.94370176827995,-3.19,-7.21,4.22,9.0,0.0,0.0,5.0,0.0,1.0,1.0,0.0,7.26,0.0,
2.979,84.44394689318301,79.05737017682799,-0.92,-4.05,1.43,9.0,0.0,0.0,4.0,0.0,1.0,1.0,0.0,7.36,0.78,
3.003,84.1883946893183,79.2577370176828,-1.76,-5.02,-0.25,10.0,0.0,0.0,5.0,0.0,1.0,1.0,0.0,7.65,0.0,
3.027,84.06383946893183,79.33177370176828,-1.79,-5.24,0.73,10.0,0.0,0.0,5.0,0.0,1.0,1.0,0.0,7.85,2.16,
3.052,83.97038394689318,79.37517737017681,-3.06,-4.92,0.41,11.0,0.0,0.0,5.0,0.0,1.0,1.0,0.0,7.95,0.0,
3.076,83.93403839468932,79.37951773701768,-3.82,-5.02,-0.12,11.0,0.0,0.0,5.0,0.0,1.0,1.0,0.0,8.04,0.0,
3.1,83.71440383946893,79.32595177370176,-3.76,-4.83,0.97,11.0,0.0,0.0,5.0,0.0,1.0,1.0,0.0,8.34,2.16,
3.124,83.5214403839469,79.24859517737018,-3.73,-3.05,0.64,11.0,0.0,0.0,5.0,0.0,1.0,1.0,0.0,8.63,0.0,
3.148,83.43914403839469,79.19585951773702,-3.82,-1.85,1.04,11.0,0.0,0.0,5.0,0.0,1.0,1.0,0.0,8.93,0.0,
3.172,83.40391440383947,79.18158595177371,-4.18,-1.15,1.04,12.0,0.0,0.0,5.0,0.0,1.0,1.0,0.0,9.12,0.0,
3.196,83.38239144038394,79.10815859517737,-4.4,-1.08,0.69,12.0,0.0,0.0,5.0,0.0,1.0,1.0,0.0,9.32,0.49,
3.22,83.3712391440384,79.06481585951775,-4.34,-1.4,0.89,12.0,0.0,0.0,5.0,0.0,1.0,1.0,0.0,9.42,0.78,
3.245,83.36112391440383,79.03348158595179,-3.49,-1.99,0.18,12.0,0.0,0.0,5.0,0.0,1.0,1.0,0.0,9.52,0.0,
3.268,83.2971123914404,78.95834815859519,-3.26,-2.49,-0.12,12.0,0.0,0.0,5.0,0.0,1.0,1.0,0.0,9.52,5.89,
3.293,83.21871123914403,78.93283481585952,-3.52,-2.53,-0.24,0.0,0.0,0.0,5.0,0.0,1.0,1.0,0.0,9.52,12.07,
3.317,83.20187112391442,78.91228348158596,-3.44,-2.49,-0.6,0.0,0.0,0.0,5.0,0.0,1.0,1.0,0.0,9.32,0.0,
3.341,83.23618711239143,78.9372283481586,-3.04,-2.82,-0.07,0.0,0.0,0.0,5.0,0.0,1.0,1.0,0.0,9.22,2.45,
3.365,83.19461871123914,78.92172283481587,-3.37,-2.36,0.02,0.0,0.0,0.0,5.0,0.0,1.0,1.0,0.0,9.12,14.81,
3.389,83.1634618711239,78.94717228348159,-3.16,-2.05,0.32,0.0,0.0,0.0,5.0,0.0,1.0,1.0,0.0,8.93,0.0,
3.414,83.0973461871124,78.98571722834815,-3.37,-1.66,0.49,0.0,0.0,0.0,5.0,0.0,1.0,1.0,0.0,8.83,15.21,
3.437,83.03673461871124,78.94457172283482,-3.16,-1.46,0.54,0.0,0.0,0.0,5.0,0.0,1.0,1.0,0.0,8.73,0.0,
3.462,83.05767346187113,78.89545717228349,-3.05,-1.65,0.48,12.0,0.0,0.0,5.0,0.0,1.0,1.0,0.0,8.73,12.85,
3.485,83.03276734618711,78.87254571722835,-3.18,-1.95,0.44,0.0,0.0,0.0,6.0,0.0,1.0,1.0,0.0,8.63,2.55,
3.51,82.99427673461871,78.89725457172284,-3.08,-1.66,-0.04,0.0,0.0,0.0,6.0,0.0,1.0,1.0,0.0,8.53,0.0,
3.533,83.02642767346187,78.89972545717228,-3.06,-1.27,0.07,0.0,0.0,0.0,6.0,0.0,1.0,1.0,0.0,8.53,10.01,
3.558,83.05664276734619,78.91797254571723,-3.21,-1.49,0.1,0.0,0.0,0.0,6.0,0.0,1.0,1.0,0.0,8.53,2.35,
3.581,83.09566427673461,78.98279725457172,-3.11,-1.67,0.07,0.0,0.0,0.0,6.0,0.0,1.0,1.0,0.0,8.44,0.0,
3.606,83.09956642767345,79.04327972545717,-3.34,-1.61,0.31,0.0,0.0,0.0,6.0,0.0,1.0,1.0,0.0,8.44,17.85,
3.63,83.03695664276735,79.02232797254571,-3.2,-1.36,0.0,0.0,0.0,0.0,6.0,0.0,1.0,1.0,0.0,8.34,0.1,
3.654,83.00369566427673,78.99323279725456,-3.18,-1.42,0.15,0.0,0.0,0.0,6.0,0.0,1.0,1.0,0.0,8.24,0.0,
3.678,82.92836956642768,78.91832327972546,-3.03,-0.84,-0.05,0.0,0.0,0.0,6.0,0.0,1.0,1.0,0.0,8.24,16.38,
3.702,83.01083695664278,78.90183232797256,-3.09,-1.05,-0.11,0.0,0.0,0.0,6.0,0.0,1.0,1.0,0.0,8.24,0.0,
3.726,83.08208369566428,78.94518323279726,-3.47,-1.25,0.46,0.0,0.0,0.0,6.0,0.0,1.0,1.0,0.0,8.34,14.72,
3.75,83.04420836956643,78.96751832327973,-3.37,-1.6,0.47,0.0,0.0,0.0,6.0,0.0,1.0,1.0,0.0,8.24,8.44,
3.774,83.05842083695664,78.93375183232797,-3.11,-1.11,-0.09,0.0,0.0,0.0,6.0,0.0,1.0,1.0,0.0,8.24,0.0,
3.799,82.98784208369567,78.9213751832328,-2.92,-1.06,0.08,0.0,0.0,0.0,6.0,0.0,1.0,1.0,0.0,8.34,0.0,
3.822,83.01678420836957,78.92013751832329,-2.85,-1.01,0.02,0.0,0.0,0.0,6.0,0.0,1.0,1.0,0.0,8.34,2.35,
3.847,83.08267842083696,78.92001375183233,-2.79,-1.06,-0.21,12.0,0.0,0.0,6.0,0.0,1.0,1.0,0.0,8.24,0.0,
3.871,83.0802678420837,78.93800137518323,-2.69,-1.27,-0.31,12.0,0.0,0.0,6.0,0.0,1.0,1.0,0.0,8.24,0.0,
3.895,83.07102678420836,78.93980013751833,-3.04,-1.69,-0.07,12.0,0.0,0.0,6.0,0.0,1.0,1.0,0.0,8.24,19.42,
3.919,83.14210267842084,78.92198001375183,-3.0,-1.9,-0.1,12.0,0.0,0.0,6.0,0.0,1.0,1.0,0.0,8.24,6.67,
3.943,83.11321026784209,78.92919800137518,-2.96,-1.84,-0.44,12.0,0.0,0.0,6.0,0.0,1.0,1.0,0.0,8.04,10.79,
3.968,83.11932102678422,78.88491980013752,-3.2,-2.04,-0.35,12.0,0.0,0.0,6.0,0.0,1.0,1.0,0.0,8.04,0.0,
3.992,83.12893210267842,78.90749198001376,-3.18,-2.11,-0.25,12.0,0.0,0.0,6.0,0.0,1.0,1.0,0.0,7.95,13.44,
4.016,83.09389321026785,78.92774919800138,-3.08,-1.85,-0.11,12.0,0.0,0.0,6.0,0.0,1.0,1.0,0.0,7.85,7.75,
4.04,83.07238932102678,78.90277491980014,-3.13,-1.55,-0.08,12.0,0.0,0.0,6.0,0.0,1.0,1.0,0.0,7.75,347.47,
4.065,83.06123893210268,78.89127749198002,-3.32,-1.21,0.0,0.0,0.0,0.0,6.0,0.0,1.0,1.0,0.0,7.85,21.29,
4.088,83.04212389321027,78.881127749198,-3.19,-0.84,0.25,12.0,0.0,0.0,6.0,0.0,1.0,1.0,0.0,7.85,5.4,
4.113,83.06721238932101,78.88011277491981,-3.08,-0.66,0.15,12.0,0.0,0.0,6.0,0.0,1.0,1.0,0.0,7.85,4.61,
4.136,83.0787212389321,78.86201127749199,-3.0,-0.44,0.54,12.0,0.0,0.0,6.0,0.0,1.0,1.0,0.0,8.04,4.91,
4.161,83.14287212389321,78.90520112774921,-3.2,-0.49,1.01,12.0,0.0,0.0,6.0,0.0,1.0,1.0,0.0,8.04,2.75,
4.186,83.24828721238933,78.97252011277493,-3.56,-0.52,1.01,0.0,0.0,0.0,6.0,0.0,1.0,1.0,0.0,8.14,0.0,
4.209,83.25882872123894,78.9522520112775,-3.31,-0.55,0.4,0.0,0.0,0.0,6.0,0.0,1.0,1.0,0.0,8.24,0.49,
4.234,83.23288287212391,79.01322520112774,-3.44,-0.75,0.57,12.0,0.0,0.0,6.0,0.0,1.0,1.0,0.0,8.14,7.95,
4.257,83.1312882872124,78.99232252011277,-3.52,-1.24,0.56,0.0,0.0,0.0,6.0,0.0,1.0,1.0,0.0,8.24,3.34,
4.282,83.11212882872124,78.96323225201127,-3.84,-0.79,0.73,0.0,0.0,0.0,6.0,0.0,1.0,1.0,0.0,8.34,0.0,
4.305,83.11021288287213,78.96932322520114,-3.66,-0.73,0.69,0.0,0.0,0.0,6.0,0.0,1.0,1.0,0.0,8.44,7.85,
4.329,83.19102128828722,79.10493232252013,-3.81,-0.63,0.82,0.0,0.0,0.0,6.0,0.0,1.0,1.0,0.0,8.44,10.01,
4.354,83.20810212882871,79.082493232252,-3.13,-0.82,-0.08,0.0,0.0,0.0,6.0,0.0,1.0,1.0,0.0,8.44,1.37,
4.377,83.20981021288287,79.0172493232252,-3.15,-0.76,0.15,0.0,0.0,0.0,6.0,0.0,1.0,1.0,0.0,8.53,0.0,
4.402,83.2009810212883,79.01972493232252,-2.98,-1.02,-0.15,0.0,0.0,0.0,6.0,0.0,1.0,1.0,0.0,8.53,13.83,
4.426,83.19109810212882,78.99297249323224,-3.24,-1.29,0.16,0.0,0.0,0.0,6.0,0.0,1.0,1.0,0.0,8.53,10.99,
4.45,83.19910981021289,78.96329724932322,-3.22,-1.53,-0.37,1.0,0.0,0.0,6.0,0.0,1.0,1.0,0.0,8.53,0.0,
4.474,83.19091098102129,78.96032972493231,-3.52,-1.71,-0.12,0.0,0.0,0.0,6.0,0.0,1.0,1.0,0.0,8.44,9.22,
4.498,83.16309109810211,78.90603297249324,-3.6,-1.93,-0.26,0.0,0.0,0.0,6.0,0.0,1.0,1.0,0.0,8.53,3.24,
4.523,83.16930910981021,78.85560329724933,-3.56,-1.38,-0.18,0.0,0.0,0.0,6.0,0.0,1.0,1.0,0.0,8.34,3.63,
4.546,83.20593091098101,78.80556032972493,-3.37,-1.16,-0.35,0.0,0.0,0.0,6.0,0.0,1.0,1.0,0.0,8.34,2.94,
4.571,83.15559309109811,78.8095560329725,-3.14,-0.99,-0.34,0.0,0.0,0.0,6.0,0.0,1.0,1.0,0.0,8.44,2.45,
4.594,83.11455930910982,78.80995560329725,-3.1,-1.14,-0.12,1.0,0.0,0.0,6.0,0.0,1.0,1.0,0.0,8.44,2.16,
4.619,83.04745593091098,78.78299556032972,-3.15,-1.05,0.03,0.0,0.0,0.0,6.0,0.0,1.0,1.0,0.0,8.44,1.77,
4.642,83.09474559309109,78.81629955603297,-3.0,-0.76,-0.24,0.0,0.0,0.0,6.0,0.0,1.0,1.0,0.0,8.34,1.57,
4.667,83.09047455930911,78.7926299556033,-2.63,-0.95,-0.32,0.0,0.0,0.0,6.0,0.0,1.0,1.0,0.0,8.34,1.57,
4.69,83.10804745593092,78.82626299556033,-2.45,-0.94,-0.29,0.0,0.0,0.0,6.0,0.0,1.0,1.0,0.0,8.34,1.67,
4.715,83.0918047455931,78.75762629955604,-2.77,-1.09,-0.08,0.0,0.0,0.0,6.0,0.0,1.0,1.0,0.0,8.34,1.96,
4.74,83.09018047455932,78.7507626299556,-2.99,-1.39,0.54,12.0,0.0,0.0,6.0,0.0,1.0,1.0,0.0,8.34,1.96,
4.763,83.14401804745594,78.74107626299556,-2.89,-1.34,0.12,12.0,0.0,0.0,6.0,0.0,1.0,1.0,0.0,8.24,1.86,
4.788,83.14040180474561,78.75810762629956,-3.0,-1.34,0.15,12.0,0.0,0.0,6.0,0.0,1.0,1.0,0.0,8.14,1.57,
4.811,83.15804018047456,78.84081076262996,-2.94,-1.41,0.1,12.0,0.0,0.0,6.0,0.0,1.0,1.0,0.0,8.04,1.67,
4.836,83.10580401804745,78.81308107626299,-3.4,-0.82,0.07,12.0,0.0,0.0,6.0,0.0,1.0,1.0,0.0,8.04,1.77,
4.859,83.16358040180475,78.7923081076263,-2.85,-0.68,0.09,12.0,0.0,0.0,6.0,0.0,1.0,1.0,0.0,8.04,1.96,
4.884,83.23235804018047,78.82623081076264,-2.77,-0.92,-0.06,12.0,0.0,0.0,6.0,0.0,1.0,1.0,0.0,7.95,2.16,
4.908,83.22123580401804,78.86562308107627,-2.31,-0.43,0.02,12.0,0.0,0.0,6.0,0.0,1.0,1.0,0.0,7.95,1.67,
4.932,83.25612358040182,78.93256230810763,-2.66,-0.34,0.11,12.0,0.0,0.0,6.0,0.0,1.0,1.0,0.0,7.95,1.67,
4.957,83.26861235804017,79.00225623081077,-2.51,-0.46,0.08,12.0,0.0,0.0,6.0,0.0,1.0,1.0,0.0,7.85,2.16,
4.98,83.26986123580402,78.99122562308106,-2.48,-0.66,0.15,11.0,0.0,0.0,6.0,0.0,1.0,1.0,0.0,7.95,2.26,
5.005,83.3149861235804,79.02612256230812,-2.64,-0.57,0.41,11.0,0.0,0.0,6.0,0.0,1.0,1.0,0.0,7.85,2.45,
5.028,83.33749861235803,79.01161225623082,-2.73,-0.66,0.08,11.0,0.0,0.0,6.0,0.0,1.0,1.0,0.0,7.85,2.06,
5.053,83.3127498612358,78.99216122562308,-2.88,-1.07,-0.06,11.0,0.0,0.0,6.0,0.0,1.0,1.0,0.0,7.85,1.77,
5.076,83.29227498612359,78.9632161225623,-3.03,-1.2,-0.27,11.0,0.0,0.0,6.0,0.0,1.0,1.0,0.0,7.85,1.86,
5.101,83.28122749861235,78.99632161225624,-3.24,-1.1,-0.05,11.0,0.0,0.0,6.0,0.0,1.0,1.0,0.0,7.85,1.37,
5.126,83.28912274986125,79.03563216122564,-3.28,-1.27,0.4,11.0,0.0,0.0,6.0,0.0,1.0,1.0,0.0,7.85,1.08,
5.149,83.21791227498612,78.86856321612257,-3.25,-1.22,0.22,11.0,0.0,0.0,6.0,0.0,1.0,1.0,0.0,545.44,1.37,
5.174,83.22879122749862,78.85185632161226,-3.47,-1.27,-0.11,11.0,0.0,0.0,6.0,0.0,1.0,1.0,0.0,7.75,1.57,
5.197,83.22987912274988,78.86818563216123,-3.72,-1.16,0.24,11.0,0.0,0.0,6.0,0.0,1.0,1.0,0.0,7.85,1.77,
5.222,83.19398791227498,78.88781856321613,-3.58,-1.12,0.26,11.0,0.0,0.0,6.0,0.0,1.0,1.0,0.0,7.75,1.67,
5.246,83.22639879122751,78.92578185632162,-3.35,-0.91,0.36,11.0,0.0,0.0,6.0,0.0,1.0,1.0,0.0,7.75,1.28,
5.27,83.24763987912274,78.91157818563217,-3.43,-0.82,0.5,11.0,0.0,0.0,6.0,0.0,1.0,1.0,0.0,7.85,1.47,
5.295,83.26776398791228,78.93715781856322,-3.12,-1.08,0.27,11.0,0.0,0.0,6.0,0.0,1.0,1.0,0.0,7.75,1.67,
5.318,83.26077639879124,78.96671578185632,-2.97,-1.38,0.27,11.0,0.0,0.0,6.0,0.0,1.0,1.0,0.0,7.85,1.77,
5.343,83.26907763987911,78.96967157818564,-2.97,-1.06,-0.05,11.0,0.0,0.0,6.0,0.0,1.0,1.0,0.0,7.85,1.96,
5.366,83.26090776398792,78.96996715781857,-2.99,-1.2,-0.38,11.0,0.0,0.0,6.0,0.0,1.0,1.0,0.0,7.85,1.86,
5.391,83.2600907763988,78.90699671578186,-2.98,-1.65,-0.47,11.0,0.0,0.0,6.0,0.0,1.0,1.0,0.0,7.75,0.0,
5.415,83.29600907763988,78.8556996715782,-3.09,-1.34,-0.37,11.0,0.0,0.0,6.0,0.0,1.0,1.0,0.0,7.85,0.0,
5.439,83.32660090776399,78.90456996715783,-3.4,-1.8,-0.4,11.0,0.0,0.0,6.0,0.0,1.0,1.0,0.0,7.65,1.67,
5.464,83.29366009077641,78.90045699671579,-3.08,-1.43,-0.51,11.0,0.0,0.0,6.0,0.0,1.0,1.0,0.0,7.75,0.0,
5.487,83.25436600907764,78.82804569967158,-2.81,-1.6,-0.51,11.0,0.0,0.0,6.0,0.0,1.0,1.0,0.0,7.65,0.0,
5.512,83.29543660090776,78.78480456996715,-2.57,-1.76,-0.76,11.0,0.0,0.0,6.0,0.0,1.0,1.0,0.0,7.46,10.3,
5.536,83.31754366009078,78.84348045699672,-2.08,-2.03,-1.5,11.0,0.0,0.0,6.0,0.0,1.0,1.0,0.0,7.26,0.39,
5.56,83.38275436600908,78.94834804569966,-2.5,-2.15,-0.9,11.0,0.0,0.0,6.0,0.0,1.0,1.0,0.0,7.26,0.0,
5.584,83.39827543660091,78.98583480456996,-2.98,-2.11,-0.57,11.0,0.0,0.0,6.0,0.0,1.0,1.0,0.0,7.26,13.24,
5.609,83.3728275436601,79.01658348045699,-3.58,-1.99,0.03,11.0,0.0,0.0,6.0,0.0,1.0,1.0,0.0,7.16,10.3,
5.633,83.36128275436602,79.05565834804571,-3.44,-1.98,0.1,11.0,0.0,0.0,6.0,0.0,1.0,1.0,0.0,7.06,13.05,
5.657,83.36012827543661,79.04156583480457,-3.69,-1.6,0.21,11.0,0.0,0.0,6.0,0.0,1.0,1.0,0.0,7.06,5.49,
5.682,83.31501282754365,79.01315658348047,-3.63,-1.76,0.08,11.0,0.0,0.0,6.0,0.0,1.0,1.0,0.0,7.06,3.24,
5.705,83.25650128275436,78.98331565834805,-3.99,-1.33,0.35,11.0,0.0,0.0,6.0,0.0,1.0,1.0,0.0,7.06,2.65,
5.73,83.29565012827544,78.9623315658348,-3.6,-1.31,0.22,11.0,0.0,0.0,6.0,0.0,1.0,1.0,0.0,7.16,2.45,
5.753,83.27256501282754,78.94223315658348,-2.96,-1.37,0.14,11.0,0.0,0.0,6.0,0.0,1.0,1.0,0.0,7.06,2.06,
5.778,83.28825650128276,78.97622331565836,-3.12,-1.37,0.34,11.0,0.0,0.0,6.0,0.0,1.0,1.0,0.0,6.97,2.55,
5.801,83.30782565012828,78.97962233156585,-3.38,-1.75,0.18,11.0,0.0,0.0,6.0,0.0,1.0,1.0,0.0,6.97,1.67,
5.826,83.34578256501283,78.98896223315657,-2.85,-1.26,-0.37,11.0,0.0,0.0,6.0,0.0,1.0,1.0,0.0,6.77,2.65,
5.85,83.30457825650129,79.01689622331565,-2.66,-1.21,0.42,11.0,0.0,0.0,6.0,0.0,1.0,1.0,0.0,6.67,2.35,
5.874,83.30945782565013,79.01068962233157,-3.03,-0.51,1.23,11.0,0.0,0.0,6.0,0.0,1.0,1.0,0.0,6.57,2.16,
5.899,83.28294578256501,79.00106896223316,-3.15,0.68,1.43,11.0,0.0,0.0,6.0,0.0,1.0,1.0,0.0,6.77,2.45,
5.922,83.3432945782565,79.07210689622332,-4.31,1.18,2.01,11.0,0.0,0.0,6.0,0.0,1.0,1.0,0.0,7.06,2.55,
5.946,83.34032945782565,79.05221068962233,-4.63,1.03,1.86,11.0,0.0,0.0,6.0,0.0,1.0,1.0,0.0,7.55,1.77,
5.97,83.31303294578257,79.05922106896224,-4.85,1.0,1.51,11.0,0.0,0.0,6.0,0.0,1.0,1.0,0.0,8.24,1.47,
5.994,83.41830329457827,79.07792210689622,-5.42,-0.51,1.45,12.0,0.0,0.0,6.0,0.0,1.0,1.0,0.0,8.53,1.67,
6.019,83.58183032945782,79.04379221068963,-4.83,-1.51,3.44,12.0,0.0,0.0,6.0,0.0,1.0,1.0,0.0,8.93,1.77,
6.042,83.56218303294578,79.00437922106897,-4.6,-0.46,1.54,12.0,0.0,0.0,6.0,0.0,1.0,1.0,0.0,9.12,2.26,
6.067,83.51521830329459,78.95543792210691,-4.37,-1.26,1.65,0.0,0.0,0.0,6.0,0.0,1.0,1.0,0.0,9.22,2.06,
6.09,83.47452183032946,78.88754379221069,-4.16,-0.9,1.47,12.0,0.0,0.0,6.0,0.0,1.0,1.0,0.0,9.32,1.86,
6.115,83.37145218303294,78.81775437922107,-3.35,-1.02,0.61,0.0,0.0,0.0,6.0,0.0,1.0,1.0,0.0,9.32,1.96,
6.138,83.4151452183033,78.7657754379221,-2.62,-0.64,0.06,0.0,0.0,0.0,6.0,0.0,1.0,1.0,0.0,9.22,1.67,
6.163,83.47351452183034,78.80557754379221,-2.44,-0.52,0.63,0.0,0.0,0.0,6.0,0.0,1.0,1.0,0.0,9.22,1.28,
6.187,83.47935145218304,78.78255775437923,-2.38,-0.32,1.0,12.0,0.0,0.0,6.0,0.0,1.0,1.0,0.0,9.22,1.18,
6.211,83.4979351452183,78.77125577543792,-2.33,-0.45,1.1,12.0,0.0,0.0,6.0,0.0,1.0,1.0,0.0,9.22,1.37,
6.235,83.48179351452184,78.7431255775438,-1.89,-0.09,0.56,12.0,0.0,0.0,6.0,0.0,1.0,1.0,0.0,9.12,1.77,
6.259,83.5251793514522,78.71331255775438,-2.41,-0.15,0.24,12.0,0.0,0.0,6.0,0.0,1.0,1.0,0.0,9.03,1.86,
6.284,83.48451793514522,78.71033125577543,-2.51,-0.85,-0.09,12.0,0.0,0.0,6.0,0.0,1.0,1.0,0.0,9.03,1.67,
6.307,83.40845179351453,78.80003312557754,-2.59,-1.13,0.32,11.0,0.0,0.0,6.0,0.0,1.0,1.0,0.0,8.83,1.37,
6.332,83.39184517935145,78.79100331255775,-1.92,-1.02,-2.31,11.0,0.0,0.0,6.0,0.0,1.0,1.0,0.0,8.53,1.37,
6.355,83.62418451793515,78.72710033125577,1.89,-3.47,-6.57,10.0,0.0,0.0,5.0,0.0,1.0,1.0,0.0,8.04,1.57,
6.38,83.81841845179352,78.72971003312557,5.78,-5.62,-10.11,10.0,0.0,0.0,5.0,0.0,1.0,1.0,0.0,7.26,2.16,
6.404,83.69384184517936,78.83797100331256,7.76,-8.64,-9.4,10.0,0.0,0.0,4.0,0.0,1.0,0.0,0.0,6.18,3.73,
6.428,83.59138418451793,79.20879710033125,9.03,-9.24,-7.18,9.0,0.0,0.0,4.0,0.0,0.0,0.0,0.0,5.1,6.08,
6.452,83.68013841845179,79.78587971003311,6.95,-7.31,0.96,9.0,0.0,0.0,3.0,0.0,0.0,0.0,0.0,4.02,10.01,
6.476,83.45501384184519,80.1675879710033,3.59,-6.05,4.23,9.0,0.0,0.0,3.0,0.0,0.0,0.0,0.0,3.43,15.79,
6.5,83.24350138418451,80.34075879710032,-0.79,-2.34,5.15,9.0,0.0,0.0,3.0,0.0,0.0,0.0,0.0,3.04,16.19,
6.524,83.22235013841845,80.47507587971003,-4.45,0.34,3.38,9.0,0.0,0.0,3.0,0.0,0.0,0.0,0.0,2.94,10.4,
6.548,83.26523501384185,80.884507587971,-6.58,3.14,6.02,9.0,0.0,0.0,3.0,0.0,0.0,0.0,0.0,3.43,8.24,
6.573,83.22452350138418,80.62845075879709,-9.07,1.29,4.42,10.0,0.0,0.0,3.0,0.0,0.0,0.0,0.0,4.32,4.51,
6.596,83.37345235013842,80.8008450758797,-10.6,1.32,3.78,11.0,0.0,0.0,3.0,0.0,1.0,0.0,0.0,5.3,2.45,
6.621,83.28934523501384,80.43108450758797,-10.19,0.14,4.97,12.0,0.0,0.0,3.0,0.0,1.0,1.0,0.0,6.67,1.37,
6.644,83.43393452350139,80.35810845075879,-10.5,2.88,1.91,1.0,0.0,0.0,3.0,0.0,1.0,1.0,0.0,8.34,1.18,
6.669,83.53839345235014,80.20681084507588,-11.92,1.44,-0.81,1.0,0.0,0.0,4.0,0.0,1.0,1.0,0.0,10.3,0.0,
6.692,83.62983934523501,80.02968108450759,-14.26,-1.05,-4.34,4.0,0.0,0.0,5.0,0.0,1.0,1.0,0.0,12.75,0.0,
6.717,83.67498393452351,79.65196810845076,-13.64,-3.52,-5.64,9.0,0.0,0.0,5.0,0.0,1.0,1.0,0.0,15.99,0.0,
6.742,83.65249839345236,79.31719681084508,-12.85,-5.89,-5.73,13.0,0.0,0.0,6.0,0.0,2.0,1.0,0.0,19.23,12.65,
6.766,83.73124983934524,79.2567196810845,-12.79,-6.22,-4.83,17.0,0.0,0.0,6.0,0.0,2.0,2.0,0.0,22.07,0.0,
6.79,83.53212498393452,79.03467196810846,-11.13,-8.94,-1.46,21.0,0.0,0.0,7.0,0.0,2.0,2.0,0.0,25.51,8.73,
6.814,83.18821249839345,78.77846719681085,-9.26,-5.18,-0.02,23.0,0.0,0.0,8.0,0.0,2.0,2.0,0.0,29.14,2.94,
6.839,83.17182124983935,78.46484671968109,-5.84,-1.99,1.1,26.0,0.0,0.0,8.0,0.0,2.0,2.0,0.0,31.78,0.59,
6.863,83.21518212498393,78.27148467196811,-4.68,0.65,1.69,26.0,0.0,0.0,8.0,0.0,2.0,2.0,0.0,33.65,0.1,
6.887,83.2285182124984,78.40514846719681,-3.07,0.68,4.77,26.0,0.0,0.0,8.0,0.0,2.0,2.0,0.0,35.9,1.47,
6.912,83.14885182124985,78.28351484671968,-3.28,0.22,4.35,27.0,0.0,0.0,9.0,0.0,2.0,2.0,0.0,37.67,0.0,
6.935,83.03288518212499,78.12735148467198,-4.89,1.4,2.43,28.0,0.0,0.0,9.0,0.0,2.0,2.0,0.0,38.46,0.1,
6.96,82.9672885182125,77.9407351484672,-5.86,2.24,2.06,28.0,0.0,0.0,9.0,0.0,2.0,2.0,0.0,38.65,0.0,
6.983,83.02372885182125,77.94907351484672,-8.83,4.15,5.66,31.0,0.0,0.0,10.0,0.0,3.0,2.0,0.0,38.55,4.91,
7.008,82.78637288518213,76.92390735148467,-6.28,4.24,7.08,28.0,0.0,0.0,10.0,0.0,3.0,2.0,0.0,37.57,0.0,
7.032,82.92463728851821,76.85739073514846,-7.01,3.08,6.36,30.0,0.0,0.0,10.0,0.0,3.0,2.0,0.49,36.0,2.94,
7.056,82.88446372885181,76.61673907351485,-7.25,4.61,4.61,30.0,0.0,0.0,10.0,0.0,3.0,2.0,1.37,35.12,1.57,
7.08,82.95244637288518,76.60167390735148,-7.77,7.8,8.81,30.0,0.0,0.0,11.0,0.0,3.0,2.0,1.96,35.02,0.0,
7.105,83.21124463728852,76.58216739073515,-7.98,3.45,4.65,30.0,0.0,0.0,11.0,0.0,4.0,3.0,2.65,35.41,0.0,
7.129,83.50712446372886,76.43621673907352,-6.06,2.77,10.39,31.0,0.0,0.0,11.0,0.0,4.0,3.0,3.34,36.2,0.0,
7.153,83.50971244637289,76.63762167390735,-4.98,3.4,9.39,30.0,0.0,0.0,12.0,0.0,4.0,3.0,4.02,36.59,0.0,
7.178,83.7889712446373,76.60376216739073,-3.03,3.88,8.88,31.0,0.0,0.0,12.0,0.0,5.0,4.0,4.61,36.79,0.0,
7.202,83.81689712446374,76.55537621673906,-4.02,2.97,8.11,31.0,0.0,0.0,12.0,0.0,5.0,4.0,5.3,37.28,3.92,
7.227,83.79268971244637,76.2625376216739,-2.82,2.24,7.79,31.0,0.0,0.0,12.0,0.0,5.0,4.0,5.79,37.96,0.0,
7.25,83.93426897124465,76.1342537621674,-0.99,2.82,3.64,30.0,0.0,0.0,12.0,0.0,5.0,4.0,6.18,37.77,0.0,
7.275,84.06542689712447,76.27442537621674,0.5,0.94,3.21,28.0,0.0,0.0,12.0,0.0,5.0,4.0,6.18,36.98,0.0,
7.3,84.06954268971245,76.44144253762167,-1.02,-1.17,3.17,28.0,0.0,0.0,12.0,0.0,5.0,4.0,5.79,36.4,1.67,
7.324,83.97095426897124,76.64714425376216,-1.1,0.75,3.58,27.0,0.0,0.0,12.0,0.0,5.0,4.0,5.49,35.81,0.0,
7.348,84.02409542689713,76.59571442537623,-3.32,-1.31,1.53,27.0,0.0,0.0,12.0,0.0,5.0,4.0,5.69,35.41,6.97,
7.372,84.05640954268972,76.65357144253763,-2.25,-2.19,0.49,28.0,0.0,0.0,12.0,0.0,5.0,4.0,5.89,34.92,7.75,
7.397,83.92464095426898,76.82135714425377,-3.17,-3.68,0.38,28.0,0.0,0.0,12.0,0.0,5.0,4.0,5.69,34.34,0.0,
7.421,83.8394640954269,76.90113571442537,-4.91,-3.1,-0.6,28.0,0.0,0.0,12.0,0.0,5.0,4.0,5.89,33.84,3.34,
7.446,83.9209464095427,76.96311357144253,-3.54,-2.08,-0.52,30.0,0.0,0.0,12.0,0.0,5.0,4.0,5.98,33.65,0.0,
7.471,83.91109464095427,76.96931135714425,-2.6,-1.86,0.54,30.0,0.0,0.0,12.0,0.0,5.0,4.0,6.18,33.45,0.0,
7.494,83.83810946409542,76.98793113571442,-4.15,-0.82,0.88,30.0,0.0,0.0,12.0,0.0,5.0,4.0,6.18,33.45,0.39,
7.519,83.66881094640955,77.53879311357144,-2.76,1.05,4.18,30.0,0.0,0.0,12.0,0.0,5.0,4.0,6.38,33.94,0.0,
7.543,83.75088109464096,77.53087931135714,-2.73,-0.5,2.09,30.0,0.0,0.0,12.0,0.0,5.0,4.0,6.47,34.63,0.0,
7.568,83.8670881094641,77.4220879311357,-2.13,-0.75,1.44,30.0,0.0,0.0,12.0,0.0,5.0,4.0,6.38,34.83,0.0,
7.592,83.91470881094642,77.38420879311357,-2.1,-1.69,0.88,27.0,0.0,0.0,12.0,0.0,5.0,4.0,6.38,35.02,0.0,
7.617,83.89247088109465,77.41642087931135,-2.92,-2.2,0.75,30.0,0.0,0.0,12.0,0.0,5.0,4.0,6.28,34.92,0.78,
7.641,83.76424708810947,77.31164208793112,-2.67,-2.05,0.77,30.0,0.0,0.0,11.0,0.0,5.0,4.0,6.18,34.43,7.55,
7.665,83.73342470881094,77.27416420879311,-1.56,-2.32,1.46,30.0,0.0,0.0,11.0,0.0,5.0,4.0,6.08,33.94,1.18,
7.69,83.6943424708811,77.3244164208793,-2.18,-0.87,0.24,30.0,0.0,0.0,11.0,0.0,5.0,5.0,5.98,33.55,3.24,
7.714,83.7084342470881,77.38344164208793,-4.01,-0.92,0.21,30.0,0.0,0.0,11.0,0.0,5.0,5.0,5.98,33.75,0.0,
7.739,83.79984342470881,77.3443441642088,-3.94,-1.08,0.55,30.0,0.0,0.0,12.0,0.0,5.0,5.0,6.18,34.53,0.0,
7.763,83.78198434247088,77.45743441642088,-3.62,-0.89,0.11,31.0,0.0,0.0,12.0,0.0,5.0,5.0,6.57,35.22,3.43,
7.787,83.78019843424708,77.47774344164209,-3.98,-0.49,-0.52,31.0,0.0,0.0,12.0,0.0,5.0,5.0,6.97,35.9,1.77,
7.812,83.69901984342471,77.38077434416422,-4.61,-1.68,-0.33,31.0,0.0,0.0,12.0,0.0,5.0,5.0,7.36,36.79,0.0,
7.836,83.75390198434246,77.33507743441642,-4.59,-1.23,-0.53,31.0,0.0,0.0,0.0,0.0,5.0,5.0,7.65,37.67,0.0,
7.861,83.85839019843425,77.36650774344164,-4.36,-1.26,-0.89,32.0,0.0,0.0,12.0,0.0,5.0,5.0,7.95,38.26,1.67,
7.885,83.86883901984342,77.44165077434417,-5.37,-2.19,-0.12,32.0,0.0,0.0,12.0,0.0,5.0,5.0,8.24,39.04,0.0,
7.91,83.78888390198435,77.28716507743441,-5.31,-1.98,-0.55,32.0,0.0,0.0,0.0,0.0,5.0,5.0,8.83,39.83,0.1,
7.934,83.85288839019844,77.24471650774343,-4.11,-1.88,-0.28,32.0,0.0,0.0,0.0,0.0,5.0,5.0,9.12,40.22,1.37,
7.959,83.78728883901985,77.26747165077434,-3.31,-1.14,-0.5,32.0,0.0,0.0,0.0,0.0,5.0,5.0,9.12,40.71,0.88,
7.983,83.72672888390198,77.19774716507743,-3.44,-0.49,-0.52,34.0,0.0,0.0,-33.0,0.0,5.0,5.0,9.42,41.2,2.94,
8.007,83.7566728883902,77.12777471650774,-2.37,-0.3,-0.75,34.0,0.0,0.0,-33.0,0.0,5.0,4.0,9.61,41.79,0.29,
8.032,83.74166728883901,77.12077747165077,-2.71,-0.98,-0.58,34.0,0.0,0.0,-33.0,0.0,5.0,4.0,9.71,42.48,2.06,
8.056,83.6501667288839,77.12007774716508,-3.37,0.26,-0.9,34.0,0.0,0.0,-33.0,0.0,5.0,5.0,9.81,43.16,2.26,
8.081,83.74001667288839,77.08400777471651,-2.95,0.91,-0.79,40.0,0.0,0.0,-33.0,0.0,5.0,5.0,10.2,44.15,0.0,
8.105,83.78500166728884,77.12540077747165,-3.32,0.31,-0.53,35.0,0.0,0.0,-33.0,0.0,5.0,5.0,10.4,45.32,0.0,
8.13,83.83450016672889,77.08454007774716,-3.63,0.19,-1.03,35.0,0.0,0.0,-33.0,0.0,5.0,5.0,10.59,46.3,1.28,
8.155,83.85745001667289,77.00845400777472,-2.65,0.57,-1.33,35.0,0.0,0.0,-33.0,0.0,5.0,5.0,10.79,46.89,1.77,
8.179,83.9047450016673,77.06384540077747,-1.58,0.56,-1.05,35.0,0.0,0.0,-33.0,0.0,5.0,5.0,10.89,47.19,0.0,
8.204,83.93647450016674,77.14138454007775,-1.7,1.21,-1.24,37.0,0.0,0.0,-33.0,0.0,5.0,5.0,10.89,47.87,0.29,
8.228,84.02964745001668,77.14013845400777,-1.53,1.22,-1.14,37.0,0.0,0.0,-33.0,0.0,5.0,5.0,10.79,48.56,0.0,
8.253,84.15596474500167,77.16701384540077,-0.67,0.94,-0.99,37.0,0.0,0.0,-33.0,0.0,5.0,5.0,10.69,49.15,0.78,
8.278,84.23159647450017,77.18770138454008,-0.49,0.31,-1.21,37.0,0.0,0.0,-33.0,0.0,5.0,4.0,10.3,49.74,0.0,
8.302,84.27515964745002,77.21677013845401,-0.49,0.53,-1.07,37.0,0.0,0.0,-33.0,0.0,5.0,4.0,10.01,50.42,0.29,
8.327,84.34251596474499,77.2736770138454,-0.71,-0.02,-0.39,37.0,0.0,0.0,-33.0,0.0,5.0,4.0,9.32,50.62,0.29,
8.351,84.40325159647449,77.29736770138453,-1.26,-0.32,-0.64,37.0,0.0,0.0,-33.0,0.0,5.0,4.0,9.12,50.62,0.39,
8.376,84.45432515964744,77.37173677013845,-1.64,-0.66,-0.69,37.0,0.0,0.0,-33.0,0.0,4.0,4.0,8.83,49.93,1.37,
8.401,84.51343251596474,77.41517367701384,-1.75,-1.51,-0.51,37.0,0.0,0.0,-33.0,0.0,4.0,4.0,8.53,49.44,2.94,
8.426,84.54634325159647,77.43751736770137,-2.04,-1.69,-0.91,35.0,0.0,0.0,-33.0,0.0,4.0,4.0,8.34,48.66,1.08,
8.451,84.58563432515965,77.44875173677013,-1.6,-1.34,-1.6,35.0,0.0,0.0,-33.0,0.0,4.0,4.0,7.95,47.58,0.98,
8.475,84.60756343251596,77.52187517367702,-1.52,-0.79,-1.25,35.0,0.0,0.0,-33.0,0.0,4.0,4.0,7.75,46.79,0.39,
8.5,84.55575634325159,77.5741875173677,-1.2,-0.76,-0.89,35.0,0.0,0.0,-33.0,0.0,4.0,4.0,7.36,46.3,0.88,
8.524,84.55957563432516,77.53441875173677,-0.54,-0.82,-0.82,35.0,0.0,0.0,-33.0,0.0,4.0,3.0,7.16,45.81,2.16,
8.549,84.59595756343252,77.56644187517368,0.31,-0.85,-0.95,35.0,0.0,0.0,-33.0,0.0,4.0,3.0,6.87,45.22,2.06,
8.572,84.64459575634325,77.66864418751737,-1.4,-0.38,-0.31,35.0,0.0,0.0,-33.0,0.0,4.0,3.0,6.28,44.73,1.08,
8.598,84.64045957563432,77.74186441875175,-1.98,0.21,0.24,34.0,0.0,0.0,-33.0,0.0,4.0,3.0,6.08,44.73,0.0,
8.622,84.75704595756342,77.78518644187518,-2.27,0.24,0.45,34.0,0.0,0.0,-33.0,0.0,3.0,3.0,5.98,45.13,0.1,
8.646,84.83170459575635,77.81651864418751,-1.76,-1.0,0.85,35.0,0.0,0.0,-33.0,0.0,3.0,3.0,5.79,45.22,2.26,
8.671,84.79417045957564,77.89165186441876,-3.01,-1.53,1.19,34.0,0.0,0.0,-33.0,0.0,3.0,3.0,5.89,45.03,0.78,
8.695,84.72741704595757,77.87216518644189,-3.36,-1.37,0.71,34.0,0.0,0.0,-33.0,0.0,3.0,3.0,5.79,44.83,1.08,
8.72,84.72974170459577,77.8702165186442,-2.98,-1.64,0.39,34.0,0.0,0.0,-33.0,0.0,3.0,3.0,5.89,44.73,1.28,
8.744,84.77497417045959,77.88802165186442,-3.07,-2.66,0.53,34.0,0.0,0.0,-33.0,0.0,3.0,3.0,5.89,44.34,2.84,
8.769,84.79749741704595,77.90780216518644,-3.44,-2.19,0.34,34.0,0.0,0.0,-33.0,0.0,3.0,3.0,5.79,43.75,0.0,
8.794,84.8087497417046,77.90978021651864,-2.95,-2.02,0.14,34.0,0.0,0.0,1633.0,0.0,3.0,3.0,5.69,43.16,0.0,
8.818,84.82787497417046,77.89197802165187,-2.01,-1.91,-0.38,32.0,0.0,0.0,11.0,0.0,3.0,3.0,5.59,42.48,1.86,
8.843,84.82078749741704,77.85419780216519,-2.56,-2.5,-0.36,34.0,0.0,0.0,11.0,0.0,3.0,3.0,5.4,42.08,3.04,
8.866,84.8020787497417,77.87741978021651,-2.41,-2.96,-0.24,32.0,0.0,0.0,11.0,0.0,3.0,3.0,5.2,41.4,2.45,
8.891,84.76420787497418,77.90674197802164,-2.48,-2.92,-0.81,37.0,0.0,0.0,11.0,0.0,3.0,3.0,4.91,40.61,1.18,
8.915,84.68842078749742,77.87367419780217,-2.15,-2.63,-0.71,32.0,0.0,0.0,11.0,0.0,3.0,3.0,4.71,39.73,0.0,
8.94,84.65384207874975,77.95136741978021,-1.54,-2.17,-0.76,31.0,0.0,0.0,11.0,0.0,3.0,3.0,4.51,39.04,3.04,
8.965,84.61438420787498,77.98613674197802,-2.52,-2.08,-0.49,32.0,0.0,0.0,11.0,0.0,3.0,3.0,4.32,38.36,1.77,
8.989,84.5834384207875,78.0166136741978,-3.24,-1.81,-0.23,32.0,0.0,0.0,11.0,0.0,3.0,3.0,4.12,37.57,3.04,
9.014,84.58934384207875,78.01966136741979,-2.79,-1.7,-0.38,32.0,0.0,0.0,11.0,0.0,3.0,3.0,4.02,36.98,0.0,
9.038,84.56293438420788,78.09196613674197,-2.71,-1.73,-0.52,32.0,0.0,0.0,11.0,0.0,3.0,3.0,4.12,36.69,2.26,
9.063,84.53329343842078,78.1531966136742,-2.69,-1.45,-0.59,34.0,0.0,0.0,11.0,0.0,3.0,3.0,4.12,36.3,1.47,
9.088,84.49432934384207,78.12331966136742,-2.5,-1.08,-0.93,31.0,0.0,0.0,11.0,0.0,3.0,3.0,4.02,36.1,5.1,
9.112,84.5174329343842,78.13833196613675,-2.11,-0.66,-1.02,32.0,0.0,0.0,11.0,0.0,3.0,3.0,4.12,36.2,1.28,
9.137,84.55574329343841,78.13983319661368,-2.24,-0.55,-1.2,31.0,0.0,0.0,11.0,0.0,3.0,3.0,4.02,36.2,0.49,
9.16,84.63157432934383,78.17598331966137,-1.79,-0.53,-1.71,31.0,0.0,0.0,11.0,0.0,3.0,3.0,3.92,36.3,0.1,
9.185,84.63915743293438,78.20659833196613,-2.03,-0.05,-0.67,31.0,0.0,0.0,11.0,0.0,3.0,3.0,3.92,36.4,3.24,
9.209,84.66691574329344,78.24565983319661,-2.24,-0.32,-0.72,32.0,0.0,0.0,11.0,0.0,3.0,3.0,3.92,36.79,1.96,
9.234,84.66069157432935,78.24056598331966,-2.0,-0.49,-0.98,32.0,0.0,0.0,11.0,0.0,3.0,3.0,3.83,37.08,0.1,
9.259,84.64206915743293,78.26705659833196,-1.88,-0.63,-0.98,32.0,0.0,0.0,11.0,0.0,3.0,3.0,3.73,37.18,1.18,
9.283,84.64920691574329,78.26970565983319,-1.43,-0.19,-0.94,32.0,0.0,0.0,11.0,0.0,3.0,3.0,3.73,37.28,0.0,
9.308,84.63192069157432,78.31497056598332,-1.32,0.17,-0.99,32.0,0.0,0.0,11.0,0.0,3.0,2.0,3.53,37.47,3.04,
9.332,84.69319206915743,78.32849705659834,-0.6,0.37,-1.28,30.0,0.0,0.0,11.0,0.0,3.0,2.0,3.53,37.87,0.0,
9.357,84.76231920691573,78.45584970565983,-0.71,-0.25,-0.84,32.0,0.0,0.0,11.0,0.0,3.0,2.0,3.43,38.26,1.08,
9.381,84.76923192069157,78.48658497056597,-0.49,0.02,-0.8,32.0,0.0,0.0,11.0,0.0,3.0,2.0,3.14,38.95,1.28,
9.405,84.79692319206914,78.5076584970566,0.01,0.0,-1.53,31.0,0.0,0.0,10.0,0.0,3.0,2.0,2.84,39.14,1.37,
9.43,84.81769231920691,78.54576584970565,1.9,-1.31,-2.18,31.0,0.0,0.0,10.0,0.0,2.0,2.0,2.65,39.24,1.96,
9.454,84.7927692319207,78.61257658497057,2.46,-0.34,-1.73,31.0,0.0,0.0,10.0,0.0,2.0,2.0,2.06,39.53,0.0,
9.478,84.84427692319207,78.84425765849706,0.43,1.17,-0.56,31.0,0.0,0.0,10.0,0.0,2.0,2.0,1.37,40.02,1.77,
9.502,84.9304276923192,78.94842576584969,-0.87,0.98,-0.44,30.0,0.0,0.0,10.0,0.0,2.0,2.0,0.98,40.61,1.57,
9.527,85.04704276923192,78.97684257658497,-1.12,0.04,-0.15,30.0,0.0,0.0,9.0,0.0,2.0,2.0,0.88,40.91,1.57,
9.55,85.0767042769232,79.0246842576585,-1.69,-0.85,0.12,30.0,0.0,0.0,9.0,0.0,2.0,2.0,0.69,41.01,1.57,
9.575,85.04367042769232,79.08346842576586,-2.81,-1.23,0.12,30.0,0.0,0.0,10.0,0.0,2.0,2.0,0.59,40.81,1.28,
9.6,85.00436704276923,79.0623468425766,-3.08,-1.02,-0.18,30.0,0.0,0.0,10.0,0.0,2.0,2.0,0.59,40.52,1.28,
9.624,85.01843670427692,79.06923468425765,-2.44,-1.23,-0.41,30.0,0.0,0.0,10.0,0.0,2.0,2.0,0.59,40.42,1.18,
9.648,85.08284367042769,79.07892346842576,-2.28,-1.69,0.18,30.0,0.0,0.0,10.0,0.0,2.0,2.0,0.78,40.22,1.96,
9.672,85.05328436704276,79.17889234684257,-2.3,-2.6,-0.16,30.0,0.0,0.0,10.0,0.0,2.0,2.0,0.69,40.02,2.75,
9.697,85.04132843670428,79.20688923468425,-2.5,-2.84,-0.66,30.0,0.0,0.0,10.0,0.0,2.0,2.0,0.59,39.63,2.26,
9.721,85.01313284367043,79.24568892346842,-3.13,-1.13,-0.31,30.0,0.0,0.0,10.0,0.0,2.0,2.0,0.49,39.34,1.96,
9.745,85.02831328436704,79.24956889234684,-3.13,-1.02,-0.2,30.0,0.0,0.0,10.0,0.0,2.0,2.0,0.49,39.24,0.29,
9.769,85.1018313284367,79.25895688923468,-2.73,-1.5,-0.29,30.0,0.0,0.0,10.0,0.0,2.0,2.0,0.59,39.34,1.18,
9.794,85.10918313284367,79.30489568892347,-3.08,-1.82,0.08,30.0,0.0,0.0,10.0,0.0,2.0,2.0,0.59,39.34,0.0,
9.819,85.04691831328437,79.34548956889233,-3.36,-1.54,0.11,30.0,0.0,0.0,10.0,0.0,2.0,2.0,0.59,39.44,0.69,
9.842,85.08569183132843,79.31354895688924,-3.29,-1.19,0.11,30.0,0.0,0.0,10.0,0.0,2.0,2.0,0.69,39.34,1.18,
9.867,85.11656918313284,79.32835489568893,-3.24,-1.02,0.4,30.0,0.0,0.0,10.0,0.0,2.0,2.0,0.69,39.34,1.18,
9.891,85.14665691831328,79.3568354895689,-3.81,-0.99,0.3,30.0,0.0,0.0,10.0,0.0,2.0,2.0,0.78,39.44,1.18,
9.916,85.10466569183133,79.30568354895689,-4.04,-1.31,0.44,30.0,0.0,0.0,10.0,0.0,2.0,2.0,0.98,39.63,0.98,
9.939,85.10046656918314,79.29156835489569,-4.27,-1.24,0.51,30.0,0.0,0.0,10.0,0.0,2.0,2.0,1.08,39.63,0.98,
9.964,85.10004665691832,79.25415683548957,-4.38,-1.39,0.7,30.0,0.0,0.0,10.0,0.0,2.0,2.0,1.37,39.53,1.18,
9.989,85.10000466569184,79.24141568354895,-4.46,-1.84,0.74,30.0,0.0,0.0,10.0,0.0,2.0,2.0,1.77,39.44,1.57,
10.012,85.10000046656918,79.2401415683549,-4.39,-1.82,0.38,30.0,0.0,0.0,10.0,0.0,2.0,2.0,2.06,39.04,2.45,
10.037,85.11800004665692,79.24001415683549,-3.96,-2.23,0.59,30.0,0.0,0.0,10.0,0.0,2.0,2.0,2.16,38.55,2.16,
10.061,85.10180000466569,79.24000141568355,-3.94,-2.75,0.79,30.0,0.0,0.0,10.0,0.0,2.0,2.0,2.16,38.16,2.16,
10.086,85.03718000046656,79.27600014156836,-4.37,-2.31,-0.06,30.0,0.0,0.0,10.0,0.0,2.0,2.0,2.26,37.57,1.86,
10.11,85.03971800004666,79.21660001415684,-4.43,-1.63,-0.43,30.0,0.0,0.0,10.0,0.0,2.0,2.0,2.35,37.18,0.98,
10.135,85.08497180000467,79.17466000141569,-3.46,-1.52,-0.44,30.0,0.0,0.0,10.0,0.0,2.0,2.0,2.45,37.18,1.08,
10.159,85.02649718000046,79.17946600014159,-3.26,-1.69,-0.02,30.0,0.0,0.0,10.0,0.0,2.0,2.0,2.45,37.28,0.98,
10.183,85.01164971800004,79.11694660001416,-3.75,-1.76,-0.13,30.0,0.0,0.0,10.0,0.0,2.0,2.0,2.35,37.47,1.37,
10.208,84.96516497180001,79.05669466000141,-3.17,-1.52,-0.05,30.0,0.0,0.0,10.0,0.0,2.0,2.0,2.35,37.38,1.57,
10.232,84.94251649718,79.05066946600013,-2.66,-1.57,-0.12,30.0,0.0,0.0,10.0,0.0,2.0,2.0,2.26,37.38,1.86,
10.257,84.985251649718,79.10406694660001,-2.49,-1.51,-0.18,26.0,0.0,0.0,10.0,0.0,2.0,2.0,2.26,37.38,1.57,
10.281,84.9625251649718,79.07340669466,-2.69,-1.21,-0.11,30.0,0.0,0.0,10.0,0.0,2.0,2.0,1.96,37.57,1.86,
10.306,84.96925251649718,79.09734066946599,-2.91,-1.6,0.21,32.0,0.0,0.0,10.0,0.0,2.0,2.0,1.86,37.47,3.04,
10.331,84.96992525164971,79.14473406694661,-3.23,-1.31,0.29,30.0,0.0,0.0,10.0,0.0,2.0,2.0,1.77,37.38,1.96,
10.354,84.96999252516497,79.15847340669465,-3.32,-1.47,0.11,30.0,0.0,0.0,10.0,0.0,2.0,2.0,1.77,37.38,2.45,
10.379,84.98799925251649,79.15984734066946,-3.33,-1.73,0.44,31.0,0.0,0.0,10.0,0.0,2.0,2.0,1.86,37.38,1.28,
10.403,84.99879992525165,79.16898473406694,-3.44,-1.72,0.42,31.0,0.0,0.0,10.0,0.0,2.0,2.0,1.96,37.38,0.78,
10.428,84.96387999252516,79.1248984734067,-3.5,-1.44,0.41,31.0,0.0,0.0,10.0,0.0,2.0,2.0,1.96,37.28,0.2,
10.452,84.94238799925252,79.11148984734066,-3.75,-1.34,0.28,31.0,0.0,0.0,10.0,0.0,2.0,2.0,2.06,37.28,2.45,
10.477,84.90423879992527,79.11014898473407,-3.88,-1.47,0.24,31.0,0.0,0.0,10.0,0.0,2.0,2.0,2.16,37.28,0.0,
10.502,84.95442387999252,79.13701489847341,-3.97,-1.7,0.37,31.0,0.0,0.0,11.0,0.0,2.0,2.0,2.26,37.38,1.67,
10.525,84.93244238799926,79.09470148984735,-4.24,-1.52,0.3,30.0,0.0,0.0,10.0,0.0,2.0,2.0,2.45,37.47,1.67,
10.55,84.96624423879993,79.09047014898475,-4.18,-1.73,-0.03,31.0,0.0,0.0,10.0,0.0,2.0,2.0,2.65,37.57,1.18,
10.574,84.96962442387999,79.10804701489847,-3.92,-1.36,0.15,31.0,0.0,0.0,10.0,0.0,2.0,2.0,2.75,37.77,0.69,
10.599,84.89796244238799,79.07380470148985,-4.79,-1.41,0.19,31.0,0.0,0.0,10.0,0.0,3.0,2.0,2.84,37.87,0.69,
10.624,84.9087962442388,79.07938047014898,-4.66,-1.21,0.31,31.0,0.0,0.0,10.0,0.0,3.0,2.0,3.04,37.96,1.08,
10.648,84.88287962442388,79.0349380470149,-4.02,-1.1,-0.02,32.0,0.0,0.0,10.0,0.0,3.0,2.0,3.14,38.36,1.28,
10.673,84.8712879624424,78.97649380470149,-3.37,-1.15,-0.02,32.0,0.0,0.0,10.0,0.0,3.0,2.0,3.34,38.65,1.77,
10.697,84.91512879624423,79.01564938047014,-3.45,-1.28,0.27,32.0,0.0,0.0,10.0,0.0,3.0,2.0,3.34,38.95,1.96,
10.722,84.87451287962443,78.97456493804702,-3.7,-1.03,0.1,32.0,0.0,0.0,11.0,0.0,3.0,2.0,3.34,39.24,0.49,
10.746,84.85245128796244,78.9524564938047,-3.67,-0.87,-0.16,32.0,0.0,0.0,11.0,0.0,3.0,2.0,3.43,39.53,1.57,
10.771,84.94024512879624,78.96824564938048,-3.25,-0.79,-0.31,32.0,0.0,0.0,11.0,0.0,3.0,2.0,3.53,39.83,0.0,
10.796,84.93102451287963,78.87982456493805,-2.74,-1.15,-0.37,32.0,0.0,0.0,11.0,0.0,3.0,2.0,3.53,40.22,1.67,
10.82,84.95710245128797,78.8979824564938,-3.23,-1.52,0.13,32.0,0.0,0.0,11.0,0.0,3.0,2.0,3.53,40.52,1.86,
10.845,84.95071024512879,78.90879824564938,-3.69,-1.6,0.03,32.0,0.0,0.0,11.0,0.0,3.0,2.0,3.43,40.71,2.94,
10.869,84.95907102451288,78.86487982456494,-3.89,-1.06,-0.3,32.0,0.0,0.0,11.0,0.0,3.0,2.0,3.34,40.81,1.57,
10.894,84.95990710245128,78.78848798245649,-3.67,-1.26,-0.24,32.0,0.0,0.0,11.0,0.0,3.0,2.0,3.53,40.91,1.57,
10.918,84.95999071024512,78.75384879824564,-3.14,-1.52,-0.39,32.0,0.0,0.0,11.0,0.0,3.0,2.0,3.63,40.81,1.67,
10.943,84.95999907102451,78.75038487982457,-3.23,-1.79,0.16,32.0,0.0,0.0,11.0,0.0,3.0,2.0,3.63,40.81,0.59,
10.968,84.90599990710245,78.73203848798245,-3.84,-1.37,-0.26,32.0,0.0,0.0,11.0,0.0,3.0,2.0,3.43,40.81,1.08,
10.992,84.86459999071025,78.68520384879825,-2.68,-1.33,-0.82,32.0,0.0,0.0,11.0,0.0,3.0,2.0,3.43,40.91,1.86,
11.017,84.90545999907101,78.69852038487983,-2.47,-1.47,-0.24,32.0,0.0,0.0,11.0,0.0,3.0,2.0,3.34,41.3,2.16,
11.041,84.8645459999071,78.70885203848798,-3.17,-1.08,-0.6,34.0,0.0,0.0,11.0,0.0,3.0,2.0,3.04,41.5,0.0,
11.066,84.84245459999072,78.68288520384881,-1.68,-0.7,-1.3,32.0,0.0,0.0,11.0,0.0,3.0,2.0,3.04,41.89,0.69,
11.09,84.85824545999907,78.69828852038488,-1.42,-0.26,-1.36,34.0,0.0,0.0,11.0,0.0,3.0,2.0,2.75,42.67,0.29,
11.115,84.76082454599991,78.61882885203848,0.33,0.35,-4.24,34.0,0.0,0.0,11.0,0.0,3.0,3.0,2.45,43.85,2.16,
11.14,84.93108245459999,78.84488288520384,2.05,0.55,-3.31,34.0,0.0,0.0,11.0,0.0,3.0,2.0,2.26,45.91,1.18,
11.163,84.98410824545999,78.94848828852038,0.07,0.58,-2.06,34.0,0.0,0.0,10.0,0.0,3.0,3.0,1.77,48.66,1.86,
11.188,85.052410824546,79.09384882885203,-0.21,0.41,-0.22,34.0,0.0,0.0,10.0,0.0,3.0,3.0,1.37,50.62,0.0,
11.212,85.14024108245461,79.1803848828852,-0.24,0.18,0.47,34.0,0.0,0.0,10.0,0.0,3.0,3.0,1.28,51.89,2.26,
11.237,85.15802410824547,79.25203848828852,-0.94,-1.34,0.36,34.0,0.0,0.0,10.0,0.0,2.0,3.0,1.08,52.88,3.43,
11.261,85.15080241082455,79.28620384882885,-1.73,-1.08,0.19,39.0,0.0,0.0,10.0,0.0,2.0,3.0,0.98,53.76,3.14,
11.286,85.26708024108247,79.2626203848829,-1.51,-2.22,-0.34,34.0,0.0,0.0,10.0,0.0,2.0,3.0,0.88,54.54,2.26,
11.311,85.16170802410825,79.31426203848828,-0.76,-3.54,0.16,32.0,0.0,0.0,10.0,0.0,2.0,2.0,0.88,55.23,2.16,
11.335,85.06117080241083,79.37342620384882,0.27,-4.08,0.9,34.0,0.0,0.0,9.0,0.0,2.0,2.0,0.88,55.82,2.26,
11.359,85.04211708024108,79.42434262038489,1.03,-4.87,1.1,31.0,0.0,0.0,9.0,0.0,1.0,2.0,0.49,56.11,3.73,
11.383,84.9682117080241,79.51943426203849,1.18,-6.27,2.07,30.0,0.0,0.0,8.0,0.0,1.0,2.0,0.29,56.41,6.77,
11.408,84.71782117080241,79.77194342620385,-3.31,-7.63,5.05,26.0,0.0,0.0,8.0,0.0,1.0,1.0,0.0,55.62,7.65,
11.431,84.36878211708024,80.10319434262038,-14.13,-10.15,4.05,20.0,0.0,0.0,7.0,0.0,1.0,1.0,0.0,53.96,3.43,
11.456,84.40587821170801,80.88331943426203,-16.99,-24.49,18.19,9.0,0.0,0.0,7.0,0.0,1.0,1.0,0.2,52.48,0.78,
11.481,85.96658782117079,80.9343319434262,-37.32,-35.7,77.29,11.0,0.0,0.0,5.0,0.0,0.0,1.0,0.78,48.56,0.0,
11.505,86.05965878211707,83.30643319434262,-51.7,37.69,12.62,5.0,0.0,0.0,3.0,0.0,0.0,1.0,0.39,35.12,6.28,
11.53,90.21796587821171,86.90964331943427,-46.86,25.76,29.33,4.0,0.0,0.0,2.0,0.0,0.0,0.0,0.1,14.72,124.69,
11.553,90.16579658782118,91.40096433194343,-20.33,-48.54,32.31,4.0,0.0,0.0,2.0,0.0,0.0,0.0,1.28,5.2,370.23,
11.578,87.74857965878212,98.05109643319435,-7.39,-51.21,59.63,5.0,0.0,0.0,2.0,0.0,0.0,0.0,0.29,7.16,181.09,
11.602,82.74585796587822,104.41310964331944,16.13,-59.7,73.47,5.0,0.0,0.0,1.0,0.0,0.0,0.0,0.0,5.2,70.44,
11.627,77.97958579658781,108.59531096433196,27.89,-48.35,47.26,5.0,0.0,0.0,1.0,0.0,0.0,0.0,0.2,15.01,27.66,
11.651,73.53395857965879,110.48053109643318,51.43,-12.17,31.72,5.0,0.0,0.0,1.0,0.0,0.0,0.0,0.29,41.59,21.88,
11.675,71.05539585796588,111.26305310964332,70.91,-18.21,17.82,4.0,0.0,0.0,1.0,0.0,0.0,0.0,0.0,39.34,22.56,
11.7,69.5925395857966,107.51630531096433,89.18,-34.61,-19.34,3.0,0.0,0.0,1.0,0.0,0.0,0.0,0.0,5.0,36.98,
11.724,70.67925395857966,110.00363053109643,148.82,186.09,-46.24,3.0,0.0,0.0,1.0,0.0,0.0,0.0,0.0,1.47,5.59,
11.749,90.39892539585797,131.92436305310966,68.33,-194.38,246.61,3.0,0.0,0.0,1.0,0.0,0.0,0.0,0.0,2.94,3.83,
11.773,87.2678925395858,124.78343630531096,16.96,50.89,-10.85,2.0,0.0,0.0,1.0,0.0,0.0,0.0,0.0,1.77,9.61,
11.797,83.32778925395857,116.1403436305311,17.31,37.56,-23.09,1.0,0.0,0.0,1.0,0.0,0.0,0.0,0.0,4.61,6.18,
11.822,95.78577892539586,102.1270343630531,114.89,242.92,-156.4,1.0,0.0,0.0,1.0,0.0,0.0,0.0,0.0,33.84,3.14,
11.846,100.90157789253959,92.82370343630531,32.06,-42.19,20.46,2.0,0.0,0.0,0.0,0.0,0.0,0.0,0.0,127.73,0.0,
11.87,101.32315778925397,83.37037034363053,-39.74,9.05,55.96,1.0,0.0,0.0,0.0,0.0,0.0,0.0,0.0,92.7,0.0,
11.894,102.3823157789254,80.13903703436306,-88.66,30.55,-148.37,1.0,0.0,0.0,0.0,0.0,0.0,0.0,0.0,83.38,0.0,
11.919,103.42423157789254,75.5229037034363,-198.11,30.67,-14.39,5.0,0.0,0.0,0.0,0.0,0.0,0.0,0.29,32.67,0.0,
11.943,100.99042315778925,72.98229037034363,-102.27,-42.11,-71.94,0.0,0.0,0.0,3.0,0.0,0.0,0.0,2.26,19.82,0.0,
11.968,97.82204231577893,72.80922903703437,-57.91,-26.64,-36.6,23.0,0.0,0.0,4.0,0.0,4.0,1.0,0.78,32.67,0.0,
11.993,96.4612042315779,73.85392290370345,-48.1,-29.91,-27.46,35.0,0.0,0.0,5.0,0.0,8.0,2.0,0.2,39.34,0.0,
12.017,93.87712042315779,73.84139229037035,-41.07,-12.6,-15.49,48.0,1.0,0.0,8.0,0.0,11.0,3.0,1.77,69.36,0.0,
12.042,91.95371204231577,74.18213922903703,-26.93,-1.82,-1.09,53.0,1.0,0.0,-33.0,0.0,4.0,4.0,4.41,82.31,0.0,
12.066,90.23137120423158,74.6842139229037,-22.85,4.22,8.31,55.0,1.0,0.0,-33.0,0.0,9.0,5.0,10.69,84.46,0.0,
12.092,89.91513712042315,75.88642139229036,-13.12,9.54,26.11,55.0,1.0,0.0,-33.0,0.0,14.0,6.0,16.68,88.98,0.0,
12.116,89.57751371204233,76.17764213922904,-14.82,10.2,36.65,58.0,0.0,0.0,-33.0,0.0,18.0,8.0,23.25,94.18,0.0,
12.141,88.75175137120422,76.78276421392289,-9.57,1.34,39.24,48.0,0.0,0.0,-33.0,1.0,20.0,10.0,29.14,98.39,0.0,
12.166,89.70417513712043,76.38427642139229,-15.53,7.53,22.11,42.0,0.0,0.0,-33.0,1.0,21.0,11.0,34.43,106.05,0.0,
12.191,87.45941751371203,76.37142764213922,-20.85,-0.08,2.0,34.0,0.0,0.0,-33.0,2.0,21.0,2.0,42.08,110.17,0.0,
12.216,86.95594175137121,75.93814276421392,-28.68,15.32,8.07,26.0,0.0,0.0,-33.0,3.0,23.0,5.0,46.79,114.78,0.0,
12.24,86.22159417513711,74.4458142764214,-24.05,8.47,-2.34,18.0,0.0,0.0,-33.0,3.0,24.0,8.0,50.72,119.98,0.0,
12.266,86.62515941751371,74.35058142764214,-22.31,9.23,3.05,12.0,0.0,0.0,-33.0,4.0,24.0,11.0,55.13,124.88,0.0,
12.291,86.98051594175136,74.32305814276421,-20.04,5.37,9.91,9.0,0.0,0.0,-33.0,4.0,25.0,13.0,59.06,138.22,0.0,
12.315,86.84505159417515,74.41030581427643,-21.92,5.49,10.23,6.0,0.0,0.0,-33.0,5.0,25.0,17.0,64.06,146.46,0.0,
12.341,86.20150515941751,73.96003058142765,-24.16,5.4,3.28,2.0,0.0,0.0,-33.0,5.0,27.0,21.0,68.18,150.58,0.0,
12.365,85.90315051594175,73.87900305814277,-25.67,11.67,-5.7,11.0,0.0,0.0,8.0,5.0,27.0,24.0,72.69,143.52,0.0,
12.39,85.90931505159418,73.87990030581427,-29.59,10.15,-5.96,8.0,0.0,0.0,7.0,5.0,28.0,26.0,76.22,136.16,0.0,
12.416,85.80193150515943,73.81699003058142,-34.67,12.85,-8.87,6.0,0.0,0.0,6.0,5.0,27.0,27.0,79.76,125.27,0.98,
12.44,85.71919315051593,73.54969900305814,-35.47,17.09,-10.96,4.0,0.0,0.0,5.0,5.0,27.0,27.0,81.13,118.9,3.14,
12.465,86.91691931505159,73.77496990030582,-37.26,18.51,-5.75,2.0,0.0,0.0,5.0,5.0,26.0,27.0,81.62,110.17,7.75,
12.489,88.53969193150516,73.71649699003058,-48.47,21.6,-4.42,1.0,0.0,0.0,4.0,6.0,24.0,27.0,79.76,102.12,12.36,
12.515,89.25096919315052,73.79164969900306,-58.06,28.85,7.86,0.0,0.0,0.0,4.0,5.0,22.0,26.0,74.56,92.7,75.14,
12.539,89.21409691931505,74.1231649699003,-84.04,11.87,-5.25,0.0,0.0,0.0,4.0,5.0,17.0,21.0,58.08,81.32,147.54,
12.564,91.5774096919315,73.32831649699003,-96.4,-11.34,-26.95,1.0,0.0,0.0,3.0,3.0,7.0,9.0,39.53,64.65,225.24,
12.59,95.23374096919315,75.32783164969901,-92.92,28.37,-38.12,2.0,0.0,0.0,1.0,1.0,9.0,9.0,23.64,46.79,279.68,
12.614,97.44437409691932,80.0277831649699,-55.13,-25.44,-8.4,3.0,0.0,0.0,1.0,1.0,3.0,1.0,13.83,13.15,203.46,
12.638,91.46443740969193,88.075778316497,21.89,-84.71,14.13,4.0,0.0,0.0,1.0,1.0,3.0,1.0,7.16,6.38,167.85,
12.662,89.9304437409692,97.92557783164969,93.74,-52.25,11.4,4.0,0.0,0.0,0.0,1.0,3.0,1.0,0.98,8.14,108.01,
12.687,82.57704437409691,106.82155778316498,136.73,-66.51,40.92,4.0,0.0,0.0,0.0,1.0,3.0,1.0,1.67,108.69,43.95,
12.711,76.48670443740968,110.2401557783165,153.37,-66.82,20.79,4.0,0.0,0.0,1.0,1.0,3.0,1.0,2.26,50.03,63.47,
12.736,72.40367044374098,105.36201557783164,160.64,-49.69,3.71,4.0,0.0,0.0,1.0,1.0,3.0,1.0,2.06,161.57,21.78,
12.76,72.5893670443741,100.25720155778316,156.74,-50.08,6.15,3.0,0.0,0.0,1.0,1.0,3.0,1.0,1.86,189.92,19.03,
12.784,74.64193670443741,94.05872015577832,83.69,-30.08,28.42,3.0,0.0,0.0,1.0,1.0,3.0,1.0,1.86,170.79,10.59,
12.809,76.59319367044374,86.93187201557782,1.2,29.56,23.69,2.0,0.0,0.0,1.0,1.0,3.0,1.0,1.57,52.97,0.0,
12.832,81.14431936704439,79.03718720155777,48.37,40.76,-8.18,1.0,0.0,0.0,0.0,1.0,3.0,1.0,1.47,30.02,0.0,
12.857,85.07343193670444,76.03371872015579,47.02,-35.18,21.6,2.0,0.0,0.0,1.0,1.0,3.0,1.0,0.0,17.76,0.0,
12.88,87.68034319367044,73.58237187201557,-15.12,38.42,2.87,2.0,0.0,0.0,1.0,1.0,3.0,1.0,0.0,66.81,0.0,
12.905,84.58403431936705,70.06123718720156,-73.11,17.15,-1.4,4.0,0.0,0.0,2.0,1.0,3.0,1.0,0.0,104.18,0.0,
12.93,80.28740343193671,72.23812371872015,-62.46,-36.95,-71.78,11.0,0.0,0.0,4.0,1.0,0.0,1.0,0.0,23.15,0.0,
12.954,80.01974034319367,75.25481237187202,-5.98,-0.53,-18.66,12.0,0.0,0.0,5.0,1.0,1.0,2.0,0.0,52.78,0.0,
12.978,79.79497403431935,74.86348123718719,-9.6,3.93,-21.59,19.0,0.0,0.0,6.0,1.0,2.0,3.0,0.0,38.06,0.0,
13.002,80.87949740343194,75.63434812371871,-9.31,15.73,-7.2,21.0,0.0,0.0,7.0,0.0,2.0,3.0,0.0,42.97,0.0,
13.027,82.0319497403432,75.99943481237187,-11.76,9.02,1.57,23.0,0.0,0.0,7.0,0.0,3.0,4.0,0.0,46.6,0.0,
13.051,81.63419497403433,75.2079434812372,-4.51,10.1,0.22,27.0,0.0,0.0,8.0,0.0,3.0,4.0,0.78,51.31,0.0,
13.076,82.01741949740344,75.66879434812371,-3.01,6.34,1.42,30.0,0.0,0.0,9.0,0.0,4.0,5.0,2.26,54.45,0.0,
13.101,82.50574194974034,76.16487943481236,-3.84,3.7,-0.02,31.0,0.0,0.0,-33.0,0.0,4.0,5.0,3.92,56.41,0.0,
13.125,82.92357419497404,76.54748794348124,-5.97,1.66,-0.53,32.0,0.0,0.0,-33.0,0.0,5.0,6.0,4.81,60.92,0.0,
13.15,83.31635741949741,76.82874879434813,-6.43,-0.61,0.6,34.0,0.0,0.0,-33.0,0.0,5.0,7.0,5.79,62.98,0.0,
13.174,83.45463574194974,77.11787487943481,-6.65,-0.5,0.35,35.0,0.0,0.0,-33.0,0.0,6.0,7.0,7.06,63.57,0.0,
13.199,83.57646357419497,77.23678748794349,-7.19,-0.3,-0.82,35.0,0.0,0.0,-33.0,0.0,6.0,8.0,8.34,65.04,0.0,
13.223,84.2186463574195,77.49167874879434,-5.95,-1.6,11.31,37.0,0.0,0.0,-33.0,0.0,6.0,8.0,9.42,66.32,0.0,
13.248,84.31886463574196,77.67016787487944,-6.72,-1.48,1.34,39.0,0.0,0.0,-33.0,0.0,6.0,8.0,10.3,67.2,0.0,
13.273,84.3918864635742,77.50801678748795,-5.82,-0.4,1.65,39.0,0.0,0.0,-33.0,0.0,6.0,8.0,10.79,68.08,0.0,
13.297,84.49818864635743,77.50080167874879,-4.17,-0.57,0.2,39.0,0.0,0.0,-33.0,0.0,6.0,8.0,11.38,67.0,0.0,
13.322,84.61681886463575,77.64408016787488,-3.67,-1.72,-0.49,39.0,0.0,0.0,-33.0,0.0,6.0,8.0,11.87,67.89,0.0,
13.346,84.62868188646357,77.66740801678749,-3.5,-1.73,-0.02,40.0,0.0,0.0,-33.0,0.0,6.0,8.0,11.87,69.16,0.0,
13.371,84.61186818864635,77.71474080167876,-2.98,-1.44,-0.41,40.0,0.0,0.0,-33.0,0.0,6.0,8.0,11.38,68.77,0.0,
13.396,84.65518681886464,77.77347408016789,-2.83,-1.63,-1.0,40.0,0.0,0.0,-33.0,0.0,6.0,8.0,11.18,68.18,0.0,
13.421,84.66851868188647,77.88734740801681,-2.95,-1.62,-0.64,40.0,0.0,0.0,-33.0,0.0,7.0,8.0,10.79,66.61,0.0,
13.446,84.68785186818864,77.97073474080167,-2.49,-1.36,-0.73,40.0,0.0,0.0,1633.0,0.0,7.0,8.0,10.5,66.61,0.29,
13.47,84.75278518681887,77.97907347408017,-1.68,-1.44,-0.39,40.0,0.0,0.0,-33.0,0.0,7.0,7.0,10.01,65.63,0.0,
13.495,84.8042785186819,78.060907347408,-0.78,-1.85,-0.41,40.0,0.0,0.0,-33.0,0.0,6.0,7.0,9.42,64.84,0.0,
13.519,84.8094278518682,78.13209073474081,-0.99,-1.81,-0.05,40.0,0.0,0.0,-33.0,0.0,6.0,7.0,9.12,63.77,0.0,
13.545,84.71094278518682,78.2202090734741,-1.21,-0.92,-0.03,40.0,0.0,0.0,-33.0,0.0,6.0,7.0,8.73,62.59,0.0,
13.57,84.59309427851868,78.2920209073474,-0.34,-0.37,-0.23,40.0,0.0,0.0,-33.0,0.0,6.0,7.0,8.34,61.9,0.49,
13.594,84.68930942785187,78.37120209073474,-0.84,-0.89,-0.08,40.0,0.0,0.0,-33.0,0.0,6.0,7.0,7.95,61.12,0.78,
13.619,84.7439309427852,78.41512020907348,-1.17,-1.43,0.03,40.0,0.0,0.0,-33.0,0.0,6.0,7.0,7.46,58.47,0.88,
13.643,84.74939309427853,78.48251202090734,-1.69,-2.06,-0.84,40.0,0.0,0.0,3300.0,0.0,6.0,7.0,7.16,57.68,0.1,
13.668,84.71393930942784,78.49825120209074,-1.06,-1.8,-0.63,40.0,0.0,0.0,-33.0,0.0,6.0,7.0,6.97,56.9,1.77,
13.692,84.67439393094278,78.52682512020908,-2.1,-2.05,0.23,42.0,0.0,0.0,-33.0,0.0,6.0,7.0,6.87,56.21,0.39,
13.717,84.69743939309429,78.5476825120209,-2.24,-1.11,0.25,40.0,0.0,0.0,-33.0,0.0,6.0,6.0,6.67,55.92,0.0,
13.742,84.74474393930943,78.5407682512021,-2.61,-1.58,1.08,40.0,0.0,0.0,-33.0,0.0,6.0,6.0,6.57,55.82,0.0,
13.766,84.78547439393095,78.55807682512021,-3.16,-1.86,1.43,44.0,0.0,0.0,-33.0,0.0,6.0,6.0,6.67,55.52,2.26,
13.791,84.7625474393931,78.55980768251203,-3.17,-1.74,0.97,40.0,0.0,0.0,-33.0,0.0,6.0,6.0,6.77,55.33,2.84,
13.815,84.7422547439393,78.5959807682512,-3.58,-0.63,1.11,40.0,0.0,0.0,-33.0,0.0,6.0,6.0,6.77,55.33,0.98,
13.84,84.73122547439394,78.63559807682512,-3.71,-0.39,0.67,44.0,0.0,0.0,-33.0,0.0,6.0,6.0,7.06,55.43,1.08,
13.864,84.8021225474394,78.6845598076825,-4.02,-1.03,0.73,40.0,0.0,0.0,-33.0,0.0,6.0,6.0,7.36,55.72,0.0,
13.889,84.82721225474393,78.68945598076824,-4.18,-0.96,0.77,40.0,0.0,0.0,-33.0,0.0,6.0,6.0,7.55,56.02,0.0,
13.914,84.7577212254744,78.63594559807682,-4.59,-1.47,0.39,40.0,0.0,0.0,-33.0,0.0,6.0,6.0,7.85,56.41,0.69,
13.938,84.70577212254744,78.56759455980769,-4.82,-2.0,0.44,40.0,0.0,0.0,3300.0,0.0,6.0,7.0,8.24,56.7,0.69,
13.963,84.65557721225474,78.51575945598077,-5.21,-1.37,0.99,40.0,0.0,0.0,-33.0,0.0,6.0,7.0,8.53,56.7,0.39,
13.987,84.67755772122547,78.51957594559806,-4.85,-1.23,1.67,40.0,0.0,0.0,-33.0,0.0,6.0,7.0,8.93,57.19,0.2,
14.012,84.65275577212255,78.58295759455982,-5.05,-1.89,1.7,40.0,0.0,0.0,-33.0,0.0,6.0,7.0,9.12,57.58,0.0,
14.036,84.58727557721225,78.49929575945598,-3.98,-0.78,-3.2,42.0,0.0,0.0,-33.0,0.0,6.0,7.0,9.61,58.08,0.0,
14.061,84.57172755772122,78.4009295759456,-5.18,-2.3,0.21,46.0,0.0,0.0,-33.0,0.0,6.0,7.0,9.91,58.57,0.0,
14.086,84.51617275577213,78.37309295759457,-4.16,-1.6,0.39,42.0,0.0,0.0,-33.0,0.0,6.0,7.0,10.2,58.76,0.0,
14.11,84.5826172755772,78.30730929575945,-3.92,-1.38,0.27,42.0,0.0,0.0,-33.0,0.0,6.0,7.0,10.3,58.66,0.39,
14.136,84.56226172755771,78.24673092957595,-4.23,-1.4,0.48,42.0,0.0,0.0,-33.0,0.0,6.0,7.0,10.4,58.57,0.0,
14.16,84.47922617275577,78.21367309295759,-3.91,-1.04,0.1,42.0,0.0,0.0,-33.0,0.0,7.0,7.0,10.4,58.47,0.0,
14.185,84.53392261727559,78.18336730929576,-3.18,-1.19,-0.07,42.0,0.0,0.0,3300.0,0.0,7.0,7.0,10.5,59.55,0.0,
14.21,84.57539226172756,78.20733673092957,-2.62,-1.17,-0.27,42.0,0.0,0.0,-33.0,0.0,7.0,7.0,10.2,57.78,0.0,
14.234,84.52553922617275,78.22773367309297,-3.02,-1.14,-0.28,40.0,0.0,0.0,-33.0,0.0,7.0,7.0,9.91,57.29,0.1,
14.259,84.57455392261727,78.23877336730929,-3.08,-1.43,-0.51,40.0,0.0,0.0,-33.0,0.0,7.0,7.0,9.52,57.0,0.0,
14.283,84.57045539226172,78.20387733673094,-2.83,-1.47,-0.5,40.0,0.0,0.0,-33.0,0.0,7.0,7.0,9.22,56.7,0.39,
14.308,84.56104553922617,78.19138773367308,-2.53,-1.66,-0.61,42.0,0.0,0.0,-33.0,0.0,6.0,7.0,8.93,56.21,0.78,
14.332,84.56010455392261,78.19913877336731,-2.33,-1.98,-0.49,44.0,0.0,0.0,-33.0,0.0,6.0,6.0,8.73,55.82,0.98,
14.358,84.60501045539226,78.17291387733674,-2.27,-1.6,-0.45,42.0,0.0,0.0,-33.0,0.0,6.0,6.0,8.53,995.62,1.77,
14.383,84.62750104553922,78.20629138773367,-2.4,-1.68,-0.33,42.0,0.0,0.0,-33.0,0.0,6.0,6.0,8.14,54.64,0.0,
14.407,84.62075010455392,78.28162913877338,-2.3,-1.71,-0.52,40.0,0.0,0.0,-33.0,0.0,6.0,6.0,7.85,54.25,0.49,
14.432,84.53907501045539,78.25316291387733,-1.86,-1.95,-0.54,40.0,0.0,0.0,-33.0,0.0,6.0,5.0,7.65,53.76,1.37,
14.456,84.56690750104553,78.24131629138773,-1.85,-2.21,-0.44,40.0,0.0,0.0,-33.0,0.0,5.0,5.0,7.46,53.27,1.18,
14.481,84.45269075010455,78.24013162913877,-2.06,-1.77,-0.73,40.0,0.0,0.0,-33.0,0.0,5.0,5.0,7.16,52.68,1.37,
14.505,84.50426907501047,78.24001316291387,-1.5,-1.48,-0.74,40.0,0.0,0.0,-33.0,0.0,5.0,5.0,6.57,52.29,1.28,
14.53,84.52742690750104,78.24000131629138,-1.63,-1.56,-0.42,40.0,0.0,0.0,-33.0,0.0,5.0,4.0,6.18,51.99,1.47,
14.555,84.4937426907501,78.28500013162915,-1.89,-1.1,-0.37,40.0,0.0,0.0,-33.0,0.0,5.0,4.0,5.79,51.6,1.28,
14.579,84.544374269075,78.29850001316291,-1.74,-0.96,-0.5,40.0,0.0,0.0,-33.0,0.0,4.0,4.0,5.69,51.31,0.78,
14.605,84.5944374269075,78.30885000131629,-1.41,-1.43,-0.26,39.0,0.0,0.0,-33.0,0.0,4.0,4.0,5.49,51.11,0.78,
14.629,84.53644374269075,78.36388500013163,-1.89,-1.45,-1.08,39.0,0.0,0.0,-33.0,0.0,4.0,4.0,5.3,50.82,1.28,
14.654,84.49464437426907,78.38738850001316,-1.6,-0.69,-0.64,39.0,0.0,0.0,-33.0,0.0,4.0,4.0,5.2,50.52,1.67,
14.679,84.57146443742691,78.42573885000132,-1.29,-1.17,-0.55,40.0,0.0,0.0,-33.0,0.0,4.0,4.0,5.2,50.33,1.57,
14.703,84.62414644374269,78.47457388500014,-1.5,-1.27,-0.48,39.0,0.0,0.0,-33.0,0.0,4.0,4.0,5.1,50.03,1.57,
14.728,84.63841464437427,78.47945738850002,-1.5,-0.77,-0.4,39.0,0.0,0.0,-33.0,0.0,3.0,3.0,5.0,49.74,1.28,
14.752,84.63984146443742,78.53394573885001,-1.58,-1.26,-0.57,39.0,0.0,0.0,-33.0,0.0,3.0,3.0,4.81,49.54,1.47,
14.777,84.59498414644374,78.620394573885,-1.84,-1.22,-0.63,39.0,0.0,0.0,-33.0,0.0,3.0,3.0,4.51,49.15,1.18,
14.801,84.56349841464437,78.6830394573885,-2.21,-1.19,-0.69,39.0,0.0,0.0,-33.0,0.0,3.0,3.0,4.41,48.95,0.78,
14.826,84.56934984146443,78.70730394573884,-2.22,-1.56,-0.33,39.0,0.0,0.0,-33.0,0.0,3.0,3.0,4.41,48.66,0.88,
14.851,84.57893498414644,78.74573039457388,-2.6,-1.22,-0.27,39.0,0.0,0.0,-33.0,0.0,3.0,3.0,4.32,48.56,1.47,
14.876,84.56189349841465,78.81257303945739,-3.08,-1.21,-0.24,39.0,0.0,0.0,-33.0,0.0,3.0,3.0,4.32,48.56,1.28,
14.901,84.54218934984148,78.85525730394573,-2.62,-0.76,0.03,39.0,0.0,0.0,-33.0,0.0,3.0,3.0,4.32,48.66,1.08,
14.925,84.59421893498414,78.85052573039458,-2.76,-1.06,0.11,39.0,0.0,0.0,-33.0,0.0,3.0,3.0,4.41,48.76,0.98,
14.95,84.61742189349842,78.85905257303946,-2.95,-0.89,0.05,39.0,0.0,0.0,-33.0,0.0,3.0,3.0,4.32,48.85,1.08,
14.974,84.63774218934984,78.82390525730395,-2.99,-0.93,-0.35,39.0,0.0,0.0,-33.0,0.0,3.0,3.0,4.41,49.15,1.28,
14.999,84.65777421893499,78.81139052573039,-3.03,-1.17,-0.06,39.0,0.0,0.0,-33.0,0.0,3.0,3.0,4.41,49.44,1.77,
15.024,84.61477742189349,78.85513905257304,-3.13,-0.73,0.46,39.0,0.0,0.0,-33.0,0.0,3.0,3.0,4.51,50.03,1.57,
15.048,84.59247774218935,78.9045139052573,-3.42,-0.53,0.37,39.0,0.0,0.0,-33.0,0.0,3.0,3.0,4.61,50.33,1.47,
15.073,84.63524777421894,78.90045139052573,-3.33,-0.91,0.21,39.0,0.0,0.0,-33.0,0.0,3.0,3.0,4.71,50.23,1.18,
15.097,84.6485247774219,78.95404513905257,-3.31,-0.85,0.17,39.0,0.0,0.0,-33.0,0.0,3.0,3.0,4.81,50.42,0.88,
15.122,84.63185247774219,78.91440451390525,-3.31,-1.02,0.18,39.0,0.0,0.0,-33.0,0.0,3.0,3.0,5.0,51.4,0.69,
15.147,84.63018524777422,78.95544045139052,-2.82,-0.66,0.07,39.0,0.0,0.0,-33.0,0.0,3.0,3.0,5.2,51.7,0.69,
15.171,84.64801852477743,78.88754404513905,-2.83,-0.82,-0.27,39.0,0.0,0.0,-33.0,0.0,3.0,3.0,5.3,51.21,1.28,
15.196,84.60480185247775,78.88975440451391,-2.98,-0.92,-0.33,39.0,0.0,0.0,-33.0,0.0,3.0,3.0,5.2,51.31,1.47,
15.22,84.63648018524778,78.8899754404514,-2.79,-0.89,-0.05,39.0,0.0,0.0,-33.0,0.0,3.0,3.0,5.4,51.4,1.57,
15.245,84.61264801852478,78.93499754404515,-2.84,-0.85,-0.09,39.0,0.0,0.0,-33.0,0.0,3.0,3.0,5.3,51.5,1.28,
15.269,84.65526480185248,78.90349975440452,-2.68,-0.84,-0.42,39.0,0.0,0.0,-33.0,0.0,3.0,3.0,5.4,51.8,0.98,
15.294,84.68652648018525,78.89134997544045,-2.56,-0.81,-0.27,39.0,0.0,0.0,-33.0,0.0,3.0,3.0,5.4,52.48,1.18,
15.319,84.74365264801853,78.91713499754405,-2.38,-1.31,-0.37,40.0,0.0,0.0,-33.0,0.0,3.0,3.0,5.4,52.48,1.18,
15.343,84.75836526480185,78.94671349975441,-2.54,-1.43,-0.27,40.0,0.0,0.0,-33.0,0.0,3.0,3.0,5.4,52.39,1.67,
15.369,84.77783652648019,78.94967134997545,-2.46,-1.12,-0.41,40.0,0.0,0.0,-33.0,0.0,3.0,3.0,5.3,52.39,0.1,
15.393,84.76178365264802,79.02196713499755,-2.11,-1.12,-0.47,40.0,0.0,0.0,-33.0,0.0,3.0,3.0,5.3,52.48,0.98,
15.418,84.7331783652648,79.02919671349976,-2.24,-0.98,-0.3,40.0,0.0,0.0,-33.0,0.0,3.0,2.0,5.2,52.39,1.28,
15.442,84.73931783652647,79.07491967134997,-2.11,-0.82,-0.1,40.0,0.0,0.0,-33.0,0.0,3.0,2.0,5.3,52.68,1.08,
15.467,84.77593178365265,79.08849196713501,-1.89,-1.1,0.15,40.0,0.0,0.0,-33.0,0.0,3.0,2.0,5.2,55.13,0.88,
15.492,84.76159317836527,79.1078491967135,-1.57,-1.31,0.12,40.0,0.0,0.0,-33.0,0.0,3.0,2.0,5.1,55.13,1.28,
15.516,84.79615931783653,79.10978491967134,-1.69,-1.1,-0.73,39.0,0.0,0.0,-33.0,0.0,3.0,2.0,4.91,54.74,1.86,
15.541,84.86261593178367,79.11897849196714,-1.5,-1.1,-0.56,39.0,0.0,0.0,-33.0,0.0,3.0,2.0,4.71,54.45,2.26,
15.565,84.84226159317838,79.1108978491967,-1.06,-1.43,-0.48,39.0,0.0,0.0,-33.0,0.0,3.0,2.0,4.61,53.96,2.16,
15.59,84.85822615931784,79.20008978491967,-1.18,-1.24,-0.8,39.0,0.0,0.0,-33.0,0.0,3.0,2.0,4.41,50.82,1.96,
15.614,84.82382261593177,79.25400897849197,-2.3,-0.98,-0.34,39.0,0.0,0.0,-33.0,0.0,3.0,2.0,4.32,50.42,1.77,
15.639,84.81138226159318,79.2864008978492,-2.21,-0.51,-0.37,39.0,0.0,0.0,-33.0,0.0,2.0,2.0,4.12,50.33,1.18,
15.665,84.89113822615933,79.31664008978491,-1.9,-0.98,0.14,39.0,0.0,0.0,-33.0,0.0,2.0,2.0,4.12,50.23,0.78,
15.689,84.88111382261593,79.31966400897848,-2.15,-1.21,0.63,39.0,0.0,0.0,-33.0,0.0,2.0,2.0,4.02,50.13,1.18,
15.714,84.82611138226159,79.33796640089786,-2.66,-1.01,0.31,39.0,0.0,0.0,-33.0,0.0,2.0,2.0,3.92,50.03,1.47,
15.738,84.81161113822617,79.36679664008979,-2.37,-0.97,0.27,39.0,0.0,0.0,-33.0,0.0,2.0,2.0,3.83,49.93,1.86,
15.763,84.8461611138226,79.36967966400898,-2.61,-1.31,0.05,37.0,0.0,0.0,-33.0,0.0,2.0,2.0,3.73,49.83,1.77,
15.788,84.84961611138226,79.3789679664009,-3.07,-1.11,0.21,37.0,0.0,0.0,-33.0,0.0,2.0,2.0,3.73,49.83,1.37,
15.812,84.84996161113821,79.3888967966401,-3.02,-1.04,0.13,37.0,0.0,0.0,-33.0,0.0,2.0,2.0,3.73,49.74,1.28,
15.837,84.8319961611138,79.44388967966401,-2.96,-1.35,0.08,37.0,0.0,0.0,-33.0,0.0,2.0,2.0,3.73,49.54,1.47,
15.861,84.84819961611137,79.42238896796641,-2.63,-1.29,-0.27,37.0,0.0,0.0,-33.0,0.0,2.0,2.0,3.73,49.44,0.88,
15.886,84.89481996161115,79.45623889679663,-2.61,-1.37,0.1,37.0,0.0,0.0,-33.0,0.0,2.0,2.0,3.73,49.54,0.98,
15.91,84.91748199616111,79.51362388967966,-2.66,-1.12,-0.01,39.0,0.0,0.0,-33.0,0.0,2.0,2.0,3.63,49.34,1.37,
15.935,84.91074819961611,79.55536238896796,-3.24,-0.84,-0.13,37.0,0.0,0.0,-33.0,0.0,2.0,2.0,3.53,49.15,1.86,
15.96,84.92807481996162,79.5775362388968,-3.03,-0.69,-0.37,37.0,0.0,0.0,-33.0,0.0,3.0,2.0,3.53,49.34,2.26,
15.984,84.93880748199616,79.57975362388967,-2.44,-0.66,-0.16,37.0,0.0,0.0,-33.0,0.0,2.0,2.0,3.63,49.44,1.47,
16.009,84.88588074819961,79.59797536238896,-3.08,-0.21,0.07,40.0,0.0,0.0,-33.0,0.0,3.0,2.0,3.63,49.64,1.08,
16.033,84.92558807481997,79.5997975362389,-3.31,0.02,0.06,37.0,0.0,0.0,-33.0,0.0,2.0,2.0,3.63,49.74,0.88,
16.058,84.938558807482,79.63597975362389,-3.7,0.82,-0.39,39.0,0.0,0.0,-33.0,0.0,3.0,2.0,3.73,50.03,1.57,
16.082,84.9848558807482,79.59459797536239,-3.55,1.87,-0.74,39.0,0.0,0.0,-33.0,0.0,3.0,2.0,4.02,51.11,1.37,
16.107,85.00748558807481,79.58145979753624,-3.05,1.18,-0.24,39.0,0.0,0.0,-33.0,0.0,2.0,2.0,4.41,52.19,1.28,
16.132,85.01874855880749,79.52614597975362,-3.13,1.08,-0.43,39.0,0.0,0.0,-33.0,0.0,2.0,2.0,4.61,53.46,1.18,
16.156,85.11887485588075,79.48461459797537,-3.01,1.0,-0.17,39.0,0.0,0.0,-33.0,0.0,2.0,2.0,4.81,54.45,0.69,
16.181,85.18288748558808,79.48046145979754,-2.8,0.37,0.21,39.0,0.0,0.0,-33.0,0.0,2.0,2.0,4.91,55.72,0.29,
16.205,85.29728874855881,79.52504614597976,-2.88,-0.89,0.2,39.0,0.0,0.0,-33.0,0.0,2.0,2.0,4.91,56.9,0.29,
16.23,85.30872887485589,79.52050461459797,-2.54,-1.89,0.11,39.0,0.0,0.0,-33.0,0.0,2.0,2.0,4.71,57.09,0.29,
16.254,85.2918728874856,79.55605046145979,-2.44,-1.92,-0.02,39.0,0.0,0.0,-33.0,0.0,2.0,2.0,4.51,56.8,1.18,
16.279,85.29018728874857,79.58660504614598,-2.59,-2.05,0.02,39.0,0.0,0.0,-33.0,0.0,2.0,2.0,4.22,56.51,1.28,
16.304,85.30801872887487,79.5806605046146,-2.67,-2.5,0.1,39.0,0.0,0.0,-33.0,0.0,2.0,2.0,3.92,55.72,1.28,
16.328,85.34580187288748,79.57106605046145,-2.67,-3.43,0.33,37.0,0.0,0.0,-33.0,0.0,2.0,2.0,3.63,54.45,1.37,
16.353,85.25958018728875,79.56110660504615,-2.21,-3.09,0.25,37.0,0.0,0.0,-33.0,0.0,2.0,2.0,3.34,53.37,1.77,
16.377,85.25995801872888,79.60511066050461,-1.89,-2.89,0.41,37.0,0.0,0.0,-33.0,0.0,2.0,1.0,3.04,52.39,2.16,
16.402,85.22399580187289,79.61851106605046,-1.56,-3.17,0.66,35.0,0.0,0.0,-33.0,0.0,2.0,1.0,2.65,51.4,2.65,
16.427,85.19339958018729,79.63785110660504,-1.39,-4.32,0.64,34.0,0.0,0.0,-33.0,0.0,2.0,1.0,2.16,50.42,2.16,
16.451,85.15433995801874,79.69378511066051,-1.85,-4.73,0.76,34.0,0.0,0.0,3300.0,0.0,2.0,1.0,1.77,49.44,2.65,
16.476,85.12343399580188,79.73537851106605,-1.56,-7.81,1.18,31.0,0.0,0.0,11.0,0.0,2.0,1.0,1.28,47.97,2.26,
16.5,85.05734339958019,79.7575378511066,-2.18,-11.79,0.89,31.0,0.0,0.0,10.0,0.0,2.0,1.0,0.69,45.42,3.43,
16.525,84.95173433995802,79.85875378511066,-2.26,-12.79,1.31,30.0,0.0,0.0,10.0,0.0,2.0,1.0,0.0,43.46,5.4,
16.549,84.6261734339958,79.93187537851107,-2.07,-7.47,0.76,28.0,0.0,0.0,9.0,0.0,2.0,1.0,0.0,41.01,6.38,
16.574,84.36861734339959,79.8851875378511,-2.08,-4.45,0.33,27.0,0.0,0.0,9.0,0.0,1.0,1.0,0.0,38.06,3.63,
16.599,84.27086173433996,79.91651875378511,-2.24,-2.74,0.58,26.0,0.0,0.0,9.0,0.0,1.0,1.0,0.0,36.3,4.12,
16.623,84.18008617343399,79.96465187537851,-1.96,-1.9,0.85,25.0,0.0,0.0,9.0,0.0,1.0,1.0,0.0,33.65,4.12,
16.647,84.15300861734342,79.98746518753785,-2.27,-1.73,1.12,24.0,0.0,0.0,9.0,0.0,1.0,1.0,0.0,32.67,3.73,
16.671,84.12330086173435,80.01674651875379,-1.6,-0.85,1.36,24.0,0.0,0.0,8.0,0.0,1.0,1.0,0.0,32.37,3.14,
16.696,84.12933008617344,80.02867465187538,-2.06,-0.44,1.23,23.0,0.0,0.0,8.0,0.0,1.0,1.0,0.0,32.37,3.63,
16.719,84.12093300861736,80.05686746518754,-3.33,-0.35,0.37,22.0,0.0,0.0,8.0,0.0,1.0,1.0,0.0,32.37,4.41,
16.744,84.16509330086174,80.10468674651875,-3.9,-1.39,-0.17,22.0,0.0,0.0,8.0,0.0,1.0,1.0,0.0,32.37,3.63,
16.769,84.15150933008618,80.12746867465188,-3.79,-1.44,-0.15,21.0,0.0,0.0,8.0,0.0,1.0,1.0,0.0,32.27,1.96,
16.793,84.09615093300863,80.15674686746519,-4.76,-1.6,-0.76,23.0,0.0,0.0,8.0,0.0,1.0,1.0,0.0,32.47,1.77,
16.817,84.05461509330085,80.11467468674653,-5.02,-1.4,-1.05,22.0,0.0,0.0,8.0,0.0,1.0,1.0,0.0,32.86,1.28,
16.841,84.00546150933009,80.09246746867466,-4.82,-1.85,-1.1,24.0,0.0,0.0,8.0,0.0,1.0,1.0,0.0,33.16,0.78,
16.866,84.018546150933,80.08124674686746,-4.5,-1.69,-0.7,23.0,0.0,0.0,8.0,0.0,1.0,1.0,0.0,33.35,0.59,
16.89,84.03785461509331,80.07112467468674,-4.05,-1.76,-0.21,25.0,0.0,0.0,9.0,0.0,1.0,1.0,0.0,33.65,0.78,
16.915,84.04878546150933,80.03411246746867,-2.98,-1.53,0.03,25.0,0.0,0.0,9.0,0.0,1.0,1.0,0.0,33.94,1.47,
16.94,84.01387854615093,80.03041124674687,-2.79,-1.51,-0.26,25.0,0.0,0.0,9.0,0.0,1.0,1.0,0.0,34.14,1.86,
16.964,83.9113878546151,80.00304112467468,-2.89,-1.25,-0.22,25.0,0.0,0.0,9.0,0.0,1.0,1.0,0.0,34.34,1.86,
16.989,83.99113878546152,80.01830411246746,-2.6,-1.79,-0.35,25.0,0.0,0.0,9.0,0.0,1.0,1.0,0.0,34.43,1.47,
17.012,83.92711387854615,80.00183041124674,-2.42,-2.53,-0.42,25.0,0.0,0.0,9.0,0.0,1.0,1.0,0.0,34.43,1.67,
17.037,83.88471138785462,80.04518304112467,-2.77,-0.47,-0.46,26.0,0.0,0.0,9.0,0.0,1.0,1.0,0.0,34.43,2.26,
17.061,83.91647113878547,80.04951830411247,-2.64,-0.05,-0.4,25.0,0.0,0.0,9.0,0.0,1.0,1.0,0.0,34.73,2.16,
17.086,83.93764711387855,80.03195183041124,-2.55,-0.02,-0.35,26.0,0.0,0.0,9.0,0.0,2.0,1.0,0.0,35.12,1.47,
17.111,83.93076471138787,80.03919518304113,-2.46,-1.11,-0.16,26.0,0.0,0.0,9.0,0.0,2.0,1.0,0.0,35.41,1.57,
17.135,83.95707647113878,80.07591951830412,-2.79,-0.89,-0.06,26.0,0.0,0.0,9.0,0.0,2.0,1.0,0.0,35.71,1.57,
17.16,83.95970764711387,80.10659195183041,-2.89,-0.85,0.19,26.0,0.0,0.0,9.0,0.0,2.0,1.0,0.0,35.81,1.28,
17.184,83.9689707647114,80.09165919518304,-3.16,-0.53,0.23,26.0,0.0,0.0,9.0,0.0,2.0,1.0,0.0,36.1,0.98,
17.209,84.04189707647113,80.07216591951831,-3.26,-0.95,0.25,27.0,0.0,0.0,9.0,0.0,2.0,1.0,0.0,36.2,0.98,
17.232,84.1031897076471,80.01621659195183,-3.4,-1.13,0.53,27.0,0.0,0.0,9.0,0.0,2.0,1.0,0.0,36.4,1.37,
17.257,84.0733189707647,80.00162165919518,-3.81,-1.33,0.29,27.0,0.0,0.0,9.0,0.0,2.0,1.0,0.0,36.59,1.96,
17.282,84.01633189707648,79.99116216591952,-4.17,-0.97,0.2,28.0,0.0,0.0,9.0,0.0,2.0,1.0,0.0,36.59,1.77,
17.306,84.01963318970765,80.00811621659196,-4.0,-0.96,-0.05,27.0,0.0,0.0,9.0,0.0,2.0,1.0,0.0,36.59,1.47,
17.331,83.96596331897075,79.9738116216592,-3.88,-0.95,0.23,28.0,0.0,0.0,9.0,0.0,2.0,1.0,0.0,36.69,1.08,
17.355,83.97859633189708,80.01538116216592,-3.5,-0.98,0.34,28.0,0.0,0.0,9.0,0.0,2.0,1.0,0.0,36.79,1.28,
17.379,83.9888596331897,79.97453811621659,-3.38,-0.98,0.31,28.0,0.0,0.0,10.0,0.0,2.0,1.0,0.0,36.98,1.67,
17.403,83.98088596331898,79.91645381162165,-2.73,-0.87,0.02,28.0,0.0,0.0,10.0,0.0,2.0,1.0,0.0,37.28,1.96,
17.428,83.95308859633191,79.88364538116215,-2.66,-0.29,0.06,27.0,0.0,0.0,10.0,0.0,2.0,1.0,0.0,37.47,1.28,
17.453,83.9683088596332,79.86236453811621,-2.96,0.27,-0.3,30.0,0.0,0.0,10.0,0.0,2.0,1.0,0.0,37.96,1.37,
17.477,84.03283088596334,79.88723645381161,-2.96,-0.28,0.23,28.0,0.0,0.0,10.0,0.0,2.0,1.0,0.0,38.36,1.28,
17.502,84.04828308859632,79.88972364538115,-3.56,0.1,0.0,30.0,0.0,0.0,10.0,0.0,2.0,1.0,0.0,38.75,1.08,
17.526,84.04982830885963,79.88997236453811,-3.89,0.04,-0.07,30.0,0.0,0.0,10.0,0.0,2.0,1.0,0.0,39.24,0.88,
17.551,84.12198283088595,79.85399723645381,-3.68,-0.81,-0.08,30.0,0.0,0.0,10.0,0.0,2.0,1.0,0.2,39.63,0.88,
17.575,84.1561982830886,79.85939972364537,-3.89,-0.89,0.02,31.0,0.0,0.0,10.0,0.0,2.0,1.0,0.2,39.93,1.37,
17.6,84.15061982830888,79.87793997236453,-5.03,-0.47,-0.19,31.0,0.0,0.0,10.0,0.0,2.0,1.0,0.39,40.22,1.86,
17.625,84.14106198283089,79.84379399723646,-5.03,-0.42,-0.48,32.0,0.0,0.0,10.0,0.0,2.0,1.0,0.49,40.61,1.57,
17.649,84.2301061982831,79.83137939972364,-4.34,-0.47,-0.11,32.0,0.0,0.0,10.0,0.0,2.0,1.0,0.69,41.1,1.08,
17.674,84.2390106198283,79.81213793997237,-3.87,-0.63,0.16,32.0,0.0,0.0,10.0,0.0,2.0,1.0,1.08,41.59,0.88,
17.698,84.25790106198284,79.80121379399723,-4.45,-0.37,0.46,32.0,0.0,0.0,10.0,0.0,2.0,1.0,1.18,42.08,1.18,
17.723,84.25079010619828,79.73712137939972,-4.22,-0.19,0.16,32.0,0.0,0.0,11.0,0.0,2.0,2.0,1.28,42.58,1.77,
17.746,84.25907901061983,79.74871213793998,-4.02,-0.34,-0.09,32.0,0.0,0.0,11.0,0.0,2.0,2.0,1.47,43.07,0.78,
17.771,84.25090790106198,79.731871213794,-3.75,-0.67,-0.07,34.0,0.0,0.0,11.0,0.0,2.0,2.0,1.57,43.56,0.98,
17.796,84.2500907901062,79.7301871213794,-3.93,-0.53,0.01,34.0,0.0,0.0,11.0,0.0,2.0,2.0,1.77,43.85,1.18,
17.82,84.25900907901062,79.72101871213795,-4.03,-0.84,-0.34,34.0,0.0,0.0,-33.0,0.0,2.0,2.0,1.77,44.24,0.98,
17.846,84.22390090790107,79.6751018712138,-3.24,-0.95,-0.18,34.0,0.0,0.0,-33.0,0.0,2.0,2.0,1.86,44.54,0.49,
17.87,84.2383900907901,79.68851018712138,-2.89,-0.48,0.01,35.0,0.0,0.0,-33.0,0.0,2.0,2.0,2.06,44.83,0.59,
17.895,84.266839009079,79.68985101871215,-2.9,-0.13,-0.06,35.0,0.0,0.0,-33.0,0.0,2.0,2.0,2.06,45.22,0.88,
17.92,84.3146839009079,79.64498510187121,-2.87,0.06,0.05,35.0,0.0,0.0,-33.0,0.0,2.0,2.0,2.16,45.71,1.57,
17.944,84.38246839009079,79.61349851018713,-2.66,-0.27,-0.05,35.0,0.0,0.0,-33.0,0.0,2.0,2.0,2.45,46.3,1.77,
17.969,84.40724683900908,79.61934985101871,-2.42,-0.01,-0.35,35.0,0.0,0.0,-33.0,0.0,2.0,2.0,2.45,46.99,1.67,
17.993,84.4637246839009,79.68293498510187,-2.5,0.06,-0.56,35.0,0.0,0.0,-33.0,0.0,2.0,2.0,2.55,47.38,1.18,
18.018,84.5233724683901,79.74329349851018,-2.73,-0.09,-0.2,35.0,0.0,0.0,-33.0,0.0,2.0,2.0,2.55,47.68,1.47,
18.042,84.556337246839,79.70432934985102,-3.45,-0.66,-0.32,35.0,0.0,0.0,-33.0,0.0,2.0,2.0,2.75,48.07,0.69,
18.067,84.60463372468391,79.6644329349851,-3.26,-0.93,-0.3,37.0,0.0,0.0,-33.0,0.0,2.0,2.0,2.75,48.56,0.29,
18.092,84.6004633724684,79.66044329349852,-2.98,-0.65,-0.4,37.0,0.0,0.0,-33.0,0.0,2.0,2.0,2.84,48.76,0.59,
18.116,84.61804633724684,79.64204432934986,-3.06,-0.37,-0.4,37.0,0.0,0.0,-33.0,0.0,2.0,2.0,2.94,48.95,1.08,
18.141,84.67380463372469,79.59520443293499,-3.28,-0.59,-0.23,37.0,0.0,0.0,-33.0,0.0,2.0,2.0,3.04,49.15,1.37,
18.165,84.70638046337245,79.5995204432935,-3.69,-1.12,0.03,37.0,0.0,0.0,-33.0,0.0,2.0,2.0,3.24,49.34,1.18,
18.19,84.75463804633725,79.55495204432935,-3.63,-1.11,0.08,37.0,0.0,0.0,-33.0,0.0,2.0,2.0,3.34,49.54,1.08,
18.215,84.78646380463373,79.55949520443293,-3.4,-0.96,-0.24,37.0,0.0,0.0,-33.0,0.0,2.0,2.0,3.43,49.74,0.98,
18.24,84.79864638046337,79.5779495204433,-3.54,-1.25,0.03,37.0,0.0,0.0,-33.0,0.0,2.0,2.0,3.53,49.93,1.47,
18.265,84.83586463804635,79.59779495204432,-3.76,-1.37,-0.22,37.0,0.0,0.0,-33.0,0.0,2.0,2.0,3.63,50.03,1.86,
18.289,84.84858646380462,79.59077949520443,-3.76,-0.98,-0.2,39.0,0.0,0.0,-33.0,0.0,2.0,2.0,3.63,50.13,0.88,
18.314,84.86785864638047,79.57207794952043,-4.02,-0.98,0.15,39.0,0.0,0.0,-33.0,0.0,3.0,2.0,3.83,50.42,0.98,
18.338,84.91478586463805,79.50720779495204,-3.4,-1.26,0.21,39.0,0.0,0.0,-33.0,0.0,3.0,2.0,3.83,50.62,1.28,
18.363,84.8654785864638,79.5187207794952,-3.5,-1.56,0.42,39.0,0.0,0.0,-33.0,0.0,3.0,2.0,3.92,50.91,0.98,
18.387,84.85154785864637,79.47487207794951,-4.05,-1.47,-0.15,39.0,0.0,0.0,-33.0,0.0,3.0,2.0,3.92,51.21,0.69,
18.412,84.85015478586463,79.39848720779496,-3.55,-1.18,0.41,35.0,0.0,0.0,-33.0,0.0,3.0,2.0,4.02,51.01,0.88,
18.437,84.89501547858647,79.3998487207795,-3.44,-1.81,0.21,39.0,0.0,0.0,-33.0,0.0,3.0,2.0,4.12,51.01,1.18,
18.461,84.89950154785866,79.43598487207794,-3.34,-1.73,0.5,39.0,0.0,0.0,-33.0,0.0,3.0,2.0,4.02,51.6,1.67,
18.486,84.83695015478585,79.4215984872078,-3.74,-1.96,0.15,39.0,0.0,0.0,-33.0,0.0,3.0,2.0,4.02,50.13,1.86,
18.51,84.82169501547858,79.44715984872079,-3.55,-1.9,0.15,39.0,0.0,0.0,-33.0,0.0,3.0,2.0,4.02,49.64,1.47,
18.535,84.81116950154787,79.44071598487207,-3.43,-2.0,-0.02,39.0,0.0,0.0,-33.0,0.0,3.0,2.0,4.02,49.34,1.28,
18.56,84.82811695015478,79.39507159848722,-3.14,-1.66,-0.21,39.0,0.0,0.0,-33.0,0.0,3.0,2.0,4.02,49.15,1.37,
18.584,84.81181169501548,79.41750715984872,-2.89,-1.76,0.07,39.0,0.0,0.0,-33.0,0.0,3.0,2.0,4.02,49.15,0.88,
18.609,84.75618116950156,79.38375071598486,-2.75,-1.74,0.44,39.0,0.0,0.0,-33.0,0.0,3.0,2.0,3.92,49.05,0.69,
18.633,84.69661811695016,79.33537507159849,-2.79,-1.55,0.71,39.0,0.0,0.0,-33.0,0.0,3.0,2.0,3.92,48.95,1.18,
18.658,84.61866181169502,79.34853750715985,-2.71,-2.13,0.7,39.0,0.0,0.0,-33.0,0.0,3.0,2.0,3.63,48.85,1.86,
18.682,84.5658661811695,79.358853750716,-2.87,-2.0,1.06,39.0,0.0,0.0,-33.0,0.0,3.0,2.0,3.63,48.76,2.06,
18.707,84.60558661811694,79.3688853750716,-3.38,-1.75,0.32,39.0,0.0,0.0,3300.0,0.0,3.0,2.0,3.43,48.27,1.37,
18.732,84.60955866181169,79.41488853750717,-3.18,-1.83,0.11,40.0,0.0,0.0,-33.0,0.0,3.0,2.0,3.43,48.17,1.47,
18.756,84.60095586618117,79.41948885375072,-3.6,-2.06,-0.22,39.0,0.0,0.0,-33.0,0.0,3.0,2.0,3.43,48.07,1.18,
18.781,84.59109558661811,79.37494888537508,-3.75,-1.74,-0.02,39.0,0.0,0.0,-33.0,0.0,3.0,2.0,3.43,47.87,1.77,
18.805,84.54510955866182,79.36149488853751,-3.46,-1.65,-0.18,37.0,0.0,0.0,-33.0,0.0,3.0,2.0,3.53,47.58,2.16,
18.831,84.52251095586618,79.30614948885375,-3.95,-2.05,-0.32,39.0,0.0,0.0,-33.0,0.0,3.0,2.0,3.63,47.48,1.37,
18.855,84.55625109558662,79.30961494888538,-3.79,-1.99,-0.02,39.0,0.0,0.0,-33.0,0.0,3.0,2.0,3.63,47.28,1.57,
18.88,84.61362510955865,79.31896149488853,-3.2,-2.06,0.0,37.0,0.0,0.0,-33.0,0.0,3.0,2.0,3.73,46.89,1.37,
18.905,84.57436251095586,79.32889614948886,-2.63,-1.75,-0.44,40.0,0.0,0.0,-33.0,0.0,3.0,2.0,3.53,46.6,1.08,
18.929,84.5434362510956,79.37488961494887,-2.54,-1.6,-0.24,39.0,0.0,0.0,-33.0,0.0,3.0,2.0,3.43,46.3,0.98,
18.954,84.55834362510956,79.37948896149487,-2.59,-1.83,-0.24,39.0,0.0,0.0,-33.0,0.0,3.0,2.0,3.14,46.21,1.18,
18.978,84.54183436251097,79.3619488961495,-2.71,-2.57,0.02,39.0,0.0,0.0,-33.0,0.0,3.0,2.0,3.04,46.01,1.77,
19.003,84.5221834362511,79.34219488961496,-2.5,-2.44,0.07,37.0,0.0,0.0,-33.0,0.0,3.0,2.0,2.94,45.71,2.06,
19.027,84.5562183436251,79.32221948896148,-2.6,-2.53,-0.01,37.0,0.0,0.0,-33.0,0.0,3.0,2.0,2.84,45.03,2.06,
19.052,84.5326218343625,79.35622194889615,-2.49,-2.72,-0.41,35.0,0.0,0.0,-33.0,0.0,2.0,2.0,2.75,44.34,1.86,
19.077,84.49426218343625,79.36862219488962,-2.65,-2.37,-0.37,35.0,0.0,0.0,-33.0,0.0,2.0,2.0,2.55,43.85,1.47,
19.101,84.40042621834363,79.39686221948897,-2.85,-2.3,-0.76,37.0,0.0,0.0,-33.0,0.0,2.0,2.0,2.45,43.36,1.57,
19.126,84.38204262183436,79.3906862219489,-3.05,-1.69,-0.41,37.0,0.0,0.0,-33.0,0.0,2.0,1.0,2.35,43.07,1.08,
19.151,84.36220426218344,79.42606862219489,-3.27,-1.73,-0.05,39.0,0.0,0.0,-33.0,0.0,2.0,1.0,2.35,42.87,0.98,
19.176,84.37822042621833,79.4206068622195,-3.18,-1.42,0.11,37.0,0.0,0.0,-33.0,0.0,3.0,1.0,2.45,42.67,1.37,
19.201,84.37082204262184,79.40206068622196,-3.17,-1.37,0.24,37.0,0.0,0.0,-33.0,0.0,3.0,2.0,2.55,42.67,1.77,
19.225,84.31608220426219,79.35520606862218,-3.34,-1.39,-0.04,35.0,0.0,0.0,-33.0,0.0,3.0,2.0,2.55,42.67,1.67,
19.25,84.31060822042622,79.34152060686222,-3.16,-1.4,-0.15,37.0,0.0,0.0,-33.0,0.0,3.0,2.0,2.55,42.58,1.37,
19.274,84.31006082204263,79.34015206068622,-3.21,-1.27,-0.01,37.0,0.0,0.0,-33.0,0.0,3.0,2.0,2.65,42.67,1.28,
19.299,84.32800608220427,79.37601520606862,-3.15,-1.46,0.12,35.0,0.0,0.0,-33.0,0.0,3.0,2.0,2.65,42.67,1.37,
19.323,84.24880060822042,79.35260152060685,-3.46,-1.22,0.08,37.0,0.0,0.0,-33.0,0.0,3.0,2.0,2.65,42.77,1.86,
19.348,84.18688006082206,79.36826015206069,-3.28,-1.0,-0.15,37.0,0.0,0.0,-33.0,0.0,3.0,2.0,2.75,42.87,2.06,
19.373,84.26168800608221,79.35182601520606,-3.15,-1.09,0.08,37.0,0.0,0.0,-33.0,0.0,3.0,2.0,2.94,42.97,1.37,
19.397,84.26916880060823,79.34118260152061,-2.85,-1.37,0.24,37.0,0.0,0.0,-33.0,0.0,3.0,2.0,2.84,42.97,1.57,
19.422,84.23391688006082,79.39411826015207,-2.85,-1.09,0.46,37.0,0.0,0.0,-33.0,0.0,3.0,2.0,2.84,43.07,1.37,
19.446,84.23939168800608,79.4084118260152,-2.93,-0.78,0.05,35.0,0.0,0.0,-33.0,0.0,3.0,2.0,2.94,43.07,0.98,
19.471,84.2399391688006,79.40984118260151,-2.78,-0.86,-0.04,37.0,0.0,0.0,-33.0,0.0,3.0,2.0,2.94,43.16,0.98,
19.495,84.27599391688007,79.33798411826015,-2.79,-0.72,-0.38,37.0,0.0,0.0,-33.0,0.0,3.0,2.0,2.94,43.36,1.28,
19.52,84.25259939168801,79.36679841182603,-2.87,-0.94,-0.34,37.0,0.0,0.0,-33.0,0.0,2.0,2.0,2.75,43.36,1.77,
19.545,84.2322599391688,79.4146798411826,-2.34,-0.92,-0.38,37.0,0.0,0.0,-33.0,0.0,2.0,2.0,2.84,43.46,1.86,
19.569,84.24822599391688,79.43746798411826,-2.07,-1.02,-0.22,37.0,0.0,0.0,-33.0,0.0,2.0,2.0,2.84,43.56,1.57,
19.595,84.27682259939169,79.52074679841182,-2.27,-1.24,-0.24,37.0,0.0,0.0,-33.0,0.0,2.0,1.0,2.75,43.65,1.47,
19.619,84.27968225993916,79.52007467984117,-1.9,-0.98,-0.28,37.0,0.0,0.0,-33.0,0.0,2.0,1.0,2.75,43.65,1.28,
19.644,84.28896822599393,79.56500746798412,-1.82,-0.99,-0.26,37.0,0.0,0.0,-33.0,0.0,2.0,1.0,2.65,43.56,1.37,
19.668,84.34389682259939,79.56950074679841,-1.47,-0.53,0.04,37.0,0.0,0.0,-33.0,0.0,2.0,1.0,2.45,43.46,0.78,
19.693,84.37638968225993,79.64195007467984,-1.66,-0.18,0.22,37.0,0.0,0.0,-33.0,0.0,2.0,1.0,2.55,43.56,0.98,
19.718,84.442638968226,79.64919500746798,-1.56,0.22,0.19,37.0,0.0,0.0,-33.0,0.0,2.0,1.0,2.45,43.65,1.47,
19.742,84.5122638968226,79.70391950074679,-1.8,0.05,0.04,37.0,0.0,0.0,-33.0,0.0,2.0,1.0,2.35,43.65,1.67,
19.767,84.52822638968226,79.73639195007468,-2.4,0.31,0.14,37.0,0.0,0.0,-33.0,0.0,2.0,1.0,2.45,43.95,1.57,
19.791,84.56582263896823,79.77563919500747,-2.5,0.04,0.25,37.0,0.0,0.0,-33.0,0.0,2.0,1.0,2.45,44.34,1.18,
19.815,84.62358226389682,79.78856391950075,-2.76,-0.34,0.23,37.0,0.0,0.0,-33.0,0.0,2.0,1.0,2.45,44.73,1.28,
19.841,84.65635822638968,79.78085639195008,-2.71,-0.2,-0.22,37.0,0.0,0.0,-33.0,0.0,2.0,1.0,2.55,45.03,1.57,
19.865,84.67763582263898,79.762085639195,-2.79,-0.51,-0.16,37.0,0.0,0.0,-33.0,0.0,2.0,1.0,2.55,45.22,2.16,
19.89,84.6977635822639,79.8412085639195,-3.05,-1.11,-0.21,37.0,0.0,0.0,-33.0,0.0,2.0,1.0,2.55,45.42,2.06,
19.914,84.72677635822639,79.91212085639195,-3.54,-1.42,-0.49,39.0,0.0,0.0,-33.0,0.0,2.0,1.0,2.75,45.62,1.77,
19.939,84.69367763582264,79.91921208563919,-3.73,-1.53,-0.57,39.0,0.0,0.0,-33.0,0.0,2.0,1.0,2.94,45.71,1.47,
19.963,84.69036776358226,79.87492120856393,-3.54,-1.29,-0.92,39.0,0.0,0.0,-33.0,0.0,2.0,1.0,3.14,45.91,0.98,
19.988,84.69003677635823,79.88849212085638,-3.33,-1.27,-0.36,37.0,0.0,0.0,-33.0,0.0,2.0,1.0,3.24,46.11,0.69,
20.013,84.68100367763583,79.85384921208563,-3.07,-1.23,-0.21,39.0,0.0,0.0,-33.0,0.0,2.0,1.0,3.14,46.21,0.78,
20.037,84.67110036776359,79.84138492120857,-3.22,-1.12,-0.4,39.0,0.0,0.0,-33.0,0.0,2.0,1.0,3.24,46.21,1.18,
20.062,84.73311003677635,79.86713849212086,-2.79,-1.24,0.05,39.0,0.0,0.0,-33.0,0.0,2.0,1.0,3.24,46.3,1.77,
20.086,84.73031100367764,79.88771384921208,-2.57,-0.82,-0.08,39.0,0.0,0.0,-33.0,0.0,2.0,1.0,3.24,46.3,1.77,
20.111,84.76603110036775,79.8897713849212,-2.85,-0.76,0.13,39.0,0.0,0.0,-33.0,0.0,2.0,1.0,3.24,46.4,1.47,
20.135,84.80560311003678,79.86297713849211,-2.69,-0.73,0.35,39.0,0.0,0.0,-33.0,0.0,2.0,1.0,3.14,46.5,1.18,
20.16,84.84556031100367,79.87829771384921,-3.19,-0.92,0.15,39.0,0.0,0.0,-33.0,0.0,2.0,1.0,3.24,46.79,1.37,
20.185,84.84955603110036,79.86182977138492,-3.45,-0.95,-0.02,39.0,0.0,0.0,-33.0,0.0,2.0,1.0,3.34,46.89,1.77,
20.21,84.84995560311003,79.86918297713851,-3.31,-0.91,-0.01,39.0,0.0,0.0,-33.0,0.0,2.0,1.0,3.43,47.28,0.78,
20.235,84.81399556031101,79.89691829771385,-3.31,-1.0,0.24,39.0,0.0,0.0,-33.0,0.0,2.0,1.0,3.53,47.58,0.88,
20.259,84.8373995560311,79.86369182977138,-3.97,-1.14,0.21,39.0,0.0,0.0,-33.0,0.0,2.0,1.0,3.73,47.77,1.28,
20.284,84.84873995560311,79.85136918297714,-4.47,-1.02,-0.38,39.0,0.0,0.0,-33.0,0.0,2.0,1.0,3.73,48.07,1.47,
20.308,84.8768739955603,79.85013691829771,-4.35,-1.1,-0.31,40.0,0.0,0.0,-33.0,0.0,2.0,1.0,3.83,48.56,1.08,
20.333,84.95168739955602,79.82301369182976,-3.82,-1.31,0.21,40.0,0.0,0.0,-33.0,0.0,2.0,1.0,4.12,48.95,0.69,
20.358,84.8601687399556,79.81130136918298,-3.94,-1.62,0.34,40.0,0.0,0.0,-33.0,0.0,3.0,1.0,4.32,49.15,0.98,
20.382,84.77901687399554,79.77413013691829,-3.36,-1.33,0.06,39.0,0.0,0.0,-33.0,0.0,3.0,1.0,4.41,49.15,1.37,
20.407,84.80690168739956,79.77941301369184,-3.11,-1.25,-0.02,40.0,0.0,0.0,-33.0,0.0,3.0,1.0,4.41,49.34,1.77,
20.431,84.80069016873995,79.78894130136919,-2.86,-1.0,0.29,40.0,0.0,0.0,-33.0,0.0,3.0,1.0,4.51,49.44,1.77,
20.456,84.80006901687399,79.82589413013692,-3.17,-0.85,0.0,40.0,0.0,0.0,-33.0,0.0,3.0,2.0,4.41,49.44,1.37,
20.481,84.75500690168741,79.79358941301369,-3.05,-1.3,0.02,40.0,0.0,0.0,-33.0,0.0,3.0,2.0,4.51,49.64,1.67,
20.505,84.72350069016875,79.74535894130136,-2.83,-1.13,0.21,40.0,0.0,0.0,-33.0,0.0,3.0,2.0,4.51,49.64,1.18,
20.53,84.75635006901688,79.72253589413015,-2.6,-1.3,-0.09,40.0,0.0,0.0,-33.0,0.0,3.0,2.0,4.51,49.64,0.69,
20.554,84.74163500690167,79.72925358941302,-2.47,-1.2,-0.45,40.0,0.0,0.0,-33.0,0.0,3.0,2.0,4.51,49.83,0.78,
20.579,84.74916350069017,79.7299253589413,-2.48,-1.48,-0.19,40.0,0.0,0.0,-33.0,0.0,2.0,1.0,4.41,49.83,1.37,
20.603,84.77691635006903,79.69399253589413,-2.44,-1.67,-0.19,40.0,0.0,0.0,-33.0,0.0,2.0,1.0,4.32,49.74,1.67,
20.628,84.8426916350069,79.7353992535894,-2.19,-1.34,0.2,40.0,0.0,0.0,-33.0,0.0,2.0,1.0,4.22,49.54,1.67,
20.653,84.82226916350068,79.75753992535894,-2.4,-1.38,0.08,40.0,0.0,0.0,-33.0,0.0,2.0,1.0,4.02,49.44,1.57,
20.677,84.82022691635007,79.79575399253588,-2.82,-1.51,-0.08,40.0,0.0,0.0,-33.0,0.0,2.0,1.0,3.83,49.25,1.47,
20.702,84.874022691635,79.7815753992536,-2.5,-1.54,0.15,40.0,0.0,0.0,-33.0,0.0,2.0,1.0,3.83,49.05,1.57,
20.726,84.8434022691635,79.80715753992537,-3.37,-1.66,0.17,40.0,0.0,0.0,-33.0,0.0,2.0,1.0,3.73,48.95,1.96,
20.751,84.81334022691635,79.80971575399255,-3.92,-1.43,0.0,40.0,0.0,0.0,-33.0,0.0,2.0,1.0,3.92,48.85,1.28,
20.775,84.79233402269165,79.80997157539926,-3.91,-1.32,-0.02,40.0,0.0,0.0,-33.0,0.0,3.0,1.0,4.02,48.85,1.28,
20.8,84.81723340226915,79.78299715753994,-4.09,-1.47,0.17,39.0,0.0,0.0,-33.0,0.0,3.0,2.0,4.12,48.85,1.37,
20.825,84.87372334022692,79.77129971575398,-4.48,-1.62,-0.1,40.0,0.0,0.0,-33.0,0.0,3.0,2.0,4.32,48.95,1.28,
20.85,84.8703723340227,79.7251299715754,-4.28,-1.5,-0.19,42.0,0.0,0.0,-33.0,0.0,3.0,2.0,4.51,49.25,0.88,
20.875,84.82503723340227,79.69351299715754,-4.26,-1.73,0.19,40.0,0.0,0.0,-33.0,0.0,3.0,2.0,4.71,49.34,0.69,
20.899,84.77550372334022,79.66335129971576,-4.18,-1.62,0.11,40.0,0.0,0.0,-33.0,0.0,3.0,2.0,4.81,49.54,1.08,
20.924,84.75255037233403,79.62433512997157,-3.64,-1.73,-0.21,40.0,0.0,0.0,-33.0,0.0,3.0,2.0,4.91,49.64,1.57,
20.948,84.7232550372334,79.59343351299715,-3.92,-1.35,-0.18,40.0,0.0,0.0,-33.0,0.0,3.0,2.0,5.0,49.74,1.86,
20.973,84.72032550372334,79.57234335129971,-3.9,-1.24,-0.32,40.0,0.0,0.0,-33.0,0.0,3.0,2.0,5.1,49.83,1.67,
20.998,84.72003255037234,79.50723433512997,-3.29,-1.27,0.09,40.0,0.0,0.0,-33.0,0.0,3.0,2.0,5.1,49.83,1.37,
21.022,84.69300325503724,79.46472343351299,-3.11,-1.53,-0.09,40.0,0.0,0.0,-33.0,0.0,3.0,2.0,5.2,49.93,1.47,
21.047,84.65430032550373,79.4874723433513,-3.08,-1.22,-0.11,42.0,0.0,0.0,-33.0,0.0,3.0,2.0,5.2,49.93,0.88,
21.071,84.65943003255038,79.56174723433513,-2.95,-0.8,-0.23,40.0,0.0,0.0,-33.0,0.0,3.0,2.0,5.1,49.93,0.49,
21.096,84.67794300325504,79.5511747234335,-2.99,-1.01,-0.04,40.0,0.0,0.0,-33.0,0.0,3.0,2.0,5.1,49.93,0.88,
21.121,84.7067943003255,79.59511747234335,-2.85,-1.25,-0.08,40.0,0.0,0.0,-33.0,0.0,3.0,2.0,5.1,49.93,1.37,
21.146,84.66467943003255,79.56351174723433,-2.88,-1.31,0.21,40.0,0.0,0.0,-33.0,0.0,3.0,2.0,5.0,49.93,1.86,
21.171,84.69646794300326,79.55135117472344,-3.27,-1.11,-0.37,40.0,0.0,0.0,-33.0,0.0,3.0,2.0,5.0,49.93,1.47,
21.195,84.72664679430034,79.54113511747235,-3.79,-1.32,-0.19,40.0,0.0,0.0,-33.0,0.0,3.0,2.0,5.0,50.03,1.08,
21.22,84.77466467943003,79.57611351174724,-3.82,-1.55,0.03,42.0,0.0,0.0,-33.0,0.0,3.0,2.0,5.1,50.33,1.18,
21.244,84.743466467943,79.54361135117473,-3.67,-1.98,-0.16,42.0,0.0,0.0,-33.0,0.0,3.0,2.0,5.3,50.33,1.57,
21.269,84.73134664679431,79.54036113511748,-3.95,-1.75,-0.32,42.0,0.0,0.0,-33.0,0.0,3.0,2.0,5.3,50.33,1.96,
21.294,84.69413466467944,79.53103611351175,-4.05,-1.72,0.12,40.0,0.0,0.0,-33.0,0.0,3.0,2.0,5.4,50.42,1.28,
21.318,84.70841346646793,79.55710361135117,-3.59,-1.5,0.33,40.0,0.0,0.0,-33.0,0.0,3.0,2.0,5.4,50.23,1.47,
21.343,84.6828413466468,79.53271036113512,-4.05,-1.58,0.4,40.0,0.0,0.0,-33.0,0.0,3.0,2.0,5.49,50.23,1.47,
21.367,84.71628413466468,79.5302710361135,-3.98,-1.24,0.28,42.0,0.0,0.0,-33.0,0.0,3.0,2.0,5.49,50.33,1.08,
21.392,84.76462841346645,79.47602710361134,-3.55,-1.24,0.05,42.0,0.0,0.0,-33.0,0.0,3.0,2.0,5.59,50.33,0.78,
21.416,84.76046284134665,79.47060271036113,-3.21,-1.66,0.33,42.0,0.0,0.0,-33.0,0.0,3.0,2.0,5.69,50.23,1.08,
21.441,84.70604628413467,79.50606027103612,-3.3,-1.41,0.19,42.0,0.0,0.0,-33.0,0.0,3.0,2.0,5.59,50.13,1.57,
21.466,84.70960462841346,79.4466060271036,-3.51,-1.8,-0.08,42.0,0.0,0.0,-33.0,0.0,3.0,2.0,5.69,50.13,1.86,
21.49,84.72796046284135,79.44066060271035,-3.14,-1.74,-0.11,42.0,0.0,0.0,-33.0,0.0,3.0,2.0,5.69,50.03,1.96,
21.515,84.70279604628413,79.43106606027104,-3.2,-2.0,0.11,42.0,0.0,0.0,-33.0,0.0,3.0,2.0,5.69,49.93,1.47,
21.539,84.75427960462842,79.50210660602711,-3.12,-1.88,0.06,42.0,0.0,0.0,-33.0,0.0,3.0,2.0,5.59,49.74,1.28,
21.564,84.72342796046284,79.50921066060272,-3.14,-2.08,0.27,40.0,0.0,0.0,-33.0,0.0,3.0,2.0,5.59,49.74,1.47,
21.588,84.72034279604628,79.50992106606029,-3.25,-2.21,0.01,40.0,0.0,0.0,-33.0,0.0,3.0,2.0,5.49,49.44,0.88,
21.613,84.71103427960462,79.54599210660602,-3.3,-2.33,-0.11,42.0,0.0,0.0,-33.0,0.0,3.0,2.0,5.3,49.05,0.88,
21.638,84.66510342796046,79.5675992106606,-3.79,-2.4,-0.23,40.0,0.0,0.0,-33.0,0.0,3.0,2.0,5.2,48.66,1.28,
21.662,84.69651034279605,79.54275992106608,-3.89,-2.94,-0.21,40.0,0.0,0.0,-33.0,0.0,3.0,2.0,5.1,48.17,1.67,
21.687,84.67265103427961,79.51327599210661,-4.11,-3.01,-0.6,40.0,0.0,0.0,-33.0,0.0,3.0,2.0,5.1,47.77,1.57,
21.711,84.57126510342796,79.46532759921065,-4.6,-3.01,-0.85,40.0,0.0,0.0,-33.0,0.0,3.0,2.0,5.3,47.19,1.28,
21.737,84.4891265103428,79.41553275992106,-4.98,-2.95,-0.39,40.0,0.0,0.0,-33.0,0.0,3.0,2.0,5.2,46.89,1.08,
21.762,84.43591265103429,79.39255327599211,-4.79,-2.73,-0.57,40.0,0.0,0.0,-33.0,0.0,3.0,2.0,5.3,46.6,1.37,
21.786,84.41259126510342,79.33625532759922,-4.24,-2.53,-0.31,40.0,0.0,0.0,-33.0,0.0,3.0,2.0,5.4,46.3,1.67,
21.811,84.34725912651035,79.35762553275993,-3.9,-2.12,-0.22,40.0,0.0,0.0,-33.0,0.0,3.0,2.0,5.4,45.91,2.06,
21.835,84.35872591265104,79.332762553276,-3.31,-2.04,-0.02,40.0,0.0,0.0,-33.0,0.0,3.0,2.0,5.4,45.62,1.77,
21.86,84.3328725912651,79.3302762553276,-3.08,-1.92,0.24,40.0,0.0,0.0,-33.0,0.0,3.0,2.0,5.3,45.42,1.77,
21.884,84.33928725912651,79.27602762553276,-3.21,-1.35,-0.08,40.0,0.0,0.0,-33.0,0.0,3.0,2.0,5.3,45.42,1.47,
21.909,84.36692872591266,79.25260276255328,-2.97,-1.15,0.08,40.0,0.0,0.0,-33.0,0.0,3.0,2.0,5.2,45.42,0.98,
21.934,84.37869287259126,79.23226027625533,-3.11,-1.49,0.34,40.0,0.0,0.0,3300.0,0.0,3.0,2.0,5.1,45.42,0.88,
21.958,84.33486928725912,79.21222602762553,-2.54,-1.34,0.44,40.0,0.0,0.0,-33.0,0.0,3.0,2.0,5.1,45.22,0.98,
21.983,84.29448692872592,79.25522260276256,-2.49,-1.48,0.32,40.0,0.0,0.0,-33.0,0.0,3.0,2.0,4.91,45.13,1.67,
22.007,84.2814486928726,79.30452226027626,-2.79,-1.15,-0.05,39.0,0.0,0.0,-33.0,0.0,3.0,2.0,4.81,44.93,2.16,
22.032,84.27114486928727,79.31845222602762,-2.55,-1.21,0.2,39.0,0.0,0.0,-33.0,0.0,3.0,2.0,4.71,44.73,2.16,
22.056,84.27011448692873,79.30184522260276,-2.41,-1.45,0.29,40.0,0.0,0.0,-33.0,0.0,3.0,2.0,4.61,44.54,1.57,
22.081,84.27001144869287,79.29118452226028,-2.25,-1.62,0.18,39.0,0.0,0.0,-33.0,0.0,3.0,2.0,4.51,44.34,1.57,
22.106,84.22500114486928,79.31711845222601,-2.53,-1.68,-0.05,40.0,0.0,0.0,-33.0,0.0,3.0,2.0,4.41,44.05,1.67,
22.13,84.23850011448692,79.2837118452226,-2.18,-1.69,-0.07,39.0,0.0,0.0,-33.0,0.0,3.0,2.0,4.32,43.75,1.08,
22.156,84.2848500114487,79.29837118452227,-2.23,-2.1,-0.02,39.0,0.0,0.0,-33.0,0.0,3.0,2.0,4.12,43.46,1.18,
22.18,84.26248500114487,79.29983711845223,-2.72,-1.93,0.02,39.0,0.0,0.0,-33.0,0.0,3.0,2.0,4.02,42.87,1.57,
22.205,84.28724850011449,79.33598371184523,-3.07,-1.58,-0.3,39.0,0.0,0.0,-33.0,0.0,3.0,2.0,3.92,42.67,1.86,
22.23,84.29872485001145,79.36659837118452,-3.29,-2.2,-0.08,39.0,0.0,0.0,-33.0,0.0,3.0,2.0,3.83,42.28,1.67,
22.254,84.28187248500114,79.37865983711845,-3.33,-1.69,-0.3,37.0,0.0,0.0,-33.0,0.0,3.0,2.0,3.73,42.08,1.28,
22.279,84.23518724850011,79.39786598371185,-3.13,-2.27,-0.26,37.0,0.0,0.0,-33.0,0.0,3.0,2.0,3.73,41.79,1.28,
22.303,84.19451872485001,79.4177865983712,-3.02,-1.81,-0.16,37.0,0.0,0.0,-33.0,0.0,3.0,2.0,3.53,41.59,1.67,
22.328,84.145451872485,79.40177865983712,-3.18,-1.85,-0.13,37.0,0.0,0.0,-33.0,0.0,3.0,2.0,3.53,41.4,2.06,
22.352,84.11354518724849,79.40917786598371,-2.97,-1.6,-0.2,37.0,0.0,0.0,-33.0,0.0,3.0,2.0,3.53,41.3,2.26,
22.377,84.13735451872485,79.34691778659837,-2.84,-1.66,-0.46,39.0,0.0,0.0,-33.0,0.0,2.0,2.0,3.53,41.2,1.86,
22.402,84.1217354518725,79.31369177865984,-2.77,-1.57,-0.3,37.0,0.0,0.0,-33.0,0.0,2.0,1.0,3.43,41.1,1.86,
22.427,84.05717354518724,79.292369177866,-2.79,-1.19,-0.39,37.0,0.0,0.0,-33.0,0.0,2.0,1.0,3.43,41.01,1.47,
22.452,84.05071735451872,79.3262369177866,-2.48,-1.12,-0.38,40.0,0.0,0.0,-33.0,0.0,2.0,1.0,3.43,41.1,0.88,
22.476,84.05907173545188,79.32962369177866,-2.36,-1.1,-0.3,37.0,0.0,0.0,-33.0,0.0,2.0,1.0,3.34,41.2,0.78,
22.501,83.99690717354518,79.30296236917786,-2.74,-0.79,-0.47,37.0,0.0,0.0,-33.0,0.0,2.0,1.0,3.34,41.2,1.28,
22.525,84.00869071735453,79.30029623691779,-2.08,-0.73,-0.39,35.0,0.0,0.0,-33.0,0.0,2.0,1.0,3.34,41.3,1.77,
22.55,84.07286907173545,79.30002962369178,-1.53,-1.18,0.29,37.0,0.0,0.0,-33.0,0.0,2.0,1.0,3.14,41.4,1.86,
22.575,84.07028690717354,79.31800296236916,-2.18,-0.82,-0.13,37.0,0.0,0.0,-33.0,0.0,2.0,1.0,3.14,41.4,1.86,
22.599,84.03402869071736,79.3468002962369,-2.18,-0.77,0.01,37.0,0.0,0.0,-33.0,0.0,2.0,1.0,2.84,41.5,1.47,
22.624,84.03040286907175,79.40368002962369,-1.92,-0.98,0.18,40.0,0.0,0.0,-33.0,0.0,2.0,1.0,2.84,41.4,1.47,
22.648,84.06604028690717,79.42736800296238,-2.04,-1.21,0.12,37.0,0.0,0.0,-33.0,0.0,2.0,1.0,2.75,41.3,1.37,
22.673,84.06060402869073,79.43873680029623,-2.22,-1.4,0.11,37.0,0.0,0.0,-33.0,0.0,2.0,1.0,2.65,41.2,1.28,
22.697,84.13206040286907,79.52087368002962,-2.02,-1.62,0.53,40.0,0.0,0.0,-33.0,0.0,2.0,1.0,2.45,41.01,1.08,
22.722,84.15720604028691,79.53808736800298,-2.26,-1.31,-0.16,37.0,0.0,0.0,-33.0,0.0,2.0,1.0,2.45,40.91,1.67,
22.747,84.16872060402869,79.5308087368003,-2.49,-0.95,-0.52,37.0,0.0,0.0,-33.0,0.0,2.0,1.0,2.26,40.91,1.86,
22.771,84.16987206040287,79.55708087368002,-2.64,-1.22,-0.55,39.0,0.0,0.0,-33.0,0.0,2.0,1.0,2.26,40.91,1.47,
22.796,84.16998720604029,79.631708087368,-2.63,-1.11,-0.45,37.0,0.0,0.0,-33.0,0.0,2.0,1.0,2.26,40.91,1.08,
22.821,84.12499872060404,79.6301708087368,-2.76,-1.02,-0.4,37.0,0.0,0.0,-33.0,0.0,2.0,1.0,2.26,40.91,1.18,
22.846,84.09349987206042,79.63901708087369,-2.53,-1.65,-0.43,35.0,0.0,0.0,-33.0,0.0,2.0,1.0,2.26,41.01,1.77,
22.871,84.05434998720604,79.66690170808737,-1.91,-1.6,-0.63,37.0,0.0,0.0,-33.0,0.0,2.0,1.0,2.26,41.01,2.35,
22.895,83.9964349987206,79.73269017080872,-2.14,-1.02,-0.97,37.0,0.0,0.0,-33.0,0.0,2.0,1.0,2.06,41.01,2.26,
22.92,84.00864349987206,79.73026901708087,-2.4,-0.86,-0.89,37.0,0.0,0.0,-33.0,0.0,2.0,1.0,1.77,41.1,1.86,
22.944,84.00086434998721,79.71202690170807,-1.82,-0.79,-0.82,35.0,0.0,0.0,-33.0,0.0,2.0,1.0,1.67,41.1,1.57,
22.969,84.03608643499874,79.7102026901708,-1.63,-0.58,-0.21,35.0,0.0,0.0,-33.0,0.0,2.0,1.0,1.47,41.2,1.18,
22.993,84.07560864349986,79.72802026901708,-1.56,0.09,0.08,37.0,0.0,0.0,-33.0,0.0,2.0,1.0,1.28,41.2,0.98,
23.018,84.03456086435,79.80180202690171,-1.34,0.04,-0.3,35.0,0.0,0.0,-33.0,0.0,2.0,1.0,1.18,41.2,1.18,
23.043,84.093456086435,79.86318020269017,-2.05,0.63,-0.91,35.0,0.0,0.0,-33.0,0.0,2.0,1.0,0.98,41.3,1.77,
23.067,84.13534560864349,79.90531802026901,-1.69,0.87,-1.3,35.0,0.0,0.0,-33.0,0.0,2.0,1.0,0.98,41.5,2.35,
23.092,84.19353456086435,79.94553180202689,-1.25,1.21,-0.68,35.0,0.0,0.0,-33.0,0.0,2.0,1.0,0.98,41.89,2.35,
23.116,84.23535345608644,79.98555318020269,-0.39,2.53,0.08,35.0,0.0,0.0,11.0,0.0,2.0,1.0,0.98,41.89,2.35,
23.141,84.31153534560863,79.98955531802027,0.92,4.02,1.18,34.0,0.0,0.0,10.0,0.0,2.0,1.0,0.88,42.28,1.96,
23.165,84.51715353456088,79.99895553180203,1.91,4.28,2.96,34.0,0.0,0.0,10.0,0.0,2.0,1.0,0.98,42.87,2.45,
23.19,84.63671535345608,80.1168955531802,2.43,4.56,3.29,31.0,0.0,0.0,10.0,0.0,1.0,1.0,0.78,43.56,2.75,
23.214,84.7026715353456,80.32668955531801,2.15,3.96,3.92,32.0,0.0,0.0,10.0,0.0,1.0,1.0,0.49,44.34,3.24,
23.238,84.76326715353456,80.4826689555318,1.6,3.93,3.34,34.0,0.0,0.0,10.0,0.0,1.0,1.0,0.29,45.03,2.84,
23.263,84.91332671535346,80.66026689555319,0.75,2.58,2.14,31.0,0.0,0.0,10.0,0.0,1.0,1.0,0.2,45.62,3.34,
23.287,85.13533267153535,80.76802668955531,-0.93,0.98,2.03,31.0,0.0,0.0,10.0,0.0,1.0,1.0,0.1,46.21,3.53,
23.311,85.22053326715354,80.79680266895554,-2.6,-0.5,1.18,32.0,0.0,0.0,10.0,0.0,1.0,1.0,0.0,46.7,2.35,
23.335,85.30105332671536,80.81768026689555,-4.0,-1.89,0.0,32.0,0.0,0.0,10.0,0.0,1.0,1.0,0.1,47.28,1.18,
23.36,85.30910533267155,80.80176802668956,-4.51,-3.32,-1.43,34.0,0.0,0.0,10.0,0.0,1.0,1.0,0.29,47.38,0.98,
23.385,85.29191053326716,80.82717680266896,-4.74,-4.11,-1.72,34.0,0.0,0.0,10.0,0.0,1.0,1.0,0.59,47.48,1.37,
23.409,85.27219105332671,80.8207176802669,-5.57,-5.37,-1.98,34.0,0.0,0.0,10.0,0.0,1.0,1.0,0.49,47.28,1.57,
23.434,85.22521910533268,80.8200717680267,-5.63,-3.98,-1.51,34.0,0.0,0.0,10.0,0.0,1.0,1.0,0.49,46.79,1.28,
23.458,85.16652191053328,80.79300717680267,-5.75,-3.73,-0.92,35.0,0.0,0.0,10.0,0.0,1.0,1.0,0.69,46.3,0.98,
23.483,85.11565219105333,80.71830071768026,-5.73,-3.42,-0.68,35.0,0.0,0.0,10.0,0.0,1.0,1.0,0.78,45.81,1.18,
23.507,85.04756521910534,80.68383007176803,-6.13,-3.85,-0.33,35.0,0.0,0.0,10.0,0.0,2.0,1.0,0.98,45.42,1.28,
23.532,84.94175652191055,80.61738300717681,-6.72,-3.4,-0.13,35.0,0.0,0.0,11.0,0.0,2.0,1.0,1.18,45.13,1.57,
23.557,84.87717565219106,80.50273830071768,-7.31,-2.92,-0.54,37.0,0.0,0.0,-33.0,0.0,2.0,1.0,1.37,45.13,0.78,
23.581,84.8797175652191,80.44627383007176,-6.69,-2.57,-0.1,37.0,0.0,0.0,-33.0,0.0,2.0,1.0,1.77,45.32,0.39,
23.606,84.86197175652191,80.35962738300717,-6.57,-2.79,0.45,35.0,0.0,0.0,-33.0,0.0,2.0,1.0,2.16,45.62,0.78,
23.63,84.7701971756522,80.23396273830072,-5.79,-3.06,0.93,37.0,0.0,0.0,-33.0,0.0,2.0,1.0,2.55,45.91,0.98,
23.655,84.75201971756522,80.14039627383008,-5.56,-2.21,0.96,39.0,0.0,0.0,-33.0,0.0,2.0,1.0,2.75,46.21,0.78,
23.68,84.69620197175652,80.032039627383,-5.07,-1.89,0.56,39.0,0.0,0.0,-33.0,0.0,2.0,1.0,2.94,46.6,0.78,
23.704,84.69962019717565,79.9852039627383,-4.44,-2.07,0.63,39.0,0.0,0.0,-33.0,0.0,2.0,1.0,3.24,46.99,1.37,
23.729,84.62796201971756,80.00752039627383,-4.82,-1.83,0.79,39.0,0.0,0.0,-33.0,0.0,2.0,1.0,3.43,47.28,1.67,
23.753,84.65679620197176,79.94675203962738,-5.39,-1.68,0.62,39.0,0.0,0.0,-33.0,0.0,2.0,2.0,3.73,47.68,1.77,
23.778,84.69567962019718,79.87767520396275,-5.47,-1.9,0.42,39.0,0.0,0.0,-33.0,0.0,2.0,2.0,3.83,48.07,1.18,
23.802,84.62756796201973,79.84376752039628,-6.08,-2.76,0.52,39.0,0.0,0.0,-33.0,0.0,2.0,2.0,4.02,48.36,0.78,
23.827,84.55775679620197,79.77737675203961,-6.5,-3.2,0.09,40.0,0.0,0.0,-33.0,0.0,2.0,2.0,4.22,48.76,1.47,
23.852,84.49677567962019,79.63573767520396,-7.59,-3.56,-0.25,40.0,0.0,0.0,-33.0,0.0,2.0,2.0,4.51,48.95,0.49,
23.876,84.48167756796202,79.55857376752039,-8.67,-3.88,-1.0,40.0,0.0,0.0,-33.0,0.0,2.0,2.0,4.91,49.25,0.1,
23.902,84.46216775679619,79.49685737675203,-8.47,-4.3,-0.92,42.0,0.0,0.0,-33.0,0.0,3.0,2.0,5.3,49.54,0.49,
23.926,84.41521677567961,79.41868573767519,-7.58,-4.71,-0.41,40.0,0.0,0.0,-33.0,0.0,3.0,2.0,5.69,49.64,0.69,
23.951,84.29352167756797,79.37486857376753,-7.37,-4.31,-0.38,42.0,0.0,0.0,-33.0,0.0,3.0,2.0,6.18,49.64,0.59,
23.975,84.25435216775679,79.28948685737676,-6.85,-3.8,-0.28,42.0,0.0,0.0,-33.0,0.0,3.0,2.0,6.67,49.93,0.49,
24.0,84.20543521677568,79.12794868573768,-6.44,-3.6,-0.06,42.0,0.0,0.0,-33.0,0.0,3.0,2.0,6.97,50.13,0.2,
24.025,84.13754352167757,79.01279486857378,-6.29,-3.4,-0.17,44.0,0.0,0.0,-33.0,0.0,3.0,2.0,7.36,50.23,0.59,
24.049,84.11275435216776,78.94727948685738,-5.63,-3.3,0.35,44.0,0.0,0.0,-33.0,0.0,3.0,3.0,7.55,50.23,1.18,
24.074,84.09227543521679,78.87772794868575,-4.96,-3.47,0.47,42.0,0.0,0.0,-33.0,0.0,3.0,3.0,7.75,50.13,1.77,
24.098,84.01822754352169,78.88877279486857,-5.29,-3.06,1.18,44.0,0.0,0.0,-33.0,0.0,3.0,3.0,7.75,50.13,0.59,
24.123,83.96582275435216,78.80887727948686,-4.98,-2.79,0.89,44.0,0.0,0.0,-33.0,0.0,3.0,3.0,7.95,50.23,1.18,
24.147,83.95158227543521,78.71088772794869,-4.98,-2.15,0.66,44.0,0.0,0.0,-33.0,0.0,3.0,3.0,8.04,50.33,1.18,
24.172,83.89615822754352,78.65608877279487,-4.86,-2.74,0.34,44.0,0.0,0.0,-33.0,0.0,3.0,3.0,8.14,50.33,1.08,
24.197,83.78261582275435,78.61460887727948,-5.08,-2.92,0.52,44.0,0.0,0.0,-33.0,0.0,3.0,3.0,8.34,50.23,0.88,
24.221,83.78026158227543,78.53846088772795,-4.65,-2.47,0.44,44.0,0.0,0.0,-33.0,0.0,3.0,3.0,8.34,50.23,0.98,
24.246,83.71702615822754,78.5128460887728,-4.79,-2.21,0.66,44.0,0.0,0.0,-33.0,0.0,3.0,3.0,8.63,50.13,1.28,
24.27,83.23370261582276,77.63728460887728,-2.48,1.33,-7.92,44.0,0.0,0.0,-33.0,0.0,4.0,3.0,8.73,49.93,1.77,
24.295,83.16737026158226,77.65772846088774,-4.34,-2.04,0.27,44.0,0.0,0.0,-33.0,0.0,4.0,3.0,8.83,49.54,1.86,
24.32,83.16073702615822,77.76777284608877,-4.52,-2.11,0.45,44.0,0.0,0.0,-33.0,0.0,4.0,3.0,8.83,49.44,1.67,
24.344,83.25907370261582,77.88677728460888,-4.27,-1.94,0.15,42.0,0.0,0.0,-33.0,0.0,4.0,3.0,8.93,49.15,1.37,
24.369,83.36790737026158,77.8986777284609,-4.06,-2.04,0.34,44.0,0.0,0.0,-33.0,0.0,4.0,3.0,8.93,48.76,1.08,
24.393,83.33379073702616,77.9178677728461,-4.06,-2.11,0.31,42.0,0.0,0.0,-33.0,0.0,4.0,3.0,8.93,48.56,0.49,
24.418,83.30337907370262,77.95578677728462,-4.22,-1.48,0.79,42.0,0.0,0.0,-33.0,0.0,4.0,3.0,8.93,48.27,0.69,
24.442,83.29133790737028,77.96857867772846,-4.13,-1.51,0.57,42.0,0.0,0.0,-33.0,0.0,4.0,3.0,9.03,48.17,1.08,
24.467,83.28113379073703,77.91585786777284,-4.38,-1.76,0.63,42.0,0.0,0.0,-33.0,0.0,4.0,3.0,9.12,48.17,1.37,
24.492,83.2441133790737,77.88358578677727,-4.43,-1.67,0.43,42.0,0.0,0.0,-33.0,0.0,4.0,3.0,9.22,48.27,1.47,
24.516,83.22241133790736,77.92535857867774,-4.18,-2.0,0.69,42.0,0.0,0.0,-33.0,0.0,4.0,3.0,9.32,48.17,1.08,
24.541,83.56224113379074,79.00953585786777,3.98,0.56,12.6,42.0,0.0,0.0,-33.0,0.0,4.0,3.0,9.42,48.27,0.88,
24.565,83.87522411337908,78.77595358578678,-5.11,-1.27,14.5,42.0,0.0,0.0,-33.0,0.0,4.0,3.0,9.52,48.36,1.08,
24.59,83.91552241133792,78.62659535857867,-4.18,-2.67,0.94,42.0,0.0,0.0,-33.0,0.0,4.0,3.0,9.52,48.56,1.67,
24.614,83.8565522411338,78.48565953585788,-4.11,-1.63,0.52,42.0,0.0,0.0,-33.0,0.0,4.0,3.0,9.71,48.66,1.77,
24.639,83.77865522411338,78.4175659535858,-4.12,-1.91,0.27,44.0,0.0,0.0,-33.0,0.0,4.0,3.0,9.81,48.56,1.57,
24.664,83.67186552241134,78.32075659535857,-3.89,-1.85,0.24,42.0,0.0,0.0,-33.0,0.0,4.0,3.0,9.91,48.76,1.77,
24.688,83.61618655224113,78.28407565953586,-3.76,-1.29,0.04,42.0,0.0,0.0,-33.0,0.0,4.0,3.0,10.01,48.95,1.57,
24.713,83.59261865522411,78.20840756595359,-3.31,-1.13,0.41,42.0,0.0,0.0,-33.0,0.0,4.0,3.0,10.1,49.25,1.18,
24.737,83.5272618655224,78.15584075659537,-3.56,-1.2,0.75,42.0,0.0,0.0,-33.0,0.0,4.0,3.0,10.2,49.34,0.59,
24.763,83.49372618655224,78.15958407565952,-3.83,-1.28,0.62,42.0,0.0,0.0,-33.0,0.0,4.0,4.0,10.3,49.34,0.98,
24.787,83.45437261865523,78.14195840756597,-3.75,-1.32,0.43,42.0,0.0,0.0,-33.0,0.0,4.0,4.0,10.3,49.44,1.47,
24.812,83.44143726186553,78.0591958407566,-3.7,-1.27,0.21,48.0,0.0,0.0,-33.0,0.0,4.0,4.0,10.5,49.54,1.86,
24.837,83.36814372618656,77.95191958407565,-3.81,-1.09,0.44,42.0,0.0,0.0,1633.0,0.0,4.0,4.0,10.59,49.74,1.57,
24.861,83.30681437261865,77.90519195840758,-4.02,-1.28,0.63,44.0,0.0,0.0,-33.0,0.0,4.0,4.0,10.79,49.93,1.37,
24.886,83.24668143726186,77.89151919584076,-3.9,-1.4,0.24,44.0,0.0,0.0,-33.0,0.0,4.0,4.0,10.99,50.13,1.08,
24.91,83.2586681437262,77.87215191958408,-3.69,-1.43,0.08,44.0,0.0,0.0,-33.0,0.0,4.0,4.0,10.99,50.33,1.47,
24.935,83.20586681437263,77.84321519195842,-3.79,-1.15,0.14,42.0,0.0,0.0,-33.0,0.0,4.0,4.0,11.09,50.52,0.78,
24.96,83.19158668143726,77.82232151919584,-3.82,-0.99,0.0,44.0,0.0,0.0,-33.0,0.0,4.0,4.0,11.28,50.62,0.69,
24.984,83.22615866814374,77.82023215191958,-3.82,-1.43,0.2,44.0,0.0,0.0,-33.0,0.0,4.0,4.0,11.38,50.91,0.88,
25.01,83.19361586681437,77.77502321519195,-3.5,-1.33,-0.06,44.0,0.0,0.0,-33.0,0.0,4.0,4.0,11.38,51.11,0.0,
25.034,83.19036158668143,77.74350232151919,-3.35,-1.07,-0.15,42.0,0.0,0.0,-33.0,0.0,4.0,4.0,11.48,51.21,0.69,
25.059,83.23503615866814,77.80335023215193,-3.18,-0.69,-0.23,44.0,0.0,0.0,-33.0,0.0,4.0,4.0,11.48,51.11,2.06,
25.083,83.23950361586681,77.7823350232152,-3.3,-0.84,-0.5,44.0,0.0,0.0,-33.0,0.0,4.0,4.0,11.48,51.31,3.24,
25.108,83.24895036158668,77.77123350232151,-3.15,-0.69,-0.5,44.0,0.0,0.0,-33.0,0.0,4.0,4.0,11.48,51.4,2.75,
25.133,83.24989503615866,77.80612335023216,-3.21,-0.44,-0.7,44.0,0.0,0.0,-33.0,0.0,4.0,4.0,11.48,52.68,1.47,
25.158,83.24098950361586,77.8006123350232,-2.98,-0.2,-0.36,42.0,0.0,0.0,-33.0,0.0,4.0,4.0,11.48,53.76,1.47,
25.183,83.32109895036159,77.80006123350232,-2.72,-0.09,-0.26,48.0,0.0,0.0,-33.0,0.0,4.0,4.0,11.58,51.5,1.37,
25.207,83.31110989503615,77.79100612335024,-2.15,0.15,0.0,44.0,0.0,0.0,-33.0,0.0,4.0,4.0,11.58,51.6,1.67,
25.232,83.31911098950361,77.73610061233504,-1.89,0.23,-0.15,42.0,0.0,0.0,-33.0,0.0,4.0,4.0,11.48,51.7,1.37,
25.256,83.32891109895036,77.71261006123349,-1.77,0.73,0.16,42.0,0.0,0.0,-33.0,0.0,4.0,4.0,11.28,51.7,0.88,
25.281,83.40189110989503,77.74626100612336,-1.79,0.93,0.55,42.0,0.0,0.0,-33.0,0.0,4.0,4.0,11.09,51.8,0.78,
25.306,83.4451891109895,77.78562610061235,-1.83,1.01,0.15,44.0,0.0,0.0,-33.0,0.0,4.0,4.0,10.89,51.99,1.18,
25.33,83.47651891109895,77.84356261006123,-1.69,0.74,0.2,40.0,0.0,0.0,-33.0,0.0,4.0,4.0,10.69,52.29,1.77,
