time,pitch,roll,gyrx,gyry,gyrz,f1,f2,f3,f4,f5,f6,f7,g1,g2,g3
0.385,59.81,64.22,-7.34,-0.25,3.42,0.0,1.0,0.0,0.0,0.0,0.0,0.0,0.0,0.0,0.59,
0.408,68.594,73.751,-11.91,-0.11,-0.21,0.0,1.0,0.0,0.0,0.0,0.0,0.0,0.0,0.0,0.59,
0.433,77.1674,83.0921,-12.56,-0.66,-2.84,0.0,1.0,0.0,0.0,0.0,0.0,0.0,0.0,0.0,0.49,
0.456,85.12574000000001,91.41521,-8.11,-4.75,-3.38,0.0,1.0,0.0,0.0,0.0,0.0,0.0,0.1,0.0,0.49,
0.481,91.771574,98.502521,-5.05,-3.8,0.81,0.0,1.0,0.0,0.0,0.0,0.0,0.0,0.0,0.0,0.59,
0.504,97.3051574,104.4852521,-4.68,-2.21,6.94,0.0,1.0,0.0,0.0,0.0,0.0,0.0,0.0,0.0,0.49,
0.528,101.63851574,109.21452520999999,-3.48,-0.63,8.55,0.0,1.0,0.0,0.0,0.0,0.0,0.0,0.0,0.0,0.59,
0.552,105.14085157400001,113.21545252099999,-7.37,3.78,6.15,0.0,1.0,0.0,0.0,0.0,0.0,0.0,0.0,0.0,0.59,
0.576,107.9660851574,116.58554525209999,-10.79,-0.7,-4.67,0.0,1.0,0.0,0.0,0.0,0.0,0.0,0.0,0.0,0.69,
0.601,110.72360851574001,119.73955452521,-12.4,-3.38,-4.27,0.0,1.0,0.0,0.0,0.0,0.0,0.0,0.0,0.0,0.78,
0.625,112.79036085157401,122.151955452521,-11.86,-6.44,-4.92,0.0,1.0,0.0,0.0,0.0,0.0,0.0,0.0,0.0,0.69,
0.649,114.7250360851574,124.20219554525211,-10.15,-4.7,-3.07,0.0,1.0,0.0,0.0,0.0,0.0,0.0,0.0,0.0,0.59,
0.673,116.32250360851575,126.0092195545252,-8.56,1.48,1.13,0.0,1.0,0.0,0.0,0.0,0.0,0.0,0.0,0.0,0.88,
0.697,117.65225036085157,127.75592195545252,-6.9,5.71,4.33,0.0,1.0,0.0,0.0,0.0,0.0,0.0,0.0,0.0,0.78,
0.721,118.82922503608515,129.25359219554525,-2.78,2.53,2.25,0.0,1.0,0.0,0.0,0.0,0.0,0.0,0.0,0.0,0.78,
0.745,119.87392250360851,130.44735921955453,-2.58,-0.24,0.66,0.0,1.0,0.0,0.0,0.0,0.0,0.0,0.0,0.0,0.88,
0.77,120.86939225036085,131.31373592195547,-4.05,-5.21,-0.59,0.0,1.0,0.0,0.0,0.0,0.0,0.0,0.0,0.0,0.88,
0.793,121.67993922503608,131.93137359219554,-5.0,-7.56,-2.98,0.0,1.0,0.0,0.0,0.0,0.0,0.0,0.0,0.0,0.78,
0.818,122.12999392250362,132.46113735921958,-4.57,-2.18,-3.02,0.0,1.0,0.0,0.0,0.0,0.0,0.0,0.0,0.0,0.88,
0.841,122.42699939225035,132.98211373592196,-3.8,3.73,-3.26,0.0,1.0,0.0,0.0,0.0,0.0,0.0,0.0,0.0,0.78,
0.866,122.87969993922505,133.5832113735922,-1.78,7.14,1.5,0.0,1.0,0.0,0.0,0.0,0.0,0.0,0.0,0.0,0.88,
0.889,123.3479699939225,134.06632113735924,0.49,4.54,2.11,0.0,1.0,0.0,0.0,0.0,0.0,0.0,0.0,0.0,0.88,
0.914,123.84479699939226,134.52863211373594,0.73,-2.89,2.74,0.0,1.0,0.0,0.0,0.0,0.0,0.0,0.0,0.0,0.88,
0.937,123.99347969993923,134.7548632113736,-1.68,-8.1,0.78,0.0,1.0,0.0,0.0,0.0,0.0,0.0,0.0,0.0,0.39,
0.962,123.89134796999393,134.67848632113734,-1.95,-7.24,1.11,0.0,1.0,0.0,0.0,0.0,0.0,0.0,0.0,0.0,0.29,
0.986,123.53913479699939,134.44584863211372,-2.2,-3.23,-1.31,0.0,1.0,0.0,0.0,0.0,0.0,0.0,0.0,0.0,0.39,
1.01,123.74691347969994,134.43158486321138,-3.73,4.76,2.43,0.0,1.0,0.0,0.0,0.0,0.0,0.0,0.0,0.0,0.49,
1.034,123.81269134796999,134.41215848632112,-7.92,4.96,3.11,0.0,1.0,0.0,0.0,0.0,0.0,0.0,0.0,0.0,0.49,
1.057,123.94526913479699,134.5812158486321,-10.76,-2.68,-0.34,0.0,1.0,0.0,0.0,0.0,0.0,0.0,0.0,0.0,0.49,
1.082,124.3185269134797,134.9311215848632,-6.87,-6.22,-3.46,0.0,1.0,0.0,0.0,0.0,0.0,0.0,0.0,0.0,0.49,
1.106,124.65285269134797,135.23611215848632,-0.49,-5.62,-3.82,0.0,1.0,0.0,0.0,0.0,0.0,0.0,0.0,0.0,0.59,
1.13,124.9922852691348,135.45561121584862,0.79,-6.93,0.17,0.0,1.0,0.0,0.0,0.0,0.0,0.0,0.0,0.0,0.69,
1.155,125.42222852691347,135.73856112158487,-2.35,-2.66,6.06,0.0,1.0,0.0,0.0,0.0,0.0,0.0,0.0,0.0,0.69,
1.178,125.45622285269134,135.91085611215848,-3.41,0.74,5.29,0.0,1.0,0.0,0.0,0.0,0.0,0.0,0.0,0.0,0.69,
1.203,125.41462228526913,135.86508561121587,0.21,-3.34,-2.45,0.0,1.0,0.0,0.0,0.0,0.0,0.0,0.0,0.0,0.78,
1.226,125.6804622285269,135.99550856112157,0.88,0.49,-4.1,0.0,1.0,0.0,0.0,0.0,0.0,0.0,0.0,0.0,0.78,
1.251,125.83304622285269,136.08055085611215,-0.37,-0.85,-2.19,0.0,1.0,0.0,0.0,0.0,0.0,0.0,0.0,0.0,0.88,
1.274,125.92030462228527,135.9360550856112,-2.75,1.21,2.72,0.0,1.0,0.0,0.0,0.0,0.0,0.0,0.0,0.0,0.69,
1.299,126.17203046222852,135.6966055085611,-4.6,-3.77,3.34,0.0,1.0,0.0,0.0,0.0,0.0,0.0,0.0,0.0,0.69,
1.323,126.37720304622286,135.59166055085612,-6.41,-4.03,3.15,0.0,1.0,0.0,0.0,0.0,0.0,0.0,0.0,0.0,0.69,
1.347,125.96572030462228,135.4011660550856,-8.96,0.8,1.45,0.0,1.0,0.0,0.0,0.0,0.0,0.0,0.0,0.0,0.88,
1.371,125.99657203046223,135.43611660550857,-8.05,1.27,-2.9,0.0,1.0,0.0,0.0,0.0,0.0,0.0,0.1,0.0,0.98,
1.394,126.06265720304621,135.45761166055087,-5.18,1.98,-4.84,0.0,1.0,0.0,0.0,0.0,0.0,0.0,0.0,0.0,0.98,
1.419,126.05126572030461,135.70276116605507,-4.98,-1.6,-3.21,0.0,1.0,0.0,0.0,0.0,0.0,0.0,0.0,0.0,0.78,
1.443,126.39212657203046,136.1682761166055,-4.9,-2.56,1.11,0.0,1.0,0.0,0.0,0.0,0.0,0.0,0.0,0.0,0.88,
1.467,126.35421265720305,136.14282761166055,-1.17,-6.22,1.79,0.0,1.0,0.0,0.0,0.0,0.0,0.0,0.0,0.0,0.88,
1.491,126.2604212657203,136.00528276116606,-0.42,-1.5,3.24,0.0,1.0,0.0,0.0,0.0,0.0,0.0,0.0,0.0,0.78,
1.515,125.92704212657203,135.7305282761166,-2.1,2.37,3.97,0.0,1.0,0.0,0.0,0.0,0.0,0.0,0.0,0.0,0.49,
1.539,125.65970421265719,135.52305282761165,-4.05,1.1,1.66,0.0,1.0,0.0,0.0,0.0,0.0,0.0,0.0,0.0,0.29,
1.563,125.58797042126572,135.41230528276117,-6.61,-1.54,-1.54,0.0,1.0,0.0,0.0,0.0,0.0,0.0,0.1,0.0,0.39,
1.587,125.68879704212658,135.46423052827612,-8.29,-4.8,-2.15,0.0,1.0,0.0,0.0,0.0,0.0,0.0,0.0,0.0,0.29,
1.611,125.76187970421265,135.5594230528276,-5.77,-3.94,-0.69,0.0,1.0,0.0,0.0,0.0,0.0,0.0,0.0,0.0,0.39,
1.636,125.88618797042126,135.59594230528276,-1.4,-2.65,0.58,0.0,1.0,0.0,0.0,0.0,0.0,0.0,0.0,0.0,0.49,
1.659,126.00661879704211,135.53659423052827,-1.92,0.6,4.24,0.0,1.0,0.0,0.0,0.0,0.0,0.0,0.0,0.0,0.59,
1.683,125.7486618797042,135.32365942305285,-4.89,0.75,5.69,0.0,1.0,0.0,0.0,0.0,0.0,0.0,0.0,0.0,0.69,
1.708,125.48886618797042,135.1943659423053,-6.31,-1.0,1.76,0.0,1.0,0.0,0.0,0.0,0.0,0.0,0.0,0.0,0.59,
1.731,125.08488661879704,135.28043659423054,-5.96,2.47,-2.46,0.0,1.0,0.0,0.0,0.0,0.0,0.0,0.1,0.0,0.78,
1.756,125.29648866187969,135.51404365942304,-3.45,2.51,-4.07,0.0,1.0,0.0,0.0,0.0,0.0,0.0,0.0,0.0,0.78,
1.779,125.69564886618797,135.6544043659423,-0.74,-3.72,-2.65,0.0,1.0,0.0,0.0,0.0,0.0,0.0,0.0,0.0,0.78,
1.804,125.93356488661878,135.78544043659423,-0.92,-6.07,2.59,0.0,1.0,0.0,0.0,0.0,0.0,0.0,0.0,0.0,0.78,
1.827,125.88535648866187,135.74454404365943,-2.24,-3.56,6.55,0.0,1.0,0.0,0.0,0.0,0.0,0.0,0.0,0.0,0.78,
1.852,125.7995356488662,135.30845440436593,-0.98,-4.68,3.76,0.0,1.0,0.0,0.0,0.0,0.0,0.0,0.0,0.0,0.78,
1.875,125.82695356488662,134.9408454404366,-5.65,0.98,1.27,0.0,1.0,0.0,0.0,0.0,0.0,0.0,0.0,0.0,0.88,
1.9,125.70369535648865,134.86808454404365,-8.54,4.24,-0.34,0.0,1.0,0.0,0.0,0.0,0.0,0.0,0.0,0.0,0.78,
1.924,125.79036953564886,134.89680845440438,-5.09,-0.78,-4.08,0.0,1.0,0.0,0.0,0.0,0.0,0.0,0.0,0.0,0.88,
1.948,125.83503695356488,134.90868084544044,-4.32,-0.95,-2.53,0.0,1.0,0.0,0.0,0.0,0.0,0.0,0.0,864.65,0.88,
1.973,126.03750369535649,135.09886808454405,-4.97,-1.03,3.07,0.0,1.0,0.0,0.0,0.0,0.0,0.0,0.0,0.0,0.78,
1.996,126.42675036953565,135.2888868084544,-1.63,-6.29,3.8,0.0,1.0,0.0,0.0,0.0,0.0,0.0,0.0,0.0,0.78,
2.021,126.51067503695356,134.81288868084542,2.16,-10.63,2.73,0.0,1.0,0.0,0.0,0.0,0.0,0.0,0.0,0.0,0.88,
2.044,126.12306750369535,134.40528886808457,-5.98,-0.6,6.53,0.0,1.0,0.0,0.0,0.0,0.0,0.0,0.0,0.0,0.88,
2.069,125.76930675036954,134.03152888680847,-12.57,7.73,8.68,0.0,1.0,0.0,0.0,0.0,0.0,0.0,0.0,0.0,0.98,
2.093,125.87793067503695,133.66115288868085,-11.35,4.87,2.1,0.0,1.0,0.0,0.0,0.0,0.0,0.0,0.0,0.0,0.39,
2.117,126.14979306750371,133.48911528886808,-11.01,-4.69,0.08,0.0,1.0,0.0,0.0,0.0,0.0,0.0,0.0,0.0,0.29,
2.141,126.23097930675037,133.46291152888682,-16.21,-2.6,3.67,0.0,1.0,0.0,0.0,0.0,0.0,0.0,0.0,0.0,0.49,
2.165,126.54509793067503,133.62229115288866,-12.56,-6.9,4.72,0.0,1.0,0.0,0.0,0.0,0.0,0.0,0.0,0.0,0.29,
2.189,126.88250979306751,133.17022911528886,-4.11,-7.24,8.95,0.0,1.0,0.0,0.0,0.0,0.0,0.0,0.0,0.0,0.39,
2.213,127.16825097930675,132.3420229115289,-7.39,0.19,20.45,0.0,1.0,0.0,0.0,0.0,0.0,0.0,0.0,0.0,0.59,
2.237,128.42982509793066,130.8372022911529,-8.89,-6.34,24.85,0.0,1.0,0.0,0.0,0.0,0.0,0.0,0.0,0.0,0.69,
2.262,129.86998250979306,128.2477202291153,-3.01,-21.7,27.1,0.0,1.0,0.0,0.0,0.0,0.0,0.0,0.0,0.0,0.69,
2.285,130.1939982509793,125.23477202291154,-2.51,-19.02,37.63,0.0,1.0,0.0,0.0,0.0,0.0,0.0,0.0,0.0,1.08,
2.31,130.31639982509793,123.10647720229116,-13.92,-21.98,48.6,0.0,1.0,0.0,0.0,0.0,0.0,0.0,0.0,0.0,0.78,
2.334,129.56363998250978,120.76964772022912,-32.53,4.22,68.52,0.0,1.0,0.0,0.0,0.0,0.0,0.0,0.0,0.0,0.78,
2.358,128.69636399825097,118.9069647720229,-46.71,9.09,67.15,0.0,1.0,0.0,0.0,0.0,0.0,0.0,0.0,0.0,0.98,
2.382,127.86263639982509,118.14469647720229,-66.08,14.73,67.27,0.0,1.0,0.0,0.0,0.0,0.0,0.0,0.0,0.0,0.69,
2.407,126.87026363998251,117.73546964772024,-73.44,4.91,57.44,0.0,1.0,0.0,0.0,0.0,0.0,0.0,0.0,0.0,0.49,
2.43,125.34902636399825,116.76754696477202,-69.73,-18.31,32.01,0.0,1.0,0.0,0.0,0.0,0.0,0.0,0.0,0.0,0.59,
2.455,124.24290263639983,115.43775469647721,-69.5,-19.45,18.08,0.0,1.0,0.0,0.0,0.0,0.0,0.0,0.0,0.0,0.78,
2.48,123.75429026363997,115.29577546964772,-77.44,-21.02,19.94,0.0,1.0,0.0,0.0,0.0,0.0,0.0,0.0,0.0,0.78,
2.503,124.34442902636398,115.84857754696478,-72.78,-33.56,18.2,0.0,1.0,0.0,0.0,0.0,0.0,0.0,0.0,0.0,0.59,
2.528,124.53844290263639,116.20085775469647,-68.45,-25.63,21.31,0.0,1.0,0.0,0.0,0.0,0.0,0.0,0.0,0.0,0.59,
2.552,123.68484429026364,115.55208577546965,-65.91,-16.11,18.82,0.0,1.0,0.0,0.0,0.0,0.0,0.0,0.0,0.0,0.39,
2.576,123.09548442902637,114.84820857754696,-64.76,-13.0,17.81,0.0,1.0,0.0,0.0,0.0,0.0,0.0,0.0,0.0,0.49,
2.6,123.23454844290264,114.4448208577547,-67.53,-17.11,14.73,0.0,1.0,0.0,0.0,0.0,0.0,0.0,0.0,0.0,0.69,
2.625,122.71745484429027,114.43148208577547,-63.65,-18.36,14.77,0.0,1.0,0.0,0.0,0.0,0.0,0.0,0.0,0.0,0.49,
2.65,122.23374548442902,113.79114820857754,-59.13,-11.82,16.02,0.0,1.0,0.0,0.0,0.0,0.0,0.0,0.0,0.0,2.26,
2.673,121.83437454844291,113.41211482085775,-46.92,-30.63,-0.61,0.0,1.0,0.0,0.0,0.0,0.0,0.0,0.1,0.0,4.41,
2.698,121.2904374548443,113.05021148208577,-44.53,-15.53,0.21,0.0,1.0,0.0,0.0,0.0,0.0,0.0,0.1,0.0,3.34,
2.722,121.11004374548443,113.33802114820858,-43.24,-13.53,-1.28,0.0,1.0,0.0,0.0,0.0,0.0,0.0,0.0,0.0,1.28,
2.747,120.95700437454845,113.87980211482086,-33.15,-6.27,13.59,0.0,1.0,0.0,0.0,0.0,0.0,0.0,0.1,0.0,1.37,
2.77,120.23070043745484,113.39398021148209,-14.56,-6.19,17.42,0.0,1.0,0.0,0.0,0.0,0.0,0.0,0.0,39.83,1.08,
2.795,119.15007004374549,112.48139802114821,-6.0,-27.44,-7.95,0.0,1.0,0.0,0.0,0.0,0.0,0.0,0.1,89.76,0.69,
2.82,118.90700700437455,111.93113980211483,-8.81,-25.74,-4.44,0.0,1.0,0.0,0.0,0.0,0.0,0.0,0.1,90.55,0.69,
2.844,119.93570070043745,112.51511398021148,7.05,-45.94,-1.47,0.0,1.0,0.0,0.0,0.0,0.0,0.0,0.0,89.37,0.29,
2.868,118.49957007004375,111.89851139802116,8.79,-39.92,-21.04,0.0,1.0,0.0,0.0,0.0,0.0,0.0,0.0,2.75,0.0,
2.892,118.33795700700438,111.01785113980212,5.37,-27.71,-6.81,0.0,1.0,0.0,0.0,0.0,0.0,0.0,0.0,0.0,0.0,
2.916,118.33079570070043,110.05678511398021,3.85,-14.9,5.85,0.0,1.0,0.0,0.0,0.0,0.0,0.0,0.0,29.53,0.0,
2.94,118.53707957007005,107.57567851139801,0.61,2.95,12.03,1.0,1.0,0.0,0.0,0.0,0.0,0.0,0.0,40.81,0.0,
2.964,117.873707957007,104.6365678511398,-8.31,-7.49,-5.8,1.0,1.0,0.0,0.0,0.0,0.0,0.0,0.0,55.72,0.0,
2.989,116.9883707957007,103.65865678511398,-10.92,-10.89,-20.69,1.0,1.0,0.0,0.0,0.0,0.0,0.0,0.0,51.31,0.0,
3.013,116.75583707957007,103.8848656785114,-9.96,0.93,-2.95,1.0,1.0,0.0,0.0,0.0,0.0,0.0,0.0,46.4,0.49,
3.038,116.88558370795701,102.64748656785113,-6.49,3.23,12.64,1.0,1.0,0.0,0.0,1.0,0.0,0.0,0.0,35.81,0.0,
3.061,116.7635583707957,101.45274865678512,-5.58,-0.07,4.76,1.0,1.0,0.0,0.0,1.0,0.0,0.0,0.0,35.32,0.0,
3.086,116.91335583707958,100.9102748656785,-3.86,-4.22,-3.79,1.0,1.0,0.0,0.0,1.0,0.0,0.0,0.0,26.78,0.0,
3.109,116.76633558370796,100.38802748656785,-1.44,-4.67,-1.15,1.0,1.0,0.0,0.0,1.0,0.0,0.0,0.0,0.0,0.0,
3.134,116.6166335583708,100.02080274865678,2.97,-3.95,0.64,1.0,1.0,0.0,0.0,1.0,0.0,0.0,0.0,0.0,0.2,
3.158,116.53866335583709,99.66908027486568,4.43,-2.92,3.83,2.0,1.0,0.0,0.0,1.0,0.0,0.0,0.0,0.0,0.0,
3.182,116.6208663355837,99.30090802748657,3.11,-9.15,-4.43,2.0,1.0,0.0,0.0,1.0,0.0,0.0,0.0,0.0,0.0,
3.206,116.28708663355837,99.57009080274865,-0.18,-8.17,-3.11,2.0,1.0,0.0,0.0,1.0,0.0,0.0,0.0,0.0,0.0,
3.23,115.69570866335583,99.34500908027485,-1.97,-2.57,1.34,3.0,1.0,0.0,0.0,1.0,0.0,0.0,0.0,0.0,0.1,
3.255,115.52857086633558,99.1425009080275,-2.19,1.6,4.17,3.0,1.0,0.0,0.0,1.0,0.0,0.0,0.0,0.0,0.0,
3.278,115.44885708663355,99.02325009080276,-0.75,2.74,3.18,3.0,1.0,0.0,0.0,1.0,0.0,0.0,0.0,0.0,0.0,
3.302,115.52188570866336,98.54332500908026,-1.93,3.99,0.89,3.0,1.0,0.0,0.0,1.0,0.0,0.0,0.0,0.0,0.2,
3.326,115.76318857086635,98.76533250090803,-6.08,-1.93,-0.79,3.0,1.0,0.0,0.0,1.0,0.0,0.0,0.0,0.0,0.29,
3.35,115.84131885708663,98.8415332500908,-5.37,-1.35,1.59,4.0,1.0,0.0,0.0,1.0,0.0,0.0,0.0,0.0,0.2,
3.375,115.86713188570866,98.79515332500908,-1.18,-3.37,2.08,4.0,1.0,0.0,0.0,1.0,0.0,0.0,0.0,0.0,0.0,
3.399,115.77971318857087,98.3495153325009,-3.91,2.34,1.6,5.0,1.0,0.0,0.0,1.0,0.0,0.0,0.0,0.0,0.0,
3.423,115.81597131885708,98.4849515332501,-7.6,-3.16,0.98,5.0,1.0,0.0,1.0,2.0,1.0,0.0,0.0,0.0,0.0,
3.447,115.69359713188571,98.021495153325,-7.15,-4.83,-0.02,5.0,1.0,0.0,1.0,2.0,1.0,0.0,0.0,0.0,0.0,
3.471,115.67235971318857,97.91214951533252,-5.9,-1.62,0.55,6.0,1.0,0.0,1.0,2.0,1.0,0.0,0.0,0.0,0.0,
3.495,115.61623597131886,97.91921495153325,-5.78,-1.05,-0.08,6.0,1.0,0.0,1.0,2.0,1.0,0.0,0.0,0.0,0.0,
3.519,115.45762359713189,97.90192149515333,-6.9,-2.37,0.42,6.0,1.0,0.0,1.0,2.0,1.0,0.0,0.0,0.0,2.94,
3.544,115.24376235971319,97.69319214951534,-7.08,-0.15,1.54,7.0,1.0,0.0,1.0,2.0,1.0,0.0,0.0,0.0,0.0,
3.568,115.18637623597132,97.55531921495154,-4.63,0.98,-0.85,7.0,1.0,0.0,1.0,2.0,1.0,0.0,0.0,0.0,0.0,
3.592,115.44163762359713,97.52353192149515,-5.37,-1.09,-0.47,8.0,1.0,0.0,1.0,2.0,1.0,0.0,0.0,0.0,0.0,
3.616,115.48516376235972,97.41235319214952,-4.59,-1.8,0.25,8.0,1.0,0.0,2.0,2.0,1.0,0.0,0.0,0.0,0.0,
3.641,115.39951637623597,97.29323531921496,-3.62,-1.64,-0.42,8.0,1.0,0.0,2.0,2.0,2.0,0.0,0.0,0.0,0.0,
3.664,115.38195163762359,97.29932353192149,-2.76,-1.88,-0.58,8.0,1.0,0.0,2.0,2.0,2.0,0.0,0.0,0.0,0.0,
3.689,115.24519516376236,97.31793235319213,-3.63,-0.2,1.66,8.0,1.0,0.0,2.0,2.0,2.0,0.0,0.0,0.0,0.0,
3.714,115.41151951637625,97.29279323531922,-3.84,1.54,2.16,8.0,1.0,0.0,2.0,2.0,2.0,0.0,0.0,0.0,0.0,
3.737,115.53615195163762,97.2182793235319,-3.44,-0.81,0.31,8.0,1.0,0.0,2.0,2.0,2.0,0.0,0.0,0.0,0.0,
3.762,115.71961519516375,97.36382793235319,-4.6,-2.82,-0.26,8.0,1.0,0.0,2.0,2.0,2.0,0.0,0.0,0.0,0.0,
3.786,115.62996151951639,97.28838279323533,-4.31,-4.41,-0.42,9.0,1.0,0.0,2.0,2.0,2.0,0.0,0.0,0.0,0.0,
3.81,115.47699615195164,97.28083827932353,-3.78,-0.02,0.61,9.0,1.0,0.0,2.0,2.0,2.0,0.0,0.0,0.0,0.0,
3.834,115.47969961519516,97.23508382793236,-3.34,2.05,1.6,9.0,1.0,0.0,2.0,2.0,2.0,0.0,0.0,0.0,0.0,
3.859,115.5609699615195,97.23050838279323,-3.62,-0.73,0.4,9.0,1.0,0.0,2.0,2.0,2.0,0.0,0.0,0.0,0.39,
3.883,115.61409699615196,97.25705083827933,-3.5,-1.77,0.11,9.0,1.0,0.0,2.0,2.0,2.0,0.0,0.0,0.0,0.39,
3.907,115.7094096996152,97.19670508382794,-2.9,-3.18,0.38,9.0,1.0,0.0,2.0,2.0,2.0,0.0,0.0,0.0,0.0,
3.932,115.62894096996152,97.09167050838279,-2.16,-2.0,0.51,9.0,1.0,0.0,2.0,2.0,2.0,0.0,0.0,0.0,0.0,
3.955,115.54889409699615,97.08116705083827,-1.06,-0.98,0.4,9.0,1.0,0.0,2.0,2.0,2.0,0.0,0.0,0.0,0.0,
3.98,115.55888940969962,97.12511670508383,-0.68,0.16,0.58,9.0,1.0,0.0,2.0,2.0,2.0,0.0,0.0,0.0,0.0,
4.003,115.55088894096997,97.13851167050838,-0.31,0.7,0.62,9.0,1.0,0.0,1.0,2.0,1.0,0.0,0.0,0.0,0.1,
4.028,115.44208889409701,97.11285116705083,1.18,2.18,0.95,8.0,1.0,0.0,1.0,2.0,1.0,0.0,0.0,0.0,1.47,
4.051,115.54820888940971,97.20028511670507,0.58,2.55,0.98,8.0,1.0,0.0,1.0,2.0,1.0,0.0,0.0,0.0,0.0,
4.076,115.68482088894098,97.28102851167051,-0.11,0.27,0.63,8.0,1.0,0.0,1.0,2.0,1.0,0.0,0.0,0.0,0.0,
4.1,115.68048208889411,97.28910285116706,-0.17,0.69,0.3,8.0,1.0,0.0,1.0,2.0,1.0,0.0,0.0,0.0,0.29,
4.123,115.69804820888942,97.40691028511671,-0.27,1.13,1.28,7.0,1.0,0.0,1.0,2.0,1.0,0.0,0.0,0.0,0.78,
4.148,115.71780482088893,97.51769102851168,-0.57,0.15,0.87,7.0,1.0,0.0,1.0,2.0,1.0,0.0,0.0,0.0,0.0,
4.171,115.71978048208888,97.55576910285117,-1.37,-0.37,0.55,7.0,1.0,0.0,1.0,2.0,1.0,0.0,0.0,0.0,0.0,
4.196,115.77397804820889,97.58657691028512,-1.37,0.02,1.26,7.0,1.0,0.0,1.0,2.0,1.0,0.0,0.0,0.0,0.39,
4.219,115.80639780482089,97.67065769102851,-1.79,-1.86,0.4,7.0,1.0,0.0,1.0,2.0,1.0,0.0,0.0,0.0,0.69,
4.244,115.89963978048209,97.71506576910286,-1.43,-0.41,0.58,7.0,1.0,0.0,1.0,2.0,1.0,0.0,0.0,0.0,0.2,
4.268,115.94496397804821,97.74650657691029,-2.08,-0.15,0.72,7.0,1.0,0.0,1.0,2.0,0.0,0.0,0.0,0.0,0.1,
4.292,116.03049639780482,97.74065065769102,-2.63,-0.82,0.37,7.0,1.0,0.0,1.0,2.0,1.0,0.0,0.0,0.0,1.18,
4.317,116.13804963978049,97.7580650657691,-3.22,-1.41,0.53,7.0,1.0,0.0,1.0,2.0,1.0,0.0,0.0,0.0,0.78,
4.34,116.06780496397805,97.70580650657692,-3.09,-1.08,0.24,7.0,1.0,0.0,1.0,2.0,1.0,0.0,0.0,0.0,0.69,
4.365,116.01578049639781,97.6735806506577,-2.63,-0.47,0.69,6.0,1.0,0.0,1.0,2.0,1.0,0.0,0.0,0.0,0.78,
4.388,116.10057804963978,97.77835806506577,-2.54,1.11,0.96,6.0,1.0,0.0,1.0,2.0,1.0,0.0,0.0,0.0,0.88,
4.413,116.20805780496397,97.77983580650658,-2.9,0.3,0.56,6.0,1.0,0.0,1.0,2.0,1.0,0.0,0.0,0.0,0.49,
4.436,116.1738057804964,97.72598358065066,-3.18,-2.27,-0.29,6.0,1.0,0.0,1.0,2.0,1.0,0.0,0.0,0.0,0.69,
4.461,116.22438057804963,97.75659835806508,-3.19,-1.5,0.14,6.0,1.0,0.0,1.0,2.0,1.0,0.0,0.0,0.0,0.0,
4.485,116.22943805780496,97.8136598358065,-2.69,-0.94,-0.03,6.0,1.0,0.0,1.0,2.0,0.0,0.0,0.0,0.0,0.0,
4.509,116.2569438057805,97.81936598358064,-2.58,0.05,0.24,6.0,1.0,0.0,1.0,2.0,0.0,0.0,0.0,0.0,0.0,
4.533,116.27769438057805,97.77493659835805,-2.18,0.69,0.78,6.0,1.0,0.0,1.0,2.0,0.0,0.0,0.0,0.0,0.39,
4.557,116.44176943805779,97.7704936598358,-2.4,-1.24,0.0,6.0,1.0,0.0,1.0,2.0,0.0,0.0,0.0,0.0,0.1,
4.581,116.47617694380578,97.80604936598358,-2.53,-1.15,-0.6,6.0,1.0,0.0,1.0,2.0,0.0,0.0,0.0,0.0,0.2,
4.605,116.49761769438058,97.83660493659836,-2.24,-1.39,-0.2,6.0,1.0,0.0,1.0,2.0,0.0,0.0,0.0,0.0,0.49,
4.629,116.50876176943807,97.87566049365984,-1.83,-0.56,0.04,6.0,1.0,0.0,1.0,2.0,0.0,0.0,0.0,0.0,0.0,
4.654,116.56387617694381,97.90656604936598,-1.89,1.99,0.15,6.0,1.0,0.0,0.0,2.0,0.0,0.0,0.0,0.0,0.29,
4.677,116.69538761769438,97.9906566049366,-1.96,2.0,-0.27,6.0,1.0,0.0,0.0,1.0,0.0,0.0,0.0,0.0,0.69,
4.702,116.72653876176943,98.01706566049366,-2.14,0.99,-1.27,6.0,1.0,0.0,0.0,1.0,0.0,0.0,0.0,0.0,0.59,
4.726,116.54965387617695,98.02870656604937,-1.22,0.83,-0.58,6.0,1.0,0.0,0.0,1.0,0.0,0.0,0.0,0.0,0.29,
4.75,116.3609653876177,97.98487065660494,-0.75,-1.44,-0.05,6.0,1.0,0.0,0.0,1.0,0.0,0.0,0.0,0.0,0.29,
4.774,116.36909653876177,98.0254870656605,-0.6,2.34,1.97,5.0,1.0,0.0,0.0,1.0,0.0,0.0,0.0,0.0,0.69,
4.798,116.70290965387618,98.07454870656605,-1.96,1.95,0.91,5.0,1.0,0.0,0.0,1.0,0.0,0.0,0.0,0.0,1.47,
4.823,116.8892909653876,98.09745487065659,-3.08,-2.68,-1.36,5.0,1.0,0.0,0.0,1.0,0.0,0.0,0.0,0.0,0.98,
4.846,116.82692909653875,98.17174548706566,-3.17,-3.08,-1.08,5.0,1.0,0.0,0.0,1.0,0.0,0.0,0.0,0.0,1.37,
4.871,116.66769290965388,98.14317454870657,-2.12,-1.02,0.63,5.0,1.0,0.0,0.0,1.0,0.0,0.0,0.0,0.0,1.18,
4.894,116.71476929096539,98.14031745487065,-2.11,-0.05,1.13,5.0,1.0,0.0,0.0,1.0,0.0,0.0,0.0,0.0,1.47,
4.919,116.83647692909653,98.16703174548707,-2.55,-0.67,0.14,5.0,1.0,0.0,0.0,1.0,0.0,0.0,0.0,0.0,0.98,
4.942,116.84864769290964,98.2417031745487,-2.82,-1.47,-0.56,5.0,1.0,0.0,0.0,1.0,0.0,0.0,0.0,0.0,1.28,
4.967,116.78686476929096,98.24017031745487,-2.81,-0.85,-0.01,5.0,1.0,0.0,0.0,1.0,0.0,0.0,0.0,0.0,1.08,
4.992,116.77168647692909,98.24901703174548,-2.79,0.16,0.76,5.0,1.0,0.0,0.0,1.0,0.0,0.0,0.0,0.0,0.29,
5.015,116.85116864769292,98.20490170317456,-2.4,-0.77,0.2,5.0,1.0,0.0,0.0,1.0,0.0,0.0,0.0,0.0,0.39,
5.04,116.83211686476929,98.21849017031745,-2.75,-1.32,-0.42,5.0,1.0,0.0,0.0,1.0,0.0,0.0,0.0,0.0,0.2,
5.063,116.81221168647693,98.19284901703173,-3.02,0.41,0.68,5.0,1.0,0.0,0.0,1.0,0.0,0.0,0.0,0.0,0.2,
5.088,116.8822211686477,98.28928490170317,-2.98,-0.32,0.26,5.0,1.0,0.0,0.0,1.0,0.0,0.0,0.0,0.0,0.0,
5.111,116.87122211686477,98.28992849017033,-2.91,-0.62,0.27,5.0,1.0,0.0,0.0,1.0,0.0,0.0,0.0,0.0,0.2,
5.136,116.87012221168648,98.32599284901703,-2.68,-1.55,0.24,5.0,1.0,0.0,0.0,1.0,0.0,0.0,0.0,0.0,0.39,
5.159,116.75301222116865,98.2755992849017,-2.87,-0.59,0.6,5.0,1.0,0.0,0.0,1.0,0.0,0.0,0.0,0.0,0.49,
5.184,116.86730122211685,98.32455992849017,-2.98,-1.02,0.22,5.0,1.0,0.0,0.0,1.0,0.0,0.0,0.0,0.0,0.49,
5.208,116.97773012221168,98.30245599284902,-2.68,-1.37,-0.22,5.0,1.0,0.0,0.0,1.0,0.0,0.0,0.0,0.0,0.39,
5.232,116.87177301222117,98.3182455992849,-2.92,-1.06,-0.18,5.0,1.0,0.0,0.0,1.0,0.0,0.0,0.0,0.0,0.39,
5.257,116.9781773012221,98.27482455992849,-3.05,-0.56,0.72,5.0,1.0,0.0,0.0,1.0,0.0,0.0,0.0,0.0,0.49,
5.28,116.93481773012222,98.20748245599286,-2.74,-0.76,0.39,5.0,1.0,0.0,0.0,1.0,0.0,0.0,0.0,0.0,0.59,
5.305,116.98448177301222,98.21874824559927,-2.54,-0.06,0.85,5.0,1.0,0.0,0.0,1.0,0.0,0.0,0.0,0.0,0.69,
5.328,116.95344817730123,98.20187482455994,-2.8,1.51,1.24,5.0,1.0,0.0,0.0,1.0,0.0,0.0,0.0,0.0,0.39,
5.353,117.12134481773012,98.27218748245599,-3.48,-0.2,0.72,5.0,1.0,0.0,0.0,1.0,0.0,0.0,0.0,0.0,0.69,
5.377,117.24613448177301,98.26121874824561,-3.03,-2.74,-0.33,5.0,1.0,0.0,0.0,1.0,0.0,0.0,0.0,0.0,0.88,
5.401,117.2496134481773,98.26012187482456,-2.82,-2.34,-0.27,5.0,1.0,0.0,0.0,1.0,0.0,0.0,0.0,0.0,0.78,
5.426,117.16896134481773,98.20601218748246,-3.15,-0.5,0.21,5.0,1.0,0.0,0.0,1.0,0.0,0.0,0.0,0.0,0.69,
5.449,117.22389613448178,98.22760121874825,-3.24,-0.73,0.08,5.0,1.0,0.0,0.0,1.0,0.0,0.0,0.0,0.0,0.49,
5.474,117.23838961344816,98.21176012187482,-2.78,-2.15,-0.08,5.0,1.0,0.0,0.0,1.0,0.0,0.0,0.0,0.0,0.59,
5.497,117.2128389613448,98.21917601218748,-2.72,-0.92,0.0,5.0,1.0,0.0,0.0,1.0,0.0,0.0,0.0,0.0,0.2,
5.522,117.14728389613448,98.21091760121874,-2.81,-0.8,0.21,5.0,1.0,0.0,0.0,1.0,0.0,0.0,0.0,0.0,0.0,
5.545,117.19472838961345,98.26409176012187,-2.76,-0.2,0.53,5.0,1.0,0.0,0.0,1.0,0.0,0.0,0.0,0.0,0.0,
5.57,117.24447283896134,98.35040917601219,-2.92,-2.39,-0.4,5.0,1.0,0.0,0.0,1.0,0.0,0.0,0.0,0.0,0.1,
5.595,117.20444728389613,98.32304091760122,-3.14,-1.11,-0.15,5.0,1.0,0.0,0.0,1.0,0.0,0.0,0.0,0.0,0.1,
5.618,117.21844472838961,98.32030409176012,-2.92,-0.15,0.08,5.0,1.0,0.0,0.0,1.0,0.0,0.0,0.0,0.0,0.39,
5.643,117.19284447283896,98.37403040917602,-3.01,-0.65,-0.03,5.0,1.0,0.0,0.0,1.0,0.0,0.0,0.0,0.0,0.39,
5.666,117.2172844472839,98.4154030409176,-2.87,-0.64,0.15,5.0,1.0,0.0,0.0,1.0,0.0,0.0,0.0,0.0,0.2,
5.691,117.18372844472839,98.37454030409177,-3.24,-0.47,0.28,5.0,1.0,0.0,0.0,1.0,0.0,0.0,0.0,0.0,0.49,
5.714,117.18037284447284,98.31645403040918,-3.04,-0.86,0.02,5.0,1.0,0.0,0.0,1.0,0.0,0.0,0.0,0.0,0.69,
5.739,117.19803728444728,98.36464540304092,-3.11,-0.33,0.22,5.0,1.0,0.0,0.0,1.0,0.0,0.0,0.0,0.0,0.88,
5.764,117.28980372844472,98.3604645403041,-2.66,-0.06,0.46,5.0,1.0,0.0,0.0,1.0,0.0,0.0,0.0,0.0,0.69,
5.787,117.28998037284448,98.40504645403041,-2.93,2.71,1.11,5.0,1.0,0.0,0.0,1.0,0.0,0.0,0.0,0.0,0.29,
5.812,117.40699803728444,98.39150464540305,-2.89,1.19,0.76,5.0,1.0,0.0,0.0,1.0,0.0,0.0,0.0,0.0,0.1,
5.835,117.48169980372845,98.42615046454031,-2.77,-0.95,0.72,5.0,1.0,0.0,0.0,1.0,0.0,0.0,0.0,0.0,0.69,
5.86,117.49816998037284,98.46561504645403,-2.88,-1.64,-0.46,5.0,1.0,0.0,0.0,1.0,0.0,0.0,0.0,0.0,0.69,
5.883,117.51781699803728,98.43356150464541,-2.4,0.86,0.44,5.0,1.0,0.0,0.0,1.0,0.0,0.0,0.0,0.0,0.69,
5.908,117.54678169980373,98.44835615046455,-2.13,1.81,0.53,5.0,1.0,0.0,0.0,1.0,0.0,0.0,0.0,0.0,0.59,
5.932,117.59467816998037,98.50383561504646,-2.38,1.69,0.2,5.0,1.0,0.0,0.0,1.0,0.0,0.0,0.0,0.0,0.69,
5.956,117.65346781699805,98.49138356150463,-2.38,1.96,-0.2,5.0,1.0,0.0,0.0,1.0,0.0,0.0,0.0,0.0,0.78,
5.98,117.7043467816998,98.53513835615047,-2.85,-0.67,-0.88,4.0,1.0,0.0,0.0,1.0,0.0,0.0,0.0,0.0,1.08,
6.004,117.77243467816999,98.60251383561504,-2.89,-2.05,-0.92,5.0,1.0,0.0,0.0,1.0,0.0,0.0,0.0,0.0,1.08,
6.028,117.68924346781701,98.6272513835615,-2.99,-1.67,-0.87,5.0,1.0,0.0,0.0,1.0,0.0,0.0,0.0,0.0,0.49,
6.052,117.7079243467817,98.60272513835613,-2.93,-1.24,-1.02,5.0,1.0,0.0,0.0,1.0,0.0,0.0,0.0,0.0,0.49,
6.077,117.70979243467816,98.6272725138356,-2.95,-0.95,-0.73,5.0,1.0,0.0,0.0,1.0,0.0,0.0,0.0,0.0,0.39,
6.1,117.65597924346781,98.59372725138357,-2.76,-2.81,-0.76,5.0,1.0,0.0,0.0,1.0,0.0,0.0,0.0,0.0,0.39,
6.125,117.67759792434678,98.65337272513835,-2.85,-1.99,-0.18,5.0,1.0,0.0,0.0,1.0,0.0,0.0,0.0,0.0,0.1,
6.15,117.79675979243468,98.66833727251384,-3.24,-2.63,-0.73,5.0,1.0,0.0,0.0,1.0,0.0,0.0,0.0,0.0,0.29,
6.173,117.79967597924346,98.58883372725137,-3.45,-3.4,-0.99,5.0,1.0,0.0,0.0,1.0,0.0,0.0,0.0,0.0,0.49,
6.198,117.62896759792434,98.59888337272513,-2.85,-2.68,-0.61,5.0,1.0,0.0,0.0,1.0,0.0,0.0,0.0,0.0,0.49,
6.221,117.58489675979243,98.6358883372725,-2.9,-1.66,0.08,5.0,1.0,0.0,0.0,1.0,0.0,0.0,0.0,0.0,0.49,
6.246,117.52648967597924,98.57658883372724,-2.84,-0.98,0.73,5.0,1.0,0.0,0.0,1.0,0.0,0.0,0.0,0.0,0.29,
6.269,117.68264896759793,98.57065888337272,-2.42,-2.34,-0.01,5.0,1.0,0.0,0.0,1.0,0.0,0.0,0.0,0.0,0.49,
6.294,117.7522648967598,98.61506588833728,-2.51,-4.17,-0.67,5.0,1.0,0.0,0.0,1.0,0.0,0.0,0.0,0.0,0.59,
6.319,117.61522648967598,98.70050658883372,-2.97,-3.1,-0.83,5.0,1.0,0.0,0.0,1.0,0.0,0.0,0.0,0.0,0.78,
6.342,117.4035226489676,98.72705065888337,-3.34,-3.91,-1.31,5.0,1.0,0.0,0.0,1.0,0.0,0.0,0.0,0.0,0.78,
6.367,117.42735226489677,98.77470506588834,-3.3,-1.24,0.07,5.0,1.0,0.0,0.0,1.0,0.0,0.0,0.0,0.0,0.59,
6.39,117.36673522648967,98.77947050658884,-3.11,-2.79,-1.02,5.0,1.0,0.0,0.0,1.0,0.0,0.0,0.0,0.0,0.49,
6.415,117.29767352264898,98.80694705065889,-3.52,-2.73,-0.76,5.0,1.0,0.0,0.0,1.0,0.0,0.0,0.0,0.0,0.49,
6.439,117.30876735226491,98.73769470506589,-3.24,-2.16,-0.47,5.0,1.0,0.0,0.0,1.0,0.0,0.0,0.0,0.0,0.69,
6.463,117.13887673522649,98.6317694705066,-2.37,-0.62,0.69,5.0,1.0,0.0,0.0,1.0,0.0,0.0,0.0,0.0,0.69,
6.488,117.30188767352264,98.63017694705066,-2.89,-2.08,-0.48,5.0,1.0,0.0,0.0,1.0,0.0,0.0,0.0,0.0,0.29,
6.511,117.27318876735225,98.63001769470506,-2.94,-2.89,-0.46,5.0,1.0,0.0,0.0,1.0,0.0,0.0,0.0,0.0,0.2,
6.536,117.26131887673523,98.6930017694705,-2.99,-2.81,-0.53,5.0,1.0,0.0,0.0,1.0,0.0,0.0,0.0,0.0,0.2,
6.56,117.07113188767352,98.62730017694706,-2.89,-3.11,-0.47,5.0,1.0,0.0,0.0,1.0,0.0,0.0,0.0,0.0,0.0,
6.584,117.09711318876735,98.67473001769471,-2.77,0.99,1.09,5.0,1.0,0.0,0.0,1.0,0.0,0.0,0.0,0.0,0.1,
6.608,117.18971131887673,98.64347300176946,-3.43,-0.53,0.53,5.0,1.0,0.0,0.0,1.0,0.0,0.0,0.0,0.0,0.0,
6.632,117.27097113188768,98.63134730017694,-3.66,-0.89,0.15,5.0,1.0,0.0,0.0,1.0,0.0,0.0,0.0,0.0,0.0,
6.657,117.24309711318875,98.6751347300177,-3.26,-0.85,0.23,5.0,1.0,0.0,0.0,1.0,0.0,0.0,0.0,0.0,0.0,
6.68,117.26730971131886,98.64351347300176,-2.76,-0.19,0.56,5.0,1.0,0.0,0.0,1.0,0.0,0.0,0.0,0.0,0.49,
6.705,117.45873097113189,98.63135134730017,-3.15,-0.1,0.39,5.0,1.0,0.0,0.0,1.0,0.0,0.0,0.0,0.0,0.29,
6.728,117.49587309711319,98.61213513473001,-3.24,-0.84,0.1,5.0,1.0,0.0,0.0,1.0,0.0,0.0,0.0,0.0,0.1,
6.753,117.53558730971132,98.61921351347301,-3.02,-2.41,-0.21,5.0,1.0,0.0,0.0,1.0,0.0,0.0,0.0,0.0,0.1,
6.777,117.57555873097112,98.6379213513473,-3.04,-2.34,-0.44,5.0,1.0,0.0,0.0,1.0,0.0,0.0,0.0,0.0,0.2,
6.801,117.4625558730971,98.65779213513473,-2.56,2.8,1.29,5.0,1.0,0.0,0.0,1.0,0.0,0.0,0.0,0.0,0.69,
6.825,117.5142555873097,98.64177921351347,-2.85,-0.65,-0.11,5.0,1.0,0.0,0.0,1.0,0.0,0.0,0.0,0.0,1.08,
6.849,117.59142555873098,98.65817792135134,-3.22,-2.32,-0.18,5.0,1.0,0.0,0.0,1.0,0.0,0.0,0.0,0.0,0.69,
6.874,117.6171425558731,98.65081779213514,-3.14,-2.18,-0.6,5.0,1.0,0.0,0.0,1.0,0.0,0.0,0.0,0.0,0.88,
6.898,117.4127142555873,98.6140817792135,-2.94,-2.95,-0.66,5.0,1.0,0.0,0.0,1.0,0.0,0.0,0.0,0.0,0.69,
6.922,117.44627142555872,98.63740817792134,-2.79,-1.84,0.27,5.0,1.0,0.0,0.0,1.0,0.0,0.0,0.0,0.0,0.88,
6.946,117.45862714255587,98.66674081779213,-2.78,-0.38,0.37,5.0,1.0,0.0,0.0,1.0,0.0,0.0,0.0,0.0,0.88,
6.97,117.53186271425558,98.6426740817792,-3.11,-2.44,-0.78,5.0,1.0,0.0,0.0,1.0,0.0,0.0,0.0,0.0,0.59,
6.994,117.53018627142555,98.66726740817792,-3.27,-1.97,-0.25,5.0,1.0,0.0,0.0,1.0,0.0,0.0,0.0,0.0,0.59,
7.018,117.44001862714256,98.58872674081778,-2.94,-1.92,-0.08,5.0,1.0,0.0,0.0,1.0,0.0,0.0,0.0,0.0,0.49,
7.043,117.44000186271425,98.58987267408179,-2.65,-1.92,0.13,5.0,1.0,0.0,0.0,1.0,0.0,0.0,0.0,0.0,0.0,
7.067,117.52100018627142,98.61698726740819,-2.95,-0.85,0.15,5.0,1.0,0.0,0.0,1.0,0.0,0.0,0.0,0.0,0.1,
7.091,117.49310001862713,98.5026987267408,-2.64,-3.11,-0.78,5.0,1.0,0.0,0.0,1.0,0.0,0.0,0.0,0.0,0.39,
7.115,117.42731000186271,98.50926987267408,-2.52,-2.17,-0.18,5.0,1.0,0.0,0.0,1.0,0.0,0.0,0.0,0.0,0.2,
7.139,117.29473100018627,98.4829269872674,-2.34,-1.77,0.13,5.0,1.0,0.0,0.0,1.0,0.0,0.0,0.0,0.0,0.49,
7.163,117.11947310001862,98.54329269872673,-1.04,-2.79,1.15,4.0,1.0,0.0,0.0,1.0,0.0,0.0,0.0,0.0,0.49,
7.187,117.18294731000186,98.59432926987267,0.61,1.53,2.39,3.0,1.0,0.0,0.0,1.0,0.0,0.0,0.0,0.0,0.78,
7.212,117.43229473100018,98.62643292698726,0.62,0.66,0.76,3.0,1.0,0.0,0.0,1.0,0.0,0.0,0.0,0.0,1.28,
7.235,117.53822947310002,98.74664329269872,-0.08,-2.54,-0.31,3.0,1.0,0.0,0.0,1.0,0.0,0.0,0.0,0.0,1.86,
7.26,117.41382294731001,98.77666432926986,-0.15,-4.35,-3.59,3.0,1.0,0.0,0.0,1.0,0.0,0.0,0.0,0.0,1.37,
7.283,117.068382294731,98.689666432927,2.86,6.66,0.99,2.0,1.0,0.0,0.0,1.0,0.0,0.0,0.0,0.0,1.18,
7.308,117.2408382294731,98.9419666432927,2.91,6.77,2.8,2.0,1.0,0.0,0.0,0.0,0.0,0.0,0.0,0.0,1.47,
7.331,117.6900838229473,99.03919666432927,1.34,6.1,1.76,2.0,1.0,0.0,0.0,0.0,0.0,0.0,0.0,0.0,1.86,
7.356,118.02300838229473,99.42691966643292,-1.45,0.97,-1.85,2.0,1.0,0.0,0.0,0.0,0.0,0.0,0.0,0.0,1.37,
7.379,118.05630083822948,99.6276919666433,-2.82,-3.22,-3.36,2.0,1.0,0.0,0.0,0.0,0.0,0.0,0.0,0.0,1.37,
7.404,118.03263008382295,99.66576919666433,-3.39,-3.49,-0.61,2.0,1.0,0.0,0.0,0.0,0.0,0.0,0.0,0.0,0.98,
7.428,118.03926300838229,99.55257691966645,-1.82,2.27,2.05,2.0,1.0,0.0,0.0,0.0,0.0,0.0,0.0,0.0,0.98,
7.452,118.05792630083823,99.30725769196664,-1.11,2.6,1.72,2.0,1.0,0.0,0.0,0.0,0.0,0.0,0.0,0.0,0.88,
7.476,118.15879263008382,99.30972576919666,-1.4,2.03,-0.6,2.0,1.0,0.0,0.0,0.0,0.0,0.0,0.0,0.0,1.08,
7.5,118.42987926300837,99.31897257691966,0.79,1.66,-1.27,2.0,1.0,0.0,0.0,0.0,0.0,0.0,0.0,0.0,0.88,
7.524,118.89798792630084,99.46389725769197,1.02,-0.95,-1.56,3.0,1.0,0.0,0.0,0.0,0.0,0.0,0.0,0.0,0.98,
7.548,118.9897987926301,98.9653897257692,9.86,-2.08,-4.79,3.0,1.0,0.0,0.0,0.0,0.0,0.0,0.0,0.0,1.67,
7.572,118.82797987926301,99.72553897257693,19.66,-4.88,-7.82,3.0,1.0,0.0,0.0,0.0,0.0,0.0,0.0,0.0,2.55,
7.596,118.4067979879263,100.8455538972577,14.38,2.91,-4.51,3.0,0.0,0.0,0.0,0.0,0.0,0.0,0.29,0.0,2.16,
7.62,118.28367979879262,101.31755538972577,15.95,16.48,-0.5,3.0,0.0,0.0,0.0,0.0,0.0,0.0,0.78,0.0,0.69,
7.645,118.37036797987926,101.18475553897257,27.01,18.83,-1.8,4.0,0.0,0.0,0.0,0.0,0.0,0.0,0.98,58.66,0.1,
7.668,119.32403679798793,102.58447555389725,14.25,21.26,2.23,4.0,0.0,0.0,0.0,0.0,1.0,0.0,1.57,84.95,0.0,
7.693,119.9864036797988,103.09344755538973,-15.02,-1.09,-2.37,6.0,0.0,0.0,0.0,0.0,1.0,0.0,1.67,89.37,0.0,
7.717,119.69264036797988,102.60434475553897,-14.38,-1.24,2.77,6.0,0.0,0.0,0.0,0.0,1.0,0.0,1.57,89.37,0.0,
7.741,119.65426403679798,102.2404344755539,-8.53,2.56,-0.58,7.0,0.0,0.0,0.0,0.0,1.0,0.0,1.57,92.21,0.0,
7.766,120.0104264036798,102.42004344755539,-6.18,-0.22,3.62,8.0,0.0,0.0,0.0,0.0,1.0,0.0,1.37,78.97,0.0,
7.79,120.12704264036799,102.51900434475553,-7.78,-3.6,6.56,8.0,1.0,0.0,0.0,0.0,1.0,0.0,1.28,82.99,0.0,
7.814,120.0487042640368,102.21390043447556,-9.81,-5.49,4.41,8.0,1.0,0.0,0.0,0.0,1.0,0.0,1.08,81.23,0.0,
7.838,120.30187042640367,102.33639004344755,-12.6,-11.57,3.63,9.0,1.0,0.0,0.0,0.0,1.0,0.0,0.88,77.89,0.0,
7.863,120.12018704264037,102.03363900434475,-10.98,-12.37,3.4,10.0,1.0,0.0,0.0,0.0,1.0,0.0,0.69,0.0,0.0,
7.887,119.69701870426404,101.66136390043448,-16.33,-17.85,2.51,10.0,1.0,0.0,0.0,0.0,2.0,0.0,0.49,0.0,0.0,
7.912,119.5377018704264,101.69613639004345,-29.11,-18.69,-0.22,11.0,1.0,0.0,0.0,0.0,1.0,0.0,0.2,0.0,0.1,
7.936,118.47777018704264,100.32261363900435,-17.41,-16.98,1.47,11.0,1.0,0.0,1.0,0.0,1.0,0.0,0.0,0.0,0.0,
7.96,118.31777701870426,100.02326136390043,-14.11,-10.31,-1.28,12.0,1.0,0.0,1.0,0.0,1.0,0.0,0.0,90.74,0.0,
7.985,118.49977770187041,100.13732613639004,-17.36,-12.53,-0.18,0.0,1.0,0.0,1.0,0.0,1.0,0.0,0.0,0.0,0.0,
8.009,118.47297777018704,99.977732613639,-20.41,-18.32,0.75,0.0,1.0,0.0,1.0,0.0,1.0,0.0,0.0,92.7,0.0,
8.034,118.0832977770187,99.34977326136391,-16.03,-18.6,2.32,2.0,1.0,0.0,1.0,0.0,1.0,0.0,0.0,85.45,0.0,
8.057,117.72932977770188,99.0709773261364,-7.76,-13.29,4.66,2.0,2.0,0.0,1.0,0.0,1.0,0.0,0.0,81.52,0.1,
8.082,117.45093297777018,98.90809773261364,-9.43,-13.5,3.93,2.0,2.0,0.0,1.0,0.0,1.0,0.0,0.0,80.74,0.0,
8.107,117.47709329777702,99.45880977326136,-24.86,-18.29,2.28,2.0,2.0,0.0,2.0,0.0,1.0,0.0,0.0,82.11,0.0,
8.13,116.81370932977771,98.62288097732613,-48.57,-49.42,-4.56,5.0,2.0,0.0,3.0,1.0,1.0,0.0,0.0,100.26,0.0,
8.155,114.75837093297777,96.62228809773262,-9.6,-21.42,4.82,7.0,2.0,0.0,3.0,1.0,1.0,0.0,0.0,69.26,0.0,
8.179,114.39983709329778,96.34122880977327,1.3,-2.69,3.03,6.0,2.0,0.0,3.0,1.0,1.0,0.0,0.0,37.38,0.0,
8.204,114.27398370932978,96.34912288097733,2.71,4.18,1.02,5.0,2.0,0.0,3.0,1.0,1.0,0.0,0.0,32.27,0.0,
8.227,114.48639837093299,96.49391228809773,-2.84,0.24,-0.92,5.0,2.0,0.0,2.0,1.0,1.0,0.0,0.0,26.29,0.0,
8.252,114.71463983709329,96.53539122880979,-11.37,-4.56,-0.34,5.0,2.0,0.0,3.0,1.0,1.0,0.0,0.0,33.75,0.0,
8.275,114.99846398370933,96.37753912288098,3.11,8.82,2.62,4.0,2.0,0.0,3.0,1.0,1.0,0.0,0.0,39.83,0.0,
8.3,114.92784639837093,96.1997539122881,10.11,8.44,4.98,2.0,2.0,0.0,2.0,1.0,1.0,0.0,0.0,34.73,0.88,
8.324,115.01078463983708,96.5329753912288,8.14,9.9,2.97,0.0,2.0,0.0,2.0,0.0,1.0,0.0,0.0,31.59,0.0,
8.348,114.93807846398371,96.79129753912287,-0.64,8.47,-0.85,0.0,2.0,0.0,2.0,0.0,1.0,0.0,0.0,23.94,2.16,
8.373,115.47080784639837,97.2041297539123,-13.05,-1.98,-1.47,2.0,2.0,0.0,2.0,1.0,1.0,0.0,0.0,24.92,1.77,
8.396,115.34408078463983,96.87641297539123,-13.27,-1.37,-5.11,3.0,2.0,0.0,3.0,1.0,1.0,0.0,0.0,26.98,0.0,
8.421,115.61940807846399,96.63664129753911,-14.99,0.2,-4.08,5.0,2.0,0.0,3.0,1.0,1.0,0.0,0.0,13.54,0.0,
8.445,115.69194080784641,96.40566412975392,-3.55,0.21,-1.31,7.0,2.0,0.0,3.0,2.0,1.0,0.0,0.0,0.0,0.0,
8.469,115.51019408078464,96.3915664129754,-3.7,-1.54,0.64,8.0,2.0,0.0,3.0,2.0,1.0,0.0,0.0,0.0,0.0,
8.494,115.47401940807846,96.32715664129753,-7.87,-3.34,2.97,8.0,2.0,0.0,3.0,2.0,1.0,0.0,0.0,0.0,0.0,
8.518,115.59640194080785,96.22171566412975,-14.89,-9.58,3.66,10.0,2.0,0.0,3.0,2.0,1.0,0.0,0.0,0.0,0.29,
8.542,115.7436401940808,95.86017156641297,-15.84,-16.76,1.92,13.0,2.0,0.0,4.0,2.0,1.0,0.0,0.0,0.0,0.0,
8.566,115.29936401940809,95.5450171566413,-12.62,-17.88,0.4,16.0,3.0,0.0,4.0,3.0,2.0,0.0,0.0,0.0,0.0,
8.591,114.8229364019408,95.28850171566414,-7.75,-15.31,1.59,18.0,3.0,0.0,5.0,3.0,2.0,0.0,0.0,0.0,0.0,
8.615,114.49629364019407,95.14585017156642,-3.92,-9.41,3.11,19.0,3.0,0.0,5.0,3.0,2.0,0.0,0.0,0.0,0.0,
8.64,114.00462936401941,95.22158501715666,-4.06,-6.66,2.58,19.0,3.0,0.0,5.0,3.0,2.0,0.0,0.0,0.0,0.2,
8.664,113.86546293640194,94.99515850171566,-3.36,-4.69,3.56,21.0,3.0,0.0,5.0,3.0,2.0,0.0,0.0,0.0,0.59,
8.688,113.9235462936402,94.95451585017156,-5.08,-4.7,3.05,21.0,3.0,0.0,5.0,3.0,2.0,0.0,0.0,0.0,0.0,
8.713,113.85735462936402,94.84245158501714,-6.92,-8.67,1.21,24.0,3.0,0.0,6.0,3.0,2.0,0.0,0.0,0.0,0.0,
8.737,113.58073546293639,94.65124515850171,-7.4,-10.4,-0.02,22.0,3.0,0.0,6.0,3.0,2.0,0.0,0.0,0.0,0.0,
8.761,113.23807354629365,94.58712451585016,-7.53,-13.0,0.76,24.0,3.0,0.0,6.0,3.0,2.0,1.0,0.0,0.0,0.39,
8.785,112.86180735462936,94.40071245158501,-6.95,-14.27,0.93,24.0,3.0,0.0,6.0,3.0,3.0,1.0,0.0,0.0,0.0,
8.81,112.39218073546294,94.22907124515851,-7.71,-14.98,1.52,24.0,3.0,0.0,6.0,3.0,3.0,1.0,0.0,0.0,0.0,
8.835,112.25521807354629,94.11290712451584,-5.71,-14.05,2.47,25.0,3.0,0.0,7.0,3.0,3.0,1.0,0.0,0.0,0.0,
8.859,111.91752180735462,93.80429071245158,-6.29,-13.73,6.01,26.0,3.0,0.0,7.0,4.0,3.0,1.0,0.0,0.0,0.0,
8.884,111.70375218073548,93.72842907124516,-4.81,-9.0,3.77,26.0,3.0,0.0,7.0,4.0,3.0,1.0,0.0,0.0,0.0,
8.907,111.52937521807355,93.75684290712451,-5.08,-10.44,5.51,27.0,3.0,0.0,7.0,4.0,4.0,2.0,0.0,0.0,0.0,
8.932,111.07093752180734,93.56168429071246,-4.2,-8.2,4.18,27.0,3.0,0.0,7.0,4.0,4.0,2.0,0.0,0.0,0.0,
8.956,111.01609375218074,93.47016842907124,-4.14,-8.03,6.27,28.0,3.0,0.0,7.0,4.0,4.0,2.0,0.0,0.0,0.59,
8.981,111.10960937521808,93.51501684290712,-3.08,-4.35,9.35,28.0,3.0,0.0,7.0,4.0,4.0,2.0,0.0,0.0,0.29,
9.005,110.72296093752182,93.41150168429071,-3.86,-5.82,3.2,30.0,3.0,0.0,7.0,4.0,4.0,2.0,0.0,0.0,0.0,
9.029,110.47729609375219,93.23015016842906,-4.08,-3.15,1.55,27.0,3.0,0.0,7.0,4.0,4.0,2.0,0.0,0.0,0.0,
9.054,110.25472960937522,93.13101501684291,-4.32,0.08,0.23,28.0,3.0,0.0,7.0,4.0,4.0,2.0,0.0,0.0,0.0,
9.077,110.21447296093751,93.07610150168428,-4.61,0.9,0.15,28.0,3.0,0.0,7.0,5.0,4.0,2.0,0.0,0.0,0.1,
9.102,110.28244729609376,92.92661015016843,-4.64,0.95,1.12,32.0,3.0,0.0,7.0,5.0,4.0,2.0,0.0,0.0,0.29,
9.126,110.44224472960937,92.94766101501685,-4.08,-1.66,0.53,30.0,3.0,0.0,8.0,5.0,4.0,2.0,0.0,0.0,0.2,
9.15,110.37722447296095,92.89576610150168,-4.06,-2.07,0.7,30.0,3.0,0.0,8.0,5.0,4.0,2.0,0.0,0.0,0.0,
9.175,110.2717224472961,92.87257661015018,-4.18,-2.81,0.8,30.0,3.0,0.0,8.0,5.0,4.0,2.0,0.0,0.0,0.0,
9.199,110.22517224472962,92.83425766101502,-3.53,-1.34,0.38,30.0,3.0,0.0,8.0,5.0,4.0,2.0,0.0,0.0,0.0,
9.224,110.13051722447297,92.76742576610151,-2.94,0.05,-0.02,30.0,4.0,0.0,8.0,5.0,4.0,2.0,0.0,0.0,0.0,
9.247,110.0490517224473,92.86874257661015,-2.66,1.48,-0.72,30.0,3.0,0.0,8.0,5.0,3.0,1.0,0.0,0.0,0.0,
9.272,109.95990517224473,92.91487425766101,-3.68,1.02,0.11,30.0,4.0,0.0,8.0,5.0,3.0,1.0,0.0,0.0,0.0,
9.296,109.98699051722447,92.9464874257661,-3.15,-1.45,0.05,30.0,3.0,0.0,8.0,5.0,4.0,1.0,0.0,0.0,0.29,
9.32,109.89969905172244,92.89564874257661,-2.79,-2.18,-0.31,30.0,3.0,0.0,8.0,5.0,4.0,1.0,0.0,0.0,0.1,
9.345,109.76496990517225,92.81856487425767,-2.55,-2.16,-0.37,30.0,3.0,0.0,8.0,5.0,4.0,1.0,0.0,0.0,0.0,
9.369,109.81449699051721,92.79285648742578,-2.54,-0.76,0.15,27.0,3.0,0.0,8.0,5.0,4.0,1.0,0.0,0.0,0.0,
9.394,109.86444969905173,92.80828564874258,-2.54,0.92,-0.39,28.0,3.0,0.0,8.0,4.0,3.0,1.0,0.0,0.0,0.29,
9.418,109.86944496990517,92.79182856487427,-2.8,-0.05,-0.57,30.0,3.0,0.0,7.0,4.0,3.0,1.0,0.0,0.0,0.49,
9.442,109.94194449699052,92.75418285648743,-2.57,0.94,-0.24,28.0,3.0,0.0,7.0,4.0,3.0,1.0,0.0,0.0,0.49,
9.466,109.98519444969905,92.70541828564875,-2.97,0.76,-0.71,30.0,3.0,0.0,7.0,4.0,3.0,1.0,0.0,0.0,0.29,
9.491,110.0165194449699,92.75454182856488,-2.6,1.58,-0.61,31.0,3.0,0.0,7.0,4.0,3.0,1.0,0.0,0.0,0.2,
9.516,110.05565194449699,92.7054541828565,-2.44,1.68,-0.55,28.0,3.0,0.0,7.0,4.0,3.0,1.0,0.0,0.0,0.0,
9.539,110.17656519444971,92.74554541828566,-2.15,2.73,-0.79,28.0,3.0,0.0,7.0,4.0,3.0,0.0,0.0,0.0,0.0,
9.564,110.16165651944497,92.65055454182857,-2.25,2.9,-0.96,27.0,3.0,0.0,7.0,4.0,3.0,0.0,0.0,0.0,0.0,
9.588,110.1871656519445,92.71305545418286,-1.85,3.44,-0.39,27.0,3.0,0.0,7.0,4.0,3.0,0.0,0.0,0.0,0.0,
9.613,110.31571656519445,92.68330554541829,-1.97,2.08,-0.39,27.0,3.0,0.0,7.0,4.0,3.0,0.0,0.0,0.0,0.39,
9.636,110.40057165651945,92.77033055454183,-2.56,1.05,-0.21,27.0,3.0,0.0,7.0,4.0,3.0,0.0,0.0,0.0,0.39,
9.661,110.43605716565195,92.78803305545419,-2.83,-0.89,-0.16,27.0,3.0,0.0,7.0,4.0,3.0,0.0,0.0,0.0,0.1,
9.686,110.4666057165652,92.83480330554542,-2.79,-0.34,-0.02,27.0,3.0,0.0,7.0,4.0,3.0,0.0,0.0,0.0,0.0,
9.71,110.48766057165652,92.89348033055455,-2.4,1.55,0.4,27.0,3.0,0.0,7.0,4.0,3.0,0.0,0.0,0.0,0.0,
9.734,110.58876605716564,92.97134803305545,-2.66,1.56,-0.24,26.0,3.0,0.0,7.0,4.0,3.0,0.0,0.0,0.0,0.29,
9.758,110.62587660571656,93.11413480330553,-3.05,1.21,0.0,26.0,3.0,0.0,7.0,4.0,3.0,0.0,0.0,0.0,0.49,
9.783,110.59358766057166,93.13741348033057,-3.41,-1.21,-0.07,26.0,3.0,0.0,7.0,4.0,3.0,0.0,0.0,0.0,0.49,
9.806,110.64435876605717,93.11274134803307,-3.25,-0.89,-0.51,27.0,3.0,0.0,7.0,4.0,3.0,0.0,0.0,0.0,0.2,
9.831,110.73043587660571,93.07427413480329,-2.9,-0.04,-0.38,26.0,3.0,0.0,7.0,4.0,3.0,0.0,0.0,0.0,0.0,
9.856,110.82904358766056,93.08842741348033,-2.48,0.98,-0.24,27.0,3.0,0.0,7.0,4.0,3.0,0.0,0.0,0.0,0.2,
9.88,110.86590435876606,93.08084274134804,-2.5,0.85,-0.58,27.0,3.0,0.0,7.0,4.0,3.0,0.0,0.0,0.0,0.59,
9.905,110.9415904358766,93.1520842741348,-2.62,0.82,-0.2,27.0,3.0,0.0,7.0,4.0,3.0,0.0,0.0,0.0,0.78,
9.928,110.96715904358766,93.13220842741347,-3.05,-0.19,-0.27,27.0,3.0,0.0,7.0,4.0,3.0,0.0,0.0,0.0,0.1,
9.953,111.04171590435875,93.20222084274134,-3.39,-0.94,-0.02,27.0,3.0,0.0,7.0,4.0,3.0,0.0,0.0,0.0,0.0,
9.977,111.05817159043588,93.25422208427415,-3.09,-2.6,-0.23,27.0,3.0,0.0,7.0,4.0,3.0,0.0,0.0,0.0,0.0,
10.002,111.02381715904357,93.20542220842742,-2.91,-1.85,-0.19,27.0,3.0,0.0,7.0,4.0,3.0,0.0,0.0,0.0,0.0,
10.027,111.02038171590435,93.18254222084275,-2.53,-0.89,-0.34,27.0,3.0,0.0,7.0,4.0,2.0,0.0,0.0,0.0,0.0,
10.05,110.97503817159044,93.18925422208427,-2.98,0.24,-0.38,27.0,3.0,0.0,7.0,4.0,3.0,0.0,0.0,0.0,0.0,
10.075,111.07850381715905,93.27092542220842,-3.12,0.61,-0.21,27.0,3.0,0.0,7.0,4.0,2.0,0.0,0.0,0.0,0.29,
10.099,111.14285038171592,93.34209254222084,-3.08,1.76,0.57,28.0,3.0,0.0,7.0,4.0,2.0,0.0,0.0,0.0,0.59,
10.124,111.24828503817159,93.35820925422209,-3.15,0.48,0.31,28.0,3.0,0.0,7.0,4.0,2.0,0.0,0.0,0.0,0.98,
10.148,111.35782850381716,93.36882092542221,-2.6,0.49,-0.34,27.0,3.0,0.0,7.0,4.0,2.0,0.0,0.0,0.0,0.39,
10.172,111.40478285038172,93.39688209254223,-2.46,0.3,0.42,31.0,3.0,0.0,7.0,4.0,2.0,0.0,0.0,0.0,0.29,
10.196,111.40047828503818,93.40868820925422,-2.85,0.31,0.07,28.0,3.0,0.0,7.0,4.0,2.0,0.0,0.0,0.0,0.39,
10.221,111.41804782850382,93.43686882092543,-3.24,0.46,0.19,27.0,3.0,0.0,7.0,4.0,2.0,0.0,0.0,0.0,0.69,
10.246,111.41980478285038,93.47568688209255,-3.02,-0.05,0.02,28.0,3.0,0.0,7.0,4.0,2.0,0.0,0.0,0.0,0.78,
10.269,111.46498047828504,93.45256868820925,-2.86,-0.43,-0.15,28.0,3.0,0.0,7.0,4.0,2.0,0.0,0.0,0.0,0.49,
10.294,111.46949804782851,93.44125686882093,-2.58,-0.21,-0.4,27.0,3.0,0.0,7.0,4.0,2.0,0.0,0.0,0.0,0.29,
10.318,111.50594980478286,93.4401256868821,-2.79,0.14,-0.33,27.0,3.0,0.0,7.0,4.0,2.0,0.0,0.0,0.0,0.0,
10.343,111.5545949804783,93.47601256868822,-2.76,-0.19,-0.3,28.0,3.0,0.0,7.0,4.0,2.0,0.0,0.0,0.0,0.0,
10.368,111.58645949804784,93.43460125686883,-2.59,-0.15,-0.27,27.0,3.0,0.0,7.0,4.0,2.0,0.0,0.0,0.0,0.0,
10.392,111.63464594980478,93.39446012568689,-2.27,0.63,-0.27,27.0,3.0,0.0,7.0,4.0,2.0,0.0,0.0,0.0,0.39,
10.417,111.70246459498048,93.31844601256869,-1.89,0.29,-0.65,27.0,3.0,0.0,7.0,4.0,2.0,0.0,0.0,0.0,0.49,
10.44,111.66424645949805,93.33784460125686,-2.51,0.47,-0.17,27.0,3.0,0.0,7.0,4.0,2.0,0.0,0.0,0.0,0.69,
10.465,111.7414246459498,93.31278446012568,-3.01,-0.36,0.04,27.0,3.0,0.0,7.0,4.0,2.0,0.0,0.0,0.0,0.29,
10.489,111.77614246459498,93.33727844601256,-2.66,0.11,-0.2,27.0,3.0,0.0,7.0,4.0,2.0,0.0,0.0,0.0,0.1,
10.514,111.84261424645949,93.36672784460126,-2.73,-0.21,-0.39,27.0,3.0,0.0,7.0,4.0,2.0,0.0,0.0,0.0,0.2,
10.539,111.86726142464596,93.36967278446012,-2.62,0.13,-0.15,27.0,3.0,0.0,7.0,4.0,2.0,0.0,0.0,0.0,0.49,
10.563,111.8337261424646,93.40596727844601,-2.82,0.25,-0.15,27.0,3.0,0.0,7.0,4.0,2.0,0.0,0.0,0.0,0.69,
10.587,111.86637261424646,93.4725967278446,-2.73,-0.17,0.02,27.0,3.0,0.0,7.0,4.0,2.0,0.0,0.0,0.0,0.69,
10.611,111.90563726142463,93.46125967278445,-2.59,-0.75,-0.35,27.0,3.0,0.0,7.0,4.0,2.0,0.0,0.0,0.0,0.2,
10.636,111.95456372614245,93.46912596727844,-2.47,0.89,-0.44,26.0,3.0,0.0,7.0,4.0,2.0,0.0,0.0,0.0,0.2,
10.66,112.03145637261426,93.46091259672784,-2.38,0.99,-0.34,27.0,3.0,0.0,7.0,4.0,2.0,0.0,0.0,0.0,0.0,
10.685,112.04814563726143,93.4960912596728,-2.05,1.79,-0.27,28.0,3.0,0.0,7.0,4.0,2.0,0.0,0.0,0.0,0.0,
10.708,112.22081456372614,93.53560912596728,-2.25,2.96,0.11,27.0,3.0,0.0,7.0,4.0,2.0,0.0,0.0,0.0,0.0,
10.733,112.3370814563726,93.55756091259673,-2.56,3.36,0.48,30.0,3.0,0.0,7.0,4.0,2.0,0.0,0.0,0.0,0.0,
10.758,112.39370814563726,93.62275609125967,-2.43,1.84,0.24,27.0,3.0,0.0,7.0,4.0,2.0,0.0,0.0,0.0,0.29,
10.782,112.42637081456374,93.63827560912597,-2.93,0.76,0.5,27.0,3.0,0.0,7.0,4.0,2.0,0.0,0.0,0.0,0.0,
10.806,112.49263708145637,93.6938275609126,-3.24,-1.63,0.04,27.0,3.0,0.0,7.0,4.0,2.0,0.0,0.0,0.0,0.0,
10.83,112.54426370814564,93.66338275609125,-3.71,-3.92,0.21,27.0,3.0,0.0,7.0,4.0,2.0,0.0,0.0,0.0,0.1,
10.855,112.51342637081456,93.62433827560913,-3.48,-3.98,0.22,27.0,3.0,0.0,7.0,4.0,2.0,0.0,0.0,0.0,0.2,
10.88,112.43834263708146,93.5754338275609,-3.39,-4.45,-0.21,27.0,3.0,0.0,7.0,4.0,2.0,0.0,0.0,0.0,0.29,
10.904,112.44883426370814,93.57954338275609,-3.27,-4.73,-0.2,27.0,3.0,0.0,7.0,4.0,2.0,0.0,0.0,0.0,0.78,
10.929,112.3868834263708,93.5799543382756,-3.15,-3.79,0.23,26.0,3.0,0.0,7.0,4.0,2.0,0.0,0.0,0.0,0.49,
10.952,112.36268834263707,93.61599543382756,-3.31,-4.61,0.15,26.0,3.0,0.0,7.0,4.0,2.0,0.0,0.0,0.0,0.29,
10.977,112.27926883426369,93.58359954338275,-3.57,-6.24,0.12,25.0,3.0,0.0,7.0,4.0,2.0,0.0,0.0,0.0,0.2,
11.001,112.19892688342637,93.56235995433828,-3.62,-6.47,0.23,25.0,3.0,0.0,6.0,4.0,2.0,0.0,0.0,0.0,0.0,
11.026,112.06489268834264,93.58723599543383,-3.24,-5.11,-0.31,24.0,3.0,0.0,6.0,4.0,2.0,0.0,0.0,0.0,0.0,
11.051,112.02448926883426,93.57172359954338,-2.44,-3.87,-0.37,23.0,3.0,0.0,6.0,4.0,2.0,0.0,0.0,0.0,0.1,
11.075,111.90344892688343,93.60617235995433,-2.92,-2.31,-0.21,23.0,3.0,0.0,6.0,4.0,2.0,0.0,0.0,0.0,0.39,
11.1,111.83734489268835,93.63661723599543,-3.3,-2.46,0.44,23.0,3.0,0.0,6.0,4.0,2.0,0.0,0.0,0.0,0.59,
11.123,111.82173448926882,93.63066172359953,-3.21,-3.53,0.26,22.0,3.0,0.0,6.0,4.0,2.0,0.0,0.0,0.0,0.29,
11.148,111.77517344892688,93.62106617235996,-2.86,-3.75,0.39,22.0,3.0,0.0,6.0,4.0,2.0,0.0,0.0,0.0,0.29,
11.172,111.71651734489268,93.566106617236,-2.89,-3.91,0.19,22.0,3.0,0.0,6.0,4.0,2.0,0.0,0.0,0.0,0.39,
11.197,111.68365173448927,93.5156106617236,-3.04,-3.56,0.27,22.0,3.0,0.0,6.0,3.0,2.0,0.0,0.0,0.0,0.78,
11.222,111.68036517344893,93.48356106617237,-3.21,-4.34,0.15,22.0,2.0,0.0,6.0,3.0,2.0,0.0,0.0,0.0,0.78,
11.245,111.61703651734489,93.49835610661724,-3.49,-5.08,0.52,21.0,2.0,0.0,6.0,3.0,2.0,0.0,0.0,0.0,0.59,
11.27,111.5207036517345,93.4638356106617,-3.28,-5.2,0.0,21.0,2.0,0.0,5.0,3.0,2.0,0.0,0.0,0.0,0.39,
11.294,111.48407036517345,93.43338356106617,-3.32,-4.79,0.38,20.0,2.0,0.0,5.0,3.0,2.0,0.0,0.0,0.0,0.39,
11.319,111.33640703651734,93.38533835610662,-3.35,-4.91,0.09,19.0,2.0,0.0,5.0,3.0,2.0,0.0,0.0,0.0,0.49,
11.343,111.24064070365174,93.38953383561066,-3.37,-3.21,-0.08,19.0,2.0,0.0,5.0,3.0,2.0,0.0,0.0,0.0,0.0,
11.367,111.15906407036518,93.30895338356106,-3.36,-1.1,0.06,19.0,2.0,0.0,5.0,3.0,2.0,0.0,0.0,0.0,0.0,
11.392,111.11490640703651,93.29189533835611,-2.88,0.95,0.08,20.0,2.0,0.0,5.0,3.0,2.0,0.0,0.0,0.0,0.29,
11.416,111.14649064070366,93.30818953383562,-3.23,1.89,-0.05,20.0,2.0,0.0,5.0,3.0,2.0,0.0,0.0,0.0,0.0,
11.441,111.10464906407036,93.29181895338357,-2.85,2.94,-0.35,20.0,2.0,0.0,5.0,3.0,2.0,0.0,0.0,0.0,0.49,
11.465,111.16346490640703,93.29018189533836,-2.54,5.93,-0.14,21.0,2.0,0.0,5.0,3.0,2.0,0.0,0.0,0.0,0.39,
11.49,111.16934649064069,93.29901818953383,-2.13,10.11,0.62,22.0,3.0,0.0,6.0,3.0,2.0,0.0,0.0,0.0,0.2,
11.513,111.29593464906407,93.32690181895339,-2.89,9.81,0.37,22.0,3.0,0.0,6.0,3.0,2.0,0.0,0.0,0.0,0.29,
11.538,111.4705934649064,93.29369018189536,-3.07,10.03,1.13,23.0,3.0,0.0,6.0,4.0,2.0,0.0,0.0,0.0,0.59,
11.563,111.61405934649063,93.24536901818954,-1.88,12.37,0.89,24.0,3.0,0.0,6.0,4.0,2.0,0.0,0.0,0.0,0.29,
11.587,111.92540593464906,93.33053690181896,-0.76,13.08,0.98,23.0,3.0,0.0,6.0,4.0,2.0,0.0,0.0,0.0,0.1,
11.611,112.20854059346489,93.3120536901819,0.4,10.02,1.05,23.0,3.0,0.0,6.0,4.0,1.0,0.0,0.0,0.0,0.0,
11.635,112.60585405934648,93.4542053690182,-0.48,3.85,0.73,26.0,3.0,0.0,6.0,4.0,1.0,0.0,0.0,0.0,0.0,
11.66,112.78958540593466,93.54942053690182,-1.34,-0.32,0.76,24.0,3.0,0.0,6.0,4.0,1.0,0.0,0.0,0.0,0.2,
11.684,113.02395854059347,93.65794205369018,-2.53,-3.84,1.33,24.0,3.0,0.0,6.0,4.0,1.0,0.0,0.0,0.0,0.0,
11.709,113.04739585405935,93.64179420536901,-3.02,-5.85,2.09,22.0,3.0,0.0,6.0,4.0,1.0,0.0,0.0,0.0,0.0,
11.732,113.12173958540592,93.64917942053691,-3.89,-10.13,3.23,21.0,2.0,0.0,6.0,4.0,1.0,0.0,0.0,0.0,0.0,
11.757,113.01217395854059,94.0189179420537,-2.0,-8.98,5.24,17.0,2.0,0.0,5.0,4.0,1.0,0.0,0.0,0.0,0.49,
11.782,112.75821739585406,93.77689179420537,5.4,-13.9,5.4,11.0,2.0,0.0,4.0,4.0,1.0,0.0,0.0,0.0,0.0,
11.806,112.4448217395854,94.39168917942052,10.3,-8.89,3.68,3.0,1.0,0.0,3.0,3.0,0.0,0.0,0.0,0.0,0.59,
11.83,112.19748217395853,94.76816891794206,20.38,-15.03,9.4,10.0,1.0,0.0,2.0,2.0,0.0,0.0,0.0,0.0,1.28,
11.854,111.99274821739584,95.86781689179419,20.87,-27.47,23.66,6.0,1.0,0.0,1.0,2.0,0.0,0.0,0.0,0.0,2.45,
11.879,112.00827482173959,97.23778168917941,-22.37,-69.09,12.02,4.0,1.0,0.0,0.0,1.0,0.0,0.0,0.0,0.0,4.71,
11.904,111.05582748217395,98.00477816891794,-49.63,-56.62,34.1,2.0,1.0,0.0,0.0,1.0,0.0,0.0,0.0,0.0,5.79,
11.928,112.24758274821738,97.5864778168918,-86.01,58.26,71.08,1.0,1.0,0.0,0.0,1.0,1.0,0.0,0.0,53.27,12.07,
11.953,112.60975827482174,99.07464778168918,-70.23,91.97,53.58,0.0,1.0,0.0,0.0,0.0,0.0,0.0,0.0,22.96,18.44,
11.976,113.90597582748217,99.83546477816891,-70.08,72.62,49.21,0.0,1.0,0.0,0.0,0.0,0.0,0.0,0.0,25.02,36.98,
12.001,113.77459758274821,102.16154647781688,-49.1,13.25,27.47,0.0,1.0,0.0,0.0,0.0,0.0,0.0,0.0,13.44,16.68,
12.025,112.87945975827483,104.19415464778169,-34.21,19.62,13.61,1.0,1.0,0.0,0.0,0.0,0.0,0.0,0.0,0.0,21.68,
12.05,112.0969459758275,104.91941546477817,-23.79,-15.99,-19.32,1.0,1.0,0.0,0.0,0.0,0.0,0.0,0.0,0.0,4.81,
12.073,111.03769459758274,106.17994154647782,7.92,-13.74,-31.92,1.0,1.0,0.0,0.0,0.0,0.0,0.0,0.0,0.0,1.86,
12.098,109.65376945975827,107.55699415464777,32.27,-7.87,-31.67,1.0,1.0,0.0,0.0,0.0,0.0,0.0,0.0,62.69,0.59,
12.123,109.23637694597582,108.72969941546478,47.02,8.3,-26.32,1.0,1.0,0.0,0.0,0.0,0.0,0.0,0.0,22.17,1.47,
12.146,109.72563769459758,109.51296994154647,59.26,3.63,-37.88,1.0,1.0,0.0,0.0,0.0,0.0,0.0,0.1,0.0,1.08,
12.171,109.86456376945975,109.96929699415465,66.9,3.8,-40.95,0.0,1.0,0.0,0.0,0.0,0.0,0.0,0.1,41.79,1.47,
12.195,109.77045637694597,109.64592969941546,68.24,6.65,-40.34,0.0,1.0,0.0,0.0,0.0,0.0,0.0,0.1,73.28,1.57,
12.219,109.9050456376946,108.68659296994154,58.2,12.24,-38.38,0.0,1.0,0.0,0.0,0.0,0.0,0.0,0.1,75.24,1.18,
12.243,109.83750456376946,107.17765929699416,45.6,19.98,-32.95,0.0,1.0,0.0,0.0,0.0,0.0,0.0,0.2,80.25,1.77,
12.268,110.36175045637694,105.01976592969942,38.44,23.18,-33.27,0.0,1.0,0.0,0.0,0.0,0.0,0.0,0.1,76.71,2.06,
12.293,111.16117504563769,103.55297659296994,36.0,10.73,-34.07,0.0,1.0,0.0,0.0,0.0,0.0,0.0,0.0,77.3,2.26,
12.316,112.24011750456376,101.84029765929701,27.82,-0.83,-45.98,0.0,1.0,0.0,0.0,0.0,0.0,0.0,0.0,78.38,1.28,
12.341,113.28401175045637,100.4360297659297,17.54,-2.11,-25.28,0.0,1.0,0.0,0.0,0.0,0.0,0.0,0.0,75.24,0.69,
12.364,114.25240117504563,98.59460297659297,4.95,-2.95,-17.56,0.0,1.0,0.0,0.0,0.0,0.0,0.0,0.0,75.93,0.49,
12.389,115.98724011750457,96.9794602976593,6.29,-11.85,-11.28,0.0,1.0,0.0,0.0,0.0,0.0,0.0,0.0,74.95,0.98,
12.412,117.16872401175044,96.14294602976592,18.86,-11.09,8.98,0.0,1.0,0.0,0.0,0.0,0.0,0.0,0.0,75.44,0.59,
12.436,117.37687240117505,95.51929460297659,28.16,0.4,29.73,0.0,1.0,0.0,0.0,0.0,0.0,0.0,0.0,75.14,0.29,
12.461,117.92868724011751,94.79092946029765,33.6,14.82,44.44,0.0,1.0,0.0,0.0,0.0,0.0,0.0,0.0,74.07,0.69,
12.484,117.73186872401175,94.28609294602977,33.1,30.61,46.84,0.0,1.0,0.0,0.0,0.0,0.0,0.0,0.0,72.2,0.88,
12.508,117.44218687240117,93.10160929460298,35.91,23.37,39.44,0.0,1.0,0.0,0.0,0.0,0.0,0.0,0.0,70.04,0.98,
12.531,116.16221868724011,92.2541609294603,35.31,5.08,25.4,0.0,1.0,0.0,0.0,0.0,0.0,0.0,0.0,71.61,0.98,
12.556,115.41322186872401,91.79141609294604,29.59,-23.21,7.73,0.0,1.0,0.0,0.0,0.0,0.0,0.0,0.0,71.61,1.18,
12.579,114.7353221868724,92.0241416092946,16.98,-47.09,-24.78,0.0,1.0,0.0,0.0,0.0,0.0,0.0,0.0,71.71,0.2,
12.604,114.10053221868725,93.17241416092946,8.74,-45.62,-31.45,0.0,1.0,0.0,0.0,0.0,0.0,0.0,0.0,68.47,0.1,
12.627,113.62305322186872,95.06924141609295,9.73,-43.98,-42.54,0.0,1.0,0.0,0.0,0.0,0.0,0.0,0.0,70.44,0.2,
12.651,113.71930532218687,96.55492414160929,17.32,-27.73,-32.74,0.0,1.0,0.0,0.0,0.0,0.0,0.0,0.0,72.5,0.2,
12.676,113.35993053221868,98.09849241416093,23.76,-34.09,-24.36,0.0,1.0,0.0,0.0,0.0,0.0,0.0,0.0,68.96,0.39,
12.7,113.80099305322187,99.53984924141609,22.79,-37.49,-5.14,0.0,1.0,0.0,0.0,0.0,0.0,0.0,0.0,65.24,0.2,
12.724,117.13009930532219,97.6679849241416,-0.32,59.09,33.72,0.0,1.0,0.0,0.0,0.0,0.0,0.0,0.0,68.38,0.0,
12.748,119.43400993053223,93.58379849241415,0.76,13.78,57.62,0.0,1.0,0.0,0.0,0.0,0.0,0.0,0.0,67.59,0.0,
12.772,120.38440099305322,90.16037984924142,-29.42,26.7,67.43,0.0,0.0,0.0,0.0,0.0,0.0,0.0,0.0,66.12,0.39,
12.796,118.18444009930532,92.68003798492414,-40.98,-36.96,9.57,0.0,0.0,0.0,0.0,0.0,0.0,0.0,0.0,57.58,0.0,
12.82,117.37044400993054,94.82200379849242,-214.1,55.56,26.62,2.0,1.0,0.0,0.0,0.0,0.0,0.0,0.0,5.0,0.29,
12.845,119.64704440099307,91.08520037984925,-121.66,33.01,30.65,8.0,1.0,0.0,1.0,0.0,0.0,0.0,0.0,0.0,0.0,
12.869,118.93870444009931,87.48052003798492,-46.87,46.07,21.96,0.0,1.0,0.0,2.0,0.0,1.0,0.0,0.0,0.0,0.0,
12.894,119.71387044400993,86.4630520037985,-13.44,2.76,4.08,3.0,2.0,0.0,3.0,0.0,1.0,0.0,0.0,0.0,0.0,
12.917,120.76338704440099,88.38630520037984,-21.24,-4.18,6.44,5.0,2.0,0.0,3.0,1.0,2.0,0.0,0.0,0.0,0.0,
12.942,120.6073387044401,89.30763052003797,-36.82,-48.65,-4.12,10.0,2.0,0.0,5.0,2.0,4.0,1.0,0.0,0.0,0.0,
12.966,118.35973387044402,89.7327630520038,-27.8,-13.57,1.56,19.0,3.0,0.0,7.0,3.0,6.0,3.0,0.0,17.76,0.0,
12.991,117.72097338704441,90.60327630520038,-17.53,14.27,11.17,25.0,3.0,0.0,8.0,3.0,7.0,4.0,0.0,25.6,0.0,
13.016,118.24209733870444,91.23032763052004,-7.58,8.11,8.72,31.0,4.0,0.0,10.0,4.0,8.0,5.0,0.0,31.59,0.0,
13.04,118.56420973387044,91.626032763052,-6.36,-3.56,9.87,35.0,4.0,0.0,11.0,4.0,9.0,5.0,0.0,45.81,0.0,
13.065,118.30842097338704,91.77360327630521,-9.02,-2.0,-1.62,37.0,5.0,0.0,12.0,5.0,9.0,6.0,0.0,28.74,0.0,
13.089,117.75184209733871,92.02236032763052,-5.7,0.71,-3.56,40.0,5.0,0.0,2.0,5.0,10.0,6.0,0.0,14.72,0.0,
13.114,117.43518420973388,92.26323603276306,-4.95,-1.06,-2.79,44.0,6.0,0.0,3.0,5.0,10.0,6.0,0.0,20.31,0.0,
13.138,117.34051842097338,92.35932360327631,-4.75,3.74,-2.82,44.0,6.0,0.0,5.0,5.0,10.0,7.0,0.0,25.6,0.0,
13.163,117.27705184209732,92.63893236032763,-6.64,1.66,-6.68,46.0,6.0,0.0,6.0,5.0,11.0,7.0,0.0,25.6,0.0,
13.188,116.92870518420973,92.94589323603276,-4.92,2.19,-3.96,48.0,6.0,0.0,8.0,5.0,11.0,7.0,0.0,22.17,0.1,
13.212,116.82187051842098,93.04858932360328,-3.05,1.39,0.19,50.0,7.0,0.0,10.0,5.0,11.0,7.0,0.0,26.09,0.0,
13.237,116.8381870518421,93.16685893236033,-4.28,0.0,0.78,53.0,7.0,0.0,11.0,5.0,11.0,7.0,0.78,17.17,0.0,
13.261,116.79481870518421,93.23268589323602,-3.5,-5.5,-0.56,53.0,7.0,0.0,12.0,5.0,12.0,8.0,1.37,12.46,0.49,
13.286,116.54748187051841,93.28426858932362,-1.82,-6.55,-0.42,53.0,7.0,0.0,14.0,5.0,12.0,8.0,1.77,12.75,0.0,
13.312,116.32474818705184,93.46042685893237,-0.89,-2.59,1.89,53.0,7.0,0.0,14.0,5.0,12.0,8.0,1.67,10.1,0.1,
13.336,116.50047481870517,93.68504268589324,-0.17,-9.11,4.63,53.0,7.0,0.0,14.0,5.0,12.0,8.0,1.86,5.98,0.0,
13.361,116.06804748187051,93.64450426858932,2.98,-13.69,13.27,53.0,7.0,0.0,11.0,5.0,11.0,7.0,2.94,12.26,0.0,
13.385,116.58280474818704,94.63945042685893,-0.34,6.8,11.27,53.0,7.0,0.0,5.0,6.0,9.0,5.0,2.94,20.21,0.0,
13.41,116.3552804748187,94.37894504268588,-1.94,-3.93,-1.61,55.0,7.0,0.0,4.0,6.0,7.0,5.0,2.26,18.44,0.0,
13.434,116.54852804748187,94.28089450426859,-3.18,-9.5,-0.9,55.0,7.0,0.0,5.0,6.0,7.0,5.0,3.34,23.05,0.0,
13.459,116.14485280474818,94.15408945042685,-2.79,-5.61,0.85,55.0,7.0,0.0,7.0,6.0,7.0,5.0,4.02,24.62,0.0,
13.483,115.7804852804748,93.9974089450427,-1.79,0.63,2.05,55.0,7.0,0.0,8.0,6.0,8.0,5.0,5.59,24.72,0.0,
13.507,116.06804852804747,93.82874089450426,-4.59,-5.39,1.3,58.0,7.0,0.0,10.0,6.0,8.0,6.0,5.98,29.04,0.0,
13.532,115.68280485280475,93.72187408945042,-5.88,-6.44,1.25,58.0,7.0,0.0,11.0,6.0,8.0,6.0,6.08,30.12,0.0,
13.556,115.05928048528047,93.59418740894503,-7.84,-1.75,4.46,58.0,7.0,0.0,11.0,6.0,9.0,6.0,6.08,22.96,0.0,
13.581,115.03292804852805,93.4284187408945,-6.83,-3.58,4.7,60.0,7.0,0.0,12.0,6.0,9.0,7.0,7.36,20.01,0.0,
13.605,115.2732928048528,93.20484187408945,-8.65,-10.04,1.34,60.0,8.0,0.0,14.0,7.0,9.0,7.0,8.73,19.91,0.0,
13.63,115.18932928048528,92.91248418740895,-6.77,-5.98,0.4,60.0,8.0,0.0,14.0,7.0,9.0,7.0,11.77,21.58,0.0,
13.655,114.91993292804852,92.7662484187409,-3.66,4.77,1.4,63.0,8.0,0.0,16.0,7.0,9.0,7.0,12.95,21.58,0.39,
13.679,115.25299329280486,92.77862484187409,-2.98,-2.38,0.5,63.0,8.0,0.0,17.0,6.0,9.0,7.0,12.75,21.09,0.69,
13.704,115.19629932928049,92.7438624841874,-5.31,-5.5,2.29,63.0,8.0,0.0,17.0,6.0,9.0,7.0,12.07,19.72,0.29,
13.729,115.11862993292804,92.71338624841873,-8.56,-9.67,-1.36,63.0,8.0,0.0,18.0,6.0,10.0,7.0,11.58,16.78,0.0,
13.754,114.90386299329279,92.74633862484188,-7.19,-1.22,1.64,63.0,8.0,0.0,18.0,6.0,10.0,7.0,12.26,15.01,0.0,
13.778,114.99038629932927,92.6146338624842,-8.18,-7.22,1.25,63.0,9.0,0.0,19.0,6.0,10.0,8.0,12.75,15.79,0.59,
13.803,114.75603862993293,92.60146338624843,-8.54,-9.86,1.17,63.0,9.0,0.0,20.0,6.0,10.0,8.0,13.24,16.38,0.29,
13.828,114.5976038629933,92.54614633862484,-9.97,-12.75,2.48,66.0,9.0,0.0,20.0,6.0,11.0,8.0,13.64,14.22,0.0,
13.852,114.50976038629932,92.58561463386249,-11.07,-9.42,7.62,63.0,9.0,0.0,22.0,6.0,11.0,8.0,15.01,13.24,0.0,
13.878,114.57297603862993,92.31056146338625,-10.4,-16.07,2.27,66.0,9.0,0.0,22.0,6.0,11.0,8.0,18.34,12.95,0.0,
13.902,114.273297603863,92.13005614633863,-8.4,-15.22,1.17,66.0,9.0,0.0,22.0,6.0,11.0,8.0,20.7,13.73,0.0,
13.927,114.02732976038631,91.98600561463385,-6.91,-12.21,3.62,66.0,9.0,0.0,23.0,6.0,11.0,8.0,22.56,16.48,0.0,
13.952,113.68773297603863,92.05260056146338,-7.02,-15.4,9.11,73.0,10.0,0.0,23.0,6.0,12.0,8.0,23.94,16.28,0.29,
13.977,113.10477329760387,91.85226005614635,-4.23,-8.37,15.14,69.0,10.0,0.0,23.0,7.0,12.0,7.0,24.13,17.27,0.98,
14.002,112.8934773297604,91.62522600561464,-8.53,-12.76,9.77,66.0,9.0,0.0,19.0,8.0,12.0,7.0,26.29,22.27,0.0,
14.026,112.31434773297605,91.25152260056146,-12.96,-20.31,16.47,66.0,9.0,0.0,19.0,9.0,12.0,7.0,32.18,26.29,0.0,
14.052,111.3294347732976,91.49315226005614,-20.37,-26.31,7.1,63.0,8.0,0.0,19.0,10.0,0.0,7.0,37.28,26.09,0.0,
14.076,110.42994347732976,90.56331522600561,-49.82,-12.42,2.41,50.0,6.0,0.0,17.0,11.0,2.0,8.0,42.67,9.91,0.39,
14.101,112.17599434773298,88.92233152260056,-79.25,-18.83,-3.79,28.0,3.0,0.0,8.0,2.0,5.0,9.0,55.13,0.0,0.0,
14.127,113.1785994347733,89.75723315226006,-73.83,22.73,14.23,10.0,2.0,0.0,10.0,6.0,8.0,10.0,64.84,0.0,1.86,
14.151,112.73885994347734,88.94072331522601,-73.28,22.54,36.15,1.0,1.0,0.0,6.0,8.0,9.0,10.0,72.5,0.0,4.91,
14.176,112.95588599434774,87.1220723315226,-69.98,14.65,25.45,0.0,0.0,0.0,3.0,10.0,10.0,11.0,78.48,0.0,18.25,
14.2,113.28358859943476,85.66220723315226,-69.11,22.79,16.9,0.0,1.0,0.0,2.0,10.0,10.0,10.0,83.78,0.0,22.27,
14.225,114.20735885994348,84.85922072331522,-64.67,13.1,29.73,0.0,0.0,0.0,1.0,10.0,10.0,10.0,84.37,0.0,0.88,
14.251,114.79473588599434,83.26692207233152,-70.22,11.88,39.93,0.0,0.0,0.0,1.0,11.0,9.0,9.0,78.38,0.0,6.97,
14.275,114.63747358859943,81.42469220723315,-76.31,1.76,33.57,0.0,0.0,0.0,1.0,12.0,10.0,9.0,70.04,0.0,18.93,
14.3,114.33374735885994,80.43946922072331,-84.24,-2.1,40.7,0.0,0.0,0.0,1.0,11.0,9.0,8.0,60.53,0.0,10.79,
14.324,114.05137473588599,79.80094692207234,-97.76,12.96,51.58,0.0,0.0,0.0,1.0,8.0,7.0,7.0,52.68,0.0,11.58,
14.349,113.96913747358859,79.12509469220723,-107.99,8.43,53.76,0.0,0.0,0.0,1.0,2.0,5.0,6.0,39.63,0.0,13.73,
14.373,113.46591374735885,77.61750946922072,-115.34,4.28,57.89,0.0,0.0,0.0,2.0,9.0,2.0,5.0,26.68,0.0,22.46,
14.398,114.05459137473589,76.03575094692206,-133.97,35.08,56.88,0.0,0.0,0.0,1.0,6.0,11.0,3.0,12.95,0.0,25.6,
14.423,115.87745913747358,75.38257509469221,-137.64,74.24,76.02,0.0,1.0,0.0,1.0,4.0,8.0,1.0,2.94,0.0,48.56,
14.447,117.76074591374736,72.59925750946923,-130.43,108.79,105.79,0.0,0.0,0.0,0.0,2.0,5.0,0.0,0.0,0.0,28.65,
14.472,121.83707459137474,66.32692575094693,-95.3,110.11,147.0,0.0,0.0,0.0,0.0,0.0,0.0,0.0,0.0,0.0,31.39,
14.496,127.87870745913747,59.183692575094696,-4.3,-27.53,-3.52,0.0,0.0,0.0,0.0,0.0,0.0,0.0,0.1,0.0,13.24,
14.521,125.69287074591375,64.95836925750947,36.6,-28.69,-8.66,0.0,0.0,0.0,0.0,0.0,0.0,0.0,0.39,0.0,16.68,
14.545,122.78328707459137,66.71483692575094,20.85,-44.69,-88.5,0.0,1.0,0.0,0.0,0.0,0.0,0.0,0.2,0.0,9.42,
14.57,122.24032870745914,75.3954836925751,30.29,-43.31,-65.64,0.0,1.0,0.0,0.0,0.0,0.0,0.0,0.1,0.0,1.47,
14.594,125.28203287074592,71.43954836925751,64.92,-60.31,-68.56,0.0,1.0,0.0,0.0,0.0,0.0,0.0,0.0,49.93,3.04,
14.618,123.96620328707459,73.41995483692574,109.95,-54.84,-62.47,0.0,1.0,0.0,0.0,0.0,0.0,0.0,0.0,21.97,0.0,
14.643,120.62162032870746,74.32899548369258,120.08,-49.56,-54.64,0.0,1.0,0.0,0.0,0.0,0.0,0.0,0.0,0.0,0.0,
14.667,117.70416203287074,73.58289954836926,122.74,-17.59,-64.39,0.0,1.0,0.0,0.0,0.0,0.0,0.0,0.0,0.0,0.0,
14.692,115.74741620328707,72.04128995483693,122.47,-3.77,-78.87,0.0,1.0,0.0,0.0,0.0,0.0,0.0,0.0,0.0,0.0,
14.716,115.11074162032871,70.42012899548368,115.81,-12.43,-93.62,0.0,1.0,0.0,0.0,0.0,0.0,0.0,0.0,0.0,0.49,
14.741,115.63207416203286,69.59201289954837,101.23,-23.24,-81.81,0.0,1.0,0.0,0.0,0.0,0.0,0.0,0.0,0.0,0.78,
14.766,115.41420741620328,69.02320128995483,92.67,-14.63,-58.37,0.0,1.0,0.0,0.0,0.0,0.0,0.0,0.0,0.0,0.49,
14.789,115.24842074162034,68.21032012899549,100.08,-18.05,-69.52,0.0,1.0,0.0,0.0,0.0,0.0,0.0,0.0,61.9,1.57,
14.814,115.42084207416204,67.97603201289955,95.89,-21.23,-77.21,0.0,1.0,0.0,0.0,0.0,0.0,0.0,0.1,57.88,0.0,
14.838,116.1580842074162,68.14160320128995,78.25,-29.05,-64.66,0.0,1.0,0.0,0.0,0.0,0.0,0.0,0.0,2.65,0.0,
14.863,117.05980842074162,68.491160320129,51.04,-24.43,-36.0,0.0,1.0,0.0,0.0,0.0,0.0,0.0,0.0,39.44,0.0,
14.887,117.32998084207415,68.53511603201291,23.01,-25.31,-0.99,0.0,1.0,0.0,0.0,0.0,0.0,1.0,0.0,56.9,1.08,
14.911,117.42899808420741,67.3155116032013,12.27,-4.11,15.24,0.0,1.0,0.0,0.0,0.0,0.0,1.0,0.0,45.71,3.83,
14.936,118.24889980842073,66.31155116032014,12.07,21.0,27.08,0.0,1.0,0.0,0.0,0.0,0.0,0.0,0.0,0.0,3.43,
14.959,118.14188998084207,66.29215511603202,-4.31,15.94,22.06,0.0,1.0,0.0,0.0,0.0,0.0,0.0,0.0,0.0,0.88,
14.984,118.6621889980842,66.3982155116032,-31.23,-13.89,24.63,0.0,1.0,0.0,0.0,0.0,0.0,0.0,0.0,0.0,0.0,
15.007,116.06821889980841,67.85782155116031,-33.82,-11.05,34.39,0.0,1.0,0.0,0.0,0.0,0.0,1.0,0.0,0.0,0.0,
15.032,111.71382188998084,70.06478215511603,18.08,10.08,-11.29,0.0,0.0,0.0,0.0,0.0,0.0,1.0,0.0,0.0,0.0,
15.056,110.21638218899808,72.01347821551161,29.17,3.06,-7.19,0.0,0.0,0.0,0.0,0.0,0.0,1.0,0.0,0.0,0.0,
15.08,110.19263821889982,74.22434782155116,36.08,-31.87,-38.56,0.0,1.0,0.0,0.0,0.0,0.0,1.0,0.0,0.0,0.0,
15.105,110.14526382188998,77.93743478215512,38.66,-9.3,-26.56,2.0,1.0,0.0,0.0,0.0,0.0,0.0,0.0,0.0,0.0,
15.129,109.40252638218898,80.90974347821552,37.63,-0.79,-12.85,4.0,1.0,0.0,1.0,0.0,1.0,0.0,0.0,0.0,0.0,
15.154,109.4272526382189,82.84497434782156,40.39,-20.98,-19.47,7.0,1.0,0.0,1.0,0.0,1.0,0.0,0.0,0.0,0.0,
15.178,107.53972526382188,85.12649743478215,16.89,0.79,-14.73,9.0,1.0,0.0,2.0,0.0,1.0,0.0,0.0,0.0,0.0,
15.203,105.6409725263822,87.42464974347823,-4.99,5.72,-20.31,11.0,1.0,0.0,2.0,1.0,1.0,0.0,0.0,0.0,0.0,
15.227,105.66709725263823,88.63546497434783,1.69,23.44,0.07,11.0,1.0,0.0,2.0,0.0,0.0,0.0,0.0,0.0,0.0,
15.251,106.52470972526383,89.57554649743479,1.67,22.57,2.38,11.0,1.0,0.0,2.0,1.0,0.0,0.0,0.0,0.0,0.0,
15.276,107.86147097252638,90.46155464974348,-0.05,21.69,2.54,11.0,1.0,0.0,2.0,0.0,0.0,0.0,0.0,0.0,0.0,
15.3,109.12014709725264,91.14415546497435,-1.63,14.93,-0.31,12.0,1.0,0.0,2.0,1.0,0.0,0.0,0.0,0.0,0.0,
15.325,110.12801470972525,91.64441554649744,-6.39,1.11,-5.02,1.0,1.0,0.0,3.0,1.0,1.0,0.0,0.0,0.0,0.0,
15.349,110.40880147097252,92.18044155464973,-4.05,0.19,-1.11,3.0,2.0,0.0,3.0,1.0,1.0,0.0,0.0,0.0,0.0,
15.373,110.65288014709726,92.63904415546497,-5.21,0.85,1.13,5.0,1.0,0.0,3.0,2.0,1.0,0.0,0.0,0.0,0.0,
15.397,110.94728801470973,92.88290441554649,-6.73,0.1,0.58,7.0,2.0,0.0,3.0,2.0,1.0,0.0,0.0,0.0,0.0,
15.422,111.31872880147097,93.11429044155466,-7.4,1.42,0.4,10.0,2.0,0.0,3.0,2.0,1.0,0.0,0.0,0.0,0.0,
15.446,111.6618728801471,93.26342904415546,-7.2,-2.34,-0.34,11.0,2.0,0.0,4.0,2.0,1.0,0.0,0.0,0.0,0.0,
15.47,111.72318728801471,93.48534290441555,-6.7,-3.59,-1.34,13.0,2.0,0.0,4.0,2.0,1.0,0.0,0.0,0.0,0.0,
15.495,111.79231872880148,93.48053429044155,-5.96,-4.02,0.01,13.0,2.0,0.0,4.0,2.0,2.0,0.0,0.0,0.0,0.0,
15.519,111.97023187288013,93.54305342904415,-4.47,-0.53,0.71,14.0,2.0,0.0,4.0,2.0,2.0,0.0,0.0,0.0,0.0,
15.544,112.10502318728801,93.5943053429044,-3.94,4.18,0.82,14.0,2.0,0.0,5.0,2.0,2.0,0.0,0.0,0.0,0.0,
15.567,112.4425023187288,93.73443053429044,-3.79,5.4,1.53,17.0,2.0,0.0,5.0,2.0,2.0,0.0,0.0,0.0,0.0,
15.592,112.57525023187289,93.85644305342905,-5.95,-0.38,0.72,19.0,2.0,0.0,5.0,2.0,2.0,0.0,0.0,0.0,0.0,
15.617,112.75052502318728,93.78764430534291,-5.98,-3.97,-0.72,20.0,2.0,0.0,5.0,2.0,2.0,0.0,0.0,0.0,0.0,
15.64,112.80405250231874,93.83476443053429,-5.14,-4.85,0.13,21.0,2.0,0.0,5.0,2.0,2.0,0.0,0.0,0.0,0.0,
15.665,112.78240525023188,93.81247644305343,-4.11,-1.6,0.21,22.0,2.0,0.0,5.0,2.0,2.0,0.0,0.0,0.0,0.0,
15.689,112.90624052502318,93.78324764430533,-2.37,0.79,0.25,23.0,2.0,0.0,6.0,2.0,2.0,0.0,0.0,0.0,0.0,
15.713,112.99962405250231,93.76232476443053,-1.81,1.03,-0.5,23.0,3.0,0.0,6.0,2.0,2.0,0.0,0.0,0.0,0.0,
15.737,113.04496240525023,93.82323247644305,-2.03,0.79,-0.82,23.0,2.0,0.0,6.0,0.0,2.0,0.0,0.0,0.0,0.0,
15.762,113.01349624052503,94.0453232476443,-0.04,2.4,2.35,24.0,3.0,0.0,6.0,0.0,2.0,0.0,0.0,0.0,0.0,
15.787,113.03734962405251,93.90553232476444,-1.37,2.4,-0.03,23.0,3.0,0.0,6.0,0.0,2.0,0.0,0.0,0.0,0.0,
15.81,113.18373496240525,93.91855323247646,-1.23,2.08,-1.93,24.0,3.0,0.0,5.0,2.0,2.0,0.0,0.0,0.0,0.0,
15.835,113.24337349624052,94.00085532324765,-0.34,2.32,-1.24,23.0,3.0,0.0,5.0,2.0,2.0,0.0,0.0,0.0,0.0,
15.859,113.35733734962405,94.03608553232478,-0.78,2.66,-1.1,23.0,3.0,0.0,5.0,2.0,2.0,0.0,0.0,0.0,0.0,
15.884,113.5487337349624,94.12060855323247,-0.84,2.72,-1.2,23.0,3.0,0.0,5.0,2.0,2.0,0.0,0.0,0.0,0.0,
15.908,113.63987337349624,94.20106085532325,-0.9,2.03,-2.45,23.0,3.0,0.0,5.0,2.0,2.0,0.0,0.0,0.0,0.0,
15.932,113.76598733734963,94.30810608553232,0.11,2.27,-1.64,23.0,3.0,0.0,5.0,2.0,2.0,0.0,0.0,0.0,0.0,
15.956,113.84159873373497,94.39981060855322,0.22,3.35,-2.12,22.0,2.0,0.0,5.0,2.0,2.0,0.0,0.0,0.0,0.1,
15.981,113.9121598733735,94.53498106085532,1.24,3.78,-1.29,22.0,2.0,0.0,4.0,2.0,1.0,0.0,0.0,0.0,0.29,
16.006,113.85621598733735,94.62049810608553,-2.24,3.38,-0.53,21.0,2.0,0.0,4.0,2.0,1.0,0.0,0.0,0.0,0.59,
16.029,113.94962159873373,94.63804981060855,-2.63,3.81,-0.4,22.0,2.0,0.0,4.0,2.0,2.0,0.0,0.0,0.0,0.0,
16.054,114.12996215987339,94.56780498106085,-2.08,3.18,-0.75,23.0,2.0,0.0,5.0,2.0,2.0,0.0,0.0,0.0,0.0,
16.078,114.30099621598733,94.71378049810609,-2.11,2.92,-0.37,23.0,2.0,0.0,5.0,2.0,2.0,0.0,0.0,0.0,0.0,
16.103,114.42609962159872,94.7373780498106,-3.0,1.54,-0.35,23.0,2.0,0.0,5.0,2.0,2.0,0.0,0.0,0.0,0.0,
16.128,114.47460996215987,94.78473780498106,-3.89,-1.07,0.07,24.0,2.0,0.0,5.0,2.0,2.0,0.0,0.0,0.0,0.0,
16.151,114.52446099621598,94.8794737804981,-5.71,-3.69,0.69,24.0,2.0,0.0,5.0,2.0,2.0,0.0,0.0,0.0,0.0,
16.176,114.5204460996216,94.8259473780498,-5.33,-4.82,0.52,24.0,3.0,0.0,5.0,2.0,2.0,0.0,0.0,0.0,0.0,
16.2,114.46604460996215,94.82959473780497,-4.28,-2.05,0.57,25.0,3.0,0.0,5.0,2.0,2.0,0.0,0.0,0.0,0.0,
16.225,114.44260446099621,94.85695947378049,-3.09,-1.05,-0.02,23.0,3.0,0.0,5.0,2.0,2.0,0.0,0.0,0.0,0.0,
16.249,114.53026044609963,94.87769594737804,-3.18,-1.3,-0.08,25.0,3.0,0.0,5.0,2.0,2.0,0.0,0.0,0.0,0.0,
16.274,114.59302604460996,94.8527695947378,-4.89,-2.43,0.31,25.0,3.0,0.0,6.0,3.0,2.0,0.0,0.0,0.0,0.0,
16.297,114.60830260446099,94.76027695947379,-4.53,-2.37,0.27,26.0,3.0,0.0,6.0,3.0,2.0,0.0,0.0,0.0,0.0,
16.322,114.6368302604461,94.73302769594738,-3.5,-3.37,0.07,26.0,3.0,0.0,6.0,3.0,2.0,0.0,0.0,0.0,0.0,
16.347,114.64868302604461,94.66730276959474,-3.08,-2.47,0.23,26.0,3.0,0.0,6.0,3.0,2.0,0.0,0.0,0.0,0.0,
16.371,114.65886830260446,94.69673027695947,-3.51,-1.34,0.03,26.0,3.0,0.0,6.0,3.0,2.0,0.0,0.0,0.0,0.0,
16.396,114.69588683026045,94.59167302769595,-5.18,-2.62,0.47,26.0,3.0,0.0,6.0,3.0,2.0,0.0,0.0,0.0,0.0,
16.419,114.68158868302605,94.56316730276959,-4.66,-2.07,0.37,27.0,3.0,0.0,6.0,3.0,2.0,0.0,0.0,0.0,0.0,
16.444,114.6891588683026,94.57831673027695,-3.68,-1.95,0.39,27.0,3.0,0.0,6.0,3.0,2.0,0.0,0.0,0.0,0.0,
16.468,114.63591588683026,94.6338316730277,-3.75,-1.5,-0.05,27.0,3.0,0.0,6.0,3.0,2.0,0.0,0.0,0.0,0.0,
16.493,114.62159158868303,94.61238316730277,-3.34,-0.51,-0.16,27.0,3.0,0.0,6.0,3.0,2.0,0.0,0.0,0.0,0.0,
16.518,114.6291591588683,94.60123831673027,-3.56,-0.17,0.18,28.0,3.0,0.0,6.0,3.0,2.0,0.0,0.0,0.0,0.0,
16.542,114.60291591588683,94.60012383167303,-3.63,-0.34,0.11,28.0,3.0,0.0,6.0,3.0,2.0,0.0,0.0,0.0,0.0,
16.566,114.66329159158869,94.5730123831673,-3.15,-0.33,-0.15,28.0,3.0,0.0,6.0,3.0,2.0,0.0,0.0,0.0,0.0,
16.59,114.66032915915886,94.50730123831673,-3.21,-0.59,-0.06,28.0,3.0,0.0,6.0,3.0,2.0,0.0,0.0,0.0,0.0,
16.615,114.61503291591589,94.52773012383167,-3.32,-0.89,0.21,28.0,3.0,0.0,6.0,3.0,2.0,0.0,0.0,0.0,0.0,
16.64,114.62850329159158,94.54777301238316,-3.23,-1.41,0.18,28.0,3.0,0.0,7.0,3.0,2.0,0.0,0.0,0.0,0.1,
16.664,114.57585032915915,94.54077730123832,-3.27,-2.1,-0.15,28.0,3.0,0.0,7.0,3.0,2.0,0.0,0.0,0.0,0.1,
16.689,114.53458503291591,94.55807773012383,-3.15,-2.53,-0.21,28.0,3.0,0.0,7.0,3.0,2.0,0.0,0.0,0.0,0.0,
16.713,114.5124585032916,94.57780777301238,-3.14,-1.96,-0.31,31.0,3.0,0.0,7.0,3.0,2.0,0.0,0.0,0.0,0.0,
16.737,114.48324585032917,94.52578077730124,-2.44,-1.79,-0.15,30.0,3.0,0.0,7.0,3.0,2.0,0.0,0.0,0.0,0.0,
16.761,114.43532458503293,94.52057807773012,-2.48,-1.11,-0.24,28.0,3.0,0.0,6.0,0.0,2.0,0.0,0.0,0.0,0.29,
16.786,114.59253245850329,94.44805780777301,-1.81,-1.51,-0.9,28.0,3.0,0.0,6.0,0.0,2.0,0.0,0.0,0.0,0.1,
16.811,114.65325324585032,94.44980578077731,-1.45,-0.34,-0.16,27.0,3.0,0.0,6.0,0.0,2.0,0.0,0.0,0.0,0.0,
16.835,114.62332532458502,94.50398057807774,-2.27,-2.18,-0.58,28.0,3.0,0.0,6.0,0.0,2.0,0.0,0.0,0.0,0.2,
16.86,114.5303325324585,94.50939805780779,-3.01,-1.69,-0.01,27.0,3.0,0.0,6.0,0.0,2.0,0.0,0.0,0.0,0.0,
16.884,114.40403325324586,94.51893980578078,-2.86,-1.29,0.05,28.0,3.0,0.0,6.0,0.0,2.0,0.0,0.0,0.0,0.0,
16.909,114.42740332532459,94.55589398057808,-2.6,-2.32,-0.32,27.0,3.0,0.0,6.0,0.0,2.0,0.0,0.0,0.0,0.0,
16.933,114.45674033253245,94.55958939805781,-2.74,-2.34,-0.27,27.0,3.0,0.0,6.0,0.0,2.0,0.0,0.0,0.0,0.2,
16.957,114.45967403325324,94.57795893980578,-3.5,-1.69,0.32,27.0,3.0,0.0,6.0,0.0,2.0,0.0,0.0,0.0,0.49,
16.982,114.42396740332534,94.65179589398058,-3.52,-1.15,0.1,27.0,3.0,0.0,6.0,0.0,2.0,0.0,0.0,0.0,0.2,
17.006,114.42039674033254,94.61417958939805,-3.25,-0.28,0.19,27.0,3.0,0.0,6.0,0.0,2.0,0.0,0.0,0.0,0.1,
17.031,114.51903967403325,94.6374179589398,-3.21,-0.23,0.1,28.0,3.0,0.0,6.0,0.0,2.0,0.0,0.0,0.0,0.0,
17.055,114.52890396740332,94.63974179589398,-3.18,-1.05,0.0,28.0,3.0,0.0,6.0,0.0,2.0,0.0,0.0,0.0,0.1,
17.079,114.51189039674034,94.6759741795894,-3.49,-1.68,0.04,28.0,3.0,0.0,6.0,0.0,2.0,0.0,0.0,0.0,0.29,
17.103,114.53718903967405,94.65259741795894,-3.53,-1.75,-0.15,28.0,3.0,0.0,6.0,0.0,2.0,0.0,0.0,0.0,0.59,
17.128,114.5037189039674,94.6682597417959,-3.3,-1.03,0.08,28.0,3.0,0.0,6.0,0.0,2.0,0.0,0.0,0.0,0.0,
17.153,114.52737189039674,94.68782597417959,-3.11,-1.68,0.02,28.0,3.0,0.0,6.0,0.0,2.0,0.0,0.0,0.0,0.0,
17.177,114.46673718903966,94.67178259741796,-3.11,-0.95,-0.2,28.0,3.0,0.0,6.0,0.0,2.0,0.0,0.0,0.0,0.0,
17.202,114.47867371890398,94.6971782597418,-3.21,-0.63,0.12,28.0,3.0,0.0,6.0,0.0,2.0,0.0,0.0,0.0,0.0,
17.225,114.4258673718904,94.66371782597417,-3.39,-1.03,-0.06,30.0,3.0,0.0,6.0,0.0,2.0,0.0,0.0,0.0,0.0,
17.25,114.44758673718904,94.63337178259742,-3.44,-1.31,0.02,28.0,3.0,0.0,6.0,0.0,2.0,0.0,0.0,0.0,0.0,
17.274,114.4767586737189,94.59433717825974,-3.23,-1.11,0.02,30.0,3.0,0.0,6.0,0.0,2.0,0.0,0.0,0.0,0.1,
17.299,114.4526758673719,94.59943371782597,-2.83,-0.95,-0.11,28.0,3.0,0.0,6.0,0.0,2.0,0.0,0.0,0.0,0.39,
17.324,114.45926758673718,94.5999433717826,-2.69,-1.0,-0.4,30.0,3.0,0.0,6.0,0.0,2.0,0.0,0.0,0.0,0.29,
17.348,114.53192675867373,94.62699433717826,-2.74,0.58,-0.34,30.0,3.0,0.0,6.0,0.0,2.0,0.0,0.0,0.0,0.0,
17.373,114.53019267586737,94.61169943371783,-2.72,-0.5,-0.21,30.0,3.0,0.0,6.0,0.0,2.0,0.0,0.0,0.0,0.0,
17.396,114.58401926758674,94.61916994337179,-2.6,-0.62,-0.18,30.0,3.0,0.0,6.0,0.0,2.0,0.0,0.0,0.0,0.0,
17.421,114.58940192675867,94.63791699433717,-2.46,-1.22,-0.11,31.0,3.0,0.0,6.0,0.0,2.0,0.0,0.0,0.0,0.39,
17.445,114.49094019267588,94.59479169943371,-2.76,-0.54,-0.06,30.0,3.0,0.0,7.0,3.0,2.0,0.0,0.0,0.0,0.49,
17.47,114.51709401926759,94.59947916994336,-3.21,1.37,0.21,30.0,3.0,0.0,7.0,3.0,2.0,0.0,0.0,0.0,0.0,
17.495,114.56470940192676,94.67194791699434,-3.78,0.07,0.38,30.0,3.0,0.0,7.0,3.0,2.0,0.0,0.0,0.0,0.0,
17.518,114.67747094019268,94.66119479169943,-3.56,-2.31,-0.12,30.0,3.0,0.0,7.0,3.0,2.0,0.0,0.0,0.0,0.0,
17.543,114.67074709401926,94.66911947916995,-3.12,-3.37,-0.21,30.0,3.0,0.0,7.0,3.0,2.0,0.0,0.0,0.0,0.0,
17.567,114.60707470940193,94.651911947917,-3.09,-2.53,-0.21,30.0,3.0,0.0,7.0,3.0,2.0,0.0,0.0,0.0,0.0,
17.592,114.52870747094019,94.6501911947917,-3.61,-1.63,0.45,30.0,3.0,0.0,7.0,3.0,2.0,0.0,0.0,0.0,0.0,
17.616,114.56587074709401,94.63201911947917,-3.52,-1.85,0.31,30.0,3.0,0.0,7.0,3.0,2.0,0.0,0.0,0.0,0.2,
17.641,114.5695870747094,94.63920191194792,-3.4,-2.81,0.18,30.0,3.0,0.0,7.0,3.0,2.0,0.0,0.0,0.0,0.29,
17.666,114.55195870747093,94.62192019119479,-3.4,-2.79,-0.04,31.0,3.0,0.0,7.0,3.0,2.0,0.0,0.0,0.0,0.2,
17.689,114.49619587074709,94.62019201911949,-3.49,-1.95,0.17,30.0,3.0,0.0,7.0,3.0,2.0,0.0,0.0,0.0,0.0,
17.714,114.40961958707472,94.59301920191194,-3.66,-1.15,0.08,31.0,3.0,0.0,7.0,3.0,2.0,0.0,0.0,0.0,0.1,
17.738,114.43696195870746,94.6083019201912,-3.5,-1.1,0.1,31.0,3.0,0.0,7.0,3.0,2.0,0.0,0.0,0.0,0.29,
17.763,114.48469619587074,94.60983019201912,-2.92,-0.96,-0.27,31.0,3.0,0.0,7.0,3.0,2.0,0.0,0.0,0.0,0.29,
17.787,114.46246961958707,94.5739830192019,-2.79,-0.78,-0.19,30.0,3.0,0.0,7.0,3.0,2.0,0.0,0.0,0.0,0.39,
17.812,114.50524696195872,94.53439830192019,-2.76,-0.81,-0.05,31.0,3.0,0.0,7.0,3.0,2.0,0.0,0.0,0.0,0.1,
17.837,114.50952469619588,94.54843983019202,-2.95,-0.66,-0.09,30.0,3.0,0.0,7.0,3.0,2.0,0.0,0.0,0.0,0.0,
17.86,114.47395246961958,94.54084398301922,-3.11,-1.46,-0.36,31.0,3.0,0.0,7.0,3.0,2.0,0.0,0.0,0.0,0.0,
17.885,114.47939524696197,94.54008439830193,-2.85,-0.07,-0.21,31.0,3.0,0.0,7.0,3.0,2.0,0.0,0.0,0.0,0.0,
17.909,114.47093952469619,94.58500843983019,-2.65,0.18,-0.16,31.0,3.0,0.0,7.0,3.0,2.0,0.0,0.0,0.0,0.0,
17.934,114.48809395246961,94.57150084398302,-2.34,-0.66,-0.53,31.0,3.0,0.0,7.0,3.0,2.0,0.0,0.0,0.0,0.1,
17.958,114.44480939524695,94.5341500843983,-1.96,0.41,-0.41,31.0,3.0,0.0,7.0,3.0,2.0,0.0,0.0,0.0,0.39,
17.983,114.5394809395247,94.57541500843983,-1.32,1.24,-0.44,30.0,3.0,0.0,6.0,3.0,2.0,0.0,0.0,0.0,0.39,
18.008,114.57594809395246,94.66954150084399,-1.69,-0.53,-0.76,30.0,3.0,0.0,6.0,3.0,2.0,0.0,0.0,0.0,0.2,
18.031,114.55259480939525,94.6969541500844,-2.86,-0.23,-0.35,30.0,3.0,0.0,6.0,3.0,2.0,0.0,0.0,0.0,0.29,
18.056,114.58625948093952,94.70869541500844,-2.79,-0.95,-0.23,30.0,3.0,0.0,6.0,3.0,2.0,0.0,0.0,0.0,0.29,
18.08,114.64362594809396,94.65586954150085,-2.28,-0.45,-0.46,30.0,3.0,0.0,6.0,3.0,2.0,0.0,0.0,0.0,0.59,
18.105,114.73036259480938,94.70458695415007,-1.78,-0.13,-0.44,30.0,3.0,0.0,6.0,3.0,2.0,0.0,0.0,0.0,0.59,
18.129,114.75703625948094,94.69145869541501,-1.57,-0.79,-0.68,28.0,3.0,0.0,6.0,3.0,2.0,0.0,0.0,0.0,0.2,
18.154,114.77770362594809,94.76214586954148,-1.4,-0.19,-0.83,28.0,3.0,0.0,6.0,2.0,2.0,0.0,0.0,0.0,0.1,
18.179,114.80677036259482,94.80521458695415,-2.95,-0.11,-0.15,28.0,3.0,0.0,6.0,2.0,2.0,0.0,0.0,0.0,0.2,
18.203,114.82767703625947,94.8455214586954,-3.15,-1.14,-0.43,28.0,3.0,0.0,6.0,2.0,2.0,0.0,0.0,0.0,0.0,
18.228,114.86576770362595,94.78655214586955,-2.85,-1.26,-0.34,28.0,3.0,0.0,6.0,2.0,2.0,0.0,0.0,0.0,0.0,
18.251,114.9235767703626,94.78965521458696,-2.53,-1.59,-0.23,28.0,3.0,0.0,6.0,2.0,2.0,0.0,0.0,0.0,0.2,
18.276,114.88435767703625,94.82596552145868,-2.24,-0.37,-0.11,27.0,3.0,0.0,6.0,2.0,2.0,0.0,0.0,0.0,0.39,
18.3,114.88943576770362,94.80259655214586,-2.13,-0.78,-0.5,27.0,3.0,0.0,6.0,2.0,2.0,0.0,0.0,0.0,0.49,
18.325,114.89894357677036,94.90825965521458,-1.53,-1.17,-0.63,27.0,3.0,0.0,6.0,2.0,2.0,0.0,0.0,0.0,0.29,
18.35,114.86389435767703,94.94582596552145,-2.98,-1.6,0.01,27.0,3.0,0.0,6.0,2.0,2.0,0.0,0.0,0.0,0.29,
18.374,114.9053894357677,94.99458259655214,-3.63,-1.89,-0.14,27.0,3.0,0.0,6.0,2.0,2.0,0.0,0.0,0.0,0.2,
18.399,114.93653894357676,94.97245825965521,-3.18,-1.82,-0.04,27.0,3.0,0.0,6.0,2.0,2.0,0.0,0.0,0.0,0.39,
18.423,114.89465389435767,94.99724582596552,-2.68,-0.93,0.11,26.0,3.0,0.0,6.0,2.0,2.0,0.0,0.0,0.0,0.69,
18.447,114.89046538943576,95.02672458259656,-2.47,-0.5,0.02,27.0,3.0,0.0,6.0,2.0,2.0,0.0,0.0,0.0,0.29,
18.471,114.89904653894358,95.04767245825965,-2.34,-0.98,-0.24,26.0,3.0,0.0,6.0,2.0,2.0,0.0,0.0,0.0,0.29,
18.496,114.93590465389435,95.08576724582596,-1.71,-1.08,-0.29,26.0,3.0,0.0,5.0,2.0,2.0,0.0,0.0,0.0,0.2,
18.521,114.94859046538943,95.0895767245826,-1.18,-0.31,-0.21,25.0,3.0,0.0,5.0,2.0,2.0,0.0,0.0,0.0,0.1,
18.545,114.94985904653893,95.19795767245824,-1.07,-0.79,-0.11,25.0,3.0,0.0,5.0,2.0,1.0,0.0,0.0,0.0,0.0,
18.57,114.95898590465389,95.15479576724583,-2.24,-0.82,0.19,25.0,3.0,0.0,5.0,2.0,1.0,0.0,0.0,0.0,0.1,
18.593,114.95089859046539,95.17747957672458,-3.7,-0.86,0.08,25.0,3.0,0.0,5.0,2.0,1.0,0.0,0.0,0.0,0.0,
18.618,115.00408985904653,95.21574795767246,-3.32,-0.91,0.01,25.0,3.0,0.0,5.0,2.0,1.0,0.0,0.0,0.0,0.29,
18.642,114.97340898590465,95.18357479576724,-2.89,-1.43,0.01,25.0,3.0,0.0,5.0,2.0,1.0,0.0,0.0,0.0,0.78,
18.666,114.93434089859048,95.22535747957673,-2.61,-1.45,0.02,25.0,3.0,0.0,5.0,2.0,1.0,0.0,0.0,0.0,0.59,
18.691,114.88543408985905,95.23853574795767,-3.17,-1.32,0.1,26.0,3.0,0.0,5.0,2.0,1.0,0.0,0.0,0.0,0.29,
18.715,114.9345434089859,95.29385357479576,-4.56,-1.87,0.42,25.0,3.0,0.0,5.0,2.0,2.0,0.0,0.0,0.0,0.29,
18.74,114.85845434089859,95.22738535747958,-4.91,-2.27,0.63,26.0,3.0,0.0,5.0,2.0,2.0,0.0,0.0,0.0,0.39,
18.764,114.84184543408986,95.19373853574797,-4.15,-2.06,0.46,26.0,3.0,0.0,5.0,2.0,2.0,0.0,0.0,0.0,0.2,
18.788,114.83118454340898,95.2173738535748,-3.21,-1.66,0.08,26.0,3.0,0.0,5.0,2.0,2.0,0.0,0.0,0.0,0.2,
18.812,114.82111845434089,95.20173738535749,-2.73,-1.47,-0.02,27.0,3.0,0.0,5.0,2.0,2.0,0.0,0.0,0.0,0.49,
18.837,114.84711184543409,95.16417373853575,-2.7,-0.91,-0.1,26.0,3.0,0.0,5.0,2.0,2.0,0.0,0.0,0.0,0.2,
18.862,114.8767111845434,95.16941737385358,-2.92,-1.47,-0.31,27.0,3.0,0.0,5.0,2.0,2.0,0.0,0.0,0.0,0.0,
18.886,114.87067111845434,95.16094173738536,-2.96,-1.9,-0.16,26.0,3.0,0.0,5.0,2.0,2.0,0.0,0.0,0.0,0.0,
18.911,114.88806711184543,95.16909417373854,-2.92,-1.82,-0.02,26.0,3.0,0.0,5.0,2.0,2.0,0.0,0.0,0.0,0.0,
18.935,114.87180671118455,95.17890941737386,-2.97,-1.44,-0.09,26.0,3.0,0.0,5.0,2.0,2.0,0.0,0.0,0.0,0.2,
18.96,114.87018067111846,95.17089094173738,-2.73,-1.43,-0.11,26.0,3.0,0.0,5.0,2.0,2.0,0.0,0.0,0.0,0.29,
18.983,114.86101806711184,95.15208909417375,-2.53,-1.71,-0.18,26.0,3.0,0.0,5.0,2.0,2.0,0.0,0.0,0.0,0.39,
19.008,114.83310180671117,95.22220890941738,-3.12,-2.0,-0.23,26.0,3.0,0.0,5.0,2.0,2.0,0.0,0.0,0.0,0.2,
19.033,114.76731018067112,95.20222089094175,-3.45,-2.53,0.0,26.0,3.0,0.0,5.0,2.0,2.0,0.0,0.0,0.0,0.29,
19.057,114.7427310180671,95.16422208909418,-3.41,-2.08,0.26,26.0,3.0,0.0,6.0,2.0,2.0,0.0,0.0,0.0,0.29,
19.082,114.7402731018067,95.13342220890942,-3.48,-2.31,0.16,26.0,3.0,0.0,5.0,2.0,2.0,0.0,0.0,0.0,0.59,
19.106,114.74002731018066,95.09434222089095,-3.18,-2.47,0.17,26.0,3.0,0.0,6.0,2.0,2.0,0.0,0.0,0.0,0.78,
19.131,114.77600273101807,95.0814342220891,-3.37,-2.95,-0.08,26.0,3.0,0.0,5.0,2.0,2.0,0.0,0.0,0.0,0.39,
19.154,114.74360027310179,95.0261434222089,-3.75,-2.33,0.27,26.0,3.0,0.0,6.0,2.0,2.0,0.0,0.0,0.0,0.1,
19.179,114.70436002731017,95.05661434222088,-3.56,-2.09,0.34,26.0,3.0,0.0,6.0,2.0,2.0,0.0,0.0,0.0,0.0,
19.204,114.68243600273102,95.05066143422209,-3.59,-2.05,0.24,27.0,3.0,0.0,6.0,2.0,2.0,0.0,0.0,0.0,0.0,
19.228,114.6712436002731,94.98706614342221,-3.5,-2.37,0.34,26.0,3.0,0.0,6.0,2.0,2.0,0.0,0.0,0.0,0.0,
19.253,114.62512436002731,95.04370661434223,-3.88,-2.98,0.21,28.0,3.0,0.0,6.0,2.0,2.0,0.0,0.0,0.0,0.1,
19.276,114.51251243600272,94.99537066143422,-4.08,-3.05,0.47,26.0,3.0,0.0,6.0,2.0,2.0,0.0,0.0,0.0,0.49,
19.301,114.37525124360027,94.91853706614341,-3.8,-2.76,0.18,27.0,3.0,0.0,6.0,2.0,2.0,0.0,0.0,0.0,0.29,
19.325,114.35252512436001,94.93785370661433,-3.69,-2.33,0.11,27.0,3.0,0.0,6.0,2.0,2.0,0.0,0.0,0.0,0.2,
19.35,114.35025251243599,94.97578537066143,-4.02,-1.12,0.28,27.0,3.0,0.0,6.0,2.0,2.0,0.0,0.0,0.0,0.1,
19.375,114.3320252512436,94.94357853706614,-4.02,-1.37,0.21,27.0,3.0,0.0,6.0,2.0,2.0,0.0,0.0,0.0,0.1,
19.398,114.35720252512436,94.95835785370662,-4.1,-1.83,0.01,27.0,3.0,0.0,6.0,2.0,2.0,0.0,0.0,0.0,0.39,
19.423,114.35972025251245,94.99583578537066,-4.09,-1.64,0.66,27.0,3.0,0.0,6.0,2.0,2.0,0.0,0.0,0.0,0.49,
19.447,114.34197202525125,94.98158357853706,-4.17,-1.9,0.44,28.0,3.0,0.0,6.0,2.0,2.0,0.0,0.0,0.0,0.39,
19.472,114.38519720252513,94.91715835785371,-3.92,-1.89,0.37,28.0,3.0,0.0,6.0,2.0,2.0,0.0,0.0,0.0,0.1,
19.496,114.30851972025252,94.91071583578537,-3.54,-1.99,0.21,30.0,3.0,0.0,6.0,2.0,2.0,0.0,0.0,0.0,0.39,
19.52,114.20185197202525,94.87407158357854,-3.57,-1.53,0.18,28.0,3.0,0.0,6.0,2.0,2.0,0.0,0.0,0.0,0.0,
19.545,114.22718519720253,94.89740715835786,-3.54,-1.37,0.08,30.0,3.0,0.0,6.0,2.0,2.0,0.0,0.0,0.0,0.0,
19.569,114.22971851972025,94.84574071583579,-3.94,-1.35,0.23,28.0,3.0,0.0,6.0,2.0,2.0,0.0,0.0,0.0,0.0,
19.594,114.23897185197202,94.78657407158359,-3.61,-1.19,0.18,30.0,3.0,0.0,6.0,3.0,2.0,0.0,0.0,0.0,0.0,
19.618,114.27589718519721,94.77165740715834,-3.15,-1.87,0.01,30.0,3.0,0.0,6.0,3.0,2.0,0.0,0.0,0.0,0.1,
19.643,114.26158971851972,94.67116574071584,-3.53,-1.76,-0.04,30.0,3.0,0.0,6.0,3.0,2.0,0.0,0.0,0.0,0.2,
19.666,114.21515897185196,94.64311657407158,-3.35,-1.23,-0.05,30.0,3.0,0.0,7.0,3.0,2.0,0.0,0.0,0.0,0.1,
19.691,114.27351589718519,94.66731165740715,-3.24,-0.96,-0.12,30.0,3.0,0.0,7.0,3.0,2.0,0.0,0.0,0.0,0.0,
19.716,114.23435158971851,94.69673116574072,-2.92,-0.58,-0.3,30.0,3.0,0.0,7.0,3.0,2.0,0.0,0.0,0.0,0.2,
19.74,114.23043515897186,94.74467311657408,-2.37,0.76,-0.22,30.0,3.0,0.0,7.0,3.0,2.0,0.0,0.0,0.0,0.49,
19.765,114.35604351589718,94.73146731165741,-2.91,0.09,-0.02,30.0,3.0,0.0,7.0,3.0,2.0,0.0,0.0,0.0,0.49,
19.789,114.42260435158973,94.72114673116575,-2.81,0.6,-0.02,30.0,3.0,0.0,7.0,3.0,2.0,0.0,0.0,0.0,0.39,
19.813,114.39326043515898,94.68411467311657,-2.59,-0.26,0.11,30.0,3.0,0.0,7.0,3.0,2.0,0.0,0.0,0.0,0.1,
19.837,114.4983260435159,94.70741146731164,-2.36,-1.69,-0.56,30.0,3.0,0.0,7.0,3.0,2.0,0.0,0.0,0.0,0.39,
19.862,114.51783260435158,94.68274114673116,-2.51,-1.19,-0.32,30.0,3.0,0.0,7.0,3.0,2.0,0.0,0.0,0.0,0.0,
19.887,114.54678326043515,94.66227411467312,-2.97,-1.27,-0.01,30.0,3.0,0.0,7.0,3.0,2.0,0.0,0.0,0.0,0.0,
19.911,114.5766783260435,94.66022741146732,-3.21,-1.5,-0.05,30.0,3.0,0.0,7.0,3.0,2.0,0.0,0.0,0.0,0.0,
19.936,114.55266783260434,94.65102274114673,-3.03,-1.45,0.04,30.0,3.0,0.0,7.0,3.0,2.0,0.0,0.0,0.0,0.29,
19.96,114.57726678326043,94.68610227411467,-2.97,-1.69,-0.11,30.0,3.0,0.0,7.0,3.0,2.0,0.0,0.0,0.0,0.39,
19.985,114.56172667832604,94.71661022741146,-3.08,-1.97,-0.25,32.0,3.0,0.0,7.0,3.0,2.0,0.0,0.0,0.0,0.2,
20.008,114.5871726678326,94.74666102274115,-3.11,-2.33,-0.03,30.0,3.0,0.0,7.0,3.0,2.0,0.0,0.0,0.0,0.0,
20.033,114.58071726678325,94.7946661022741,-3.18,-2.15,0.32,31.0,3.0,0.0,7.0,3.0,2.0,0.0,0.0,0.0,0.1,
20.058,114.48107172667832,94.73646661022741,-3.36,-2.54,-0.21,30.0,3.0,0.0,6.0,3.0,2.0,0.0,0.0,0.0,0.39,
20.082,114.41710717266783,94.73964666102273,-3.63,-1.27,0.29,30.0,3.0,0.0,7.0,3.0,2.0,0.0,0.0,0.0,0.69,
20.107,114.43771071726678,94.72196466610228,-3.17,-1.59,0.23,30.0,3.0,0.0,7.0,3.0,2.0,0.0,0.0,0.0,0.59,
20.131,114.43977107172667,94.68419646661023,-2.95,-1.79,-0.08,30.0,3.0,0.0,7.0,3.0,2.0,0.0,0.0,0.0,0.39,
20.155,114.35897710717265,94.70741964666101,-2.71,-1.34,0.01,30.0,3.0,0.0,7.0,3.0,2.0,0.0,0.0,0.0,0.2,
20.179,114.34189771071726,94.70074196466611,-2.82,-1.4,-0.08,30.0,3.0,0.0,7.0,3.0,2.0,0.0,0.0,0.0,0.0,
20.204,114.34918977107172,94.7090741964666,-2.75,-1.27,-0.19,31.0,3.0,0.0,7.0,3.0,2.0,0.0,0.0,0.0,0.0,
20.229,114.36791897710718,94.70990741964664,-2.57,-1.21,-0.09,30.0,3.0,0.0,7.0,3.0,2.0,0.0,0.0,0.0,0.0,
20.253,114.38779189771073,94.72799074196467,-2.67,-1.74,-0.34,30.0,3.0,0.0,6.0,3.0,2.0,0.0,0.0,0.0,0.1,
20.278,114.29977918977107,94.66679907419646,-2.98,-1.24,-0.01,30.0,3.0,0.0,6.0,2.0,2.0,0.0,0.0,0.0,0.29,
20.302,114.32697791897711,94.64267990741965,-2.9,-0.91,-0.06,30.0,3.0,0.0,6.0,3.0,2.0,0.0,0.0,0.0,0.29,
20.327,114.4016977918977,94.70326799074195,-3.08,-1.24,-0.07,30.0,3.0,0.0,6.0,3.0,2.0,0.0,0.0,0.0,0.2,
20.352,114.40016977918978,94.68232679907419,-3.09,-1.53,0.15,30.0,3.0,0.0,6.0,3.0,2.0,0.0,0.0,0.0,0.1,
20.375,114.40901697791897,94.73423267990741,-3.25,-2.26,0.18,30.0,3.0,0.0,6.0,3.0,2.0,0.0,0.0,0.0,0.2,
20.4,114.33790169779189,94.73942326799073,-3.24,-2.02,0.08,30.0,3.0,0.0,6.0,3.0,2.0,0.0,0.0,0.0,0.59,
20.424,114.31279016977919,94.69494232679908,-3.21,-1.11,0.05,30.0,3.0,0.0,6.0,3.0,2.0,0.0,0.0,0.0,0.69,
20.449,114.30127901697792,94.6094942326799,-3.25,-0.4,0.15,30.0,3.0,0.0,7.0,3.0,2.0,0.0,0.0,0.0,0.49,
20.473,114.32712790169779,94.645949423268,-3.33,-0.24,0.11,30.0,3.0,0.0,7.0,3.0,2.0,0.0,0.0,0.0,0.39,
20.497,114.33871279016978,94.6135949423268,-3.42,-0.69,-0.05,30.0,3.0,0.0,7.0,3.0,2.0,0.0,0.0,0.0,0.2,
20.521,114.36687127901698,94.63735949423268,-3.2,-0.55,-0.05,30.0,3.0,0.0,7.0,3.0,2.0,0.0,0.0,0.0,0.0,
20.546,114.3696871279017,94.65773594942327,-2.79,-0.65,-0.08,30.0,3.0,0.0,7.0,3.0,2.0,0.0,0.0,0.0,0.0,
20.571,114.44196871279017,94.66877359494232,-2.88,-0.44,0.11,30.0,3.0,0.0,7.0,3.0,2.0,0.0,0.0,0.0,0.0,
20.595,114.47619687127903,94.69687735949424,-3.01,-0.02,-0.06,31.0,3.0,0.0,7.0,3.0,2.0,0.0,0.0,0.0,0.1,
20.62,114.4976196871279,94.67268773594942,-2.95,0.54,-0.14,30.0,3.0,0.0,7.0,3.0,2.0,0.0,0.0,0.0,0.2,
20.643,114.49976196871279,94.67926877359494,-2.85,1.18,-0.09,31.0,3.0,0.0,7.0,3.0,2.0,0.0,0.0,0.0,0.39,
20.668,114.56297619687128,94.7159268773595,-2.62,2.01,0.14,31.0,3.0,0.0,7.0,3.0,2.0,0.0,0.0,0.0,0.1,
20.692,114.57829761968712,94.74659268773595,-2.66,1.79,0.21,31.0,3.0,0.0,7.0,3.0,2.0,0.0,0.0,0.0,0.1,
20.717,114.62482976196871,94.79465926877359,-2.85,0.24,-0.11,32.0,3.0,0.0,7.0,3.0,2.0,0.0,0.0,0.0,0.29,
20.742,114.56648297619687,94.79946592687735,-3.14,0.36,-0.18,32.0,3.0,0.0,7.0,3.0,2.0,0.0,0.0,0.0,0.59,
20.765,114.58764829761968,94.82694659268773,-3.18,0.61,0.05,31.0,3.0,0.0,7.0,3.0,2.0,0.0,0.0,0.0,0.49,
20.79,114.71576482976197,94.86569465926878,-3.5,0.08,0.23,31.0,3.0,0.0,7.0,3.0,2.0,0.0,0.0,0.0,0.39,
20.814,114.80957648297618,94.89656946592689,-3.76,-1.2,0.0,32.0,3.0,0.0,7.0,3.0,2.0,0.0,0.0,0.0,0.2,
20.839,114.85495764829761,94.88165694659268,-3.44,-2.51,-0.13,32.0,3.0,0.0,7.0,3.0,2.0,0.0,0.0,0.0,0.39,
20.862,114.84149576482977,94.82616569465927,-3.41,-2.06,-0.05,32.0,3.0,0.0,7.0,3.0,2.0,0.0,0.0,0.0,0.2,
20.887,114.84014957648299,94.81161656946594,-3.69,-1.05,0.11,32.0,3.0,0.0,7.0,3.0,2.0,0.0,0.0,0.0,0.0,
20.912,114.7590149576483,94.7651616569466,-3.6,-3.68,-0.76,32.0,3.0,0.0,7.0,3.0,2.0,0.0,0.0,0.0,0.0,
20.936,114.82290149576482,94.73351616569467,-3.65,-2.27,-0.31,34.0,3.0,0.0,7.0,3.0,2.0,0.0,0.0,0.0,0.29,
20.961,114.82929014957648,94.73935161656945,-3.51,-1.63,-0.08,34.0,3.0,0.0,7.0,3.0,2.0,0.0,0.0,0.0,0.2,
20.985,114.73092901495765,94.73093516165694,-3.05,-0.56,0.17,32.0,3.0,0.0,7.0,3.0,2.0,0.0,0.0,0.0,0.0,
21.01,114.71209290149575,94.73909351616568,-2.67,0.15,-0.05,34.0,4.0,0.0,7.0,3.0,2.0,0.0,0.0,0.0,0.0,
21.033,114.71020929014956,94.78490935161658,-3.24,0.41,-0.05,31.0,4.0,0.0,7.0,3.0,2.0,0.0,0.0,0.0,0.1,
21.058,114.71902092901496,94.73549093516166,-3.27,-0.42,-0.43,34.0,4.0,0.0,7.0,3.0,2.0,0.0,0.0,0.0,0.49,
21.083,114.7469020929015,94.68554909351617,-3.06,0.54,-0.27,34.0,3.0,0.0,7.0,3.0,2.0,0.0,0.0,0.0,0.69,
21.107,114.80369020929015,94.7075549093516,-2.53,0.94,-0.33,34.0,3.0,0.0,7.0,3.0,2.0,0.0,0.0,0.0,0.49,
21.132,114.82736902092901,94.74575549093517,-2.78,1.02,-0.16,34.0,3.0,0.0,7.0,3.0,2.0,0.0,0.0,0.0,0.29,
21.156,114.9467369020929,94.7135755490935,-2.86,0.77,-0.09,34.0,3.0,0.0,7.0,3.0,2.0,0.0,0.0,0.0,0.29,
21.18,114.9316736902093,94.70135755490935,-2.9,0.51,-0.21,34.0,3.0,0.0,8.0,3.0,2.0,0.0,0.0,0.0,0.39,
21.204,115.00216736902092,94.67313575549093,-3.42,0.5,-1.09,34.0,4.0,0.0,7.0,3.0,2.0,0.0,0.0,0.0,0.0,
21.229,115.08121673690209,94.6703135755491,-2.67,0.24,-0.58,34.0,3.0,0.0,8.0,3.0,2.0,0.0,0.0,0.0,0.0,
21.254,115.15212167369022,94.69703135755492,-2.67,0.83,-0.24,34.0,3.0,0.0,8.0,3.0,2.0,0.0,0.0,0.0,0.1,
21.278,115.20421216736901,94.73570313575549,-2.72,1.1,-0.21,34.0,3.0,0.0,8.0,3.0,2.0,0.0,0.0,0.0,0.29,
21.303,115.29042121673689,94.72157031357555,-2.82,0.44,-0.01,34.0,3.0,0.0,8.0,3.0,2.0,0.0,0.0,0.0,0.39,
21.326,115.2900421216737,94.68415703135756,-2.77,1.47,-0.29,34.0,3.0,0.0,8.0,3.0,2.0,0.0,0.0,0.0,0.1,
21.351,115.29000421216737,94.65341570313575,-2.31,3.29,-0.08,35.0,3.0,0.0,8.0,3.0,2.0,0.0,0.0,0.0,0.29,
21.376,115.52400042121674,94.70434157031356,-2.18,2.87,0.12,34.0,4.0,0.0,8.0,3.0,2.0,0.0,0.0,0.0,0.59,
21.4,115.74540004212167,94.74543415703135,-2.74,1.46,-0.52,34.0,4.0,0.0,8.0,3.0,2.0,0.0,0.0,0.0,0.39,
21.424,115.74054000421216,94.78554341570315,-3.04,2.31,0.33,35.0,4.0,0.0,8.0,3.0,2.0,0.0,0.0,0.0,0.0,
21.448,115.86605400042122,94.81655434157031,-2.67,2.01,0.03,35.0,4.0,0.0,8.0,3.0,2.0,0.0,0.0,0.0,0.0,
21.473,115.96860540004212,94.88265543415703,-2.89,2.94,0.05,35.0,4.0,0.0,8.0,3.0,2.0,0.0,0.0,0.0,0.1,
21.497,116.05086054000422,94.94326554341569,-2.79,1.59,-0.08,35.0,4.0,0.0,8.0,3.0,2.0,0.0,0.0,0.0,0.2,
21.522,116.14908605400042,95.03032655434157,-2.63,-0.15,-0.13,35.0,4.0,0.0,8.0,3.0,2.0,0.0,0.0,0.0,0.59,
21.545,116.14090860540003,95.00303265543415,-3.07,-1.1,-0.38,35.0,4.0,0.0,8.0,3.0,2.0,0.0,0.0,0.0,0.69,
21.57,116.16709086054,94.98230326554341,-3.02,-0.6,0.02,35.0,4.0,0.0,8.0,3.0,2.0,0.0,0.0,0.0,0.59,
21.595,116.106709086054,94.93523032655435,-2.96,0.33,-0.21,35.0,4.0,0.0,8.0,3.0,2.0,0.0,0.0,0.0,0.0,
21.619,116.1546709086054,94.95752303265543,-2.92,0.43,-0.04,35.0,4.0,0.0,8.0,3.0,2.0,0.0,0.0,0.0,0.29,
21.644,116.23146709086053,94.99575230326553,-3.11,-0.19,-0.27,35.0,4.0,0.0,8.0,3.0,2.0,0.0,0.0,0.0,0.1,
21.668,116.32914670908605,94.99957523032656,-3.09,-0.32,-0.13,35.0,4.0,0.0,8.0,3.0,2.0,0.0,0.0,0.0,0.0,
21.692,116.33891467090861,95.04495752303265,-2.85,-0.71,-0.43,35.0,4.0,0.0,8.0,3.0,2.0,0.0,0.0,0.0,0.59,
21.716,116.34889146709087,95.06749575230327,-2.6,-0.11,-0.44,35.0,4.0,0.0,8.0,3.0,2.0,0.0,0.0,0.0,0.69,
21.741,116.37688914670909,95.12374957523033,-2.66,0.24,-0.11,35.0,4.0,0.0,8.0,3.0,2.0,0.0,0.0,0.0,0.78,
21.766,116.4516889146709,95.14737495752304,-3.39,-1.51,-0.11,35.0,4.0,0.0,8.0,3.0,2.0,0.0,0.0,0.0,0.78,
21.79,116.45916889146707,95.21273749575231,-3.38,-2.68,0.02,35.0,4.0,0.0,8.0,3.0,2.0,0.0,0.0,0.0,0.49,
21.815,116.42391688914671,95.13827374957523,-3.78,-2.69,0.03,35.0,4.0,0.0,8.0,3.0,2.0,0.0,0.0,0.0,0.1,
21.839,116.41139168891468,95.12182737495752,-3.64,-1.24,0.45,35.0,4.0,0.0,8.0,3.0,2.0,0.0,0.0,0.0,0.49,
21.863,116.33813916889147,95.10218273749575,-3.6,-0.44,0.44,37.0,4.0,0.0,8.0,3.0,2.0,0.0,0.0,0.0,0.69,
21.888,116.36681391688914,95.09121827374958,-3.15,-0.13,-0.13,37.0,4.0,0.0,8.0,3.0,2.0,0.0,0.0,0.0,0.88,
21.912,116.41468139168892,95.03612182737496,-3.38,-1.73,0.0,35.0,4.0,0.0,8.0,3.0,2.0,0.0,0.0,0.0,0.29,
21.937,116.4194681391689,95.0486121827375,-3.55,-3.13,-0.01,37.0,4.0,0.0,8.0,3.0,2.0,0.0,0.0,0.0,0.29,
21.961,116.4019468139169,95.02286121827375,-3.34,-2.68,0.02,35.0,4.0,0.0,8.0,3.0,2.0,0.0,0.0,0.0,0.0,
21.986,116.31019468139169,94.98428612182737,-3.57,-2.44,0.39,37.0,4.0,0.0,8.0,3.0,2.0,0.0,0.0,0.0,0.0,
22.009,116.31901946813917,94.97142861218273,-3.48,-2.31,0.11,34.0,4.0,0.0,8.0,3.0,2.0,0.0,0.0,0.0,0.0,
22.034,116.29290194681391,94.97914286121826,-3.19,-2.08,-0.04,37.0,4.0,0.0,8.0,3.0,2.0,0.0,0.0,0.0,0.1,
22.059,116.24529019468139,94.98891428612183,-3.55,-2.37,0.02,37.0,4.0,0.0,8.0,3.0,2.0,0.0,0.0,0.0,0.49,
22.083,116.27652901946814,94.98089142861218,-3.79,-2.56,0.47,37.0,4.0,0.0,9.0,3.0,2.0,0.0,0.0,0.0,0.49,
22.108,116.22565290194682,94.96208914286122,-4.14,-2.63,0.53,37.0,4.0,0.0,8.0,3.0,2.0,0.0,0.0,0.0,0.39,
22.132,116.25656529019469,95.01420891428612,-4.42,-2.96,0.14,39.0,4.0,0.0,9.0,3.0,2.0,0.0,0.0,0.0,0.1,
22.156,116.26865652901947,94.99242089142861,-4.27,-3.29,0.16,37.0,4.0,0.0,9.0,3.0,2.0,0.0,0.0,0.0,0.2,
22.18,116.18886565290195,94.93624208914287,-4.32,-2.85,0.67,37.0,4.0,0.0,9.0,3.0,2.0,0.0,0.0,0.0,0.59,
22.205,115.9918865652902,94.69662420891429,-4.37,-2.79,-0.39,39.0,4.0,0.0,9.0,3.0,2.0,0.0,0.0,0.0,0.59,
22.23,115.89118865652902,94.66366242089143,-4.43,-3.21,0.2,39.0,4.0,0.0,9.0,3.0,2.0,0.0,0.0,0.0,0.59,
22.254,115.8811188656529,94.66036624208914,-3.87,-1.59,0.18,39.0,4.0,0.0,9.0,3.0,2.0,0.0,0.0,0.0,0.2,
22.279,115.86211188656529,94.71403662420892,-3.92,-2.47,0.18,40.0,4.0,0.0,9.0,3.0,2.0,0.0,0.0,0.0,0.2,
22.302,115.86021118865652,94.71940366242089,-3.84,-2.6,-0.02,39.0,4.0,0.0,9.0,3.0,2.0,0.0,0.0,0.0,0.0,
22.327,115.82402111886564,94.67494036624208,-3.6,-2.31,0.03,39.0,4.0,0.0,9.0,3.0,2.0,0.0,0.0,0.0,0.0,
22.351,115.76640211188658,94.6974940366242,-3.32,-2.4,-0.12,40.0,4.0,0.0,9.0,3.0,2.0,0.0,0.0,0.0,0.0,
22.376,115.74264021118866,94.65474940366242,-3.18,-1.81,-0.06,39.0,4.0,0.0,9.0,3.0,2.0,0.0,0.0,0.0,0.2,
22.401,115.76726402111886,94.61447494036624,-3.15,-1.41,0.11,40.0,4.0,0.0,9.0,3.0,2.0,0.0,0.0,0.0,0.59,
22.425,115.85072640211189,94.60144749403662,-3.02,-2.16,-0.19,39.0,4.0,0.0,9.0,3.0,2.0,0.0,0.0,0.0,0.49,
22.45,115.83207264021118,94.61814474940365,-3.21,-2.37,-0.05,40.0,4.0,0.0,9.0,3.0,2.0,0.0,0.0,0.0,0.1,
22.473,115.77620726402111,94.60181447494037,-3.58,-2.21,0.15,39.0,4.0,0.0,9.0,3.0,2.0,0.0,0.0,0.0,0.1,
22.498,115.7526207264021,94.60018144749404,-3.47,-2.14,0.31,35.0,4.0,0.0,9.0,3.0,2.0,0.0,0.0,0.0,0.39,
22.522,115.74126207264021,94.6180181447494,-3.21,-2.69,0.24,39.0,4.0,0.0,9.0,3.0,2.0,0.0,0.0,0.0,0.78,
22.547,115.67712620726402,94.57480181447494,-3.68,-1.98,0.17,39.0,4.0,0.0,9.0,3.0,2.0,0.0,0.0,0.0,0.88,
22.572,115.6977126207264,94.5794801814475,-3.96,-2.43,0.34,39.0,4.0,0.0,9.0,3.0,2.0,0.0,0.0,0.0,0.59,
22.595,115.77177126207263,94.52594801814475,-4.09,-3.53,0.18,39.0,4.0,0.0,9.0,3.0,2.0,0.0,0.0,0.0,0.39,
22.62,115.79717712620726,94.54759480181447,-4.08,-4.11,0.18,39.0,4.0,0.0,9.0,3.0,2.0,0.0,0.0,0.0,0.1,
22.644,115.77271771262072,94.49575948018145,-3.89,-3.24,0.13,39.0,4.0,0.0,10.0,3.0,2.0,0.0,0.0,0.0,0.0,
22.669,115.68927177126207,94.39157594801813,-3.63,-1.36,0.32,40.0,4.0,0.0,10.0,3.0,2.0,0.0,0.0,0.0,0.0,
22.693,115.66292717712619,94.33615759480182,-3.5,-1.01,0.27,40.0,4.0,0.0,10.0,3.0,2.0,1.0,0.0,0.0,0.0,
22.718,115.64229271771262,94.34861575948017,-3.69,-1.66,0.22,39.0,4.0,0.0,10.0,3.0,2.0,1.0,0.0,0.0,0.2,
22.743,115.67622927177126,94.27786157594802,-3.75,-2.43,0.03,40.0,4.0,0.0,10.0,3.0,2.0,1.0,0.0,0.0,0.49,
22.766,115.66162292717712,94.2257861575948,-3.29,-0.76,0.01,40.0,4.0,0.0,10.0,3.0,2.0,1.0,0.0,0.0,0.2,
22.791,115.57016229271771,94.27457861575948,-3.15,-0.42,0.14,40.0,4.0,0.0,10.0,3.0,2.0,1.0,0.0,0.0,0.1,
22.815,115.50701622927177,94.34245786157594,-3.18,-0.17,0.02,40.0,4.0,0.0,10.0,3.0,2.0,1.0,0.0,0.0,0.1,
22.84,115.54570162292718,94.3672457861576,-3.04,-0.53,-0.15,40.0,4.0,0.0,10.0,3.0,2.0,1.0,0.0,0.0,0.49,
22.864,115.57657016229273,94.34272457861576,-2.97,-1.31,-0.09,40.0,4.0,0.0,10.0,3.0,2.0,1.0,0.0,0.0,0.78,
