time,pitch,roll,gyrx,gyry,gyrz,f1,f2,f3,f4,f5,f6,f7,g1,g2,g3
0.356,77.57,18.81,5.0,6.0,12.0,0,2,0,0,0,0,0,0.00,0.00,0.00,
0.369,88.91900000000001,21.393,4.0,0.0,0.0,0,2,0,0,0,0,0,0.00,0.00,0.00,
0.382,99.61189999999999,23.9823,0.0,-5.0,-9.0,0,2,0,0,0,0,0,0.00,0.00,0.00,
0.396,108.73619000000001,26.17623,-4.0,-7.0,-13.0,0,2,0,0,0,0,0,0.00,0.00,0.00,
0.41,116.470619,28.231623,-9.0,-13.0,-9.0,0,2,0,0,0,0,0,0.00,0.00,0.00,
0.423,122.9860619,29.8051623,-9.0,-16.0,-2.0,0,2,0,0,0,0,0,0.00,0.00,0.00,
0.437,128.51560619,31.10551623,-7.0,-17.0,1.0,0,2,0,0,0,0,0,0.00,0.00,0.00,
0.451,133.18156061899998,32.306551623,-7.0,-18.0,7.0,0,2,0,0,0,0,0,0.00,0.00,0.10,
0.464,137.1041560619,33.13765516229999,-7.0,-14.0,12.0,0,2,0,0,0,0,0,0.00,0.00,0.10,
0.478,140.60141560619002,33.55376551623,-7.0,1.0,4.0,0,2,0,0,0,0,0,0.00,0.00,0.00,
0.491,143.741141560619,33.748376551623004,2.0,7.0,-2.0,0,2,0,0,0,0,0,0.00,0.00,0.00,
0.504,146.5661141560619,34.0378376551623,12.0,9.0,1.0,0,2,0,0,0,0,0,0.00,0.00,0.10,
0.519,148.9006114156062,34.52578376551623,14.0,14.0,-2.0,0,2,0,0,0,0,0,0.00,0.00,0.10,
0.532,151.09606114156063,35.01557837655162,6.0,21.0,-3.0,0,2,0,0,0,0,0,0.00,0.00,0.10,
0.545,152.83660611415607,35.55955783765516,-3.0,27.0,-8.0,0,2,0,0,0,0,0,0.00,0.00,0.10,
0.559,154.2346606114156,36.45995578376552,-10.0,27.0,-12.0,0,2,0,0,0,0,0,0.00,0.00,0.10,
0.573,155.13046606114156,37.521995578376554,-10.0,17.0,-7.0,0,2,0,0,0,0,0,0.00,0.00,0.00,
0.586,155.97604660611415,38.73519955783765,-8.0,0.0,2.0,0,2,0,0,0,0,0,0.00,0.00,0.00,
0.6,156.5376046606114,39.558519955783765,-10.0,-16.0,12.0,0,2,0,0,0,0,0,0.00,0.00,0.10,
0.614,156.84576046606114,39.99185199557838,-13.0,-21.0,9.0,0,2,0,0,0,0,0,0.00,0.00,0.10,
0.627,157.1015760466061,40.05318519955784,-14.0,-17.0,-3.0,0,2,0,0,0,0,0,0.00,0.00,0.10,
0.642,157.28015760466064,39.96031851995579,-11.0,-10.0,-12.0,0,2,0,0,0,0,0,0.00,0.00,0.10,
0.655,157.56801576046607,39.834031851995576,-2.0,-3.0,-13.0,0,2,0,0,0,0,0,0.00,0.00,0.10,
0.669,157.9118015760466,39.84840318519956,7.0,3.0,-6.0,0,2,0,0,0,0,0,0.00,0.00,0.10,
0.683,158.54018015760468,39.72384031851996,13.0,9.0,1.0,0,2,0,0,0,0,0,0.00,0.00,0.00,
0.696,159.26901801576045,39.585384031851994,14.0,14.0,15.0,0,2,0,0,0,0,0,0.00,0.00,0.10,
0.709,160.07090180157604,39.0045384031852,15.0,17.0,28.0,0,2,0,0,0,0,0,0.00,0.00,0.10,
0.722,160.78109018015763,38.568453840318526,18.0,26.0,23.0,0,2,0,0,0,0,0,0.00,0.00,0.00,
0.737,161.5001090180158,38.11984538403185,17.0,32.0,0.0,0,2,0,0,0,0,0,0.00,0.00,0.00,
0.75,162.12101090180158,38.020984538403184,8.0,29.0,-15.0,0,2,0,0,0,0,0,0.00,0.00,0.00,
0.763,162.38110109018015,38.641098453840314,-4.0,22.0,-20.0,0,2,0,0,0,0,0,0.00,0.00,0.00,
0.778,162.380110109018,39.34210984538403,-16.0,11.0,-15.0,0,2,0,0,0,0,0,0.00,0.00,0.00,
0.791,162.1730110109018,40.06021098453841,-24.0,-2.0,-5.0,0,2,0,0,0,0,0,0.00,0.00,0.00,
0.804,161.6393011010902,40.74402109845384,-24.0,-16.0,0.0,0,2,0,0,0,0,0,0.00,0.00,0.00,
0.819,160.982930110109,41.21740210984538,-19.0,-24.0,0.0,0,2,0,0,0,0,0,0.00,0.00,0.10,
0.832,160.2782930110109,41.58874021098454,-13.0,-26.0,-5.0,0,2,0,0,0,0,0,0.00,0.00,0.10,
0.846,159.6318293011011,41.92287402109846,-6.0,-23.0,-10.0,0,2,0,0,0,0,0,0.00,0.00,0.20,
0.86,159.16218293011013,42.27128740210985,-4.0,-18.0,-6.0,0,2,0,0,0,0,0,0.00,0.00,0.10,
0.873,159.169218293011,42.288128740210986,-2.0,-14.0,0.0,0,2,0,0,0,0,0,0.00,0.00,0.00,
0.887,159.33192182930108,41.947812874021096,0.0,-12.0,8.0,0,2,0,0,0,0,0,0.00,0.00,0.00,
0.901,159.59119218293011,41.49078128740211,6.0,-10.0,13.0,0,2,0,0,0,0,0,0.00,0.00,0.00,
0.914,159.761119218293,41.27407812874021,12.0,-5.0,16.0,0,2,0,0,0,0,0,0.00,0.00,0.00,
0.927,160.1021119218293,40.883407812874026,14.0,2.0,11.0,0,2,0,0,0,0,0,0.00,0.00,0.00,
0.942,160.63121119218295,40.2773407812874,10.0,7.0,-1.0,0,2,0,0,0,0,0,0.10,0.00,0.10,
0.955,160.9721211192183,39.973734078128736,3.0,12.0,-15.0,0,2,0,0,0,0,0,0.00,0.00,0.00,
0.968,161.18621211192183,40.258373407812876,-4.0,9.0,-16.0,0,2,0,0,0,0,0,0.10,0.00,0.10,
0.982,161.2796212111922,40.39483734078129,-10.0,-2.0,-1.0,0,2,0,0,0,0,0,0.00,0.00,0.10,
0.996,161.02796212111923,40.16548373407813,-7.0,-13.0,5.0,0,2,0,0,0,0,0,0.00,0.00,0.10,
1.009,160.87679621211194,39.74654837340782,0.0,-17.0,7.0,0,2,0,0,0,0,0,0.00,0.00,0.10,
1.022,160.9246796212112,38.94865483734078,5.0,-15.0,5.0,0,2,0,0,0,0,0,0.00,0.00,0.00,
1.037,161.15446796212112,38.13986548373408,9.0,-8.0,0.0,0,2,0,0,0,0,0,0.00,0.00,0.10,
1.05,161.3664467962121,37.734986548373406,8.0,0.0,0.0,0,2,0,0,0,0,0,0.00,0.00,0.10,
1.063,161.81964467962123,37.41549865483734,2.0,2.0,13.0,0,2,0,0,0,0,0,0.00,0.00,0.10,
1.077,162.03596446796215,37.09554986548374,-4.0,4.0,11.0,0,2,0,0,0,0,0,0.00,0.00,0.00,
1.09,162.04859644679624,37.03655498654838,-8.0,10.0,-1.0,0,2,0,0,0,0,0,0.00,0.00,0.00,
1.103,162.06785964467963,36.94065549865484,-8.0,13.0,-10.0,0,2,0,0,0,0,0,0.00,0.00,0.10,
1.118,161.97978596446796,37.21006554986549,-6.0,10.0,-12.0,0,2,0,0,0,0,0,0.00,0.00,0.00,
1.131,161.6739785964468,37.777006554986556,-5.0,1.0,-9.0,0,2,0,0,0,0,0,0.00,0.00,0.00,
1.144,161.32839785964467,38.80570065549866,-12.0,-10.0,0.0,0,2,0,0,0,0,0,0.00,0.00,0.00,
1.159,160.98783978596447,39.52957006554987,-22.0,-19.0,4.0,0,2,0,0,0,0,0,0.00,0.00,0.00,
1.172,160.46778397859646,39.862957006554986,-30.0,-22.0,2.0,0,2,0,0,0,0,0,0.00,0.00,0.10,
1.185,159.94777839785962,39.89629570065549,-24.0,-16.0,-5.0,0,2,0,0,0,0,0,0.00,0.00,0.10,
1.2,159.59877783978598,39.629629570065546,-8.0,-10.0,-10.0,0,2,0,0,0,0,0,0.00,0.00,0.10,
1.213,159.3118777839786,39.620962957006554,7.0,0.0,-10.0,0,2,0,0,0,0,0,0.00,0.00,0.10,
1.227,159.31918777839786,39.66509629570066,16.0,8.0,0.0,0,2,0,0,0,0,0,0.00,0.00,0.10,
1.241,159.5989187778398,39.74150962957006,16.0,15.0,14.0,0,2,0,0,0,0,0,0.00,0.00,0.10,
1.254,159.94189187778397,39.722150962957,12.0,20.0,14.0,0,2,0,0,0,0,0,0.00,0.00,0.10,
1.267,160.4891891877784,39.4682150962957,7.0,23.0,1.0,0,2,0,0,0,0,0,0.00,0.00,0.20,
1.281,160.81391891877783,39.30782150962957,3.0,21.0,-9.0,0,2,0,0,0,0,0,0.00,0.00,0.20,
1.295,161.1253918918778,39.372782150962955,0.0,16.0,-16.0,0,2,0,0,0,0,0,0.00,0.00,0.20,
1.308,161.27353918918777,39.60427821509629,-3.0,7.0,-7.0,0,2,0,0,0,0,0,0.00,0.00,0.10,
1.321,161.3513539189188,39.81642782150963,-5.0,-4.0,5.0,0,2,0,0,0,0,0,0.00,0.00,0.00,
1.335,161.4761353918919,39.75664278215096,-9.0,-11.0,4.0,0,2,0,0,0,0,0,0.00,0.00,0.10,
1.349,161.33561353918918,39.94866427821509,-17.0,-15.0,2.0,0,2,0,0,0,0,0,0.00,0.00,0.00,
1.362,161.0065613539189,40.183866427821506,-22.0,-14.0,-4.0,0,2,0,0,0,0,0,0.00,0.00,0.10,
1.376,160.5596561353919,40.42338664278215,-23.0,-13.0,-10.0,0,2,0,0,0,0,0,0.00,0.00,0.20,
1.39,160.05596561353917,40.59133866427821,-15.0,-13.0,-8.0,0,2,0,0,0,0,0,0.10,0.00,0.20,
1.403,159.72659656135392,40.752133866427826,-2.0,-11.0,-2.0,0,2,0,0,0,0,0,0.00,0.00,0.00,
1.418,159.61265965613538,40.88521338664278,6.0,-9.0,3.0,0,2,0,0,0,0,0,0.00,0.00,0.10,
1.431,159.62826596561354,41.23152133866428,8.0,-7.0,8.0,0,2,0,0,0,0,0,0.00,0.00,0.20,
1.444,159.79182659656135,41.221152133866426,6.0,-2.0,7.0,0,2,0,0,0,0,0,0.00,0.00,0.20,
1.458,160.16818265965617,41.02211521338664,4.0,0.0,8.0,0,2,0,0,0,0,0,0.00,0.00,0.10,
1.471,160.3678182659656,40.69621152133867,4.0,1.0,3.0,0,2,0,0,0,0,0,0.00,0.00,0.00,
1.484,160.43278182659657,40.546621152133866,6.0,5.0,-7.0,0,2,0,0,0,0,0,0.00,0.00,0.10,
1.498,160.65527818265969,40.07266211521339,9.0,8.0,-11.0,0,2,0,0,0,0,0,0.00,0.00,0.10,
1.512,160.59652781826597,39.80026621152135,11.0,11.0,-13.0,0,2,0,0,0,0,0,0.00,0.00,0.10,
1.525,160.6536527818266,40.05202662115214,10.0,9.0,-5.0,0,2,0,0,0,0,0,0.00,0.00,0.10,
1.539,160.92036527818266,39.99620266211521,3.0,-3.0,17.0,0,2,0,0,0,0,0,0.00,0.00,0.10,
1.552,161.08203652781827,39.74762026621152,0.0,-11.0,23.0,0,2,0,0,0,0,0,0.00,0.00,0.10,
1.566,161.1972036527818,39.47076202662115,-3.0,-12.0,19.0,0,2,0,0,0,0,0,0.00,0.00,0.10,
1.58,161.44272036527818,38.77707620266212,-6.0,-8.0,2.0,0,2,0,0,0,0,0,0.10,0.00,0.10,
1.593,161.5302720365278,38.25770762026622,-9.0,-1.0,-16.0,0,2,0,0,0,0,0,0.00,0.00,0.10,
1.607,161.4670272036528,38.13377076202662,-6.0,4.0,-19.0,0,2,0,0,0,0,0,0.00,0.00,0.10,
1.62,161.28970272036528,38.27437707620266,-1.0,5.0,-9.0,0,2,0,0,0,0,0,0.00,0.00,0.10,
1.634,161.3169702720365,38.225437707620266,3.0,6.0,-7.0,0,2,0,0,0,0,0,0.00,0.00,0.10,
1.647,161.32869702720365,38.22054377076203,4.0,6.0,3.0,0,2,0,0,0,0,0,0.10,0.00,0.10,
1.66,161.31186970272037,38.3550543770762,5.0,8.0,8.0,0,2,0,0,0,0,0,0.00,0.00,0.10,
1.674,161.46318697027203,38.23350543770762,3.0,9.0,6.0,0,2,0,0,0,0,0,0.00,0.00,0.10,
1.687,161.3073186970272,38.545350543770766,-2.0,8.0,-4.0,0,2,0,0,0,0,0,0.00,0.00,0.20,
1.701,161.02173186970273,39.26053505437708,-10.0,6.0,-10.0,0,2,0,0,0,0,0,0.00,0.00,0.20,
1.715,160.68717318697028,39.99805350543771,-17.0,-3.0,0.0,0,2,0,0,0,0,0,0.00,0.00,0.10,
1.728,160.16771731869704,40.43180535054377,-16.0,-13.0,2.0,0,2,0,0,0,0,0,0.00,0.00,0.20,
1.742,159.8547717318697,40.72718053505437,-12.0,-19.0,9.0,0,2,0,0,0,0,0,0.00,0.00,0.20,
1.756,159.68847717318698,40.44171805350544,-7.0,-18.0,5.0,0,2,0,0,0,0,0,0.00,0.00,0.20,
1.769,159.6718477173187,40.12517180535055,-3.0,-8.0,-4.0,0,2,0,0,0,0,0,0.00,0.00,0.20,
1.783,159.62518477173188,39.958517180535054,0.0,3.0,-9.0,0,2,0,0,0,0,0,0.00,0.00,0.10,
1.797,159.63851847717316,40.112851718053506,2.0,10.0,-7.0,0,2,0,0,0,0,0,0.10,0.00,0.10,
1.81,159.9458518477173,39.948285171805345,6.0,13.0,-2.0,0,2,0,0,0,0,0,0.10,0.00,0.00,
1.823,160.22858518477173,39.85082851718054,6.0,13.0,2.0,0,2,0,0,0,0,0,0.00,0.00,0.10,
1.837,160.42785851847717,39.994082851718055,3.0,15.0,-1.0,0,2,0,0,0,0,0,0.00,0.00,0.10,
1.851,160.60078585184775,40.053408285171805,2.0,11.0,-4.0,0,2,0,0,0,0,0,0.00,0.00,0.10,
1.864,160.63607858518478,40.21234082851718,0.0,3.0,-8.0,0,2,0,0,0,0,0,0.00,0.00,0.10,
1.878,160.4596078585185,40.63323408285172,-3.0,-5.0,-7.0,0,2,0,0,0,0,0,0.00,0.00,0.10,
1.891,160.17196078585187,41.305323408285176,-11.0,-15.0,1.0,0,2,0,0,0,0,0,0.00,0.00,0.10,
1.905,160.0891960785852,41.49853234082852,-18.0,-20.0,1.0,0,2,0,0,0,0,0,0.00,0.00,0.10,
1.918,159.72091960785855,41.88685323408285,-24.0,-24.0,0.0,0,2,0,0,0,0,0,0.00,0.00,0.20,
1.932,159.21609196078586,42.47468532340829,-25.0,-24.0,-2.0,0,2,0,0,0,0,0,0.00,0.00,0.20,
1.946,158.49060919607857,43.10946853234083,-22.0,-23.0,-12.0,0,2,0,0,0,0,0,0.00,0.00,0.10,
1.959,157.8960609196079,44.180946853234076,-18.0,-25.0,-15.0,0,2,0,0,0,0,0,0.00,0.00,0.10,
1.974,157.3956060919608,45.18809468532341,-13.0,-31.0,-5.0,0,2,0,0,0,0,0,0.00,0.00,0.00,
1.987,157.0845606091961,45.909809468532345,-8.0,-34.0,-3.0,0,2,0,0,0,0,0,0.00,0.00,0.00,
2.001,156.7654560609196,46.413980946853236,-7.0,-32.0,-12.0,0,2,0,0,0,0,0,0.00,0.00,0.00,
2.015,156.37354560609197,47.57139809468533,-20.0,-25.0,-23.0,0,2,0,0,0,0,0,0.00,0.00,0.20,
2.029,155.5603545606092,49.31613980946853,-29.0,-20.0,-43.0,0,2,0,0,0,0,0,0.00,0.00,0.10,
2.042,154.42603545606093,52.15461398094685,-43.0,-32.0,-54.0,0,2,0,0,0,0,0,0.00,0.00,0.00,
2.057,152.8906035456061,55.768461398094686,-59.0,-49.0,-65.0,0,2,0,0,0,0,0,0.00,0.00,0.00,
2.07,151.18006035456062,58.81184613980947,-63.0,-71.0,-42.0,0,2,0,0,0,0,0,0.10,0.00,0.00,
2.084,149.47000603545607,60.907184613980945,-54.0,-100.0,-14.0,0,2,0,0,0,0,0,0.10,0.00,0.00,
2.098,147.5800006035456,62.08871846139809,-35.0,-106.0,-17.0,0,2,0,0,0,0,0,0.10,0.00,0.00,
2.112,145.94200006035456,62.85487184613981,-19.0,-104.0,-39.0,0,2,0,0,0,0,0,0.20,0.00,0.00,
2.126,144.50920000603546,63.51648718461398,-9.0,-96.0,-42.0,0,2,0,0,0,0,0,0.29,0.00,0.10,
2.14,143.21392000060354,64.3386487184614,15.0,-81.0,-52.0,0,2,0,0,0,0,0,0.29,0.00,0.10,
2.153,141.89639200006036,65.14086487184615,32.0,-65.0,-61.0,0,2,0,0,0,0,0,0.20,0.00,0.00,
2.167,140.76563920000604,66.49908648718463,36.0,-48.0,-51.0,0,2,0,0,0,0,0,0.20,0.00,0.00,
2.181,139.25756392000062,68.41690864871846,28.0,-47.0,-10.0,0,2,0,0,0,0,0,0.29,0.00,0.00,
2.195,138.60275639200006,69.76969086487185,22.0,-52.0,-3.0,0,2,0,0,0,0,0,0.20,0.00,0.00,
2.208,137.60127563920003,70.48996908648718,19.0,-55.0,12.0,0,2,0,0,0,0,0,0.20,0.00,0.00,
2.222,137.41112756392,71.46199690864871,34.0,-65.0,15.0,0,2,0,0,0,0,0,0.20,0.00,0.00,
2.236,137.07711275639198,71.53219969086489,41.0,-83.0,-2.0,0,2,0,0,0,0,0,0.20,0.00,0.00,
2.249,136.68371127563918,71.7642199690865,36.0,-82.0,-32.0,0,2,0,0,0,0,0,0.10,0.00,0.00,
2.264,135.4653711275639,72.53442199690865,31.0,-70.0,-52.0,0,2,0,0,0,0,0,0.10,0.00,0.00,
2.277,134.9835371127564,73.41244219969087,30.0,-58.0,-45.0,0,2,0,0,0,0,0,0.20,0.00,0.00,
2.291,134.94435371127562,74.16624421996909,30.0,-58.0,-32.0,0,2,0,0,0,0,0,0.20,0.00,0.00,
2.305,134.74243537112756,75.42962442199689,25.0,-61.0,-25.0,0,2,0,0,0,0,0,0.29,0.00,0.00,
2.318,135.01024353711276,76.91496244219968,7.0,-75.0,0.0,0,2,0,0,0,0,0,0.29,0.00,0.00,
2.332,135.86502435371128,78.28749624421997,-14.0,-92.0,5.0,0,2,0,0,0,0,0,0.29,0.00,0.00,
2.345,135.94150243537112,78.694749624422,-28.0,-107.0,-24.0,0,2,0,0,0,0,0,0.20,0.00,0.00,
2.36,135.44515024353709,79.8784749624422,-33.0,-110.0,-15.0,0,2,0,0,0,0,0,0.29,0.00,0.00,
2.373,135.5215150243537,80.13184749624422,-15.0,-106.0,0.0,0,2,0,0,0,0,0,0.20,0.00,0.00,
2.387,134.61115150243538,78.53718474962442,38.0,-66.0,-44.0,0,2,0,0,0,0,0,0.29,0.00,0.00,
2.401,134.45711515024354,79.03471847496245,63.0,-26.0,-53.0,0,2,0,0,0,0,0,0.29,0.00,0.00,
2.415,135.22471151502435,78.27447184749624,69.0,0.0,-35.0,0,2,0,0,0,0,0,0.29,0.00,0.00,
2.428,136.48947115150244,75.63344718474963,81.0,-3.0,-40.0,0,2,0,0,0,0,0,0.29,0.00,0.00,
2.442,136.59794711515025,73.30834471847497,93.0,-9.0,-73.0,0,2,0,0,0,0,0,0.10,0.00,0.00,
2.456,136.59079471151503,72.3288344718475,82.0,-19.0,-63.0,0,2,0,0,0,0,0,0.20,0.00,0.00,
2.469,136.7160794711515,71.31288344718475,56.0,-35.0,-14.0,0,2,0,0,0,0,0,0.20,0.00,0.00,
2.484,137.48460794711514,70.03228834471848,29.0,-49.0,27.0,0,2,0,0,0,0,0,0.20,0.00,0.00,
2.497,137.80446079471153,68.54522883447184,9.0,-61.0,28.0,0,2,0,0,0,0,0,0.10,0.00,0.00,
2.51,138.62844607947116,67.0645228834472,-7.0,-73.0,26.0,0,2,0,0,0,0,0,0.10,0.00,0.00,
2.525,139.1158446079471,65.35945228834473,-23.0,-81.0,-3.0,0,2,0,0,0,0,0,0.10,0.00,0.00,
2.538,138.7775844607947,64.14494522883447,-37.0,-75.0,-49.0,0,2,0,0,0,0,0,0.10,0.00,0.00,
2.551,137.69075844607949,63.807494522883445,-56.0,-64.0,-75.0,0,2,0,0,0,0,0,0.10,0.00,0.00,
2.566,136.64607584460796,64.37674945228835,-75.0,-60.0,-32.0,0,2,0,0,0,0,0,0.20,0.00,0.00,
2.58,135.4166075844608,64.42467494522884,-55.0,-56.0,45.0,0,2,0,0,0,0,0,0.20,0.00,0.00,
2.593,134.8346607584461,63.80846749452288,-18.0,-7.0,65.0,0,2,0,0,0,0,0,0.10,0.00,0.00,
2.607,135.32546607584462,63.10784674945229,20.0,-2.0,3.0,0,2,0,0,0,0,0,0.10,0.00,0.00,
2.621,135.45554660758447,62.785784674945226,37.0,6.0,-33.0,0,2,0,0,0,0,0,0.10,0.00,0.00,
2.634,131.85955466075845,68.33357846749453,236.0,0.0,64.0,0,2,0,0,0,0,0,0.10,0.00,0.00,
2.648,139.89695546607584,60.563357846749454,123.0,250.0,-82.0,0,2,0,0,0,0,0,0.10,0.00,0.00,
2.662,140.90769554660758,67.76933578467494,-234.0,129.0,250.0,1,2,0,0,0,0,0,0.00,0.00,0.00,
2.675,143.81676955466077,61.775933578467495,48.0,18.0,-105.0,1,2,0,0,0,0,0,0.00,0.00,0.00,
2.69,146.43867695546606,53.418593357846746,-106.0,-86.0,92.0,1,2,0,0,0,0,0,0.00,0.00,0.00,
2.703,142.4798676955466,52.85285933578468,114.0,-250.0,-119.0,1,2,0,0,0,0,0,0.00,0.00,0.00,
2.717,133.55198676955467,56.99928593357846,207.0,-212.0,-147.0,1,2,0,0,0,0,0,0.00,0.00,0.00,
2.732,142.81119867695548,75.67492859335785,22.0,-58.0,-250.0,1,2,0,0,0,0,0,0.00,0.00,0.00,
2.745,133.97211986769557,77.27249285933578,-5.0,22.0,-37.0,1,2,0,0,0,0,0,0.00,0.00,0.00,
2.758,139.26221198676956,91.47224928593359,63.0,12.0,250.0,0,2,0,0,0,0,0,0.00,0.00,0.00,
2.772,135.67822119867697,89.63422492859337,0.0,89.0,0.0,0,2,0,0,0,0,0,0.00,0.00,0.00,
2.786,135.13982211986772,87.56042249285933,36.0,142.0,-69.0,0,2,0,0,0,0,0,0.00,0.00,0.00,
2.799,141.0799822119868,85.52604224928592,149.0,54.0,56.0,1,2,0,0,0,0,0,0.00,0.00,0.00,
2.813,139.14499822119868,87.61760422492858,135.0,6.0,-31.0,1,2,0,0,0,0,0,0.00,0.00,0.00,
2.827,136.37749982211986,91.25576042249286,88.0,19.0,-86.0,1,2,0,0,0,0,0,0.00,0.00,0.00,
2.84,134.309749982212,95.31857604224928,29.0,26.0,-71.0,1,2,0,0,0,0,0,0.00,0.00,0.00,
2.854,131.9159749982212,97.47985760422493,35.0,19.0,-70.0,1,2,0,0,0,0,0,0.00,0.00,0.00,
2.868,129.93959749982213,99.0009857604225,-37.0,47.0,-10.0,1,2,0,0,0,0,0,0.00,0.00,0.00,
2.882,127.77995974998221,98.65809857604225,17.0,12.0,10.0,1,2,0,0,0,0,0,0.00,0.00,0.00,
2.895,127.38399597499823,98.81280985760422,-6.0,8.0,34.0,1,2,0,0,0,0,0,0.00,0.00,0.00,
3.333,127.45239959749982,100.46628098576042,0.0,-1.0,2.0,3,3,1,0,0,0,0,0.00,0.00,0.00,
3.347,127.43223995974999,100.56862809857604,0.0,-2.0,1.0,3,3,1,0,0,0,0,0.00,0.00,0.00,
3.368,127.439223995975,100.61486280985761,0.0,-3.0,0.0,3,3,1,0,0,0,0,0.00,0.00,0.00,
3.383,127.36792239959749,100.80848628098576,1.0,-3.0,-3.0,3,3,1,0,0,0,0,0.00,0.00,0.00,
3.396,127.34279223995975,100.86384862809858,0.0,-2.0,1.0,3,3,1,0,0,0,0,0.00,0.00,0.00,
3.41,127.34927922399596,100.80638486280985,-1.0,-2.0,0.0,3,3,1,0,0,0,0,0.00,0.00,0.00,
3.424,127.2869279223996,100.79163848628099,0.0,-2.0,0.0,3,3,1,0,0,0,0,0.00,0.00,0.00,
3.437,127.10969279223995,100.6011638486281,0.0,-2.0,0.0,3,3,1,0,0,0,0,0.00,0.00,0.00,
3.451,127.03796927922399,100.58211638486281,0.0,-2.0,0.0,3,3,1,0,0,0,0,0.00,0.00,0.00,
3.465,127.01279692792241,100.60721163848629,0.0,-3.0,-1.0,3,3,1,0,0,0,0,0.00,0.00,0.00,
3.479,127.00127969279224,100.74472116384864,0.0,-3.0,0.0,3,2,1,0,0,0,0,0.00,0.00,0.00,
3.492,126.98212796927923,100.78547211638488,0.0,-1.0,0.0,4,2,1,0,0,0,0,0.00,0.00,0.00,
3.507,127.00721279692793,100.7895472116385,0.0,-2.0,0.0,4,2,1,0,0,0,0,0.00,0.00,0.00,
3.52,127.01872127969278,100.78995472116387,0.0,-2.0,-1.0,4,2,1,0,0,0,0,0.00,0.00,0.00,
3.533,126.99287212796928,100.9339954721164,0.0,-2.0,0.0,4,2,1,0,0,0,0,0.00,0.00,0.00,
3.548,126.92728721279693,100.94839954721164,0.0,-1.0,0.0,4,2,1,0,0,0,0,0.00,0.00,0.00,
3.561,126.9027287212797,100.88683995472117,-1.0,-1.0,0.0,4,2,1,0,0,0,0,0.00,0.00,0.00,
3.575,126.90027287212797,100.96168399547211,-1.0,-1.0,-1.0,4,2,1,0,0,0,0,0.00,0.00,0.00,
3.589,126.85502728721279,100.89716839954721,0.0,-2.0,0.0,4,3,1,0,0,0,0,0.00,0.00,0.00,
3.603,126.90450272872127,100.95371683995471,0.0,-2.0,0.0,4,3,1,0,0,0,0,0.00,0.00,0.00,
3.616,126.92745027287214,101.03137168399547,0.0,-2.0,1.0,4,3,1,0,0,0,0,0.00,0.00,0.00,
3.631,126.92974502728723,101.12913716839954,0.0,-2.0,1.0,4,3,1,0,0,0,0,0.00,0.00,0.00,
3.644,126.85797450272871,100.97691371683995,-1.0,-2.0,1.0,4,2,1,0,0,0,0,0.00,0.00,0.00,
3.657,126.76979745027288,100.952691371684,-1.0,-2.0,0.0,4,2,1,0,0,0,0,0.00,0.00,0.00,
3.672,126.73397974502728,100.9502691371684,-1.0,-2.0,1.0,4,2,1,0,0,0,0,0.00,0.00,0.00,
3.685,126.73039797450272,100.94102691371684,-1.0,-2.0,0.0,4,2,1,0,0,0,0,0.00,0.00,0.10,
3.699,126.72103979745027,100.95810269137166,-1.0,-2.0,0.0,4,2,1,0,0,0,0,0.00,0.00,0.10,
3.713,126.77410397974504,100.99581026913717,-1.0,-2.0,-1.0,4,2,1,0,0,0,0,0.00,0.00,0.20,
3.727,126.6534103979745,101.05358102691372,-1.0,-1.0,0.0,4,2,1,0,0,0,0,0.00,0.00,0.29,
3.741,126.64134103979745,101.11335810269138,-2.0,0.0,0.0,4,2,1,0,0,0,0,0.00,0.00,0.29,
3.755,126.66713410397975,101.18233581026914,-2.0,0.0,-1.0,4,2,1,0,0,0,0,0.00,0.00,0.20,
3.768,126.66971341039797,101.24323358102691,-2.0,0.0,-1.0,4,2,1,0,0,0,0,0.00,0.00,0.10,
3.782,126.6879713410398,101.21332335810268,-2.0,0.0,0.0,4,2,1,0,0,0,0,0.00,0.00,0.10,
3.795,126.69879713410398,101.20133233581026,-2.0,0.0,0.0,4,2,1,0,0,0,0,0.00,0.00,0.00,
3.81,126.7178797134104,101.13713323358103,-2.0,0.0,-1.0,4,2,1,0,0,0,0,0.00,0.00,0.00,
3.823,126.77378797134104,101.12171332335811,-1.0,-1.0,0.0,4,2,1,0,0,0,0,0.00,0.00,0.00,
3.837,126.7253787971341,101.0751713323358,-2.0,-1.0,0.0,4,2,1,0,0,0,0,0.00,0.00,0.00,
3.851,126.6935378797134,101.10651713323358,-2.0,-1.0,0.0,4,2,1,0,0,0,0,0.00,0.00,0.00,
3.865,126.68135378797135,101.12765171332336,-2.0,0.0,-1.0,4,2,1,0,0,0,0,0.00,0.00,0.00,
3.878,126.66213537879713,101.12076517133235,-3.0,0.0,-2.0,4,2,1,0,0,0,0,0.00,0.00,0.00,
3.893,126.68721353787971,101.11107651713323,-3.0,0.0,-2.0,4,2,1,0,0,0,0,0.00,0.00,0.00,
3.906,126.61772135378797,101.08310765171332,-3.0,0.0,-1.0,4,2,1,0,0,0,0,0.00,0.00,0.00,
3.92,126.6107721353788,101.03531076517133,-3.0,0.0,-1.0,4,2,1,0,0,0,0,0.00,0.00,0.00,
3.934,126.63707721353788,101.02153107651712,-3.0,0.0,-2.0,4,2,1,0,0,0,0,0.00,0.00,0.00,
3.948,126.6217077213538,100.98415310765171,-3.0,0.0,-2.0,4,2,1,0,0,0,0,0.00,0.00,0.00,
3.961,126.58417077213538,100.98941531076517,-4.0,1.0,-2.0,4,2,1,0,0,0,0,0.00,0.00,0.00,
3.976,126.57141707721354,100.89094153107652,-4.0,0.0,-3.0,4,2,1,0,0,0,0,0.00,0.00,0.00,
3.989,126.57914170772135,100.89909415310765,-4.0,0.0,-2.0,4,2,1,0,0,0,0,0.00,0.00,0.00,
4.003,126.59791417077213,100.90890941531077,-3.0,0.0,-1.0,4,2,1,0,0,0,0,0.00,0.00,0.00,
4.017,126.59079141707723,100.84689094153107,-3.0,0.0,-1.0,4,2,1,0,0,0,0,0.00,0.00,0.00,
4.031,126.64407914170773,100.88568909415311,-3.0,0.0,-1.0,4,2,1,0,0,0,0,0.00,0.00,0.00,
4.044,126.71240791417077,100.9165689094153,-3.0,0.0,-1.0,4,2,1,0,0,0,0,0.00,0.00,0.00,
4.059,126.76424079141708,100.94665689094154,-3.0,0.0,-1.0,3,2,1,0,0,0,0,0.00,0.00,0.00,
4.072,126.82342407914172,101.00366568909416,-3.0,0.0,-1.0,3,2,1,0,0,0,0,0.00,0.00,0.00,
4.086,126.86534240791417,101.08136656890943,-3.0,0.0,-1.0,3,2,1,0,0,0,0,0.00,0.00,0.00,
4.1,126.85153424079141,101.08913665689096,-3.0,0.0,-2.0,3,2,1,0,0,0,0,0.00,0.00,0.00,
4.114,126.85915342407914,101.11691366568911,-3.0,0.0,-1.0,3,2,1,0,0,0,0,0.00,0.00,0.00,
4.127,126.85991534240792,101.1376913665689,-3.0,0.0,-1.0,3,2,1,0,0,0,0,0.00,0.00,0.00,
4.142,126.84199153424079,101.11276913665688,-3.0,0.0,-1.0,3,2,1,0,0,0,0,0.00,0.00,0.00,
4.155,126.84019915342408,101.13727691366569,-2.0,0.0,-1.0,3,2,1,0,0,0,0,0.00,0.00,0.00,
4.169,126.85801991534241,101.17572769136657,-2.0,0.0,-1.0,3,2,1,0,0,0,0,0.00,0.00,0.00,
4.183,126.88680199153424,101.08957276913665,-2.0,0.0,-1.0,3,2,1,0,0,0,0,0.00,0.00,0.00,
4.197,126.88068019915342,101.08995727691368,-2.0,0.0,-1.0,3,2,1,0,0,0,0,0.00,0.00,0.00,
4.21,126.90706801991533,101.11699572769137,-2.0,0.0,0.0,3,2,1,0,0,0,0,0.00,0.00,0.00,
4.224,126.95470680199152,101.12869957276914,-2.0,0.0,-1.0,3,2,1,0,0,0,0,0.00,0.00,0.00,
4.238,126.99547068019915,101.08486995727691,-2.0,0.0,-1.0,3,2,1,0,0,0,0,0.00,0.00,0.00,
4.251,126.9635470680199,101.0354869957277,-2.0,0.0,-1.0,3,2,1,0,0,0,0,0.00,0.00,0.00,
4.265,127.02335470680198,101.09354869957276,-1.0,0.0,-1.0,3,2,1,0,0,0,0,0.00,0.00,0.00,
4.279,127.0023354706802,101.04535486995728,-1.0,0.0,-1.0,3,2,1,0,0,0,0,0.00,0.00,0.00,
4.293,127.03623354706804,101.11253548699574,-1.0,0.0,-3.0,3,2,1,0,0,0,0,0.00,0.00,0.00,
4.306,126.98562335470682,101.09225354869957,-1.0,0.0,-3.0,3,2,1,0,0,0,0,0.00,0.00,0.00,
4.321,127.0075623354707,101.10822535486994,-1.0,0.0,-3.0,3,2,1,0,0,0,0,0.00,0.00,0.00,
4.334,126.99175623354706,101.145822535487,-1.0,0.0,-3.0,3,2,1,0,0,0,0,0.00,0.00,0.00,
4.348,126.98117562335472,101.1585822535487,-2.0,0.0,-3.0,3,2,1,0,0,0,0,0.00,0.00,0.00,
4.362,126.93511756233548,101.17785822535488,-2.0,0.0,-4.0,3,2,1,0,0,0,0,0.00,0.00,0.00,
4.376,126.89451175623356,101.15278582253549,-2.0,0.0,-4.0,3,2,1,0,0,0,0,0.00,0.00,0.00,
4.389,126.86345117562335,101.21327858225355,-2.0,0.0,-3.0,3,2,1,0,0,0,0,0.00,0.00,0.00,
4.404,126.85134511756232,101.16532785822535,-2.0,0.0,-3.0,3,2,1,0,0,0,0,0.00,0.00,0.00,
4.417,126.85913451175624,101.13353278582252,-2.0,0.0,-2.0,3,2,1,0,0,0,0,0.00,0.00,0.00,
4.431,126.91391345117563,101.20235327858225,-2.0,0.0,-2.0,3,2,1,0,0,0,0,0.00,0.00,0.00,
4.445,126.91939134511757,101.24523532785823,-3.0,0.0,-2.0,3,2,1,0,0,0,0,0.00,0.00,0.00,
4.459,126.91993913451176,101.22252353278581,-2.0,0.0,-2.0,3,2,1,0,0,0,0,0.00,0.00,0.00,
4.472,126.88399391345116,101.20225235327858,-2.0,0.0,-3.0,3,2,1,0,0,0,0,0.00,0.00,0.00,
4.487,126.86239939134512,101.28122523532785,-2.0,0.0,-3.0,2,2,1,0,0,0,0,0.00,0.00,0.00,
4.5,126.83323993913451,101.30712252353278,-2.0,-1.0,-3.0,2,2,1,0,0,0,0,0.00,0.00,0.00,
4.514,126.80332399391345,101.32771225235328,-2.0,0.0,-2.0,2,2,1,0,0,0,0,0.00,0.00,0.00,
4.528,126.79133239939135,101.41077122523534,-2.0,0.0,-1.0,2,2,1,0,0,0,0,0.00,0.00,0.00,
4.542,126.79013323993914,101.40107712252353,-3.0,0.0,-2.0,2,2,1,0,0,0,0,0.00,0.00,0.00,
4.555,126.79001332399392,101.35510771225236,-2.0,0.0,-3.0,2,2,1,0,0,0,0,0.00,0.00,0.00,
4.57,126.7900013323994,101.34151077122524,-2.0,0.0,-4.0,2,2,1,0,0,0,0,0.00,0.00,0.00,
4.583,126.74500013323994,101.36715107712253,-3.0,0.0,-4.0,2,2,1,0,0,0,0,0.00,0.00,0.00,
4.597,126.767500013324,101.38771510771225,-2.0,0.0,-3.0,2,2,1,0,0,0,0,0.00,0.00,0.00,
4.611,126.7787500013324,101.38077151077123,-2.0,0.0,-4.0,2,2,1,0,0,0,0,0.00,0.00,0.00,
4.625,126.77087500013324,101.38007715107713,-2.0,0.0,-4.0,2,2,1,0,0,0,0,0.00,0.00,0.00,
4.638,126.78808750001332,101.38000771510772,-3.0,0.0,-4.0,2,2,1,0,0,0,0,0.00,0.00,0.00,
4.653,126.79880875000133,101.34400077151078,-3.0,0.0,-6.0,2,2,1,0,0,0,0,0.00,0.00,0.00,
4.666,126.79988087500013,101.34940007715107,-3.0,0.0,-8.0,2,2,1,0,0,0,0,0.00,0.00,0.00,
4.68,126.76398808750001,101.43994000771511,-3.0,0.0,-6.0,2,2,1,0,0,0,0,0.00,0.00,0.00,
4.694,126.76039880875,101.51199400077151,-2.0,0.0,-1.0,2,2,1,0,0,0,0,0.00,0.00,0.00,
4.708,126.715039880875,101.56419940007714,-2.0,0.0,0.0,2,2,1,0,0,0,0,0.00,0.00,0.00,
4.721,126.7375039880875,101.5784199400077,-2.0,0.0,-2.0,2,2,1,0,0,0,0,0.00,0.00,0.00,
4.736,126.69475039880875,101.59784199400076,-2.0,0.0,-3.0,2,2,1,0,0,0,0,0.00,0.00,0.00,
4.749,126.66347503988086,101.55478419940007,-2.0,0.0,-2.0,2,2,1,0,0,0,0,0.00,0.00,0.00,
4.763,126.66934750398808,101.54147841994002,-2.0,0.0,-2.0,2,2,1,0,0,0,0,0.00,0.00,0.00,
4.776,126.66093475039881,101.495147841994,-2.0,0.0,-4.0,2,2,1,0,0,0,0,0.00,0.00,0.00,
4.791,126.63309347503987,101.5355147841994,-2.0,0.0,-4.0,2,2,1,0,0,0,0,0.00,0.00,0.00,
4.804,126.61230934750398,101.60255147841994,-2.0,0.0,-1.0,2,2,1,0,0,0,0,0.00,0.00,0.00,
4.818,126.7002309347504,101.663255147842,-2.0,0.0,0.0,2,2,1,0,0,0,0,0.00,0.00,0.00,
4.832,126.70902309347504,101.63332551478419,-2.0,0.0,-2.0,2,2,1,0,0,0,0,0.00,0.00,0.00,
4.846,126.7639023093475,101.65733255147842,-2.0,0.0,-5.0,2,2,1,0,0,0,0,0.00,0.00,0.00,
4.859,126.76039023093475,101.72273325514784,-2.0,0.0,-4.0,2,2,1,0,0,0,0,0.00,0.00,0.00,
4.874,126.74203902309347,101.80127332551479,-2.0,0.0,0.0,2,2,1,0,0,0,0,0.00,0.00,0.00,
4.887,126.79420390230935,101.77312733255148,-2.0,0.0,0.0,2,2,1,0,0,0,0,0.00,0.00,0.00,
4.9,126.87142039023092,101.71631273325515,-2.0,0.0,-2.0,2,2,1,0,0,0,0,0.00,0.00,0.00,
4.915,126.8701420390231,101.72863127332552,-1.0,0.0,-2.0,2,2,1,0,0,0,0,0.00,0.00,0.00,
4.928,126.79801420390231,101.69386312733255,-2.0,0.0,-1.0,2,2,1,0,0,0,0,0.00,0.00,0.00,
4.942,126.78180142039024,101.61838631273325,-2.0,0.0,-2.0,2,2,1,0,0,0,0,0.00,0.00,0.00,
4.956,126.80718014203903,101.65583863127333,-2.0,0.0,-4.0,2,2,1,0,0,0,0,0.00,0.00,0.00,
4.97,126.79171801420391,101.63258386312734,-1.0,0.0,-3.0,2,2,1,0,0,0,0,0.00,0.00,0.00,
4.983,126.83517180142039,101.68425838631273,-2.0,0.0,0.0,2,2,1,0,0,0,0,0.00,0.00,0.00,
4.998,126.86651718014204,101.68942583863128,-2.0,0.0,0.0,2,2,1,0,0,0,0,0.00,0.00,0.00,
5.011,126.84265171801421,101.71694258386313,-2.0,0.0,-2.0,2,2,1,0,0,0,0,0.00,0.00,0.00,
5.025,126.79526517180142,101.77369425838631,-2.0,0.0,-3.0,2,2,1,0,0,0,0,0.00,0.00,0.00,
5.039,126.80852651718014,101.78836942583864,-2.0,0.0,-1.0,2,2,1,0,0,0,0,0.00,0.00,0.00,
5.053,126.82785265171802,101.81683694258385,-2.0,0.0,-1.0,2,2,1,0,0,0,0,0.00,0.00,0.00,
5.066,126.8027852651718,101.89168369425839,-2.0,0.0,-4.0,2,2,1,0,0,0,0,0.00,0.00,0.00,
5.081,126.78227852651719,101.91716836942584,-2.0,0.0,-4.0,2,2,1,0,0,0,0,0.00,0.00,0.00,
5.094,126.75322785265172,101.94671683694258,-2.0,0.0,-2.0,2,2,1,0,0,0,0,0.00,0.00,0.00,
5.108,126.78632278526517,101.93167168369426,-1.0,0.0,-1.0,2,2,1,0,0,0,0,0.00,0.00,0.00,
5.122,126.84363227852651,101.91216716836942,-2.0,0.0,-2.0,2,2,1,0,0,0,0,0.00,0.00,0.00,
5.136,126.88536322785265,102.03621671683695,-2.0,0.0,-4.0,2,2,1,0,0,0,0,0.00,0.00,0.00,
5.149,126.84453632278527,102.08462167168369,-2.0,0.0,-2.0,2,2,1,0,0,0,0,0.00,0.00,0.00,
5.164,126.82245363227851,102.12546216716837,-2.0,0.0,-1.0,2,2,1,0,0,0,0,0.00,0.00,0.00,
5.177,126.84724536322784,102.12054621671683,-2.0,0.0,-1.0,2,2,1,0,0,0,0,0.00,0.00,0.00,
5.191,126.89472453632278,102.14705462167169,-2.0,0.0,-1.0,2,2,1,0,0,0,0,0.00,0.00,0.00,
5.204,126.86347245363228,102.10470546216717,-2.0,0.0,-2.0,2,2,1,0,0,0,0,0.00,0.00,0.00,
5.219,126.86034724536323,102.14547054621671,-2.0,0.0,-3.0,2,2,1,0,0,0,0,0.00,0.00,0.00,
5.232,126.84203472453632,102.15854705462166,-1.0,0.0,-3.0,2,2,1,0,0,0,0,0.00,0.00,0.00,
5.246,126.83120347245364,102.18685470546217,-1.0,0.0,-1.0,2,2,1,0,0,0,0,0.00,0.00,0.00,
5.26,126.81212034724537,102.25268547054623,-2.0,0.0,0.0,2,2,1,0,0,0,0,0.00,0.00,0.00,
5.273,126.80121203472454,102.25026854705463,-2.0,0.0,-1.0,2,2,1,0,0,0,0,0.00,0.00,0.00,
5.287,126.77312120347246,102.22302685470547,-2.0,0.0,-3.0,2,2,1,0,0,0,0,0.00,0.00,0.00,
5.301,126.76131212034724,102.16630268547055,-1.0,0.0,-3.0,2,2,1,0,0,0,0,0.00,0.00,0.00,
5.315,126.79613121203472,102.33163026854704,-1.0,0.0,0.0,2,2,1,0,0,0,0,0.00,0.00,0.00,
5.328,126.85361312120348,102.35716302685469,-1.0,0.0,0.0,2,2,1,0,0,0,0,0.00,0.00,0.00,
5.343,126.94936131212035,102.37771630268546,-2.0,0.0,-1.0,2,2,1,0,0,0,0,0.00,0.00,0.00,
5.356,126.98593613121203,102.39777163026855,-2.0,0.0,-3.0,2,2,1,0,0,0,0,0.00,0.00,0.00,
5.37,126.95359361312121,102.42677716302687,-2.0,0.0,-2.0,2,2,1,0,0,0,0,0.00,0.00,0.00,
5.384,126.89635936131212,102.42967771630269,-2.0,0.0,0.0,2,2,1,0,0,0,0,0.00,0.00,0.00,
5.398,126.8816359361312,102.44796777163026,-2.0,0.0,0.0,2,2,1,0,0,0,0,0.00,0.00,0.00,
5.411,126.84416359361312,102.37779677716304,-1.0,0.0,-1.0,2,2,1,0,0,0,0,0.00,0.00,0.00,
5.426,126.79541635936131,102.4337796777163,-2.0,0.0,-2.0,2,2,1,0,0,0,0,0.00,0.00,0.00,
5.439,126.78154163593614,102.41237796777162,-2.0,0.0,-2.0,2,2,1,0,0,0,0,0.00,0.00,0.00,
5.453,126.78915416359362,102.44623779677715,-2.0,0.0,-1.0,2,2,1,0,0,0,0,0.00,0.00,0.00,
5.467,126.76291541635936,102.45862377967771,-2.0,0.0,-1.0,2,2,1,0,0,0,0,0.00,0.00,0.00,
5.481,126.76929154163594,102.40586237796778,-2.0,0.0,-2.0,2,2,1,0,0,0,0,0.00,0.00,0.00,
5.494,126.8329291541636,102.40058623779679,-2.0,0.0,-2.0,2,2,1,0,0,0,0,0.00,0.00,0.00,
5.508,126.77629291541636,102.37305862377968,-2.0,0.0,-2.0,2,2,1,0,0,0,0,0.00,0.00,0.00,
5.522,126.76162929154164,102.41530586237796,-2.0,0.0,-1.0,2,2,1,0,0,0,0,0.00,0.00,0.00,
5.535,126.76016292915416,102.41953058623778,-2.0,0.0,0.0,2,2,1,0,0,0,0,0.00,0.00,0.00,
5.55,126.78701629291541,102.40195305862379,-2.0,0.0,-3.0,2,2,1,0,0,0,0,0.00,0.00,0.00,
5.563,126.75370162929154,102.42719530586238,-1.0,0.0,-3.0,2,2,1,0,0,0,0,0.00,0.00,0.00,
5.577,126.74137016292916,102.50171953058623,-1.0,0.0,-1.0,2,2,1,0,0,0,0,0.00,0.00,0.00,
5.591,126.76713701629292,102.51817195305863,-1.0,0.0,0.0,2,2,1,0,0,0,0,0.00,0.00,0.00,
5.605,126.75171370162928,102.53781719530586,-2.0,0.0,-1.0,2,2,1,0,0,0,0,0.00,0.00,0.00,
5.618,126.76817137016293,102.55778171953058,-2.0,0.0,-1.0,2,2,1,0,0,0,0,0.00,0.00,0.00,
5.632,126.79681713701629,102.48777817195305,-2.0,0.0,-3.0,2,2,1,0,0,0,0,0.00,0.00,0.00,
5.646,126.79068171370163,102.4897778171953,-1.0,0.0,-5.0,2,2,1,0,0,0,0,0.00,0.00,0.00,
5.659,126.75406817137016,102.51697778171953,-2.0,0.0,-3.0,2,2,1,0,0,0,0,0.00,0.00,0.00,
5.672,126.79540681713702,102.63669777817196,-2.0,0.0,-2.0,2,2,1,0,0,0,0,0.00,0.00,0.00,
5.686,126.8175406817137,102.6666697778172,-1.0,0.0,0.0,2,2,1,0,0,0,0,0.00,0.00,0.00,
5.7,126.79275406817138,102.59766697778173,-2.0,0.0,-1.0,2,2,1,0,0,0,0,0.00,0.00,0.00,
5.713,126.80827540681715,102.68076669777818,-2.0,0.0,-3.0,2,2,1,0,0,0,0,0.00,0.00,0.00,
5.727,126.79182754068171,102.71607666977782,-2.0,0.0,-3.0,2,2,1,0,0,0,0,0.00,0.00,0.00,
5.74,126.81718275406816,102.7196076669778,-2.0,0.0,-3.0,2,2,0,0,0,0,0,0.00,0.00,0.00,
5.754,126.8197182754068,102.72896076669778,-2.0,0.0,-4.0,2,2,0,0,0,0,0,0.00,0.00,0.00,
5.768,126.78397182754068,102.77489607666979,-2.0,0.0,-2.0,2,2,1,0,0,0,0,0.00,0.00,0.00,
5.781,126.77139718275407,102.77048960766697,-2.0,0.0,0.0,2,2,1,0,0,0,0,0.00,0.00,0.00,
5.794,126.7881397182754,102.7340489607667,-2.0,0.0,-1.0,2,2,0,0,0,0,0,0.00,0.00,0.00,
5.809,126.81681397182753,102.73040489607668,-2.0,0.0,-2.0,2,2,1,0,0,0,0,0.00,0.00,0.00,
5.822,126.80168139718276,102.77504048960768,-2.0,0.0,-1.0,2,2,0,0,0,0,0,0.00,0.00,0.00,
5.835,126.81816813971827,102.73450404896077,-2.0,0.0,0.0,2,2,1,0,0,0,0,0.00,0.00,0.00,
5.849,126.82881681397183,102.72145040489607,-2.0,0.0,0.0,2,2,1,0,0,0,0,0.00,0.00,0.00,
5.862,126.86588168139718,102.7381450404896,-2.0,0.0,0.0,2,2,1,0,0,0,0,0.00,0.00,0.00,
5.876,126.92358816813973,102.77581450404897,-1.0,0.0,-1.0,2,2,1,0,0,0,0,0.00,0.00,0.00,
5.89,126.92935881681397,102.7885814504049,-1.0,0.0,0.0,2,2,1,0,0,0,0,0.00,0.00,0.00,
5.903,126.9479358816814,102.8618581450405,-1.0,0.0,0.0,2,2,1,0,0,0,0,0.00,0.00,0.00,
5.916,126.94979358816815,102.89618581450407,-2.0,0.0,0.0,2,2,1,0,0,0,0,0.00,0.00,0.00,
5.929,126.94997935881682,102.94461858145041,-2.0,0.0,0.0,2,2,1,0,0,0,0,0.00,0.00,0.00,
5.944,126.93199793588168,102.95846185814504,-2.0,0.0,0.0,2,2,1,0,0,0,0,0.00,0.00,0.00,
5.957,126.93919979358816,102.93284618581451,-2.0,0.0,0.0,2,2,1,0,0,0,0,0.00,0.00,0.00,
5.97,126.93091997935882,102.90328461858147,-2.0,0.0,-1.0,2,2,1,0,0,0,0,0.00,0.00,0.00,
5.984,126.87609199793589,102.89132846185814,-2.0,0.0,-1.0,2,2,1,0,0,0,0,0.00,0.00,0.00,
5.997,126.90660919979358,102.95313284618581,-2.0,0.0,0.0,2,2,1,0,0,0,0,0.00,0.00,0.00,
6.011,126.87366091997936,102.95031328461857,-2.0,0.0,0.0,2,2,1,0,0,0,0,0.00,0.00,0.00,
6.025,126.89736609199794,102.92303132846186,-2.0,0.0,0.0,2,2,1,0,0,0,0,0.00,0.00,0.00,
6.038,126.8637366091998,102.8483031328462,-2.0,0.0,-2.0,2,2,1,0,0,0,0,0.00,0.00,0.00,
6.051,126.85137366091998,102.85883031328461,-2.0,0.0,-2.0,2,2,1,0,0,0,0,0.00,0.00,0.00,
6.065,126.841137366092,102.94088303132847,-2.0,0.0,-1.0,2,2,1,0,0,0,0,0.00,0.00,0.00,
6.079,126.8311137366092,102.88608830313285,-3.0,0.0,-1.0,2,2,1,0,0,0,0,0.00,0.00,0.00,
6.092,126.80311137366093,102.88060883031328,-3.0,0.0,-4.0,2,2,1,0,0,0,0,0.00,0.00,0.00,
6.525,126.8543111373661,103.07806088303131,-2.0,0.0,-1.0,2,2,1,0,0,0,0,0.00,0.00,0.00,
6.539,126.8774311137366,103.09780608830312,-2.0,0.0,0.0,2,2,1,0,0,0,0,0.00,0.00,0.00,
6.553,126.89774311137367,103.06378060883031,-2.0,0.0,0.0,2,2,1,0,0,0,0,0.00,0.00,0.00,
6.566,126.88177431113736,103.03337806088304,-2.0,0.0,-1.0,2,2,1,0,0,0,0,0.00,0.00,0.00,
6.58,126.86217743111374,103.0213378060883,-2.0,0.0,-1.0,2,2,1,0,0,0,0,0.00,0.00,0.00,
6.593,126.77921774311137,102.97513378060883,-2.0,0.0,0.0,2,2,1,0,0,0,0,0.00,0.00,0.00,
6.606,126.73492177431113,103.03351337806089,-2.0,0.0,0.0,2,2,1,0,0,0,0,0.00,0.00,0.00,
6.621,126.78449217743112,103.06635133780608,-2.0,0.0,-1.0,2,2,1,0,0,0,0,0.00,0.00,0.00,
6.634,126.75344921774311,103.0156351337806,-2.0,0.0,0.0,2,2,1,0,0,0,0,0.00,0.00,0.00,
6.647,126.8133449217743,102.96556351337806,-2.0,0.0,-1.0,2,2,1,0,0,0,0,0.00,0.00,0.00,
6.661,126.83733449217743,102.9965563513378,-2.0,0.0,0.0,2,2,1,0,0,0,0,0.00,0.00,0.00,
6.674,126.79473344921774,102.97265563513378,-2.0,0.0,0.0,2,2,1,0,0,0,0,0.00,0.00,0.00,
6.688,126.84447334492177,103.00626556351338,-2.0,0.0,0.0,2,2,1,0,0,0,0,0.00,0.00,0.00,
6.702,126.86744733449218,103.02762655635134,-2.0,0.0,0.0,2,2,1,0,0,0,0,0.00,0.00,0.00,
6.715,126.86974473344922,103.01176265563514,-2.0,0.0,0.0,2,2,1,0,0,0,0,0.00,0.00,0.00,
6.728,126.86097447334492,103.04617626556352,-2.0,0.0,-1.0,2,2,1,0,0,0,0,0.00,0.00,0.00,
6.742,126.8870974473345,103.04061762655635,-2.0,0.0,-2.0,2,2,1,0,0,0,0,0.00,0.00,0.00,
6.756,126.86270974473345,103.05806176265564,-2.0,0.0,-1.0,2,2,1,0,0,0,0,0.00,0.00,0.00,
6.769,126.87827097447334,103.07780617626557,-2.0,0.0,0.0,2,2,1,0,0,0,0,0.00,0.00,0.00,
6.782,126.80782709744733,103.07978061762657,-2.0,0.0,-1.0,2,2,1,0,0,0,0,0.00,0.00,0.00,
6.796,126.77378270974474,103.08897806176266,-1.0,0.0,0.0,2,2,1,0,0,0,0,0.00,0.00,0.00,
6.81,126.81537827097446,103.12589780617625,-2.0,0.0,0.0,2,2,1,0,0,0,0,0.00,0.00,0.00,
6.823,126.81053782709745,103.08458978061763,-2.0,0.0,0.0,2,2,1,0,0,0,0,0.00,0.00,0.00,
6.837,126.76505378270974,103.01745897806177,-2.0,0.0,-1.0,2,2,1,0,0,0,0,0.00,0.00,0.00,
6.85,126.80550537827098,103.06474589780616,-2.0,0.0,-1.0,2,2,1,0,0,0,0,0.00,0.00,0.00,
6.863,126.82755053782711,103.0964745897806,-2.0,0.0,-1.0,2,2,1,0,0,0,0,0.00,0.00,0.00,
6.878,126.80275505378272,103.09064745897807,-2.0,0.0,-1.0,2,2,1,0,0,0,0,0.00,0.00,0.00,
6.891,126.81827550537827,103.1080647458978,-2.0,0.0,-1.0,2,2,1,0,0,0,0,0.00,0.00,0.00,
6.904,126.79282755053782,103.10980647458979,-2.0,0.0,0.0,2,2,1,0,0,0,0,0.00,0.00,0.00,
6.918,126.77228275505378,103.09198064745898,-2.0,0.0,0.0,2,2,1,0,0,0,0,0.00,0.00,0.00,
6.932,126.78822827550538,103.0091980647459,-2.0,0.0,-1.0,2,2,1,0,0,0,0,0.00,0.00,0.00,
6.945,126.79882282755054,103.04591980647459,-2.0,0.0,-2.0,2,2,1,0,0,0,0,0.00,0.00,0.00,
6.959,126.84488228275504,103.03159198064746,-2.0,0.0,-2.0,2,2,1,0,0,0,0,0.00,0.00,0.00,
6.972,126.8134882282755,103.02115919806475,-3.0,0.0,-2.0,2,2,0,0,0,0,0,0.00,0.00,0.00,
6.986,126.78334882282755,103.05611591980647,-4.0,0.0,-2.0,2,2,0,0,0,0,0,0.00,0.00,0.00,
7.0,126.63633488228277,102.52861159198065,0.0,1.0,-7.0,1,2,0,0,0,0,0,0.00,0.00,0.00,
7.013,126.59463348822828,102.55686115919806,-4.0,2.0,0.0,1,2,0,0,0,0,0,0.00,0.00,0.00,
7.026,126.32046334882283,102.2806861159198,-5.0,3.0,1.0,1,2,0,0,0,0,0,0.00,0.00,0.00,
7.04,126.44604633488227,102.28006861159199,-8.0,3.0,7.0,1,2,0,0,0,0,0,0.00,0.00,0.00,
7.054,126.52160463348824,102.4240068611592,-7.0,3.0,11.0,1,2,0,0,0,0,0,0.00,0.00,0.00,
7.067,126.26816046334882,102.20440068611592,-12.0,-3.0,12.0,1,2,0,0,0,0,0,0.00,0.00,0.00,
7.08,126.37781604633489,102.1194400686116,-7.0,2.0,9.0,1,2,0,0,0,0,0,0.00,0.00,0.00,
7.095,126.4967816046335,102.18294400686116,-5.0,0.0,3.0,1,2,0,0,0,0,0,0.00,0.00,0.00,
7.108,126.58067816046336,101.99129440068612,-4.0,1.0,2.0,0,2,0,0,0,0,0,0.00,0.00,0.00,
7.121,126.32806781604634,102.20612944006862,-4.0,3.0,4.0,0,2,0,0,0,0,0,0.00,0.00,0.00,
7.135,126.39280678160463,101.93961294400685,-7.0,5.0,-3.0,0,2,0,0,0,0,0,0.00,0.00,0.00,
7.148,126.24628067816046,101.12096129440069,0.0,8.0,-11.0,0,2,0,0,0,0,0,0.00,0.00,0.00,
7.162,126.46562806781604,101.43509612944007,-6.0,7.0,-12.0,0,2,0,0,0,0,0,0.00,0.00,0.00,
7.176,126.47856280678161,101.637509612944,-9.0,12.0,-3.0,0,2,0,0,0,0,0,0.00,0.00,0.00,
7.189,126.79485628067816,102.0987509612944,-9.0,13.0,9.0,0,2,0,0,0,0,0,0.10,0.00,0.00,
7.203,126.9524856280678,101.59587509612945,-9.0,15.0,5.0,0,2,0,0,0,0,0,0.10,0.00,0.00,
7.217,127.34624856280678,101.58158750961294,-12.0,12.0,-3.0,0,2,0,0,0,0,0,0.10,0.00,0.00,
7.23,127.62862485628068,101.3551587509613,-8.0,8.0,-4.0,0,2,0,0,0,0,0,0.10,0.00,0.00,
7.244,127.95386248562806,101.24251587509613,-1.0,2.0,4.0,0,2,0,0,0,0,0,0.10,0.00,0.00,
7.258,128.13038624856281,101.2312515875096,0.0,-1.0,5.0,0,2,0,0,0,0,0,0.00,0.00,0.00,
7.271,128.13003862485627,101.26612515875095,0.0,-1.0,0.0,0,2,0,0,0,0,0,0.00,0.00,0.00,
7.284,128.12100386248562,101.2606125158751,-1.0,0.0,-5.0,1,2,0,0,0,0,0,0.00,0.00,0.00,
7.299,128.23710038624856,101.26906125158752,-2.0,0.0,-14.0,1,2,0,0,0,0,0,0.00,0.00,0.00,
7.312,128.07771003862484,101.44090612515875,-3.0,0.0,-9.0,1,2,0,0,0,0,0,0.10,0.00,0.00,
7.325,128.04377100386247,101.61109061251587,-3.0,2.0,5.0,1,2,0,0,0,0,0,0.20,0.00,0.00,
7.339,128.17537710038624,101.58310906125158,-2.0,2.0,2.0,1,2,0,0,0,0,0,0.20,0.00,0.00,
7.353,128.33253771003862,101.43631090612516,-2.0,0.0,-13.0,1,2,0,0,0,0,0,0.20,0.00,0.00,
7.366,128.44725377100386,101.36763109061252,-2.0,0.0,-27.0,1,2,0,0,0,0,0,0.29,0.00,0.00,
7.379,128.5487253771004,100.19976310906125,9.0,0.0,-32.0,1,2,0,0,0,0,0,0.39,0.00,0.00,
7.393,128.56787253771003,99.84897631090612,5.0,0.0,-14.0,1,2,0,0,0,0,0,0.69,0.00,0.00,
7.407,128.362787253771,99.89489763109063,5.0,2.0,-7.0,1,2,0,0,0,0,0,0.69,0.00,0.00,
7.42,128.4502787253771,100.53848976310907,2.0,0.0,0.0,1,2,0,0,0,0,0,0.69,0.00,0.00,
7.434,128.5940278725377,100.7018489763109,14.0,-2.0,-7.0,1,2,0,0,0,0,0,0.78,0.00,0.00,
7.447,128.68040278725377,101.51018489763109,9.0,16.0,-5.0,1,2,0,0,0,0,0,0.78,0.00,0.00,
7.461,128.9860402787254,101.4920184897631,4.0,9.0,-42.0,1,2,0,0,0,0,0,0.88,0.00,0.00,
7.475,129.29560402787257,103.1282018489763,16.0,-20.0,-54.0,2,2,0,0,0,0,0,0.78,0.00,0.00,
7.488,129.24556040278728,104.24582018489764,-21.0,67.0,-41.0,2,2,0,0,0,0,0,0.78,0.00,0.00,
7.502,127.46755604027872,104.85258201848976,11.0,9.0,-47.0,2,2,0,0,0,0,0,0.98,0.00,0.00,
7.516,127.34375560402786,105.29125820184899,14.0,20.0,4.0,2,2,0,0,0,0,0,0.88,0.00,0.00,
7.53,128.6363755604028,106.1001258201849,26.0,9.0,-26.0,3,2,1,0,0,0,0,0.78,0.00,0.00,
7.543,128.90963755604028,108.23301258201849,-2.0,-10.0,-23.0,3,2,1,0,0,0,0,0.69,0.00,0.00,
7.557,129.55796375560402,108.07730125820186,26.0,0.0,-43.0,3,2,1,0,0,0,0,0.59,0.00,0.00,
7.571,129.4067963755604,107.57573012582019,5.0,20.0,-26.0,3,2,1,0,0,0,0,0.29,0.00,0.00,
7.584,128.78867963755604,107.51657301258201,0.0,2.0,-2.0,3,2,1,0,0,0,0,0.10,0.00,0.00,
7.598,128.9158679637556,107.5376573012582,-2.0,-1.0,-3.0,3,2,1,0,0,0,0,0.10,0.00,0.00,
7.612,129.13558679637555,107.77376573012582,-4.0,-1.0,-14.0,3,2,1,0,0,0,0,0.10,0.00,0.00,
7.625,129.24755867963754,108.16637657301257,1.0,-1.0,-7.0,3,2,1,0,0,0,0,0.10,0.00,0.00,
7.639,129.08775586796375,108.78163765730126,3.0,0.0,16.0,3,2,1,0,0,0,0,0.20,0.00,0.00,
7.653,129.75577558679637,109.20316376573012,10.0,-3.0,21.0,4,2,1,0,0,0,0,0.29,0.00,0.00,
7.666,129.73257755867962,109.17331637657301,5.0,-4.0,0.0,4,2,1,0,0,0,0,0.29,0.00,0.00,
7.68,130.08125775586797,109.17933163765731,-7.0,28.0,-13.0,4,2,1,0,0,0,0,0.29,0.00,0.00,
7.694,130.7011257755868,106.69593316376573,-31.0,38.0,-52.0,4,2,1,0,0,0,0,0.39,0.00,0.00,
7.707,130.7091125775587,109.14759331637657,38.0,35.0,-47.0,4,2,1,0,0,0,0,0.39,0.00,0.00,
7.721,130.14291125775588,108.64575933163766,-3.0,18.0,20.0,4,2,1,0,0,0,0,0.49,0.00,0.00,
7.735,130.52729112577558,110.97157593316376,0.0,4.0,19.0,4,2,1,0,0,0,0,0.59,0.00,0.00,
7.748,131.06972911257756,111.08715759331636,8.0,-3.0,-5.0,4,2,1,0,0,0,0,0.69,0.00,0.00,
7.761,131.46597291125775,110.11771575933163,16.0,-10.0,-8.0,4,2,1,0,0,0,0,0.69,0.00,0.00,
7.776,131.2805972911258,108.68877157593317,3.0,5.0,-37.0,4,2,1,0,0,0,0,0.49,0.00,0.00,
7.789,130.4340597291126,109.22087715759332,0.0,0.0,-6.0,4,2,1,0,0,0,0,0.00,0.00,0.00,
7.802,130.55640597291125,109.50808771575934,0.0,-1.0,-2.0,4,2,1,0,0,0,0,0.00,0.00,0.20,
7.816,130.72164059729113,110.10380877157594,0.0,0.0,-10.0,4,2,1,0,0,0,0,0.00,0.00,0.39,
7.83,130.6931640597291,110.5953808771576,-1.0,0.0,0.0,4,2,1,0,0,0,0,0.00,0.00,0.49,
7.843,130.9153164059729,111.00453808771574,2.0,0.0,7.0,4,2,1,0,0,0,0,0.00,0.00,0.49,
7.857,131.1265316405973,111.39645380877158,6.0,0.0,1.0,4,2,1,0,0,0,0,0.00,0.00,0.49,
7.87,132.43465316405974,112.35364538087715,6.0,2.0,-11.0,4,2,1,0,0,0,0,0.00,0.00,0.59,
7.883,133.17746531640597,113.1333645380877,3.0,11.0,-30.0,5,2,1,0,0,0,0,0.00,0.00,0.78,
7.898,133.4317465316406,112.99533645380878,4.0,-1.0,-22.0,5,2,2,0,0,0,0,0.00,0.00,0.88,
7.911,133.07917465316405,113.09853364538088,-2.0,0.0,-6.0,5,2,2,0,0,0,0,0.00,0.00,1.28,
7.924,132.8459174653164,113.11785336453809,-2.0,0.0,-2.0,5,2,2,0,0,0,0,0.00,0.00,1.47,
7.939,132.71459174653162,113.13778533645382,-2.0,-1.0,-6.0,5,2,2,0,0,0,0,0.00,0.00,1.47,
7.952,132.62045917465318,113.31977853364538,0.0,-3.0,-2.0,5,2,2,0,0,0,0,0.00,0.00,1.57,
7.965,132.6650459174653,113.64397785336455,3.0,-4.0,-5.0,5,2,2,0,0,0,0,0.00,0.00,1.86,
7.98,132.04850459174654,114.00939778533645,11.0,8.0,-17.0,5,2,2,0,0,0,0,0.00,0.00,2.16,
7.993,130.77185045917463,113.73093977853364,-1.0,-4.0,-22.0,5,2,2,0,0,0,0,0.00,0.00,2.75,
8.007,131.16618504591747,113.13609397785335,-8.0,20.0,13.0,5,2,2,0,0,0,0,0.00,0.00,3.34,
8.022,131.49361850459175,112.35660939778532,-1.0,-1.0,-11.0,5,2,2,0,0,0,0,0.00,0.00,3.43,
8.035,131.62536185045917,110.87466093977852,-2.0,-2.0,-22.0,5,2,2,0,0,0,0,0.00,0.00,3.04,
8.049,131.6655361850459,111.30246609397786,0.0,0.0,2.0,5,2,2,0,0,0,0,0.00,0.00,2.65,
8.062,131.4535536185046,111.67824660939779,-4.0,1.0,5.0,4,2,2,0,0,0,0,0.00,0.00,2.26,
8.077,131.42335536185044,112.18382466093976,-2.0,-5.0,-5.0,4,2,2,0,0,0,0,0.00,0.00,1.67,
8.09,131.29433553618503,112.57638246609397,-2.0,-3.0,-8.0,4,2,2,0,0,0,0,0.00,0.00,1.67,
8.104,131.1014335536185,112.91263824660939,-6.0,0.0,-3.0,4,2,2,0,0,0,0,0.00,0.00,1.67,
8.118,131.19014335536184,113.24326382466093,-3.0,0.0,-3.0,4,2,2,0,0,0,0,0.00,0.00,1.47,
8.132,131.4150143355362,114.1043263824661,-9.0,8.0,-4.0,4,2,1,0,0,0,0,0.00,0.00,0.98,
8.145,132.16650143355363,116.7284326382466,3.0,9.0,22.0,4,2,1,0,0,0,0,0.00,0.00,0.49,
8.159,132.16965014335534,117.69284326382466,4.0,44.0,9.0,4,2,1,0,0,0,0,0.00,0.00,0.00,
8.173,133.45696501433554,115.50328432638247,22.0,6.0,-10.0,4,2,1,0,0,0,0,0.00,0.00,0.00,
8.186,133.30669650143355,114.42032843263824,-2.0,0.0,-1.0,4,2,1,0,0,0,0,0.00,0.00,0.00,
8.201,133.23766965014335,114.45603284326381,0.0,0.0,-7.0,4,2,1,0,0,0,0,0.00,0.00,0.00,
8.214,132.94276696501433,114.77460328432639,2.0,-2.0,-3.0,4,2,1,0,0,0,0,0.00,0.00,0.00,
8.227,132.76027669650145,114.90546032843264,-2.0,1.0,2.0,4,2,1,0,0,0,0,0.00,0.00,0.00,
8.242,132.79602766965016,114.89154603284325,-2.0,0.0,3.0,4,2,1,0,0,0,0,0.00,0.00,0.00,
8.255,132.772602766965,114.94415460328432,0.0,-2.0,-9.0,4,2,1,0,0,0,0,0.00,0.00,0.00,
8.269,132.59926027669653,115.06641546032843,1.0,0.0,-5.0,4,2,1,0,0,0,0,0.00,0.00,0.00,
8.283,132.50092602766966,114.69164154603284,1.0,-3.0,-8.0,4,2,2,0,0,0,0,0.00,0.00,0.00,
8.297,132.45509260276697,114.84316415460327,4.0,0.0,0.0,4,2,2,0,0,0,0,0.00,0.00,0.00,
8.31,133.3145092602767,115.34431641546034,4.0,32.0,-1.0,5,2,2,0,0,0,0,0.00,0.00,0.00,
8.324,132.97745092602767,113.96343164154604,6.0,-3.0,-10.0,5,2,2,0,0,0,0,0.00,0.00,0.49,
8.338,133.19574509260275,114.63534316415459,5.0,1.0,10.0,5,2,2,0,0,0,0,0.00,0.00,1.08,
8.351,133.20857450926027,114.93653431641546,0.0,-1.0,3.0,5,3,2,0,0,0,0,0.00,0.00,1.47,
8.366,132.99385745092601,115.36265343164155,1.0,0.0,21.0,5,3,2,0,0,0,0,0.00,0.00,2.45,
8.379,133.7373857450926,116.81826534316416,2.0,4.0,16.0,5,3,2,0,0,0,0,0.00,0.00,3.04,
8.393,133.92873857450925,117.03582653431641,3.0,4.0,31.0,5,3,2,0,0,0,0,0.00,0.00,3.83,
8.407,134.05587385745093,116.96758265343163,2.0,2.0,19.0,5,3,2,1,0,1,0,0.00,0.00,4.51,
8.421,134.5005873857451,118.44575826534316,4.0,11.0,16.0,5,3,3,1,0,1,0,0.00,0.00,5.89,
8.434,134.02305873857452,119.14257582653431,0.0,2.0,41.0,5,3,3,1,0,1,0,0.00,0.00,6.38,
8.448,134.11030587385747,118.54625758265344,-1.0,3.0,49.0,5,3,3,1,0,1,0,0.00,0.00,6.77,
8.462,134.27203058738573,117.68562575826535,-4.0,0.0,25.0,5,3,3,1,0,1,0,0.00,0.00,7.26,
8.475,134.37820305873856,117.02356257582655,-4.0,0.0,20.0,5,3,3,1,0,1,0,0.00,0.00,7.65,
8.489,134.55982030587387,116.89435625758264,1.0,-1.0,8.0,5,3,3,1,0,1,0,0.00,0.00,8.53,
8.503,134.4699820305874,116.65643562575826,0.0,-5.0,-8.0,5,3,3,1,0,1,0,0.00,0.00,9.22,
8.517,134.20899820305874,116.41664356257583,0.0,-2.0,-3.0,5,3,3,1,0,1,0,0.00,0.00,9.91,
8.531,134.11089982030586,116.30266435625758,-1.0,1.0,6.0,6,3,3,1,0,1,0,0.00,0.00,10.40,
8.545,134.1280899820306,115.92226643562576,-1.0,1.0,9.0,6,3,3,1,0,1,0,0.00,0.00,11.58,
8.559,134.32780899820304,115.51522664356257,-3.0,0.0,-1.0,6,3,3,1,0,1,0,0.00,0.00,12.07,
8.573,134.2937808998203,115.27652266435626,-2.0,-1.0,-8.0,6,3,3,1,0,1,0,0.00,0.00,12.36,
8.587,134.21837808998205,115.19865226643563,0.0,-1.0,0.0,6,3,3,1,0,1,0,0.00,0.00,12.75,
8.601,134.2738378089982,115.02886522664356,0.0,-1.0,0.0,6,3,3,1,0,1,0,0.00,0.00,12.85,
8.614,134.45938378089983,114.80488652266436,0.0,-2.0,-13.0,6,3,3,1,0,1,0,0.00,0.00,13.15,
8.629,134.31593837809,114.76448865226644,-2.0,-3.0,-19.0,6,3,3,1,0,1,0,0.00,0.00,13.34,
8.643,134.22059383780902,114.89544886522664,-2.0,0.0,-5.0,6,3,3,1,0,1,0,0.00,0.00,13.93,
8.657,134.0400593837809,114.89954488652268,-2.0,0.0,3.0,6,3,3,1,0,1,0,0.00,0.00,14.22,
8.671,134.1030059383781,114.73795448865226,-2.0,0.0,2.0,6,3,3,1,0,1,0,0.00,0.00,14.62,
8.685,134.17230059383783,114.65879544886522,-3.0,0.0,-2.0,6,3,3,1,0,1,0,0.00,0.00,15.11,
8.699,134.21523005938377,114.57887954488652,-4.0,-1.0,-4.0,6,3,3,1,0,1,0,0.00,0.00,16.58,
8.713,134.11152300593838,114.47188795448865,-4.0,-1.0,-6.0,6,4,3,1,0,1,0,0.00,0.00,17.46,
8.727,134.00215230059385,114.46118879544886,-3.0,-1.0,-3.0,6,4,3,1,0,2,0,0.00,0.00,18.25,
8.741,133.91021523005938,114.43311887954489,-2.0,-1.0,-1.0,6,4,3,1,0,2,0,0.00,0.00,18.84,
8.756,133.90102152300594,114.3943118879545,-2.0,-1.0,-2.0,6,4,3,1,0,2,0,0.00,0.00,19.82,
8.77,133.9811021523006,114.46243118879545,-2.0,-2.0,-5.0,6,4,3,1,0,2,0,0.00,0.00,20.31,
8.783,133.95311021523005,114.46924311887953,-2.0,-3.0,-6.0,6,4,4,1,0,2,0,0.00,0.00,20.80,
8.798,134.24731102152302,114.89292431188795,1.0,-4.0,-8.0,6,4,4,1,0,2,0,0.00,0.00,21.48,
8.812,134.18673110215232,114.66529243118879,0.0,-4.0,-8.0,6,4,4,1,0,2,0,0.00,0.00,21.78,
8.826,134.00067311021522,114.84952924311888,-2.0,-3.0,-2.0,6,4,4,1,0,2,0,0.00,0.00,22.17,
8.84,133.76606731102154,114.66995292431189,-3.0,-3.0,-4.0,6,4,4,2,0,2,0,0.00,0.00,22.66,
8.854,133.65260673110214,114.73299529243118,-3.0,-2.0,-3.0,6,4,4,2,0,2,0,0.00,0.00,23.35,
8.868,133.4522606731102,114.67629952924312,-3.0,-1.0,-2.0,6,4,4,2,0,2,0,0.00,0.00,23.64,
8.883,133.33322606731102,114.58962995292431,-3.0,0.0,-2.0,6,4,4,2,0,2,0,0.00,0.00,23.84,
8.896,133.3753226067311,114.71596299529243,-2.0,0.0,-1.0,6,5,4,2,0,2,0,0.00,0.00,24.03,
8.91,133.4515322606731,114.79159629952923,-2.0,0.0,-2.0,6,5,4,2,0,2,0,0.00,0.00,24.43,
8.925,133.4501532260673,114.86215962995293,-1.0,-1.0,-3.0,6,5,4,2,0,2,0,0.00,0.00,24.62,
8.938,133.36001532260673,114.83321596299528,-2.0,-1.0,-3.0,6,5,4,2,0,2,0,0.00,0.00,24.82,
8.952,133.41400153226067,114.93832159629952,-1.0,-2.0,-1.0,6,5,4,2,0,2,0,0.00,0.00,24.92,
8.967,133.47340015322607,115.13783215962995,-1.0,-5.0,2.0,6,5,4,2,0,2,0,0.00,0.00,24.92,
8.981,133.37134001532263,115.05878321596299,-1.0,-4.0,0.0,6,5,4,2,0,3,0,0.00,0.00,24.92,
8.994,133.21713400153226,114.9698783215963,-2.0,-1.0,-1.0,6,5,4,2,0,3,0,0.00,0.00,24.92,
9.009,133.2557134001532,114.99698783215963,-2.0,0.0,-1.0,6,5,4,2,0,3,0,0.00,0.00,24.72,
9.023,133.24157134001533,114.89169878321596,-2.0,0.0,-1.0,6,5,4,2,0,3,0,0.00,0.00,24.62,
9.037,133.22215713400152,114.91716987832159,-1.0,0.0,0.0,6,5,4,2,0,3,0,0.00,0.00,24.52,
9.051,133.24721571340015,114.97371698783215,0.0,0.0,0.0,6,5,4,2,0,3,0,0.00,0.00,24.43,
9.065,133.24972157134002,115.04237169878321,0.0,0.0,0.0,6,5,4,2,0,2,0,0.00,0.00,24.13,
9.078,133.213972157134,114.98623716987832,0.0,0.0,0.0,7,5,4,2,0,2,0,0.00,0.00,23.94,
9.093,133.1833972157134,114.97162371698784,-1.0,0.0,0.0,7,5,4,2,0,2,0,0.00,0.00,23.84,
9.106,133.21633972157133,114.75416237169878,-1.0,0.0,-3.0,7,5,4,2,0,2,0,0.00,0.00,23.94,
9.12,133.16563397215714,114.80441623716989,-2.0,0.0,-1.0,7,5,4,2,0,2,0,0.00,0.00,24.13,
9.135,133.2685633972157,114.81844162371698,-2.0,0.0,0.0,7,5,4,2,0,3,0,0.00,0.00,24.33,
9.567,133.38685633972156,115.53084416237171,-1.0,0.0,-1.0,7,4,4,1,0,1,0,0.00,0.00,22.46,
9.581,133.34468563397215,115.45808441623717,-2.0,-1.0,-2.0,7,4,4,1,0,1,0,0.00,0.00,22.37,
9.595,133.39446856339723,115.49580844162372,-2.0,0.0,-3.0,7,4,4,1,0,1,0,0.00,0.00,22.46,
9.609,133.35444685633973,115.49958084416237,-2.0,0.0,0.0,7,4,4,1,0,1,0,0.00,0.00,22.27,
9.623,133.30544468563397,115.45495808441623,-2.0,0.0,0.0,7,4,4,1,0,1,0,0.00,0.00,22.27,
9.636,133.32754446856342,115.45949580844162,-2.0,0.0,0.0,7,4,4,1,0,1,0,0.00,0.00,22.17,
9.651,133.33875444685634,115.46894958084417,-2.0,0.0,-1.0,7,4,4,1,0,1,0,0.00,0.00,22.17,
9.665,133.27687544468563,115.47889495808441,-2.0,0.0,0.0,7,4,4,1,0,1,0,0.00,0.00,21.97,
9.678,133.29768754446857,115.55188949580844,-2.0,0.0,0.0,7,4,4,1,0,1,0,0.00,0.00,21.97,
9.693,133.35376875444686,115.59518894958083,-1.0,0.0,0.0,7,4,4,1,0,1,0,0.00,0.00,21.88,
9.706,133.3953768754447,115.66251889495808,-1.0,0.0,0.0,7,4,4,1,0,1,0,0.00,0.00,21.58,
9.72,133.41753768754447,115.7142518894958,-1.0,0.0,0.0,7,4,4,1,0,1,0,0.00,0.00,21.19,
9.735,133.43775376875445,115.70142518894959,-1.0,0.0,-1.0,7,4,4,1,0,1,0,0.00,0.00,21.09,
9.748,133.44877537687543,115.68214251889496,-2.0,0.0,-2.0,7,4,4,1,0,1,0,0.00,0.00,20.99,
9.762,133.44987753768754,115.7432142518895,-2.0,0.0,-1.0,7,4,4,1,0,1,0,0.00,0.00,20.90,
9.777,133.49498775376875,115.70432142518895,-2.0,0.0,-2.0,7,4,4,1,0,1,0,0.00,0.00,21.09,
9.79,133.42749877537688,115.6824321425189,-2.0,0.0,-1.0,7,4,4,1,0,1,0,0.00,0.00,20.99,
9.804,133.44774987753766,115.7522432142519,-2.0,0.0,-1.0,7,4,4,1,0,1,0,0.00,0.00,20.80,
9.819,133.41377498775375,115.80422432142518,-2.0,0.0,0.0,7,4,4,1,0,1,0,0.00,0.00,20.70,
9.832,133.50037749877538,115.82742243214251,-2.0,0.0,-1.0,7,4,4,1,0,1,0,0.00,0.00,20.31,
9.846,133.52703774987754,115.83874224321426,-2.0,0.0,-2.0,7,4,4,1,0,1,0,0.00,0.00,20.21,
9.861,133.52970377498775,115.82187422432142,-2.0,0.0,0.0,7,4,4,1,0,1,0,0.00,0.00,20.21,
9.874,133.53897037749877,115.75718742243214,-2.0,0.0,-3.0,7,4,4,1,0,1,0,0.00,0.00,20.01,
9.888,133.44989703774988,115.79571874224321,-2.0,0.0,-2.0,7,4,4,1,0,1,0,0.00,0.00,19.91,
9.902,133.404989703775,115.80857187422431,-2.0,0.0,0.0,7,4,4,1,0,1,0,0.00,0.00,19.72,
9.916,133.4364989703775,115.81885718742242,-2.0,0.0,-4.0,7,4,4,1,0,1,0,0.00,0.00,19.62,
9.93,133.37664989703774,115.87388571874224,-2.0,0.0,0.0,7,4,4,1,0,1,0,0.00,0.00,19.62,
9.944,133.4606649897038,115.89738857187422,-2.0,0.0,-1.0,7,4,4,1,0,1,0,0.00,0.00,19.33,
9.958,133.45106649897036,115.83673885718741,-2.0,0.0,-1.0,7,4,4,1,0,1,0,0.00,0.00,19.13,
9.972,133.44110664989705,115.83967388571874,-2.0,-1.0,-2.0,7,4,4,1,0,1,0,0.00,0.00,18.93,
9.986,133.3861106649897,115.88496738857188,-2.0,0.0,0.0,7,4,4,1,0,1,0,0.00,0.00,18.64,
10.0,133.45261106649897,115.86249673885719,-2.0,0.0,0.0,7,4,4,1,0,1,0,0.00,0.00,18.54,
10.014,133.3962611066499,115.85124967388572,-2.0,0.0,-1.0,7,4,4,1,0,1,0,0.00,0.00,18.44,
10.028,133.381626110665,115.82312496738857,-1.0,0.0,0.0,7,4,4,1,0,1,0,0.00,0.00,18.25,
10.042,133.4251626110665,115.80231249673885,-2.0,0.0,-2.0,7,4,4,1,0,1,0,0.00,0.00,18.34,
10.056,133.46551626110664,115.7912312496739,-2.0,0.0,-1.0,7,4,4,1,0,1,0,0.00,0.00,18.34,
10.071,133.46055162611066,115.79912312496738,-2.0,0.0,-3.0,7,4,4,1,0,1,0,0.00,0.00,18.34,
10.084,133.44205516261107,115.73691231249674,-2.0,0.0,1.0,7,4,4,1,0,1,0,0.00,0.00,18.34,
10.098,133.5032055162611,115.73969123124967,-2.0,0.0,-1.0,7,4,4,1,0,1,0,0.00,0.00,18.54,
10.113,133.4373205516261,115.80296912312497,-1.0,0.0,0.0,7,4,4,1,0,1,0,0.00,0.00,18.64,
10.127,133.41273205516262,115.82729691231249,-1.0,0.0,1.0,7,4,4,1,0,1,0,0.00,0.00,18.54,
10.14,133.41027320551626,115.82072969123125,-1.0,0.0,0.0,7,4,4,1,0,1,0,0.00,0.00,18.64,
10.155,133.43702732055164,115.83807296912312,-1.0,0.0,0.0,7,4,4,1,0,1,0,0.00,0.00,18.64,
10.169,133.41270273205515,115.84880729691231,-1.0,0.0,0.0,7,4,4,1,0,1,0,0.00,0.00,18.54,
10.182,133.4462702732055,115.92188072969122,-1.0,0.0,0.0,7,4,4,1,0,1,0,0.00,0.00,18.44,
10.196,133.45862702732055,115.97418807296913,-1.0,0.0,0.0,7,4,4,1,0,1,0,0.00,0.00,18.44,
10.211,133.48686270273205,115.95241880729691,-1.0,0.0,0.0,7,4,4,1,0,1,0,0.00,0.00,18.44,
10.224,133.5256862702732,116.0042418807297,-1.0,0.0,0.0,7,4,4,1,0,1,0,0.00,0.00,18.44,
10.238,133.56556862702732,116.00042418807297,-1.0,0.0,0.0,7,4,4,1,0,1,0,0.00,0.00,18.34,
10.253,133.5155568627027,115.9550424188073,-1.0,0.0,0.0,7,4,4,1,0,1,0,0.00,0.00,18.34,
10.266,133.48355568627025,115.97750424188074,-1.0,0.0,0.0,7,4,4,1,0,1,0,0.00,0.00,18.25,
10.28,133.480355568627,115.96175042418807,-1.0,0.0,0.0,7,4,4,1,0,1,0,0.00,0.00,18.15,
10.295,133.43503555686272,115.93317504241881,-2.0,0.0,-1.0,7,4,4,1,0,1,0,0.00,0.00,17.95,
10.308,133.36750355568628,115.93931750424188,-2.0,0.0,-2.0,7,4,4,1,0,1,0,0.00,0.00,17.85,
10.322,133.42375035556864,115.9759317504242,-2.0,0.0,-1.0,7,4,4,1,0,1,0,0.00,0.00,17.85,
10.337,133.37537503555686,115.94359317504242,-1.0,0.0,0.0,7,4,4,1,0,1,0,0.00,0.00,17.76,
10.351,133.42453750355568,115.99435931750425,-1.0,0.0,1.0,7,4,4,1,0,1,0,0.00,0.00,17.56,
10.364,133.54645375035557,116.08943593175042,-2.0,0.0,-1.0,7,4,4,1,0,1,0,0.00,0.00,17.36,
10.379,133.48664537503555,116.11694359317505,-1.0,0.0,0.0,7,4,4,1,0,1,0,0.00,0.00,17.27,
10.393,133.51666453750357,116.0926943593175,-2.0,0.0,0.0,7,4,4,1,0,1,0,0.00,0.00,17.27,
10.406,133.49266645375036,116.04526943593176,-1.0,0.0,-1.0,7,4,4,1,0,1,0,0.00,0.00,17.36,
10.421,133.53526664537503,116.05852694359318,-2.0,0.0,0.0,7,4,4,1,0,1,0,0.00,0.00,17.17,
10.435,133.5575266645375,116.04185269435932,-2.0,0.0,-2.0,7,4,4,1,0,1,0,0.00,0.00,17.07,
10.448,133.51475266645375,116.07618526943592,-2.0,0.0,-1.0,7,4,4,1,0,1,0,0.00,0.00,17.07,
10.463,133.56447526664536,116.11561852694359,-1.0,0.0,-4.0,7,4,4,1,0,1,0,966.68,0.00,16.87,
10.477,133.30844752666454,115.92156185269435,0.0,1.0,-16.0,7,4,4,1,0,1,0,0.00,0.00,16.48,
10.491,133.68784475266645,115.96515618526944,0.0,-1.0,-3.0,7,4,4,1,0,1,0,0.00,0.00,16.28,
10.505,133.60878447526665,115.98751561852693,0.0,0.0,2.0,7,4,4,1,0,1,0,0.00,0.00,15.89,
10.519,133.67287844752667,115.8817515618527,0.0,0.0,-3.0,7,4,4,1,0,1,0,0.00,0.00,15.01,
10.532,133.67928784475268,115.95217515618526,-1.0,0.0,-2.0,7,4,4,1,0,1,0,0.00,0.00,14.42,
10.547,133.78792878447527,115.90521751561853,-1.0,0.0,-10.0,7,4,4,1,0,1,0,0.00,0.00,14.03,
10.561,133.61879287844752,116.07152175156186,-2.0,0.0,-8.0,7,4,4,1,0,1,0,0.00,0.00,13.83,
10.574,133.58387928784475,116.0881521751562,-1.0,0.0,0.0,7,4,4,1,0,1,0,0.00,0.00,13.44,
10.589,133.57138792878447,116.14381521751562,-1.0,0.0,-1.0,7,4,4,1,0,1,0,0.00,0.00,13.15,
10.603,133.61513879287844,116.20338152175155,-1.0,-1.0,-2.0,6,4,4,1,0,1,0,0.00,0.00,12.95,
10.616,133.57451387928785,116.22733815217515,-1.0,0.0,-1.0,6,4,4,1,0,1,0,0.00,0.00,12.85,
10.631,133.5614513879288,116.28373381521752,-1.0,0.0,-1.0,6,4,4,1,0,1,0,0.00,0.00,12.46,
10.645,133.4791451387929,116.35237338152176,-1.0,0.0,-1.0,6,4,4,1,0,1,0,0.00,0.00,12.36,
10.659,133.47991451387927,116.36823733815217,-2.0,0.0,-1.0,7,4,4,1,0,1,0,0.00,0.00,12.46,
10.673,133.54299145138793,116.36082373381522,-4.0,0.0,-2.0,7,4,4,1,0,1,0,0.00,0.00,12.56,
10.687,133.51329914513877,116.35108237338153,-4.0,0.0,-3.0,7,4,4,1,0,1,0,0.00,0.00,13.34,
10.701,133.47432991451387,116.37710823733815,-4.0,0.0,-3.0,7,4,4,1,0,1,0,0.00,0.00,13.83,
10.716,133.4164329914514,116.43371082373382,-3.0,0.0,-1.0,7,4,4,1,0,1,0,0.00,0.00,14.32,
10.729,133.43764329914515,116.47537108237339,-3.0,0.0,-1.0,7,4,4,1,0,1,0,0.00,0.00,14.72,
10.743,133.37676432991452,116.47053710823734,-2.0,0.0,-1.0,7,4,4,1,0,1,0,0.00,0.00,15.50,
10.758,133.37067643299144,116.47005371082373,-3.0,0.0,-1.0,7,4,4,1,0,1,0,0.00,0.00,15.89,
10.772,133.38806764329914,116.43400537108238,-3.0,0.0,-2.0,7,4,4,1,0,1,0,0.00,0.00,16.19,
10.785,133.4258067643299,116.44840053710824,-3.0,0.0,-1.0,7,4,4,1,0,1,0,0.00,0.00,17.07,
10.8,133.44758067643298,116.32384005371082,-5.0,0.0,-3.0,7,4,4,1,0,1,0,0.00,0.00,17.66,
10.814,133.38675806764329,116.27538400537108,-5.0,0.0,-6.0,7,4,4,1,0,2,0,0.00,0.00,18.44,
10.828,133.0746758067643,116.2165384005371,3.0,-3.0,-5.0,7,4,4,1,0,2,0,0.00,0.00,19.42,
10.843,133.14246758067642,116.1116538400537,2.0,-2.0,0.0,7,4,4,1,0,2,0,0.00,0.00,20.99,
10.856,133.14924675806765,116.20016538400537,0.0,0.0,0.0,7,4,4,1,0,2,0,0.00,0.00,21.68,
10.87,133.17692467580676,116.27201653840054,-1.0,0.0,-1.0,7,4,4,1,0,2,0,0.00,0.00,22.27,
10.885,133.16169246758068,116.38720165384005,-1.0,0.0,0.0,7,4,4,1,0,2,0,0.00,0.00,22.56,
10.898,133.16916924675806,116.380720165384,-1.0,0.0,0.0,7,4,4,1,0,2,0,0.00,0.00,22.96,
10.912,133.1879169246758,116.3170720165384,-1.0,0.0,-4.0,7,4,4,1,0,2,0,0.00,0.00,23.05,
10.927,133.16279169246758,116.31070720165384,-3.0,0.0,-5.0,7,4,4,1,0,2,0,0.00,0.00,23.15,
10.94,133.21427916924677,116.33707072016539,-4.0,0.0,-2.0,7,4,4,1,0,2,0,0.00,0.00,23.25,
10.954,133.06642791692468,116.58270707201653,0.0,0.0,-3.0,7,4,4,1,0,2,0,0.00,0.00,23.94,
10.969,133.03364279169247,116.65227070720165,-2.0,0.0,0.0,7,4,4,1,0,2,0,0.00,0.00,24.33,
10.983,133.05736427916924,116.70422707072017,0.0,0.0,-1.0,7,4,4,1,0,2,0,0.00,0.00,24.52,
10.996,133.07773642791693,116.78142270707201,-1.0,0.0,0.0,7,4,4,1,0,2,0,0.00,0.00,25.02,
11.011,133.15177364279168,116.8341422707072,-1.0,0.0,0.0,7,4,4,1,0,2,0,0.00,0.00,24.92,
11.025,133.25817736427916,116.8214142270707,-2.0,0.0,0.0,7,4,4,1,0,2,0,0.00,0.00,24.82,
11.038,133.29581773642792,116.64914142270706,-2.0,0.0,-3.0,7,4,4,1,0,2,0,0.00,0.00,24.92,
11.053,133.17358177364278,116.7399141422707,0.0,-1.0,-2.0,7,4,4,1,0,2,0,0.00,0.00,25.80,
11.067,133.25135817736427,116.64999141422706,0.0,-1.0,0.0,7,4,4,2,0,2,0,0.00,0.00,26.29,
11.08,133.2501358177364,116.62299914142271,0.0,0.0,-1.0,7,4,4,2,0,2,0,0.00,0.00,26.78,
11.095,133.26801358177366,116.20629991414226,3.0,-2.0,-1.0,7,4,4,2,0,2,0,0.00,0.00,27.47,
11.109,133.32380135817738,116.49762999141423,-1.0,0.0,-1.0,7,4,4,2,0,2,0,0.00,0.00,28.45,
11.123,133.32938013581776,116.49976299914142,-1.0,0.0,0.0,7,4,4,2,0,2,0,0.00,0.00,28.94,
11.137,133.35693801358178,116.58097629991416,1.0,-1.0,0.0,7,4,4,2,0,2,0,0.00,0.00,29.43,
11.151,133.29669380135817,116.88609762999143,0.0,-2.0,0.0,7,4,4,2,0,2,0,0.00,0.00,30.12,
11.165,133.16466938013582,117.04260976299913,0.0,-1.0,-2.0,7,4,4,2,0,2,0,0.00,0.00,31.10,
11.179,133.10646693801357,117.13926097629991,-1.0,0.0,-1.0,7,4,4,2,0,2,0,0.00,0.00,31.59,
11.193,133.05564669380138,117.14892609763,-1.0,0.0,-1.0,7,4,4,2,0,2,0,0.00,0.00,31.78,
11.207,133.05056466938015,117.176892609763,-1.0,0.0,0.0,7,4,4,2,0,2,0,0.00,0.00,31.78,
11.222,133.095056466938,117.1796892609763,-1.0,0.0,0.0,7,4,4,2,0,2,0,0.00,0.00,31.59,
11.235,133.1445056466938,117.26096892609762,-2.0,0.0,-2.0,7,4,4,2,0,2,0,0.00,0.00,31.39,
11.249,133.12245056466938,117.17909689260976,-3.0,0.0,-2.0,7,4,4,2,0,2,0,0.00,0.00,31.20,
11.264,133.16524505646692,117.27890968926098,-2.0,0.0,-2.0,7,4,4,2,0,2,0,0.00,0.00,30.80,
11.278,133.1515245056467,117.34289096892608,-2.0,0.0,0.0,7,4,4,2,0,2,0,0.00,0.00,30.41,
11.291,133.14115245056468,117.2772890968926,-1.0,0.0,0.0,7,4,4,2,0,2,0,0.00,0.00,29.82,
11.305,133.13111524505646,117.21672890968925,-1.0,0.0,-1.0,7,4,4,2,0,2,0,0.00,0.00,29.14,
11.32,133.16611152450565,117.23767289096891,-1.0,0.0,0.0,7,4,4,1,0,1,0,0.00,0.00,27.47,
11.334,133.16961115245056,117.24876728909689,-1.0,0.0,0.0,7,4,4,1,0,1,0,0.00,0.00,26.49,
11.347,133.15196111524506,117.21387672890968,0.0,0.0,0.0,7,4,4,1,0,1,0,0.00,0.00,25.41,
11.362,133.06019611152453,117.25538767289098,1.0,0.0,2.0,7,4,4,1,0,1,0,0.00,0.00,24.23,
11.375,133.07801961115246,117.39453876728909,4.0,0.0,7.0,7,4,4,1,0,1,0,0.00,0.00,21.29,
11.389,133.70080196111525,116.51745387672891,1.0,8.0,5.0,7,4,4,1,0,1,0,0.00,0.00,19.33,
11.403,133.56508019611152,116.8347453876729,6.0,8.0,-9.0,6,4,4,1,0,1,0,0.00,0.00,17.07,
11.417,133.93850801961113,116.85747453876729,6.0,0.0,-9.0,6,4,3,1,0,1,0,0.00,0.00,14.91,
11.43,133.86785080196114,117.19274745387673,2.0,0.0,-9.0,6,4,3,1,0,1,0,0.00,0.00,10.99,
11.445,134.03178508019613,117.40627474538768,0.0,0.0,-10.0,6,4,3,1,0,1,0,0.00,0.00,9.52,
11.458,134.0391785080196,117.61662747453877,0.0,-1.0,-11.0,6,4,3,1,0,0,0,0.00,0.00,8.53,
11.472,133.92291785080195,117.80866274745387,-1.0,-1.0,-10.0,6,4,3,1,0,0,0,0.00,0.00,8.04,
11.487,133.75829178508022,117.95386627474538,-1.0,0.0,-1.0,6,4,3,1,0,1,0,0.00,0.00,7.26,
11.5,133.72382917850803,117.98638662747453,-3.0,1.0,0.0,6,4,3,1,0,1,0,0.00,0.00,7.26,
11.514,133.7383829178508,117.97163866274745,-4.0,1.0,-5.0,6,4,3,1,0,1,0,0.00,0.00,7.26,
11.528,133.73083829178506,117.97016386627475,-5.0,1.0,-6.0,6,4,3,1,0,1,0,0.00,0.00,7.36,
11.542,133.63108382917852,118.00601638662748,-3.0,1.0,-4.0,6,4,4,1,0,1,0,0.00,0.00,7.75,
11.556,133.70210838291786,117.99160163866274,-6.0,2.0,-5.0,6,4,4,1,0,1,0,0.00,0.00,8.24,
11.57,133.75421083829178,117.90916016386629,-8.0,1.0,-14.0,6,4,4,1,0,1,0,0.00,0.00,9.03,
11.584,133.59742108382918,117.95491601638663,-5.0,1.0,-13.0,7,4,4,1,0,1,0,0.00,0.00,9.91,
11.598,133.6267421083829,118.04049160163866,1.0,-3.0,0.0,7,5,4,1,0,1,0,0.00,0.00,12.36,
11.612,133.11667421083828,118.29204916016386,-3.0,0.0,-6.0,7,5,4,1,0,1,0,0.00,0.00,13.93,
11.626,133.02066742108383,118.64120491601639,3.0,-5.0,-9.0,7,5,4,1,0,1,0,0.00,0.00,15.79,
11.64,132.9930667421084,117.84812049160165,5.0,-3.0,-8.0,7,5,4,1,0,2,0,0.00,0.00,20.31,
11.655,132.99030667421084,117.68781204916017,-2.0,1.0,-1.0,7,5,4,2,0,2,0,0.00,0.00,22.56,
11.669,133.08003066742108,117.806781204916,0.0,1.0,0.0,7,5,4,2,0,2,0,0.00,0.00,24.92,
11.682,133.3230030667421,117.9896781204916,0.0,-1.0,-7.0,7,5,4,2,0,2,0,0.00,0.00,27.57,
11.697,132.96930030667423,115.81196781204915,22.0,-10.0,1.0,7,5,4,2,0,2,0,0.00,0.00,33.84,
11.711,131.78193003066744,114.70319678120491,5.0,4.0,-4.0,7,5,4,2,0,2,0,0.00,0.00,37.38,
11.725,131.91519300306675,115.31231967812049,1.0,0.0,1.0,7,5,5,2,0,2,0,0.00,0.00,40.61,
11.739,132.18051930030668,116.41723196781206,0.0,-1.0,-3.0,7,5,5,2,0,3,0,0.00,0.00,43.36,
11.753,132.44105193003065,117.0407231967812,0.0,0.0,-1.0,7,6,5,2,0,3,0,0.00,0.00,47.87,
11.767,132.60210519300307,117.45407231967812,-1.0,0.0,-1.0,7,6,5,2,0,138.33,126.59,38,8,-14,
12.093,137.75721051930032,125.67640723196781,38.0,8.0,-14.0,7,5,4,2,0,3,0,0.00,0.00,116.05,
12.107,138.45272105193004,126.84964072319679,36.0,10.0,-19.0,7,5,4,2,0,3,0,0.00,0.00,114.58,
12.122,138.693272105193,127.83096407231967,25.0,5.0,-17.0,7,5,4,2,0,3,0,0.00,0.00,113.80,
12.136,138.24932721051928,127.87509640723196,-3.0,0.0,-15.0,7,5,4,2,0,3,0,0.00,0.00,112.91,
12.15,138.46593272105193,128.39250964072318,-2.0,0.0,-14.0,7,5,4,2,0,3,0,0.00,0.00,111.74,
12.165,138.5055932721052,128.8942509640723,-3.0,-1.0,-17.0,7,5,4,2,0,3,0,0.00,0.00,108.11,
12.179,138.4285593272105,129.34042509640722,-2.0,0.0,-12.0,7,5,4,2,0,3,0,0.00,0.00,106.34,
12.193,138.48385593272104,129.71804250964072,-3.0,0.0,-16.0,7,5,4,2,0,3,0,0.00,0.00,104.87,
12.208,138.3273855932721,130.09780425096406,-1.0,0.0,-13.0,7,5,5,2,0,3,0,0.00,0.00,100.94,
12.222,138.3297385593272,130.6217804250964,0.0,1.0,-6.0,8,5,5,2,0,3,0,0.00,0.00,98.69,
12.235,138.21297385593272,130.73717804250964,0.0,3.0,-9.0,8,5,5,2,0,3,0,0.00,0.00,95.94,
12.25,138.20129738559325,131.06371780425096,0.0,0.0,-7.0,8,6,5,2,0,3,0,0.00,0.00,92.80,
12.264,137.96612973855932,131.1143717804251,0.0,0.0,0.0,8,6,5,2,0,3,0,0.00,0.00,87.31,
12.277,138.05061297385595,131.3174371780425,-2.0,-1.0,-1.0,8,6,5,2,0,3,0,0.00,0.00,84.95,
12.292,138.07706129738563,131.40974371780425,-5.0,0.0,-2.0,8,6,5,2,0,3,0,0.00,0.00,83.38,
12.306,138.23270612973855,131.43697437178042,-6.0,-1.0,-6.0,8,6,5,2,0,4,0,0.00,0.00,82.99,
12.32,138.30227061297384,131.57469743717806,-5.0,-3.0,-9.0,8,6,5,2,0,4,0,0.00,0.00,84.95,
12.335,138.25522706129738,131.77746974371783,-5.0,-2.0,-10.0,8,6,5,3,0,4,0,0.00,0.00,85.84,
12.349,138.30452270612975,132.12174697437177,-3.0,-2.0,-2.0,8,6,5,3,0,4,0,0.00,0.00,86.43,
12.362,138.29145227061298,132.26417469743717,-1.0,-4.0,1.0,8,6,5,3,0,5,1,0.00,0.00,85.35,
12.377,138.2991452270613,132.3414174697437,-2.0,-2.0,0.0,8,6,5,3,0,5,1,0.00,0.00,83.58,
12.391,138.15591452270613,131.95314174697435,-4.0,0.0,0.0,8,6,5,3,0,5,1,0.00,0.00,82.31,
12.405,138.3035914522706,132.10331417469743,-4.0,0.0,0.0,8,7,5,3,0,5,1,0.00,0.00,81.62,
12.419,138.32735914522706,132.11833141746973,-5.0,-5.0,-13.0,8,7,5,3,0,6,1,0.00,0.00,81.52,
12.433,138.85173591452272,133.34383314174696,3.0,-18.0,12.0,8,7,5,3,0,6,1,0.00,0.00,81.62,
12.447,138.74217359145226,133.7543833141747,1.0,-14.0,1.0,8,7,5,3,0,6,2,0.00,0.00,81.72,
12.462,137.45321735914524,132.81443833141748,-1.0,1.0,8.0,8,7,5,3,0,7,2,0.00,0.00,82.60,
12.476,136.52332173591452,132.09944383314175,-2.0,-1.0,-3.0,8,7,5,3,0,7,2,0.00,0.00,82.80,
12.49,136.04333217359147,131.8839443833142,-3.0,-5.0,2.0,8,7,5,3,0,8,2,0.00,0.00,82.31,
12.505,137.09333321735915,133.37439443833142,-1.0,-11.0,2.0,8,7,5,3,0,8,2,0.00,0.00,81.42,
12.519,137.39633332173594,133.39743944383315,-2.0,-7.0,8.0,8,7,5,3,0,8,2,0.00,0.00,79.85,
12.533,137.2826333321736,133.08474394438332,-3.0,-12.0,-3.0,7,7,5,3,0,8,2,0.00,0.00,79.66,
12.548,137.25326333321738,133.03547439443832,-3.0,-9.0,1.0,7,7,5,3,0,8,2,0.00,0.00,79.36,
12.562,137.08832633332173,132.97654743944383,-3.0,-10.0,12.0,7,7,5,3,0,8,3,0.00,0.00,78.97,
12.576,136.95483263333216,132.7816547439444,-5.0,-10.0,7.0,7,7,5,3,0,9,3,0.00,0.00,78.97,
12.591,136.9684832633332,131.92516547439445,-35.0,-7.0,-1.0,6,7,4,3,0,9,3,0.00,0.00,78.77,
12.605,137.03284832633332,131.12851654743943,-35.0,-15.0,-18.0,6,7,4,3,0,9,3,0.00,0.00,78.28,
12.619,136.42728483263335,131.19285165474395,-10.0,-11.0,-18.0,5,7,4,3,0,9,3,0.00,0.00,76.91,
12.634,135.79972848326332,131.2442851654744,-14.0,-13.0,-1.0,5,7,4,3,0,10,3,0.00,0.00,75.73,
12.649,135.66497284832633,131.53742851654744,-14.0,-7.0,4.0,4,7,4,3,0,10,3,0.00,0.00,74.16,
12.663,136.11949728483262,131.26974285165477,-15.0,-13.0,10.0,4,7,3,3,0,10,3,0.00,0.00,69.75,
12.678,135.71494972848325,130.5139742851655,-22.0,-7.0,10.0,3,6,3,3,1,10,3,0.00,0.00,67.69,
12.692,138.67149497284834,132.98539742851654,-30.0,25.0,-18.0,2,6,2,3,1,10,3,0.00,0.00,65.63,
12.706,139.04814949728484,119.38153974285166,-53.0,24.0,14.0,1,5,2,3,1,10,3,0.00,0.00,61.70,
12.721,136.1068149497285,107.88715397428516,-68.0,59.0,-65.0,0,5,1,3,1,10,3,0.00,0.00,59.55,
12.735,134.35468149497285,108.06071539742852,-250.0,82.0,250.0,0,4,0,3,1,10,3,0.00,0.00,57.29,
12.75,134.17946814949727,97.55707153974285,-60.0,94.0,-107.0,0,4,0,4,1,10,3,0.00,0.00,55.23,
12.765,137.7079468149497,100.56570715397429,-1.0,133.0,-23.0,0,4,0,4,1,11,4,0.00,0.00,51.21,
12.779,139.815794681495,92.23557071539743,33.0,133.0,18.0,0,4,0,4,1,11,4,0.00,0.00,48.56,
12.793,140.23357946814951,79.73855707153974,-250.0,-34.0,30.0,0,4,0,4,1,11,4,0.00,0.00,45.13,
12.808,142.14735794681496,74.10585570715398,-250.0,-2.0,88.0,0,4,0,4,1,11,4,0.00,0.00,34.73,
12.822,145.27273579468152,64.0205855707154,-119.0,11.0,-54.0,0,4,0,4,2,11,4,0.00,0.00,29.72,
12.836,141.82327357946815,57.61205855707154,-112.0,17.0,39.0,0,4,0,4,2,11,4,0.00,0.00,25.90,
12.851,139.08432735794682,58.18620585570716,164.0,125.0,-70.0,0,4,0,4,2,10,4,0.00,0.00,20.21,
12.865,140.4034327357947,69.43962058557072,-250.0,250.0,250.0,0,4,0,4,2,10,4,0.00,0.00,18.25,
12.879,139.69834327357947,74.02996205855709,-250.0,-95.0,250.0,0,4,0,3,2,9,4,0.00,0.00,16.68,
12.894,137.68383432735794,75.1909962058557,-250.0,-243.0,241.0,0,4,0,3,2,8,4,0.00,0.00,15.30,
12.908,135.42138343273578,76.90909962058556,-48.0,237.0,98.0,0,4,0,3,2,7,4,0.00,0.00,13.05,
12.922,140.05513834327357,89.99590996205856,200.0,132.0,-77.0,0,4,0,3,2,6,4,0.00,0.00,12.07,
12.937,143.23651383432735,99.67459099620585,123.0,250.0,250.0,0,4,0,3,2,5,4,0.00,0.00,11.28,
12.951,151.59165138343275,85.15345909962059,201.0,126.0,-250.0,0,4,0,2,2,4,4,0.00,0.00,8.73,
12.965,157.5751651383433,74.59334590996207,250.0,208.0,-12.0,0,3,0,2,3,3,3,0.00,0.00,6.47,
12.98,163.63651651383435,62.566334590996206,250.0,203.0,-95.0,0,2,0,1,3,2,2,0.00,0.00,4.12,
12.993,168.20265165138343,53.30863345909962,250.0,173.0,36.0,0,2,0,1,3,1,2,0.00,0.00,2.06,
13.007,171.22426516513835,47.77486334590996,250.0,157.0,63.0,0,2,0,0,2,0,1,0.00,0.00,0.00,
13.022,174.5774265165138,42.226486334590994,250.0,222.0,109.0,0,2,0,0,1,0,0,0.00,0.00,0.00,
13.036,180.3487426516514,32.9956486334591,250.0,250.0,-71.0,0,2,0,0,0,0,0,0.00,0.00,0.00,
13.049,187.65787426516513,18.88756486334591,250.0,250.0,-250.0,0,2,0,0,0,0,0,0.00,0.00,0.00,
13.064,193.91478742651654,52.89175648633459,250.0,178.0,-250.0,0,1,0,0,0,0,0,0.00,0.00,0.00,
13.078,197.56447874265166,85.44317564863347,250.0,-78.0,-212.0,0,1,0,0,0,0,0,0.00,0.00,0.00,
13.091,199.86444787426518,112.70131756486336,250.0,-121.0,-65.0,0,2,0,0,0,0,0,0.49,0.00,0.00,
13.106,201.0394447874265,135.69513175648632,190.0,-188.0,-178.0,0,2,0,0,0,0,0,0.69,0.00,0.00,
13.12,201.88594447874263,150.63951317564866,-62.0,-77.0,-142.0,0,2,0,0,0,0,0,0.59,0.00,0.00,
13.133,195.2835944478743,151.57595131756486,-229.0,-133.0,13.0,0,2,0,0,0,0,0,0.39,0.00,0.00,
13.148,195.00135944478745,160.3725951317565,-250.0,-124.0,12.0,0,2,0,0,0,0,0,0.29,0.00,0.00,
13.161,193.67713594447872,170.00925951317566,-250.0,-99.0,69.0,0,2,0,0,0,0,0,0.10,0.00,0.00,
13.175,192.0507135944479,142.21792595131757,-250.0,-102.0,17.0,0,2,0,0,0,0,0,0.00,0.00,0.00,
13.19,188.7020713594448,120.07979259513176,-250.0,-73.0,-11.0,0,2,0,0,0,0,0,0.00,0.00,0.00,
13.203,188.20520713594448,98.86697925951319,-205.0,-5.0,-96.0,0,2,0,0,0,0,0,0.10,0.00,0.00,
13.217,186.67052071359444,84.15469792595133,-122.0,26.0,-104.0,0,2,0,0,0,0,0,0.20,0.00,0.00,
13.231,188.31705207135946,63.225469792595135,-142.0,99.0,-112.0,0,2,0,0,0,0,0,0.29,0.00,0.00,
13.245,191.01970520713593,40.94554697925951,-218.0,35.0,-32.0,0,2,0,0,0,0,0,0.39,0.00,0.00,
13.258,193.4409705207136,21.98655469792595,-250.0,-30.0,100.0,0,2,0,0,0,0,0,0.29,0.00,0.00,
13.273,198.00309705207135,6.239655469792595,-250.0,112.0,-250.0,0,2,0,0,0,0,0,0.29,0.00,0.00,
13.286,179.64930970520714,12.04496554697926,250.0,250.0,250.0,0,2,0,0,0,0,0,0.29,0.00,0.00,
13.3,183.6999309705207,45.66449655469793,53.0,140.0,-52.0,0,2,0,0,0,0,0,0.20,0.00,0.00,
13.314,188.55999309705206,31.98944965546979,-85.0,49.0,250.0,0,2,0,0,0,0,0,0.29,0.00,0.00,
13.327,191.1519993097052,15.61894496554698,-143.0,20.0,250.0,0,2,0,0,0,0,0,0.29,0.00,0.00,
13.341,189.8181999309705,12.5688944965547,-122.0,170.0,250.0,0,2,0,0,0,0,0,0.39,0.00,0.00,
13.355,188.88381999309706,12.98388944965547,-16.0,250.0,250.0,0,2,0,0,0,0,0,0.39,0.00,0.00,
13.368,188.9793819993097,12.944388944965546,88.0,250.0,250.0,0,2,0,0,0,0,0,0.49,0.00,0.00,
13.382,190.75293819993095,9.979438894496555,198.0,250.0,250.0,0,2,0,0,0,0,0,0.69,0.00,0.00,
13.395,193.86429381999312,3.517943889449655,250.0,250.0,250.0,0,2,0,0,0,0,0,0.59,0.00,0.00,
13.409,197.64042938199933,320.49079438894495,250.0,250.0,250.0,0,2,0,0,0,0,0,0.49,0.00,0.00,
13.423,202.87804293819994,341.8920794388945,-250.0,160.0,-250.0,0,2,0,0,0,0,0,0.59,0.00,0.00,
13.436,201.97980429382,52.08120794388944,250.0,-250.0,250.0,0,2,0,0,0,0,0,0.49,0.00,0.00,
13.451,194.014980429382,41.58612079438894,228.0,-250.0,250.0,0,2,0,0,0,0,0,0.49,0.00,0.00,
13.464,190.75249804293819,38.8266120794389,250.0,-27.0,250.0,0,2,0,0,0,0,0,0.49,0.00,0.00,
13.478,191.4792498042938,68.6916612079439,250.0,82.0,145.0,0,2,0,0,0,0,0,0.49,0.00,0.00,
13.492,194.01792498042937,99.2631661207944,250.0,128.0,142.0,0,2,0,0,0,0,0,0.69,0.00,0.00,
13.506,197.37679249804293,78.71331661207944,250.0,58.0,250.0,0,2,0,0,0,0,0,0.69,0.00,0.00,
13.519,201.67267924980428,57.803331661207935,250.0,37.0,102.0,0,2,0,0,0,0,0,0.69,0.00,0.00,
13.533,203.45226792498042,85.7723331661208,250.0,-222.0,-250.0,0,2,0,0,0,0,0,0.59,0.00,0.00,
13.547,206.31222679249805,65.61923331661208,-82.0,89.0,250.0,0,2,0,0,0,0,0,0.49,0.00,0.00,
13.561,208.03822267924977,43.54292333166121,-178.0,65.0,31.0,0,2,0,0,0,0,0,0.59,0.00,0.00,
13.575,208.03082226792498,23.65929233316612,-35.0,43.0,-79.0,0,2,0,0,0,0,0,0.59,0.00,0.00,
13.588,207.2380822267925,51.42492923331661,-44.0,11.0,-40.0,0,2,0,0,0,0,0,0.49,0.00,0.00,
13.602,204.98080822267926,77.52949292333167,-54.0,-4.0,-52.0,0,2,0,0,0,0,0,0.49,0.00,0.00,
13.617,202.59508082226793,96.80794929233318,-76.0,29.0,-88.0,0,2,0,0,0,0,0,0.39,0.00,0.00,
13.63,201.0515080822268,114.65679492923331,-113.0,-3.0,-95.0,0,2,0,0,0,0,0,0.59,0.00,0.00,
13.644,199.10615080822268,127.99767949292333,-162.0,-41.0,-79.0,0,2,0,0,0,0,0,0.49,0.00,0.00,
13.659,197.16561508082225,140.28476794929233,-197.0,-68.0,-44.0,0,2,0,0,0,0,0,0.39,0.00,0.00,
13.672,195.43256150808224,154.09547679492923,-195.0,-93.0,-74.0,0,2,0,0,0,0,0,0.29,0.00,0.00,
13.686,194.33225615080823,167.48254767949294,-179.0,-99.0,-86.0,0,2,0,0,0,0,0,0.20,0.00,0.00,
13.701,194.44722561508084,133.6222547679493,-160.0,-54.0,-80.0,0,2,0,0,0,0,0,0.10,0.00,0.00,
13.715,195.6737225615081,100.60822547679493,-148.0,-69.0,-118.0,0,2,0,0,0,0,0,0.00,0.00,0.00,
13.729,197.2183722561508,72.64682254767949,-135.0,-83.0,-99.0,0,2,0,0,0,0,0,0.00,0.00,0.00,
13.743,192.80983722561507,61.93068225476795,-22.0,-250.0,-250.0,0,2,0,0,0,0,0,0.00,0.00,0.00,
13.757,159.4559837225615,81.3700682254768,-217.0,89.0,-250.0,0,2,0,0,0,0,0,0.00,0.00,0.00,
13.771,160.94459837225617,75.98800682254767,66.0,250.0,-250.0,0,2,0,0,0,0,0,0.00,0.00,0.00,
13.785,163.46045983722564,77.87980068225477,22.0,250.0,-179.0,0,2,0,0,0,0,0,0.00,0.00,0.00,
13.799,171.75804598372258,103.18798006822549,19.0,250.0,199.0,0,2,0,0,0,0,0,0.00,0.00,0.00,
13.813,186.00680459837227,127.72379800682253,-10.0,250.0,11.0,1,2,0,0,0,0,0,0.00,0.00,0.00,
13.827,193.8396804598372,146.55737980068224,-7.0,104.0,23.0,1,2,0,0,0,0,0,0.00,0.00,0.00,
13.841,200.58096804598372,159.91573798006823,15.0,192.0,9.0,1,2,0,0,0,0,0,0.00,0.00,0.00,
13.855,206.53809680459835,174.2835737980068,-4.0,80.0,3.0,2,3,1,0,0,0,0,0.00,0.00,0.00,
13.869,211.90380968045983,141.4573573798007,8.0,63.0,-12.0,2,3,1,0,0,0,0,0.00,0.00,0.69,
13.883,216.292380968046,155.63473573798007,1.0,18.0,1.0,2,3,1,0,0,0,0,0.00,0.00,2.75,
13.897,219.5032380968046,123.932473573798,0.0,-4.0,4.0,2,3,1,0,0,0,0,0.00,0.00,2.65,
13.911,220.55332380968042,99.4142473573798,-3.0,-40.0,29.0,3,3,1,0,0,0,0,0.00,0.00,2.35,
13.925,223.13333238096803,119.58842473573799,-7.0,-15.0,11.0,3,4,1,0,0,0,0,0.00,0.00,1.47,
13.939,225.2183332380968,141.1358424735738,-5.0,-11.0,11.0,3,4,2,0,0,0,0,0.00,0.00,0.29,
13.953,227.0288333238097,160.16558424735737,-5.0,3.0,12.0,3,4,2,0,0,0,0,0.00,0.00,0.49,
13.967,228.67688333238098,176.49555842473575,-5.0,12.0,13.0,3,4,2,0,0,0,0,0.00,0.00,0.69,
13.981,230.16468833323813,190.3325558424736,-6.0,20.0,16.0,3,4,2,0,0,0,0,0.00,0.00,0.98,
13.995,231.46546883332383,202.14725558424738,-4.0,20.0,13.0,4,4,2,0,0,0,0,0.00,0.00,1.96,
14.009,232.63054688333239,212.13972555842474,-5.0,20.0,14.0,4,5,2,0,0,1,0,0.00,0.00,2.65,
14.023,233.67405468833323,220.68997255584247,-6.0,15.0,15.0,4,5,2,1,0,1,0,0.00,0.00,3.24,
14.038,234.5974054688333,227.94399725558424,-6.0,13.0,16.0,4,5,2,1,0,1,0,0.00,0.00,3.92,
14.051,235.34674054688332,234.11439972555843,-7.0,11.0,17.0,4,5,2,1,0,1,0,0.00,0.00,5.30,
14.065,235.99767405468833,239.34843997255584,-7.0,8.0,18.0,5,6,2,1,0,1,0,0.00,0.00,5.98,
14.08,236.50376740546884,243.79584399725556,-4.0,3.0,21.0,5,6,3,1,0,1,0,3.14,0.00,6.77,
14.094,236.84237674054688,247.61558439972555,-5.0,11.0,19.0,5,6,3,1,0,1,0,6.38,0.00,7.55,
14.107,237.2092376740547,250.79655843997256,-4.0,10.0,18.0,5,6,3,1,0,2,0,9.81,0.00,8.93,
14.121,237.56092376740546,253.57165584399723,-4.0,10.0,18.0,5,6,3,1,0,2,0,13.24,0.00,9.52,
14.136,237.84809237674057,255.8831655843997,-4.0,7.0,18.0,5,6,3,1,0,2,0,18.54,0.00,10.40,
14.574,242.25980923767403,267.06731655844,-3.0,0.0,7.0,6,6,3,2,0,2,0,0.00,0.00,52.39,
14.588,242.6919809237674,268.26673165584396,-3.0,-2.0,7.0,6,6,3,2,0,2,0,0.00,0.00,52.58,
14.603,242.73519809237675,268.53967316558436,-2.0,-3.0,7.0,6,6,3,2,0,2,0,0.00,0.00,52.97,
14.616,242.78451980923768,268.70196731655847,-2.0,-2.0,6.0,6,6,3,2,0,2,0,0.00,0.00,53.76,
14.63,242.79845198092377,268.79019673165584,-2.0,-1.0,6.0,6,6,3,2,0,2,0,0.00,0.00,54.64,
14.645,242.8268451980924,268.8800196731656,-2.0,0.0,5.0,6,6,3,2,0,2,0,0.00,0.00,55.82,
14.658,242.86568451980924,268.9070019673166,-2.0,0.0,5.0,6,6,3,2,0,2,0,0.00,0.00,57.00,
14.672,242.87856845198093,268.95470019673166,-2.0,0.0,5.0,6,6,3,2,0,2,0,0.00,0.00,58.27,
14.687,242.9068568451981,268.98647001967316,-2.0,0.0,5.0,6,6,3,2,0,2,0,0.00,0.00,58.37,
14.7,242.90068568451983,269.0076470019673,-3.0,0.0,5.0,6,6,3,2,0,2,0,0.00,0.00,58.17,
14.714,242.92706856845197,269.0187647001967,-3.0,1.0,5.0,6,6,3,2,0,2,0,0.00,0.00,57.98,
14.729,242.9117068568452,269.06487647001967,-3.0,1.0,5.0,6,6,3,2,0,2,0,0.00,0.00,57.98,
14.742,242.93717068568452,269.07848764700196,-3.0,1.0,5.0,6,6,3,2,0,2,0,0.00,0.00,58.27,
14.756,242.96671706856844,269.1158487647002,-3.0,0.0,6.0,6,6,3,2,0,2,0,0.00,0.00,58.37,
14.77,243.00567170685684,269.13758487647,-3.0,0.0,6.0,6,6,3,2,0,2,0,0.00,0.00,58.47,
14.784,242.99156717068567,269.13075848764703,-3.0,0.0,6.0,6,6,3,2,0,2,0,0.00,0.00,57.98,
14.798,243.0171567170686,269.1300758487647,-3.0,0.0,6.0,6,6,3,2,0,2,0,0.00,0.00,57.68,
14.812,243.03771567170685,269.14800758487644,-2.0,-1.0,6.0,6,6,3,2,0,2,0,0.00,0.00,57.49,
14.826,242.9767715671707,269.16780075848766,-3.0,0.0,6.0,6,6,3,2,0,2,0,0.00,0.00,57.29,
14.84,242.9616771567171,269.2147800758488,-2.0,0.0,6.0,6,6,3,2,0,2,0,0.00,0.00,57.09,
14.854,242.90616771567173,269.21047800758487,-2.0,0.0,5.0,6,6,3,2,0,2,0,0.00,0.00,57.58,
14.868,242.92761677156716,269.2190478007585,-2.0,0.0,6.0,6,6,3,2,0,2,0,0.00,0.00,58.37,
14.882,242.93876167715672,269.21090478007585,-2.0,-1.0,6.0,6,6,3,2,0,2,0,0.00,0.00,59.55,
14.896,242.94887616771567,269.2460904780076,-3.0,-1.0,5.0,6,6,3,2,0,2,0,0.00,0.00,59.94,
14.91,242.88688761677156,269.2856090478008,-3.0,-3.0,5.0,6,6,3,2,0,2,0,0.00,0.00,60.04,
14.924,242.88068876167716,269.2445609047801,-3.0,-4.0,5.0,6,6,3,2,0,2,0,0.00,0.00,59.64,
14.938,242.8620688761677,269.240456090478,-2.0,-4.0,5.0,6,6,3,2,0,2,0,0.00,0.00,57.49,
14.952,242.8332068876168,269.2490456090478,-2.0,-2.0,5.0,6,6,3,2,0,2,0,0.00,0.00,55.82,
14.966,242.8213206887617,269.2229045609048,-2.0,-2.0,5.0,6,6,3,2,0,2,0,0.00,0.00,54.15,
14.981,242.82013206887618,269.23829045609045,-2.0,-1.0,5.0,6,6,3,2,0,1,0,0.00,0.00,52.78,
14.994,242.80201320688764,269.27582904560904,-2.0,-1.0,5.0,6,6,3,2,0,1,0,0.00,0.00,51.21,
15.008,242.77320132068877,269.2615829045609,-2.0,-1.0,5.0,6,6,3,2,0,1,0,0.00,0.00,50.42,
15.023,242.80632013206886,269.26915829045606,-2.0,-1.0,4.0,6,6,3,2,0,1,0,0.00,0.00,49.34,
15.037,242.8186320132069,269.2609158290456,-2.0,-2.0,4.0,6,6,3,2,0,1,0,0.00,0.00,48.66,
15.05,242.80186320132069,269.27809158290455,-2.0,-3.0,4.0,6,6,3,2,0,1,0,0.00,0.00,46.99,
15.065,242.78218632013207,269.28880915829046,-1.0,-3.0,3.0,6,6,3,1,0,1,0,0.00,0.00,45.71,
15.079,242.7802186320132,269.28988091582903,-2.0,-3.0,3.0,6,5,3,1,0,1,0,0.00,0.00,43.85,
15.092,242.7800218632013,269.28098809158286,-2.0,-3.0,3.0,6,5,3,1,0,1,0,0.00,0.00,41.79,
15.107,242.78000218632013,269.2710988091583,-2.0,-3.0,3.0,6,5,3,1,0,1,0,0.00,0.00,37.57,
15.121,242.744000218632,269.30610988091587,-2.0,-3.0,4.0,6,5,3,1,0,1,0,0.00,0.00,35.81,
15.135,242.69540002186318,269.28261098809156,-3.0,-2.0,3.0,6,5,3,1,0,1,0,0.00,0.00,34.14,
15.149,242.6905400021863,269.3072610988092,-2.0,-1.0,4.0,6,5,3,1,0,1,0,0.00,0.00,31.20,
15.163,242.67205400021862,269.30972610988096,-2.0,-1.0,3.0,6,5,3,1,0,1,0,0.00,0.00,30.21,
15.177,242.68820540002184,269.3009726109881,-2.0,-1.0,4.0,6,5,3,1,0,1,0,0.00,0.00,29.63,
15.191,242.66282054000217,269.27309726109877,-2.0,0.0,4.0,6,5,3,1,0,1,0,0.00,0.00,29.04,
15.205,242.66028205400022,269.2523097261099,-3.0,0.0,4.0,6,5,3,1,0,1,0,0.00,0.00,28.35,
15.219,242.6870282054,269.232230972611,-3.0,0.0,4.0,6,5,3,1,0,1,0,0.00,0.00,28.15,
15.233,242.64470282054,269.2302230972611,-3.0,0.0,4.0,6,5,3,1,0,1,0,0.00,0.00,27.96,
15.247,242.676470282054,269.2120223097261,-3.0,0.0,4.0,6,5,3,1,0,1,0,0.00,0.00,27.76,
15.261,242.6796470282054,269.2282022309726,-3.0,0.0,4.0,6,5,3,1,0,1,0,0.00,0.00,27.17,
15.275,242.66196470282054,269.20282022309726,-3.0,0.0,4.0,6,5,3,1,0,1,0,0.00,0.00,26.68,
15.289,242.65119647028206,269.19128202230974,-3.0,0.0,4.0,6,5,3,1,0,1,0,0.00,0.00,26.29,
15.302,242.61411964702822,269.19912820223095,-3.0,0.0,5.0,6,6,3,1,0,1,0,0.00,0.00,26.19,
15.316,242.62841196470282,269.1909128202231,-3.0,0.0,5.0,6,6,3,1,0,1,0,0.00,0.00,26.09,
15.331,242.62984119647027,269.2080912820223,-3.0,0.0,5.0,6,6,3,1,0,1,0,0.00,0.00,26.09,
15.344,242.61198411964705,269.2188091282022,-3.0,0.0,5.0,6,6,3,1,0,1,0,0.00,0.00,26.09,
15.358,242.6191984119647,269.1838809128202,-3.0,0.0,5.0,6,6,3,1,0,1,0,0.00,0.00,26.09,
15.373,242.61991984119646,269.198388091282,-3.0,0.0,5.0,6,6,3,1,0,1,0,0.00,0.00,26.19,
15.386,242.60199198411965,269.21783880912824,-3.0,0.0,5.0,6,6,3,1,0,1,0,0.00,0.00,26.09,
15.4,242.60019919841196,269.26478388091283,-3.0,0.0,5.0,6,6,3,1,0,1,0,0.00,0.00,26.09,
15.415,242.6180199198412,269.27847838809123,-3.0,0.0,5.0,6,6,3,1,0,1,0,0.00,0.00,26.09,
15.428,242.5748019919841,269.2618478388091,-3.0,0.0,5.0,6,6,3,1,0,1,0,0.00,0.00,26.19,
15.442,242.5794801991984,269.2331847838809,-3.0,0.0,5.0,6,6,3,1,0,1,0,0.00,0.00,26.29,
15.456,242.53494801991985,269.2303184783881,-3.0,0.0,5.0,6,6,3,1,0,1,0,0.00,0.00,26.29,
15.47,242.51249480199198,269.2120318478388,-3.0,0.0,5.0,6,6,3,1,0,1,0,0.00,0.00,26.19,
15.484,242.5552494801992,269.26420318478387,-3.0,0.0,6.0,6,6,3,1,0,1,0,0.00,0.00,26.19,
15.498,242.55052494801993,269.2244203184784,-3.0,0.0,5.0,6,6,3,2,0,1,0,0.00,0.00,26.09,
15.512,242.550052494802,269.2204420318479,-3.0,0.0,6.0,6,6,3,2,0,1,0,0.00,0.00,26.00,
15.526,242.5410052494802,269.21104420318477,-3.0,0.0,5.0,6,6,3,2,0,1,0,0.00,0.00,26.00,
15.54,242.576100524948,269.1381044203185,-3.0,-1.0,6.0,6,6,3,2,0,1,0,0.00,0.00,26.09,
15.554,242.5526100524948,269.12181044203186,-3.0,-1.0,6.0,6,6,3,2,0,1,0,0.00,0.00,26.19,
15.568,242.55926100524948,269.1651810442032,-3.0,-1.0,5.0,6,6,3,2,0,1,0,0.00,0.00,26.19,
15.582,242.56892610052492,269.1965181044203,-3.0,-1.0,5.0,6,6,3,2,0,1,0,0.00,0.00,26.09,
15.596,242.5428926100525,269.19065181044203,-2.0,-2.0,5.0,6,6,3,2,0,1,0,0.00,0.00,25.90,
15.61,242.50428926100525,269.1990651810442,-3.0,-2.0,5.0,6,6,3,1,0,1,0,0.00,0.00,25.70,
15.625,242.5004289261005,269.25390651810443,-2.0,-1.0,5.0,6,6,3,1,0,1,0,0.00,0.00,25.21,
15.638,242.47304289261007,269.22339065181046,-2.0,-1.0,5.0,6,6,3,1,0,1,0,0.00,0.00,24.62,
15.652,242.461304289261,269.23833906518104,-2.0,-1.0,5.0,6,6,3,1,0,1,0,0.00,0.00,24.23,
15.667,242.44213042892608,269.24883390651814,-2.0,-1.0,5.0,6,6,3,1,0,1,0,0.00,0.00,23.94,
15.68,242.4672130428926,269.2678833906518,-2.0,-1.0,5.0,6,6,3,1,0,1,0,0.00,0.00,23.64,
15.694,242.46972130428927,269.2337883390652,-2.0,-1.0,5.0,6,6,3,1,0,1,0,0.00,0.00,22.86,
15.709,242.48797213042894,269.2393788339065,-2.0,-2.0,5.0,6,6,3,1,0,1,0,0.00,0.00,22.66,
15.723,242.46279721304288,269.23093788339065,-2.0,-2.0,4.0,6,6,3,1,0,1,0,0.00,0.00,22.27,
15.736,242.4332797213043,269.2300937883391,-2.0,-2.0,4.0,6,6,3,1,0,1,0,0.00,0.00,21.88,
15.751,242.43932797213043,269.2570093788339,-2.0,-1.0,4.0,6,6,3,1,0,1,0,0.00,0.00,20.99,
15.765,242.42193279721303,269.2597009378834,-2.0,-1.0,4.0,6,6,3,1,0,1,0,0.00,0.00,20.60,
15.779,242.42919327972132,269.2689700937883,-2.0,-2.0,4.0,6,6,3,1,0,1,0,0.00,0.00,20.21,
15.793,242.4479193279721,269.26989700937884,-2.0,-2.0,4.0,6,6,3,1,0,1,0,0.00,0.00,19.62,
15.807,242.4677919327972,269.2519897009379,-2.0,-1.0,4.0,6,5,3,1,0,1,0,0.00,0.00,19.13,
15.821,242.4247791932797,269.2231989700938,-2.0,-1.0,4.0,6,5,3,1,0,1,0,0.00,0.00,18.74,
15.835,242.45647791932797,269.26531989700936,-2.0,-2.0,4.0,6,5,3,1,0,1,0,0.00,0.00,18.44,
15.849,242.4326477919328,269.29653198970095,-2.0,-1.0,4.0,6,5,3,1,0,1,0,0.00,0.00,17.76,
15.863,242.38526477919328,269.3536531989701,-2.0,-1.0,4.0,6,5,3,1,0,1,0,0.00,0.00,17.27,
15.878,242.37152647791933,269.35036531989704,-2.0,-1.0,4.0,6,5,3,1,0,1,0,0.00,0.00,16.97,
15.891,242.37015264779194,269.3860365319897,-2.0,-1.0,4.0,6,5,3,1,0,1,0,0.00,0.00,16.78,
15.905,242.39701526477918,269.34460365319893,-2.0,-1.0,4.0,6,5,3,1,0,1,0,0.00,0.00,16.38,
15.92,242.3907015264779,269.34046036531987,-2.0,-1.0,4.0,6,5,3,1,0,1,0,0.00,0.00,16.09,
15.933,242.40807015264778,269.28604603653196,-2.0,-1.0,4.0,6,5,3,1,0,1,0,0.00,0.00,15.79,
15.947,242.38280701526477,269.28060460365316,-2.0,0.0,4.0,6,5,3,1,0,1,0,0.00,0.00,15.60,
15.962,242.37128070152647,269.2530604603653,-3.0,0.0,4.0,6,5,3,1,0,1,0,0.00,0.00,15.40,
15.975,242.37912807015263,269.27730604603653,-2.0,0.0,4.0,6,5,3,1,0,1,0,0.00,0.00,15.30,
15.989,242.41591280701525,269.25273060460364,-3.0,0.0,4.0,6,5,3,1,0,1,0,0.00,0.00,15.30,
16.004,242.41959128070152,269.2592730604604,-3.0,0.0,4.0,6,5,3,1,0,1,0,0.00,0.00,15.40,
16.017,242.42895912807015,269.28692730604604,-3.0,0.0,4.0,6,5,3,1,0,1,0,0.00,0.00,15.60,
16.031,242.420895912807,269.2986927306046,-2.0,0.0,4.0,6,5,3,1,0,1,0,0.00,0.00,15.70,
16.046,242.42008959128069,269.2908692730605,-3.0,0.0,4.0,6,5,3,1,0,1,0,0.00,0.00,15.79,
16.059,242.43800895912807,269.29008692730605,-3.0,0.0,4.0,6,5,3,1,0,1,0,0.00,0.00,15.89,
16.073,242.4218008959128,269.32600869273057,-3.0,0.0,4.0,6,5,3,1,0,1,0,0.00,0.00,16.09,
16.087,242.44718008959126,269.338600869273,-3.0,0.0,4.0,6,6,3,1,0,1,0,0.00,0.00,16.19,
16.101,242.4497180089591,269.3668600869273,-3.0,0.0,4.0,6,5,3,1,0,1,0,0.00,0.00,16.28,
16.115,242.46797180089592,269.35168600869275,-3.0,0.0,4.0,6,6,3,1,0,1,0,0.00,0.00,16.38,
16.129,242.4787971800896,269.37716860086925,-3.0,0.0,4.0,6,6,3,1,0,1,0,0.00,0.00,16.48,
16.143,242.45287971800894,269.35271686008696,-3.0,0.0,4.0,6,6,3,1,0,1,0,0.00,0.00,16.48,
16.156,242.4682879718009,269.3862716860087,-3.0,0.0,4.0,6,6,3,1,0,1,0,0.00,0.00,16.68,
16.171,242.4338287971801,269.33562716860087,-3.0,0.0,4.0,6,6,3,1,0,1,0,0.00,0.00,16.78,
16.185,242.36738287971804,269.32156271686006,-3.0,0.0,4.0,6,6,3,1,0,1,0,0.00,0.00,16.87,
16.198,242.2977382879718,269.320156271686,-3.0,0.0,4.0,6,6,3,1,0,1,0,0.00,0.00,16.87,
16.212,242.3537738287972,269.3110156271686,-3.0,0.0,5.0,6,6,3,1,0,1,0,0.00,0.00,17.07,
16.227,242.4313773828797,269.31010156271685,-2.0,0.0,4.0,6,6,3,1,0,1,0,0.00,0.00,17.27,
16.24,242.42113773828797,269.2920101562717,-3.0,0.0,5.0,6,6,3,1,0,1,0,0.00,0.00,17.27,
16.254,242.40211377382877,269.3172010156272,-3.0,0.0,4.0,6,6,3,1,0,1,0,0.00,0.00,17.27,
16.268,242.40021137738287,269.3107201015627,-3.0,0.0,5.0,6,6,3,1,0,1,0,0.00,0.00,17.36,
16.282,242.38202113773826,269.30107201015625,-3.0,0.0,5.0,6,6,3,1,0,1,0,0.00,0.00,17.36,
16.296,242.37120211377382,269.3271072010156,-3.0,0.0,4.0,6,6,3,1,0,1,0,0.00,0.00,17.46,
16.31,242.37012021137738,269.3027107201016,-3.0,0.0,5.0,6,6,3,1,0,1,0,0.00,0.00,17.36,
16.324,242.3880120211377,269.24627107201013,-3.0,0.0,4.0,6,6,3,1,0,1,0,0.00,0.00,17.36,
16.338,242.40780120211377,269.27662710720097,-3.0,0.0,5.0,6,6,3,1,0,1,0,0.00,0.00,17.17,
16.352,242.4277801202114,269.28866271072013,-3.0,0.0,4.0,6,6,3,1,0,1,0,0.00,0.00,16.97,
16.366,242.42977801202113,269.316866271072,-2.0,0.0,5.0,6,6,3,1,0,1,0,0.00,0.00,16.87,
16.379,242.4119778012021,269.3196866271072,-3.0,0.0,5.0,6,6,3,1,0,1,0,0.00,0.00,16.97,
16.394,242.42819778012023,269.34696866271076,-3.0,0.0,5.0,6,6,3,1,0,1,0,0.00,0.00,16.68,
16.408,242.42981977801202,269.37669686627106,-3.0,0.0,5.0,6,6,3,1,0,1,0,0.00,0.00,16.58,
16.421,242.4029819778012,269.3616696866271,-3.0,0.0,5.0,6,6,3,1,0,1,0,0.00,0.00,16.48,
16.436,242.36429819778013,269.29716696866274,-2.0,-1.0,5.0,6,6,3,1,0,1,0,0.00,0.00,16.48,
16.45,242.36942981977802,269.3627166968663,-2.0,-1.0,5.0,6,6,3,1,0,1,0,0.00,0.00,16.19,
16.463,242.36094298197781,269.3332716696866,-3.0,0.0,4.0,6,6,3,1,0,1,0,0.00,0.00,16.19,
16.478,242.35109429819778,269.30332716696864,-3.0,0.0,5.0,6,6,3,1,0,1,0,0.00,0.00,15.89,
16.492,242.38610942981975,269.3093327166969,-3.0,0.0,4.0,6,6,3,1,0,1,0,0.00,0.00,15.70,
16.505,242.41661094298198,269.27393327166965,-3.0,0.0,4.0,6,6,3,1,0,1,0,0.00,0.00,15.70,
16.52,242.4646610942982,269.27939332716693,-3.0,0.0,4.0,6,6,3,1,0,1,0,0.00,0.00,15.60,
16.534,242.46946610942982,269.2889393327167,-3.0,0.0,4.0,6,6,3,1,0,1,0,0.00,0.00,15.70,
16.547,242.433946610943,269.2808939332716,-3.0,0.0,4.0,6,6,3,1,0,1,0,0.00,0.00,15.79,
16.562,242.4393946610943,269.2620893933272,-3.0,0.0,4.0,6,6,3,1,0,1,0,0.00,0.00,15.79,
16.576,242.41293946610944,269.2422089393327,-2.0,0.0,5.0,6,6,3,1,0,1,0,0.00,0.00,15.79,
16.589,242.43729394661094,269.24022089393327,-2.0,0.0,4.0,6,6,3,1,0,1,0,0.00,0.00,15.60,
16.604,242.4217293946611,269.24902208939335,-3.0,0.0,4.0,6,6,3,1,0,1,0,0.00,0.00,15.70,
16.617,242.4201729394661,269.2769022089393,-2.0,0.0,4.0,6,6,3,1,0,1,0,0.00,0.00,15.60,
16.631,242.43801729394661,269.2976902208939,-2.0,0.0,4.0,6,6,3,1,0,1,0,0.00,0.00,15.60,
16.646,242.43980172939465,269.32676902208937,-3.0,0.0,4.0,6,6,3,1,0,1,0,0.00,0.00,15.60,
16.659,242.39498017293943,269.30267690220893,-2.0,0.0,4.0,6,6,3,1,0,1,0,0.00,0.00,15.40,
16.673,242.40849801729394,269.2642676902209,-3.0,0.0,4.0,6,6,3,1,0,1,0,0.00,0.00,15.60,
16.688,242.3648498017294,269.26942676902206,-3.0,0.0,4.0,6,6,3,1,0,1,0,0.00,0.00,15.70,
16.701,242.43248498017294,269.22494267690223,-2.0,0.0,4.0,6,6,3,1,0,1,0,0.00,0.00,15.89,
16.715,242.4752484980173,269.25649426769024,-3.0,0.0,4.0,6,6,3,1,0,1,0,0.00,0.00,15.89,
16.729,242.46152484980172,269.25964942676904,-3.0,0.0,4.0,6,6,3,1,0,1,0,0.00,0.00,15.99,
16.743,242.46015248498017,269.2329649426769,-3.0,0.0,4.0,6,6,3,1,0,1,0,0.00,0.00,16.09,
16.757,242.41501524849804,269.2392964942677,-3.0,0.0,4.0,6,6,3,1,0,1,0,0.00,0.00,16.09,
16.771,242.4015015248498,269.2219296494268,-2.0,0.0,4.0,6,6,3,1,0,1,0,0.00,0.00,16.09,
16.785,242.44515015248496,269.21119296494265,-3.0,0.0,4.0,6,6,3,1,0,1,0,0.00,0.00,16.19,
16.799,242.4855150152485,269.21011929649427,-3.0,0.0,4.0,6,6,3,1,0,1,0,0.00,0.00,16.19,
16.813,242.49855150152484,269.2100119296494,-3.0,0.0,4.0,6,6,3,1,0,1,0,0.00,0.00,16.28,
16.827,242.48185515015248,269.23700119296495,-2.0,0.0,4.0,6,6,3,1,0,1,0,0.00,0.00,16.38,
16.84,242.48018551501525,269.2397001192965,-3.0,0.0,4.0,6,6,3,1,0,1,0,0.00,0.00,16.28,
16.855,242.51601855150153,269.23997001192964,-3.0,0.0,5.0,6,6,3,1,0,1,0,0.00,0.00,16.38,
16.869,242.51960185515014,269.25799700119296,-2.0,0.0,4.0,6,6,3,1,0,1,0,0.00,0.00,16.38,
16.882,242.537960185515,269.2957997001193,-3.0,0.0,4.0,6,6,3,1,0,1,0,0.00,0.00,16.48,
16.897,242.5307960185515,269.3265799700119,-2.0,0.0,4.0,6,6,3,1,0,1,0,0.00,0.00,16.48,
16.911,242.52107960185515,269.3656579970012,-2.0,0.0,4.0,6,6,3,1,0,1,0,0.00,0.00,16.58,
16.924,242.5201079601855,269.3605657997001,-3.0,0.0,5.0,6,6,3,1,0,1,0,0.00,0.00,16.58,
16.939,242.52001079601854,269.36905657997005,-2.0,0.0,4.0,6,6,3,1,0,1,0,0.00,0.00,16.58,
16.952,242.52000107960185,269.387905657997,-2.0,0.0,4.0,6,6,3,1,0,1,0,0.00,0.00,16.48,
16.966,242.5380001079602,269.3807905657997,-3.0,0.0,4.0,6,6,3,1,0,1,0,0.00,0.00,16.38,
16.98,242.53080001079604,269.35307905658,-3.0,0.0,4.0,6,6,3,1,0,1,0,0.00,0.00,16.38,
16.994,242.5030800010796,269.323307905658,-3.0,0.0,4.0,6,6,3,1,0,1,0,0.00,0.00,16.28,
17.008,242.49130800010798,269.33833079056575,-2.0,0.0,4.0,6,6,3,1,0,1,0,0.00,0.00,16.28,
17.021,242.4811308000108,269.3488330790566,-3.0,0.0,4.0,6,6,3,1,0,1,0,0.00,0.00,16.28,
17.036,242.50711308000106,269.3318833079056,-3.0,0.0,4.0,6,6,3,1,0,1,0,0.00,0.00,16.09,
17.05,242.5007113080001,269.32118833079056,-3.0,0.0,4.0,6,6,3,1,0,1,0,0.00,-2403.94,16.09,
17.072,242.50907113079998,269.28411883307905,-2.0,0.0,4.0,6,6,3,1,0,1,0,0.00,0.00,16.28,
17.086,242.53690711308,269.28941188330793,-2.0,0.0,4.0,6,6,3,1,0,1,0,0.00,0.00,16.28,
17.1,242.557690711308,269.2719411883308,-3.0,0.0,5.0,6,6,3,1,0,1,0,0.00,0.00,16.19,
17.114,242.5417690711308,269.3061941188331,-2.0,0.0,4.0,6,6,3,1,0,1,0,0.00,0.00,16.09,
17.128,242.52217690711308,269.3006194118833,-3.0,0.0,4.0,6,6,3,1,0,1,0,0.00,0.00,16.09,
17.142,242.56521769071128,269.30906194118836,-3.0,0.0,4.0,6,6,3,1,0,1,0,0.00,0.00,15.99,
17.156,242.49752176907114,269.2739061941188,-2.0,0.0,4.0,6,6,3,1,0,1,0,0.00,0.00,15.79,
17.17,242.4547521769071,269.27039061941184,-3.0,0.0,4.0,6,6,3,1,0,1,0,0.00,0.00,15.70,
17.183,242.46847521769072,269.27903906194115,-3.0,0.0,4.0,6,6,3,1,0,1,0,0.00,0.00,15.50,
17.198,242.45184752176905,269.2979039061941,-3.0,-1.0,4.0,6,6,3,1,0,1,0,0.00,0.00,15.50,
17.212,242.4591847521769,269.3177903906194,-3.0,0.0,4.0,6,6,3,1,0,1,0,0.00,0.00,15.40,
17.225,242.4689184752177,269.31077903906197,-2.0,0.0,4.0,6,6,3,1,0,1,0,0.00,0.00,15.30,
17.24,242.39789184752175,269.3190779039062,-2.0,0.0,4.0,6,6,3,1,0,1,0,0.00,0.00,15.21,
17.254,242.38178918475217,269.3019077903906,-3.0,0.0,4.0,6,6,3,1,0,1,0,0.00,0.00,15.01,
17.267,242.4161789184752,269.30919077903906,-2.0,0.0,4.0,6,6,3,1,0,1,0,0.00,0.00,15.11,
17.282,242.4196178918475,269.3009190779039,-2.0,0.0,4.0,6,6,3,1,0,1,0,0.00,0.00,14.81,
17.296,242.42896178918477,269.3450919077904,-3.0,0.0,4.0,6,6,3,1,0,1,0,0.00,0.00,14.72,
17.309,242.40289617891847,269.340509190779,-3.0,0.0,4.0,6,6,3,1,0,1,0,0.00,0.00,14.62,
17.324,242.42728961789186,269.3040509190779,-3.0,0.0,4.0,6,6,3,1,0,1,0,0.00,0.00,14.62,
17.337,242.43872896178917,269.2824050919078,-3.0,0.0,4.0,6,6,3,1,0,1,0,0.00,0.00,14.72,
17.351,242.4578728961789,269.32524050919073,-3.0,0.0,4.0,6,6,3,1,0,1,0,0.00,0.00,14.81,
17.784,242.55878728961787,269.2305240509191,-2.0,0.0,4.0,6,6,3,1,0,1,0,0.00,0.00,13.73,
17.799,242.5598787289618,269.2660524050919,-2.0,0.0,4.0,6,6,3,1,0,1,0,0.00,0.00,13.64,
17.812,242.52398787289619,269.32360524050915,-3.0,0.0,4.0,6,6,3,1,0,1,0,0.00,0.00,13.54,
17.826,242.52039878728962,269.3203605240509,-2.0,0.0,4.0,6,6,3,1,0,1,0,0.00,0.00,13.24,
17.84,242.52003987872897,269.3110360524051,-2.0,0.0,4.0,6,6,3,1,0,1,0,0.00,0.00,13.24,
17.854,242.5830039878729,269.2921036052405,-3.0,0.0,4.0,6,6,3,1,0,1,0,0.00,0.00,13.15,
17.868,242.6073003987873,269.3442103605241,-2.0,0.0,4.0,6,6,3,1,0,1,0,0.00,0.00,13.05,
17.882,242.59173003987874,269.31342103605243,-2.0,-1.0,4.0,6,6,3,1,0,1,0,0.00,0.00,12.95,
17.896,242.60817300398787,269.31934210360527,-2.0,-1.0,4.0,6,6,3,1,0,1,0,0.00,0.00,12.95,
17.91,242.5918173003988,269.31993421036054,-2.0,-1.0,4.0,6,6,3,1,0,1,0,0.00,0.00,12.95,
17.924,242.57218173003986,269.32899342103605,-2.0,-1.0,4.0,6,6,3,1,0,1,0,0.00,0.00,12.46,
17.938,242.579218173004,269.33889934210356,-2.0,0.0,4.0,6,6,3,1,0,1,0,0.00,0.00,12.36,
17.952,242.55292181730042,269.30388993421036,-2.0,0.0,4.0,6,6,3,1,0,1,0,0.00,0.00,12.26,
17.966,242.54129218173003,269.318388993421,-2.0,0.0,4.0,6,6,3,1,0,1,0,0.00,0.00,12.16,
17.98,242.567129218173,269.3468388993421,-2.0,0.0,4.0,6,6,3,1,0,1,0,0.00,0.00,11.97,
17.994,242.56971292181728,269.3226838899342,-2.0,0.0,4.0,6,6,3,1,0,1,0,0.00,0.00,11.87,
18.008,242.55197129218175,269.35626838899344,-2.0,0.0,4.0,6,6,3,1,0,1,0,0.00,0.00,11.77,
18.022,242.52319712921818,269.3596268388993,-2.0,0.0,4.0,6,6,3,1,0,1,0,0.00,0.00,11.87,
18.036,242.52931971292182,269.33296268388995,-2.0,0.0,4.0,6,6,3,1,0,1,0,0.00,0.00,11.77,
18.05,242.5569319712922,269.339296268389,-2.0,0.0,4.0,6,6,3,1,0,1,0,0.00,0.00,11.67,
18.064,242.5236931971292,269.38492962683887,-2.0,0.0,4.0,6,6,3,1,0,1,0,0.00,0.00,11.77,
18.077,242.49336931971294,269.36249296268386,-2.0,0.0,4.0,6,6,3,1,0,1,0,0.00,0.00,11.77,
18.092,242.52633693197131,269.3782492962684,-2.0,0.0,4.0,6,6,3,1,0,1,0,0.00,0.00,11.67,
18.106,242.50263369319714,269.39782492962684,-2.0,0.0,4.0,6,6,3,1,0,1,0,0.00,0.00,11.67,
18.119,242.4732633693197,269.3997824929627,-2.0,-1.0,3.0,6,6,3,1,0,1,0,0.00,0.00,11.58,
18.134,242.47032633693198,269.38197824929625,-2.0,0.0,3.0,6,6,3,1,0,1,0,0.00,0.00,11.38,
18.148,242.47903263369318,269.4161978249296,-2.0,0.0,4.0,6,6,3,1,0,1,0,0.00,0.00,11.28,
18.161,242.47990326336932,269.428619782493,-2.0,0.0,4.0,6,6,3,1,0,1,0,0.00,0.00,11.28,
18.176,242.47999032633692,269.46586197824934,-2.0,0.0,4.0,6,6,3,1,0,1,0,0.00,0.00,11.38,
18.189,242.5429990326337,269.4605861978249,-2.0,0.0,4.0,6,6,3,1,0,1,0,0.00,0.00,11.38,
18.203,242.58529990326338,269.4960586197825,-2.0,0.0,4.0,6,6,3,1,0,1,0,0.00,0.00,11.48,
18.217,242.56252999032634,269.5266058619782,-2.0,0.0,4.0,6,6,3,1,0,1,0,0.00,0.00,11.48,
18.231,242.50625299903263,269.49366058619785,-2.0,0.0,3.0,6,6,3,1,0,1,0,0.00,0.00,11.58,
18.245,242.49162529990326,269.4453660586198,-2.0,0.0,4.0,6,6,3,1,0,1,0,0.00,0.00,11.58,
18.259,242.4811625299903,269.422536605862,-3.0,0.0,3.0,6,6,3,1,0,1,0,0.00,0.00,11.48,
18.273,242.54311625299903,269.40225366058615,-2.0,0.0,3.0,6,6,3,1,0,1,0,0.00,0.00,11.48,
18.287,242.5583116252999,269.3912253660586,-2.0,0.0,4.0,6,6,3,1,0,1,0,0.00,0.00,11.58,
18.3,242.56883116252996,269.3901225366059,-2.0,0.0,3.0,6,6,3,1,0,1,0,0.00,0.00,11.58,
18.315,242.551883116253,269.4080122536606,-2.0,0.0,4.0,6,6,3,1,0,1,0,0.00,0.00,11.67,
18.329,242.5231883116253,269.400801225366,-2.0,0.0,3.0,6,6,3,1,0,1,0,0.00,0.00,11.58,
18.342,242.5113188311625,269.3910801225366,-2.0,0.0,3.0,6,6,3,1,0,1,0,0.00,0.00,11.58,
18.357,242.48313188311624,269.39910801225363,-2.0,0.0,3.0,6,6,3,1,0,1,0,0.00,0.00,11.48,
18.371,242.4263131883116,269.36391080122536,-2.0,0.0,3.0,6,6,3,1,0,1,0,0.00,0.00,11.38,
18.384,242.45663131883114,269.3333910801225,-2.0,0.0,3.0,6,6,3,1,0,1,0,0.00,0.00,11.28,
18.399,242.4776631318831,269.32133910801224,-3.0,0.0,3.0,6,6,3,1,0,1,0,0.00,0.00,11.38,
18.412,242.5247663131883,269.3021339108012,-3.0,0.0,3.0,6,6,3,1,0,1,0,0.00,0.00,11.38,
18.426,242.52947663131883,269.28221339108006,-3.0,0.0,3.0,6,6,3,1,0,1,0,0.00,0.00,11.58,
18.441,242.5299476631319,269.280221339108,-3.0,0.0,3.0,6,6,3,1,0,1,0,0.00,0.00,11.58,
18.454,242.53899476631318,269.2620221339108,-2.0,0.0,4.0,6,6,3,1,0,1,0,0.00,0.00,11.58,
18.468,242.52189947663132,269.2602022133911,-2.0,0.0,4.0,6,6,3,1,0,1,0,0.00,0.00,11.58,
18.483,242.51118994766313,269.2420202213391,-2.0,0.0,3.0,6,6,3,1,0,1,0,0.00,0.00,11.67,
18.496,242.5191189947663,269.2582020221339,-2.0,0.0,4.0,6,6,3,1,0,1,0,0.00,0.00,11.67,
18.51,242.5109118994766,269.2148202022134,-2.0,0.0,3.0,6,6,3,1,0,1,0,0.00,0.00,11.77,
18.524,242.52809118994767,269.23748202022136,-2.0,0.0,4.0,6,6,3,1,0,1,0,0.00,0.00,11.77,
18.538,242.5478091189948,269.2217482020222,-3.0,0.0,3.0,6,6,3,1,0,1,0,0.00,0.00,11.77,
18.552,242.52278091189947,269.2291748202022,-2.0,0.0,4.0,6,6,3,1,0,1,0,0.00,0.00,11.87,
18.566,242.52927809118995,269.22091748202024,-2.0,0.0,4.0,6,6,3,1,0,1,0,0.00,0.00,12.07,
18.58,242.54792780911902,269.247091748202,-2.0,0.0,4.0,6,6,3,1,0,1,0,0.00,0.00,12.26,
18.594,242.5587927809119,269.2497091748202,-2.0,0.0,4.0,6,6,3,1,0,1,0,0.00,0.00,12.26,
18.608,242.5778792780912,269.23197091748204,-2.0,0.0,3.0,6,6,3,1,0,1,0,0.00,0.00,12.26,
18.622,242.5707879278091,269.2391970917482,-2.0,0.0,3.0,6,6,3,1,0,1,0,0.00,0.00,12.16,
18.635,242.5700787927809,269.2309197091748,-2.0,0.0,3.0,6,6,3,1,0,1,0,0.00,0.00,12.07,
18.65,242.5610078792781,269.2300919709175,-2.0,0.0,3.0,6,6,3,1,0,1,0,0.00,0.00,12.16,
18.664,242.58710078792782,269.23000919709176,-2.0,0.0,4.0,6,6,3,1,0,1,0,0.00,0.00,12.07,
18.677,242.6077100787928,269.2840009197092,-2.0,0.0,3.0,6,6,3,1,0,1,0,0.00,0.00,12.07,
18.692,242.57377100787926,269.2714000919709,-2.0,0.0,4.0,6,6,3,1,0,1,0,0.00,0.00,11.87,
18.706,242.57937710078792,269.2881400091971,-2.0,0.0,4.0,6,6,3,1,0,1,0,0.00,0.00,11.87,
18.719,242.5529377100788,269.3168140009197,-2.0,0.0,3.0,6,6,3,1,0,1,0,0.00,0.00,11.87,
18.734,242.55929377100787,269.3376814000919,-2.0,0.0,3.0,6,6,3,1,0,1,0,0.00,0.00,11.97,
18.747,242.56892937710077,269.3307681400092,-2.0,0.0,4.0,6,6,3,1,0,1,0,0.00,0.00,11.97,
18.761,242.54289293771006,269.31207681400093,-3.0,0.0,3.0,6,6,3,1,0,1,0,0.00,0.00,12.07,
18.776,242.56728929377098,269.3012076814001,-2.0,0.0,3.0,6,6,3,1,0,1,0,0.00,0.00,12.07,
18.789,242.5337289293771,269.32712076814,-2.0,0.0,3.0,6,6,3,1,0,1,0,0.00,0.00,12.07,
18.803,242.49437289293772,269.338712076814,-3.0,0.0,4.0,6,6,3,1,0,1,0,0.00,0.00,12.07,
18.818,242.4364372892938,269.30387120768137,-2.0,0.0,3.0,6,6,3,1,0,1,0,0.00,0.00,12.07,
18.831,242.44864372892937,269.28238712076813,-2.0,0.0,3.0,6,6,3,1,0,1,0,0.00,0.00,12.16,
18.845,242.47686437289292,269.28023871207677,-3.0,0.0,3.0,6,6,3,1,0,1,0,0.00,0.00,12.16,
18.859,242.45268643728926,269.2800238712076,-3.0,0.0,3.0,6,6,3,1,0,1,0,0.00,0.00,12.26,
18.873,242.4412686437289,269.27100238712075,-3.0,0.0,3.0,6,6,3,1,0,1,0,0.00,0.00,12.26,
18.887,242.43112686437289,269.2341002387121,-2.0,0.0,3.0,6,6,3,1,0,1,0,0.00,0.00,12.36,
18.9,242.4301126864373,269.2484100238712,-3.0,0.0,4.0,6,6,3,1,0,1,0,0.00,0.00,12.46,
18.915,242.42101126864372,269.2048410023871,-2.0,0.0,4.0,6,6,3,1,0,1,0,0.00,0.00,12.65,
18.929,242.44710112686434,269.24548410023874,-3.0,0.0,4.0,6,6,3,1,0,1,0,0.00,0.00,12.75,
18.942,242.47671011268642,269.28554841002386,-2.0,0.0,4.0,6,6,3,1,0,1,0,0.00,0.00,12.85,
18.957,242.51567101126864,269.31655484100236,-2.0,0.0,4.0,6,6,3,1,0,1,0,0.00,0.00,13.05,
18.97,242.50156710112685,269.34665548410027,-2.0,0.0,4.0,6,6,3,1,0,1,0,0.00,0.00,13.15,
18.984,242.5361567101127,269.38566554841003,-3.0,0.0,4.0,6,6,3,1,0,1,0,0.00,0.00,13.34,
18.999,242.55761567101126,269.380566554841,-2.0,0.0,4.0,6,6,3,1,0,1,0,0.00,0.00,13.44,
19.012,242.55076156710115,269.3980566554841,-2.0,0.0,4.0,6,6,3,1,0,1,0,0.00,0.00,13.73,
19.026,242.59507615671012,269.4088056655484,-2.0,0.0,4.0,6,6,3,1,0,1,0,0.00,0.00,13.73,
19.041,242.617507615671,269.4008805665548,-3.0,0.0,4.0,6,6,3,1,0,1,0,0.00,0.00,13.73,
19.054,242.6557507615671,269.3820880566555,-2.0,0.0,4.0,6,6,3,1,0,1,0,0.00,0.00,13.93,
19.068,242.63257507615668,269.38920880566553,-3.0,0.0,4.0,6,6,3,1,0,1,0,0.00,0.00,14.03,
19.082,242.65725750761567,269.38992088056654,-3.0,0.0,4.0,6,6,3,1,0,1,0,0.00,-2180.37,14.03,
19.104,242.68672575076155,269.36299208805667,-3.0,0.0,4.0,6,6,3,1,0,1,0,0.00,0.00,14.32,
19.119,242.72567257507615,269.33329920880567,-3.0,0.0,4.0,6,6,3,1,0,1,0,0.00,0.00,14.42,
19.132,242.65756725750762,269.35732992088055,-2.0,0.0,4.0,6,6,3,1,0,1,0,0.00,0.00,14.52,
19.146,242.62375672575075,269.31473299208807,-3.0,0.0,4.0,6,6,3,1,0,1,0,0.00,0.00,14.52,
19.161,242.62937567257507,269.28347329920877,-3.0,0.0,4.0,6,6,3,1,0,1,0,0.00,0.00,14.42,
19.174,242.6569375672575,269.2983473299209,-3.0,0.0,4.0,6,6,3,1,0,1,0,0.00,0.00,14.52,
19.188,242.65969375672574,269.3088347329921,-3.0,0.0,4.0,6,6,3,1,0,1,0,0.00,0.00,14.62,
19.203,242.60596937567257,269.3548834732992,-2.0,0.0,4.0,6,6,3,1,0,1,0,0.00,0.00,14.62,
19.216,242.57359693756723,269.35048834732993,-3.0,0.0,4.0,6,6,3,1,0,1,0,0.00,0.00,14.62,
19.23,242.5253596937567,269.359048834733,-3.0,0.0,4.0,6,6,3,1,0,1,0,0.00,0.00,14.62,
19.244,242.52953596937567,269.34190488347326,-3.0,0.0,4.0,6,6,3,1,0,1,0,0.00,0.00,14.62,
19.258,242.5299535969376,269.3221904883473,-3.0,0.0,4.0,6,6,3,1,0,1,0,0.00,0.00,14.62,
19.272,242.56599535969374,269.29321904883477,-3.0,0.0,4.0,6,6,3,1,0,1,0,0.00,0.00,14.52,
19.286,242.62359953596936,269.2903219048835,-3.0,0.0,4.0,6,6,3,1,0,1,0,0.00,0.00,14.62,
19.3,242.57535995359692,269.27203219048835,-3.0,0.0,4.0,6,6,3,1,0,1,0,0.00,0.00,14.72,
19.313,242.6065359953597,269.24320321904884,-3.0,0.0,4.0,6,6,3,1,0,1,0,0.00,0.00,14.72,
19.328,242.62765359953596,269.22232032190493,-3.0,0.0,4.0,6,6,3,1,0,1,0,0.00,0.00,14.91,
19.342,242.6027653599536,269.2112320321905,-3.0,0.0,4.0,6,6,3,1,0,1,0,0.00,0.00,14.81,
19.355,242.64527653599538,269.21012320321904,-3.0,0.0,4.0,6,6,3,1,0,1,0,0.00,0.00,14.81,
19.369,242.64052765359955,269.2370123203219,-3.0,0.0,4.0,6,6,3,1,0,1,0,0.00,0.00,14.62,
19.384,242.60405276535994,269.2037012320322,-3.0,0.0,4.0,6,6,3,1,0,1,0,0.00,0.00,14.62,
19.397,242.58240527653598,269.2183701232033,-3.0,0.0,4.0,6,6,3,1,0,1,0,0.00,0.00,14.52,
19.411,242.57124052765357,269.21983701232034,-2.0,0.0,4.0,6,6,3,1,0,1,0,0.00,0.00,14.62,
19.425,242.63312405276537,269.210983701232,-2.0,0.0,4.0,6,6,3,1,0,1,0,0.00,0.00,14.72,
19.439,242.62131240527654,269.2370983701232,-3.0,0.0,4.0,6,6,3,1,0,1,0,0.00,0.00,14.62,
19.453,242.63813124052766,269.2397098370123,-2.0,0.0,4.0,6,6,3,1,0,1,0,0.00,0.00,14.62,
19.467,242.63981312405275,269.23997098370126,-2.0,0.0,4.0,6,6,3,1,0,1,0,0.00,0.00,14.72,
19.481,242.63998131240527,269.23099709837015,-3.0,0.0,4.0,6,6,3,1,0,1,0,0.00,0.00,14.62,
19.495,242.65799813124053,269.212099709837,-3.0,0.0,4.0,6,6,3,1,0,1,0,0.00,0.00,14.62,
19.509,242.67779981312407,269.2282099709837,-3.0,0.0,4.0,6,6,3,1,0,1,0,0.00,0.00,14.52,
19.523,242.6887799813124,269.23882099709834,-2.0,0.0,4.0,6,6,3,1,0,1,0,0.00,0.00,14.13,
19.536,242.77087799813125,269.23088209970985,-3.0,0.0,4.0,6,6,3,1,0,1,0,0.00,0.00,14.03,
19.551,242.74308779981314,269.25708820997096,-3.0,0.0,4.0,6,6,3,1,0,1,0,0.00,0.00,14.03,
19.565,242.7313087799813,269.2507088209971,-2.0,-1.0,4.0,6,6,3,1,0,1,0,0.00,0.00,13.93,
19.578,242.6761308779981,269.2320708820997,-3.0,0.0,4.0,6,6,3,1,0,1,0,0.00,0.00,13.73,
19.593,242.71561308779982,269.21220708820994,-2.0,0.0,4.0,6,6,3,1,0,1,0,0.00,0.00,13.64,
19.607,242.68356130877999,269.210220708821,-3.0,-1.0,4.0,6,6,3,1,0,1,0,0.00,0.00,13.54,
19.62,242.680356130878,269.21902207088215,-2.0,0.0,4.0,6,6,3,1,0,1,0,0.00,0.00,13.44,
19.635,242.6800356130878,269.2379022070882,-3.0,0.0,4.0,6,6,3,1,0,1,0,0.00,0.00,13.05,
19.649,242.64400356130878,269.23079022070885,-3.0,0.0,4.0,6,6,3,1,0,1,0,0.00,0.00,12.95,
19.662,242.64940035613088,269.2480790220709,-3.0,0.0,4.0,6,6,3,1,0,1,0,0.00,0.00,12.85,
19.677,242.63194003561307,269.2048079022071,-3.0,0.0,4.0,6,6,3,1,0,1,0,0.00,0.00,12.85,
19.691,242.64819400356131,269.22748079022074,-3.0,0.0,4.0,6,6,3,1,0,1,0,0.00,0.00,12.75,
19.704,242.62281940035612,269.23874807902206,-3.0,0.0,4.0,6,6,3,1,0,1,0,0.00,0.00,12.75,
19.719,242.6112819400356,269.2128748079022,-2.0,0.0,4.0,6,6,3,1,0,1,0,0.00,0.00,12.85,
19.732,242.60112819400356,269.2102874807902,-3.0,0.0,4.0,6,6,3,1,0,1,0,0.00,0.00,12.85,
19.746,242.59111281940037,269.174028748079,-3.0,0.0,4.0,6,6,3,1,0,1,0,0.00,0.00,12.85,
19.761,242.62611128194,269.1974028748079,-3.0,0.0,4.0,6,6,3,1,0,1,0,0.00,0.00,12.85,
19.774,242.62961112819397,269.2087402874808,-3.0,0.0,4.0,6,6,3,1,0,1,0,0.00,0.00,12.95,
19.788,242.6659611128194,269.20987402874806,-3.0,0.0,4.0,6,6,3,1,0,1,0,0.00,0.00,13.05,
19.803,242.66059611128193,269.2099874028748,-3.0,0.0,4.0,6,6,3,1,0,1,0,0.00,0.00,13.24,
19.816,242.6420596111282,269.2369987402875,-3.0,0.0,4.0,6,6,3,1,0,1,0,0.00,0.00,13.34,
19.83,242.6852059611128,269.26669987402875,-3.0,0.0,4.0,6,6,3,1,0,1,0,0.00,0.00,13.34,
19.844,242.68952059611127,269.28766998740286,-3.0,0.0,4.0,6,6,3,1,0,1,0,0.00,0.00,13.54,
19.858,242.6089520596111,269.2897669987403,-3.0,0.0,4.0,6,6,3,1,0,1,0,0.00,0.00,13.93,
19.872,242.6638952059611,269.280976699874,-3.0,0.0,4.0,6,6,3,1,0,1,0,0.00,0.00,13.93,
19.886,242.6243895205961,269.2890976699874,-3.0,0.0,4.0,6,6,3,1,0,1,0,0.00,0.00,14.03,
19.9,242.6294389520596,269.2809097669987,-3.0,0.0,4.0,6,6,3,1,0,1,0,0.00,0.00,14.13,
19.913,242.64794389520597,269.3070909766999,-3.0,0.0,4.0,6,6,3,1,0,1,0,0.00,0.00,14.22,
19.928,242.6587943895206,269.24670909766996,-3.0,0.0,4.0,6,6,3,1,0,1,0,0.00,0.00,14.42,
19.942,242.69587943895206,269.231670909767,-3.0,0.0,4.0,6,6,3,1,0,1,0,0.00,0.00,14.52,
19.955,242.7535879438952,269.2571670909767,-3.0,0.0,4.0,6,6,3,1,0,1,0,0.00,0.00,14.52,
19.97,242.72335879438953,269.2597167090977,-3.0,0.0,4.0,6,6,3,1,0,1,0,0.00,0.00,14.72,
19.984,242.71133587943896,269.2419716709098,-3.0,0.0,4.0,6,6,3,1,0,1,0,0.00,0.00,14.72,
19.997,242.6831335879439,269.27619716709097,-3.0,0.0,4.0,6,6,3,1,0,1,0,0.00,0.00,14.62,
20.012,242.68931335879438,269.2526197167091,-3.0,0.0,4.0,6,6,3,1,0,1,0,0.00,0.00,14.42,
20.025,242.68993133587944,269.2232619716709,-3.0,0.0,4.0,6,6,3,1,0,1,0,0.00,0.00,14.32,
20.039,242.67199313358793,269.21132619716707,-3.0,0.0,4.0,6,6,3,1,0,1,0,0.00,0.00,14.32,
20.054,242.6971993133588,269.2371326197167,-2.0,0.0,4.0,6,6,3,1,0,1,0,0.00,0.00,14.22,
20.067,242.6817199313359,269.1947132619717,-3.0,0.0,4.0,6,6,3,1,0,1,0,0.00,0.00,14.22,
