time,pitch,roll,gyrx,gyry,gyrz,f1,f2,f3,f4,f5,f6,f7,g1,g2,g3
0.38,35.1,14.36,0.0,-1.0,0.0,0.0,0.0,0.0,0.0,0.0,0.0,0.0,0.0,0.0,0.0,
0.393,37.943999999999996,15.521,0.0,1.0,0.0,0.0,0.0,0.0,0.0,0.0,0.0,0.0,0.0,0.0,0.1,
0.406,40.4424,16.5461,-1.0,2.0,1.0,0.0,0.0,0.0,0.0,0.0,0.0,0.0,0.0,0.0,0.0,
0.419,42.60024000000001,17.404609999999998,-1.0,3.0,1.0,0.0,0.0,0.0,0.0,0.0,0.0,0.0,0.0,0.0,0.0,
0.433,44.571024,18.174461,-2.0,3.0,1.0,0.0,0.0,0.0,0.0,0.0,0.0,0.0,0.0,0.0,0.0,
0.446,46.433102399999996,18.818446100000003,-2.0,0.0,0.0,0.0,0.0,0.0,0.0,0.0,0.0,0.0,0.0,0.0,0.0,
0.459,47.70831024,19.30584461,-1.0,-3.0,-1.0,0.0,0.0,0.0,0.0,0.0,0.0,0.0,0.0,0.0,0.1,
0.473,48.77183102400001,19.750584461,-1.0,-1.0,-2.0,0.0,0.0,0.0,0.0,0.0,0.0,0.0,0.1,0.0,0.0,
0.486,49.6251831024,20.146058446100003,-2.0,0.0,-2.0,0.0,0.0,0.0,0.0,0.0,0.0,0.0,0.1,0.0,0.0,
0.498,50.34951831024,20.48260584461,-2.0,2.0,-2.0,0.0,0.0,0.0,0.0,0.0,0.0,0.0,0.0,0.0,0.0,
0.512,51.051951831024,20.777260584460997,-3.0,0.0,-2.0,0.0,0.0,0.0,0.0,0.0,0.0,0.0,0.1,0.0,0.0,
0.525,51.509195183102406,20.9147260584461,-3.0,-1.0,0.0,0.0,0.0,0.0,0.0,0.0,0.0,0.0,0.0,0.0,0.0,
0.538,51.86991951831024,21.11747260584461,-3.0,-2.0,0.0,0.0,0.0,0.0,0.0,0.0,0.0,0.0,0.1,0.0,0.0,
0.551,52.19399195183102,21.299747260584464,-3.0,0.0,0.0,0.0,0.0,0.0,0.0,0.0,0.0,0.0,0.1,0.0,0.0,
0.565,52.4963991951831,21.371974726058447,-3.0,0.0,-1.0,0.0,0.0,0.0,0.0,0.0,0.0,0.0,0.1,0.1,0.0,
0.578,52.92263991951831,21.469197472605845,-3.0,0.0,-2.0,0.0,0.0,0.0,0.0,0.0,0.0,0.0,0.1,0.0,0.0,
0.591,53.33426399195183,21.69491974726058,-3.0,-2.0,-4.0,0.0,0.0,0.0,0.0,0.0,0.0,0.0,0.1,0.0,0.0,
0.605,53.52842639919518,21.80749197472606,-3.0,-2.0,-4.0,0.0,0.0,0.0,0.0,0.0,0.0,0.0,0.0,0.0,0.0,
0.618,53.538842639919515,21.890749197472605,-3.0,0.0,-3.0,0.0,0.0,0.0,0.0,0.0,0.0,0.0,0.1,0.0,0.0,
0.631,53.809884263991954,21.98907491974726,-3.0,-1.0,-1.0,0.0,0.0,0.0,0.0,0.0,0.0,0.0,0.2,0.0,0.0,
0.645,54.223988426399195,22.142907491974725,-3.0,-3.0,0.0,0.0,0.0,0.0,0.0,0.0,0.0,0.0,0.1,0.0,0.0,
0.658,54.85039884263992,22.302290749197475,-3.0,-6.0,0.0,0.0,0.0,0.0,0.0,0.0,0.0,0.0,0.1,0.0,0.0,
0.671,55.291039884263995,22.48922907491975,-3.0,-4.0,0.0,0.0,0.0,0.0,0.0,0.0,0.0,0.0,0.1,0.0,0.0,
0.685,55.5961039884264,22.606922907491974,-4.0,0.0,0.0,0.0,0.0,0.0,0.0,0.0,0.0,0.0,0.0,0.0,0.0,
0.697,55.90561039884263,22.645692290749196,-4.0,4.0,0.0,0.0,0.0,0.0,0.0,0.0,0.0,0.0,0.2,0.0,0.0,
0.71,56.14356103988427,22.55056922907492,-4.0,1.0,0.0,0.0,0.0,0.0,0.0,0.0,0.0,0.0,0.1,0.0,0.0,
0.723,56.383356103988426,22.433056922907493,-3.0,-4.0,0.0,0.0,0.0,0.0,0.0,0.0,0.0,0.0,0.1,0.0,0.0,
0.737,56.61433561039884,22.43030569229075,-3.0,-7.0,0.0,0.0,0.0,0.0,0.0,0.0,0.0,0.0,0.1,0.0,0.0,
0.75,56.655433561039885,22.538030569229075,-4.0,-2.0,-1.0,0.0,0.0,0.0,0.0,0.0,0.0,0.0,0.1,0.0,0.1,
0.763,56.65054335610399,22.566803056922907,-4.0,3.0,-1.0,0.0,0.0,0.0,0.0,0.0,0.0,0.0,0.1,0.0,0.0,
0.777,56.749054335610396,22.524680305692293,-4.0,3.0,-1.0,0.0,0.0,0.0,0.0,0.0,0.0,0.0,0.1,0.0,0.0,
0.79,56.66890543356104,22.42146803056923,-4.0,0.0,0.0,0.0,0.0,0.0,0.0,0.0,0.0,0.0,0.1,0.0,0.0,
0.803,56.480890543356104,22.330146803056923,-3.0,-3.0,0.0,0.0,0.0,0.0,0.0,0.0,0.0,0.0,0.0,0.0,0.0,
0.817,56.5430890543356,22.312014680305694,-3.0,-3.0,0.0,0.0,0.0,0.0,0.0,0.0,0.0,0.0,0.1,0.0,0.0,
0.83,56.63030890543356,22.39120146803057,-3.0,-2.0,0.0,0.0,0.0,0.0,0.0,0.0,0.0,0.0,0.1,0.0,0.0,
0.842,56.711030890543356,22.408120146803057,-3.0,0.0,0.0,0.0,0.0,0.0,0.0,0.0,0.0,0.0,0.1,0.0,0.0,
0.856,56.863103089054334,22.364812014680304,-3.0,1.0,0.0,0.0,0.0,0.0,0.0,0.0,0.0,0.0,0.1,0.0,0.0,
0.869,56.80631030890543,22.342481201468033,-3.0,1.0,0.0,0.0,0.0,0.0,0.0,0.0,0.0,0.0,0.1,0.0,0.0,
0.882,56.78263103089054,22.421248120146803,-3.0,0.0,0.0,0.0,0.0,0.0,0.0,0.0,0.0,0.0,0.0,0.0,0.0,
0.896,56.618263103089056,22.48312481201468,-3.0,0.0,0.0,0.0,0.0,0.0,0.0,0.0,0.0,0.0,0.1,0.0,0.0,
0.909,56.60182631030891,22.597312481201467,-2.0,0.0,-1.0,0.0,0.0,0.0,0.0,0.0,0.0,0.0,0.1,0.0,0.0,
0.922,56.50118263103089,22.671731248120146,-2.0,0.0,-1.0,0.0,0.0,0.0,0.0,0.0,0.0,0.0,0.1,0.0,0.0,
0.934,56.44611826310309,22.778173124812014,-1.0,-1.0,0.0,0.0,0.0,0.0,0.0,0.0,0.0,0.0,0.1,0.0,0.0,
0.948,56.557611826310314,22.9688173124812,-1.0,0.0,0.0,0.0,0.0,0.0,0.0,0.0,0.0,0.0,0.1,0.0,0.0,
0.961,56.46976118263103,22.98788173124812,0.0,0.0,0.0,0.0,0.0,0.0,0.0,0.0,0.0,0.0,0.1,0.0,0.1,
0.974,56.307976118263106,22.98978817312481,0.0,0.0,0.0,0.0,0.0,0.0,0.0,0.0,0.0,0.0,0.1,0.0,0.0,
0.988,56.210797611826315,22.97197881731248,-1.0,0.0,0.0,0.0,0.0,0.0,0.0,0.0,0.0,0.0,0.1,0.0,0.1,
1.001,56.29107976118263,22.97919788173125,0.0,0.0,0.0,0.0,0.0,0.0,0.0,0.0,0.0,0.0,0.1,0.0,0.0,
1.013,56.26310797611826,22.934919788173126,0.0,0.0,0.0,0.0,0.0,0.0,0.0,0.0,0.0,0.0,0.1,0.0,0.0,
1.027,56.17031079761182,22.921491978817315,0.0,0.0,0.0,0.0,0.0,0.0,0.0,0.0,0.0,0.0,0.2,0.0,0.0,
1.04,56.15203107976118,22.90214919788173,0.0,1.0,0.0,0.0,0.0,0.0,0.0,0.0,0.0,0.0,0.1,0.0,0.0,
1.052,56.19520310797612,22.864214919788175,0.0,0.0,0.0,0.0,0.0,0.0,0.0,0.0,0.0,0.0,0.2,0.0,0.0,
1.065,56.172520310797616,22.779421491978816,0.0,0.0,0.0,0.0,0.0,0.0,0.0,0.0,0.0,0.0,0.2,0.0,0.1,
1.079,56.08925203107976,22.761942149197882,0.0,0.0,0.0,0.0,0.0,0.0,0.0,0.0,0.0,0.0,0.1,0.0,0.0,
1.092,55.99992520310798,22.77819421491979,-1.0,1.0,0.0,0.0,0.0,0.0,0.0,0.0,0.0,0.0,0.1,0.1,0.0,
1.104,55.9369925203108,22.689819421491976,-1.0,2.0,0.0,0.0,0.0,0.0,0.0,0.0,0.0,0.0,0.1,0.0,0.0,
1.118,55.86769925203108,22.6719819421492,-1.0,1.0,0.0,0.0,0.0,0.0,0.0,0.0,0.0,0.0,0.1,0.0,0.1,
1.131,55.73476992520311,22.57119819421492,0.0,-1.0,0.0,0.0,0.0,0.0,0.0,0.0,0.0,0.0,0.1,0.0,0.0,
1.144,55.65847699252031,22.53411981942149,0.0,-1.0,0.0,0.0,0.0,0.0,0.0,0.0,0.0,0.0,0.1,0.0,0.0,
1.158,55.677847699252034,22.65641198194215,0.0,-1.0,-1.0,0.0,0.0,0.0,0.0,0.0,0.0,0.0,0.1,0.0,0.0,
1.171,55.5807847699252,22.704641198194214,-1.0,0.0,-1.0,0.0,0.0,0.0,0.0,0.0,0.0,0.0,0.1,0.0,0.0,
1.183,55.364078476992525,22.68246411981942,-2.0,0.0,0.0,0.0,0.0,0.0,0.0,0.0,0.0,0.0,0.1,0.0,0.0,
1.197,55.23440784769925,22.662246411981943,-2.0,1.0,0.0,0.0,0.0,0.0,0.0,0.0,0.0,0.0,0.1,0.0,0.0,
1.21,55.11344078476993,22.624224641198193,-2.0,0.0,0.0,0.0,0.0,0.0,0.0,0.0,0.0,0.0,0.1,0.0,0.1,
1.223,55.092344078477,22.566422464119817,-1.0,0.0,0.0,0.0,0.0,0.0,0.0,0.0,0.0,0.0,0.1,0.0,0.0,
1.236,55.135234407847705,22.533642246411983,-1.0,-1.0,0.0,0.0,0.0,0.0,0.0,0.0,0.0,0.0,0.1,0.0,0.0,
1.25,55.28352344078476,22.494364224641195,-1.0,-3.0,-1.0,0.0,0.0,0.0,0.0,0.0,0.0,0.0,0.1,0.0,0.0,
1.263,55.559352344078484,22.53543642246412,-2.0,-4.0,-1.0,0.0,0.0,0.0,0.0,0.0,0.0,0.0,0.1,0.0,0.0,
1.276,55.70393523440785,22.62054364224641,-2.0,-2.0,-1.0,0.0,0.0,0.0,0.0,0.0,0.0,0.0,0.1,0.0,0.1,
1.29,55.74539352344079,22.69205436422464,-2.0,2.0,-1.0,0.0,0.0,0.0,0.0,0.0,0.0,0.0,0.1,0.0,0.0,
1.303,55.785539352344074,22.744205436422465,-2.0,4.0,0.0,0.0,0.0,0.0,0.0,0.0,0.0,0.0,0.2,0.0,0.0,
1.316,55.9785539352344,22.578420543642245,-2.0,1.0,0.0,0.0,0.0,0.0,0.0,0.0,0.0,0.0,0.2,0.0,0.0,
1.329,56.22285539352344,22.552842054364227,-2.0,-4.0,0.0,0.0,0.0,0.0,0.0,0.0,0.0,0.0,0.1,0.0,0.0,
1.342,56.346285539352344,22.51428420543642,-2.0,-5.0,0.0,0.0,0.0,0.0,0.0,0.0,0.0,0.0,0.1,0.0,0.0,
1.355,56.53862855393524,22.71742842054364,-1.0,-2.0,-1.0,0.0,0.0,0.0,0.0,0.0,0.0,0.0,0.1,0.0,0.0,
1.369,56.80086285539352,22.818742842054363,-2.0,2.0,-1.0,0.0,0.0,0.0,0.0,0.0,0.0,0.0,0.1,0.0,0.0,
1.382,56.917086285539355,22.828874284205437,-2.0,2.0,-1.0,0.0,0.0,0.0,0.0,0.0,0.0,0.0,0.1,0.0,0.0,
1.395,56.910708628553934,22.793887428420543,-2.0,0.0,0.0,0.0,0.0,0.0,0.0,0.0,0.0,0.0,0.1,0.0,0.0,
1.409,56.75707086285539,22.736388742842053,-2.0,-2.0,0.0,0.0,0.0,0.0,0.0,0.0,0.0,0.0,0.1,0.0,0.0,
1.422,56.70570708628554,22.77563887428421,-2.0,-1.0,0.0,0.0,0.0,0.0,0.0,0.0,0.0,0.0,0.1,0.0,0.0,
1.435,56.68257070862855,22.79756388742842,-2.0,0.0,0.0,0.0,0.0,0.0,0.0,0.0,0.0,0.0,0.1,0.0,0.0,
1.448,56.59025707086285,22.808756388742843,-3.0,2.0,0.0,0.0,0.0,0.0,0.0,0.0,0.0,0.0,0.1,0.0,0.0,
1.461,56.644025707086286,22.845875638874286,-3.0,0.0,-1.0,0.0,0.0,0.0,0.0,0.0,0.0,0.0,0.1,0.0,0.0,
1.474,56.59540257070863,22.84058756388743,-2.0,-1.0,0.0,0.0,0.0,0.0,0.0,0.0,0.0,0.0,0.1,0.0,0.0,
1.487,56.45554025707086,22.939058756388743,-2.0,-2.0,0.0,0.0,0.0,0.0,0.0,0.0,0.0,0.0,0.1,0.0,0.1,
1.501,56.33355402570709,22.948905875638875,-2.0,0.0,0.0,0.0,0.0,0.0,0.0,0.0,0.0,0.0,0.1,0.0,0.0,
1.514,56.366355402570704,23.00389058756389,-1.0,0.0,0.0,0.0,0.0,0.0,0.0,0.0,0.0,0.0,0.1,1033.19,0.0,
1.537,56.15363554025707,22.88338905875639,-2.0,2.0,0.0,0.0,0.0,0.0,0.0,0.0,0.0,0.0,0.1,0.0,0.1,
1.55,56.186363554025704,22.907338905875637,-2.0,0.0,0.0,0.0,0.0,0.0,0.0,0.0,0.0,0.0,0.2,0.0,0.1,
1.563,56.22563635540257,22.936733890587565,-2.0,-1.0,0.0,0.0,0.0,0.0,0.0,0.0,0.0,0.0,0.2,0.0,0.0,
1.575,56.37356363554026,23.092673389058756,-1.0,-1.0,0.0,0.0,0.0,0.0,0.0,0.0,0.0,0.0,0.1,0.0,0.0,
1.589,56.44235636355403,23.126267338905876,-1.0,0.0,0.0,0.0,0.0,0.0,0.0,0.0,0.0,0.0,0.1,0.0,0.0,
1.602,56.4132356363554,23.14762673389059,-1.0,-1.0,0.0,0.0,0.0,0.0,0.0,0.0,0.0,0.0,0.1,0.0,0.0,
1.615,56.32032356363554,23.122762673389058,-1.0,0.0,0.0,0.0,0.0,0.0,0.0,0.0,0.0,0.0,0.2,0.0,0.1,
1.629,56.19403235636355,23.129276267338906,-1.0,0.0,0.0,0.0,0.0,0.0,0.0,0.0,0.0,0.0,0.2,0.0,0.0,
1.642,56.10040323563636,23.111927626733888,-1.0,2.0,0.0,0.0,0.0,0.0,0.0,0.0,0.0,0.0,0.1,0.0,0.0,
1.655,55.794040323563635,23.00219276267339,-1.0,1.0,0.0,0.0,0.0,0.0,0.0,0.0,0.0,0.0,0.1,0.0,0.0,
1.677,55.59240403235636,22.84721927626734,-1.0,0.0,0.0,0.0,0.0,0.0,0.0,0.0,0.0,0.0,0.2,0.0,0.0,
1.69,55.464240403235635,22.849721927626735,-1.0,-1.0,0.0,0.0,0.0,0.0,0.0,0.0,0.0,0.0,0.1,0.0,0.0,
1.703,55.48742404032357,22.930972192762674,-1.0,-1.0,0.0,0.0,0.0,0.0,0.0,0.0,0.0,0.0,0.1,0.0,0.0,
1.717,55.35474240403236,22.885097219276265,-1.0,0.0,0.0,0.0,0.0,0.0,0.0,0.0,0.0,0.0,0.1,0.0,0.0,
1.73,55.41347424040323,22.826509721927625,0.0,-2.0,0.0,0.0,0.0,0.0,0.0,0.0,0.0,0.0,0.1,0.0,0.0,
1.743,55.581347424040324,22.829650972192763,0.0,-4.0,0.0,0.0,0.0,0.0,0.0,0.0,0.0,0.0,0.1,0.0,0.0,
1.756,55.84113474240403,22.91096509721928,-1.0,-3.0,0.0,0.0,0.0,0.0,0.0,0.0,0.0,0.0,0.1,0.0,0.0,
1.769,56.083113474240406,22.95509650972193,-2.0,0.0,0.0,0.0,0.0,0.0,0.0,0.0,0.0,0.0,0.1,0.0,0.0,
1.782,56.40431134742404,23.022509650972193,-2.0,2.0,0.0,0.0,0.0,0.0,0.0,0.0,0.0,0.0,0.0,0.0,0.0,
1.796,56.7064311347424,22.930250965097223,-2.0,2.0,0.0,0.0,0.0,0.0,0.0,0.0,0.0,0.0,0.1,0.0,0.0,
1.809,56.68264311347424,22.741025096509723,-1.0,0.0,0.0,0.0,0.0,0.0,0.0,0.0,0.0,0.0,0.1,0.0,0.0,
1.822,56.770264311347425,22.686102509650972,-1.0,-3.0,0.0,0.0,0.0,0.0,0.0,0.0,0.0,0.0,0.1,0.0,0.0,
1.836,56.81502643113474,22.797610250965096,-2.0,-2.0,0.0,0.0,0.0,0.0,0.0,0.0,0.0,0.0,0.1,0.0,0.0,
1.849,56.92750264311348,22.952761025096507,-2.0,1.0,0.0,0.0,0.0,0.0,0.0,0.0,0.0,0.0,0.1,0.0,0.0,
1.861,56.82175026431135,23.049276102509648,-3.0,5.0,0.0,0.0,0.0,0.0,0.0,0.0,0.0,0.0,0.1,0.0,0.0,
1.874,56.72117502643113,22.995927610250963,-3.0,3.0,0.0,0.0,0.0,0.0,0.0,0.0,0.0,0.0,0.1,0.0,0.1,
1.888,56.63011750264311,23.0085927610251,-2.0,0.0,0.0,0.0,0.0,0.0,0.0,0.0,0.0,0.0,0.1,0.0,0.0,
1.901,56.54001175026431,23.009859276102514,-1.0,-3.0,0.0,0.0,0.0,0.0,0.0,0.0,0.0,0.0,0.1,0.0,0.0,
1.914,56.41400117502643,23.09998592761025,-1.0,-1.0,0.0,0.0,0.0,0.0,0.0,0.0,0.0,0.0,0.1,0.0,0.0,
1.928,56.18540011750264,23.01899859276103,-2.0,1.0,-1.0,0.0,0.0,0.0,0.0,0.0,0.0,0.0,0.1,0.0,0.0,
1.941,56.05454001175026,22.965899859276103,-3.0,2.0,-1.0,0.0,0.0,0.0,0.0,0.0,0.0,0.0,0.1,0.0,0.0,
1.954,55.825454001175025,22.84358998592761,-3.0,0.0,0.0,0.0,0.0,0.0,0.0,0.0,0.0,0.0,0.2,0.0,0.0,
1.967,55.7665454001175,22.82235899859276,-2.0,-2.0,0.0,0.0,0.0,0.0,0.0,0.0,0.0,0.0,0.1,0.0,0.0,
1.98,55.77865454001176,22.928235899859278,-2.0,-3.0,0.0,0.0,0.0,0.0,0.0,0.0,0.0,0.0,0.1,0.0,0.0,
1.993,55.77986545400118,23.019823589985926,-2.0,0.0,0.0,0.0,0.0,0.0,0.0,0.0,0.0,0.0,0.1,0.0,0.0,
2.007,55.842986545400116,23.046982358998594,-2.0,1.0,-1.0,0.0,0.0,0.0,0.0,0.0,0.0,0.0,0.1,0.0,0.0,
2.02,55.94829865454001,22.99569823589986,-2.0,0.0,-1.0,0.0,0.0,0.0,0.0,0.0,0.0,0.0,0.2,0.0,0.0,
2.033,55.994829865454,22.972569823589986,-2.0,-1.0,0.0,0.0,0.0,0.0,0.0,0.0,0.0,0.0,0.1,0.0,0.0,
2.046,55.8914829865454,22.925256982359002,-2.0,-1.0,0.0,0.0,0.0,0.0,0.0,0.0,0.0,0.0,0.2,0.0,0.0,
2.06,56.06114829865454,22.9565256982359,-2.0,0.0,0.0,0.0,0.0,0.0,0.0,0.0,0.0,0.0,0.2,0.0,0.0,
2.073,56.19511482986545,22.94165256982359,-3.0,0.0,0.0,0.0,0.0,0.0,0.0,0.0,0.0,0.0,0.1,0.0,0.0,
2.086,56.226511482986545,22.91316525698236,-2.0,0.0,-1.0,0.0,0.0,0.0,0.0,0.0,0.0,0.0,0.1,0.0,0.0,
2.1,56.328651148298654,22.982316525698234,-1.0,0.0,-1.0,0.0,0.0,0.0,0.0,0.0,0.0,0.0,0.1,0.0,0.0,
2.112,56.40186511482986,23.07923165256982,-1.0,0.0,0.0,0.0,0.0,0.0,0.0,0.0,0.0,0.0,0.2,0.0,0.0,
2.125,56.52618651148299,23.14292316525698,-1.0,0.0,0.0,0.0,0.0,0.0,0.0,0.0,0.0,0.0,0.2,0.0,0.0,
2.139,56.6196186511483,23.068292316525696,-1.0,-1.0,-1.0,0.0,0.0,0.0,0.0,0.0,0.0,0.0,0.2,0.0,0.0,
2.152,56.53896186511483,23.04282923165257,-1.0,-2.0,-1.0,0.0,0.0,0.0,0.0,0.0,0.0,0.0,0.1,0.0,0.0,
2.165,56.61189618651148,23.139282923165258,-2.0,0.0,-1.0,0.0,0.0,0.0,0.0,0.0,0.0,0.0,0.0,0.0,0.0,
2.179,56.56518961865115,23.193928292316524,-2.0,4.0,0.0,0.0,0.0,0.0,0.0,0.0,0.0,0.0,0.0,0.0,0.0,
2.192,56.65051896186511,23.253392829231654,-2.0,3.0,0.0,0.0,0.0,0.0,0.0,0.0,0.0,0.0,0.1,0.0,0.0,
2.205,56.965051896186516,23.232339282923164,-1.0,0.0,-1.0,0.0,0.0,0.0,0.0,0.0,0.0,0.0,0.2,0.0,0.0,
2.219,57.077505189618655,23.18523392829232,0.0,-3.0,-2.0,0.0,0.0,0.0,0.0,0.0,0.0,0.0,0.2,0.0,0.0,
2.232,56.881750518961866,23.29752339282923,0.0,0.0,-3.0,0.0,0.0,0.0,0.0,0.0,0.0,0.0,0.2,0.0,0.1,
2.244,56.799175051896185,23.416752339282922,0.0,4.0,-3.0,0.0,0.0,0.0,0.0,0.0,0.0,0.0,0.1,0.0,0.1,
2.257,57.087917505189615,23.50967523392829,0.0,4.0,-4.0,0.0,0.0,0.0,0.0,0.0,0.0,0.0,0.2,0.0,0.1,
2.271,57.57579175051897,23.60896752339283,1.0,0.0,-6.0,0.0,0.0,0.0,0.0,0.0,0.0,0.0,0.2,0.0,0.1,
2.284,58.7135791750519,23.897896752339282,4.0,-3.0,-9.0,0.0,0.0,0.0,0.0,0.0,0.0,0.0,0.29,0.0,0.0,
2.297,60.033357917505185,24.63778967523393,8.0,-8.0,-14.0,0.0,0.0,0.0,0.0,0.0,0.0,0.0,0.39,0.0,0.0,
2.311,61.81233579175051,25.611778967523392,13.0,-6.0,-22.0,0.0,0.0,0.0,0.0,0.0,0.0,0.0,0.49,0.0,0.0,
2.324,63.69123357917505,26.672177896752338,17.0,-3.0,-26.0,0.0,0.0,0.0,0.0,0.0,0.0,0.0,0.69,0.1,0.0,
2.337,66.53412335791751,27.624217789675235,23.0,-2.0,-28.0,0.0,0.0,0.0,0.0,0.0,0.0,0.0,0.88,0.2,0.0,
2.351,68.79841233579174,28.970421778967523,34.0,-6.0,-35.0,0.0,0.0,0.0,0.0,0.0,0.0,0.0,1.08,0.29,0.0,
2.364,70.95084123357917,30.00504217789675,44.0,-10.0,-44.0,0.0,0.0,0.0,0.0,0.0,0.0,0.0,1.37,0.49,0.0,
2.377,72.63308412335792,31.611504217789676,56.0,-5.0,-58.0,0.0,0.0,0.0,0.0,0.0,0.0,0.0,2.06,0.69,0.0,
2.392,74.42130841233579,32.717150421778975,71.0,2.0,-59.0,0.0,0.0,0.0,0.0,0.0,0.0,0.0,2.45,1.08,0.1,
2.405,75.41013084123358,33.7367150421779,83.0,13.0,-61.0,0.0,0.0,0.0,0.0,0.0,0.0,0.0,2.75,1.18,0.29,
2.418,76.60701308412337,34.567671504217785,91.0,26.0,-56.0,0.0,0.0,0.0,0.0,0.0,0.0,0.0,3.04,1.37,0.29,
2.432,77.57270130841235,35.42476715042178,96.0,18.0,-49.0,0.0,0.0,0.0,0.0,0.0,0.0,0.0,3.24,1.57,0.69,
2.445,77.68727013084124,36.62647671504217,93.0,6.0,-42.0,0.0,0.0,0.0,0.0,0.0,0.0,0.0,3.43,1.96,0.78,
2.458,77.58172701308412,37.99764767150422,86.0,-5.0,-33.0,0.0,0.0,0.0,0.0,0.0,0.0,0.0,3.53,2.55,0.78,
2.471,77.23817270130841,39.39476476715042,80.0,-7.0,-20.0,0.0,0.0,0.0,0.0,0.0,0.0,0.0,3.63,2.94,0.88,
2.485,76.76281727013084,41.082476476715044,71.0,6.0,-18.0,0.0,0.0,0.0,0.0,0.0,0.0,0.0,3.73,3.04,0.88,
2.498,76.85928172701308,42.6552476476715,63.0,31.0,-19.0,0.0,0.0,0.0,0.0,0.0,0.0,0.0,3.92,3.24,0.78,
2.511,77.6249281727013,44.09052476476715,61.0,53.0,-25.0,0.0,0.0,0.0,0.0,0.0,0.0,0.0,4.32,3.34,0.78,
2.525,78.28649281727013,45.77305247647672,60.0,63.0,-29.0,0.0,0.0,0.0,0.0,0.0,0.0,0.0,4.51,3.24,0.78,
2.538,79.19864928172701,47.66030524764767,62.0,52.0,-25.0,0.0,0.0,0.0,0.0,0.0,0.0,0.0,4.71,3.04,0.69,
2.552,80.2168649281727,49.70303052476476,68.0,26.0,-22.0,0.0,0.0,0.0,0.0,0.0,0.0,0.0,4.81,2.94,0.69,
2.566,80.93968649281726,52.09430305247648,77.0,0.0,-16.0,0.0,0.0,0.0,0.0,0.0,0.0,0.0,4.81,2.84,0.69,
2.579,80.70596864928173,54.68243030524764,85.0,-17.0,-8.0,0.0,0.0,0.0,0.0,0.0,0.0,0.0,4.81,2.84,0.69,
2.592,79.54859686492819,57.60524303052476,87.0,-6.0,5.0,0.0,0.0,0.0,0.0,0.0,0.0,0.0,4.81,2.84,0.59,
2.606,78.59585968649282,59.95852430305248,86.0,23.0,23.0,0.0,0.0,0.0,0.0,0.0,0.0,0.0,4.71,2.94,0.59,
2.619,78.62658596864928,61.32785243030525,85.0,44.0,28.0,0.0,0.0,0.0,0.0,0.0,0.0,0.0,4.61,2.94,0.59,
2.632,79.13365859686493,62.328785243030524,85.0,36.0,23.0,0.0,0.0,0.0,0.0,0.0,0.0,0.0,4.51,3.04,0.59,
2.646,79.1213658596865,63.23887852430306,88.0,18.0,26.0,0.0,0.0,0.0,0.0,0.0,0.0,0.0,4.51,3.04,0.59,
2.659,79.19213658596865,63.707887852430304,93.0,9.0,38.0,0.0,0.0,0.0,0.0,0.0,0.0,0.0,4.51,2.94,0.49,
2.672,79.55021365859686,63.97078878524303,92.0,9.0,30.0,0.0,0.0,0.0,0.0,0.0,0.0,0.0,4.61,2.94,0.49,
2.685,79.82902136585967,65.1670788785243,84.0,15.0,18.0,0.0,0.0,0.0,0.0,0.0,0.0,0.0,4.51,2.94,0.59,
2.699,80.36090213658596,66.57370788785244,76.0,10.0,19.0,0.0,0.0,0.0,0.0,0.0,0.0,0.0,4.22,2.94,0.49,
2.712,80.8910902136586,67.26337078878524,75.0,1.0,27.0,0.0,0.0,0.0,0.0,0.0,0.0,0.0,4.12,2.94,0.49,
2.724,84.10310902136585,65.12733707887853,92.0,-167.0,-86.0,0.0,0.0,0.0,0.0,0.0,0.0,0.0,3.92,2.65,0.39,
2.739,81.56231090213659,66.25473370788785,59.0,-93.0,14.0,0.0,0.0,0.0,0.0,0.0,0.0,0.0,3.73,2.45,0.49,
2.752,80.30923109021366,64.62147337078879,55.0,-77.0,34.0,0.0,0.0,0.0,0.0,0.0,0.0,0.0,3.53,2.35,0.49,
2.764,81.16492310902136,64.19714733707889,48.0,-43.0,-26.0,0.0,0.0,0.0,0.0,0.0,0.0,0.0,3.43,2.16,0.59,
2.779,81.37649231090214,64.93771473370789,47.0,-32.0,11.0,0.0,0.0,0.0,0.0,0.0,0.0,0.0,3.43,2.06,0.59,
2.792,81.8836492310902,64.02177147337079,51.0,-9.0,-13.0,0.0,0.0,0.0,0.0,0.0,0.0,0.0,3.53,1.86,0.49,
2.804,82.24036492310903,63.687177147337074,38.0,2.0,34.0,0.0,0.0,0.0,0.0,0.0,0.0,0.0,3.34,1.86,0.49,
2.818,83.10403649231091,64.16671771473371,43.0,19.0,10.0,0.0,0.0,0.0,0.0,0.0,0.0,0.0,3.34,1.86,0.49,
2.831,83.22640364923109,64.55667177147336,38.0,25.0,9.0,0.0,0.0,0.0,0.0,0.0,0.0,0.0,3.24,1.86,0.49,
2.844,83.5716403649231,64.57766717714733,44.0,41.0,4.0,0.0,0.0,0.0,0.0,0.0,0.0,0.0,3.14,1.86,0.49,
2.857,83.77716403649231,63.95876671771474,37.0,41.0,-15.0,0.0,0.0,0.0,0.0,0.0,0.0,0.0,3.04,1.77,0.49,
2.871,83.43771640364923,63.30287667177147,47.0,21.0,0.0,0.0,0.0,0.0,0.0,0.0,0.0,0.0,2.94,1.67,0.59,
2.884,83.86277164036493,62.43628766717715,48.0,30.0,13.0,0.0,0.0,0.0,0.0,0.0,0.0,0.0,2.75,1.57,0.59,
2.896,83.77927716403649,61.17962876671771,51.0,48.0,40.0,0.0,0.0,0.0,0.0,0.0,0.0,0.0,2.65,1.47,0.49,
2.91,84.18492771640365,58.97496287667177,49.0,60.0,32.0,0.0,0.0,0.0,0.0,0.0,0.0,0.0,2.45,1.47,0.59,
2.923,83.60449277164037,56.78349628766718,45.0,66.0,31.0,0.0,0.0,0.0,0.0,0.0,0.0,0.0,2.26,1.37,0.39,
2.936,83.70844927716404,54.953349628766716,39.0,53.0,48.0,0.0,0.0,0.0,0.0,0.0,0.0,0.0,2.16,1.28,0.29,
2.95,83.7638449277164,53.22233496287667,35.0,19.0,18.0,0.0,0.0,0.0,0.0,0.0,0.0,0.0,1.96,1.28,0.29,
2.963,83.20238449277164,52.03223349628767,37.0,0.0,-11.0,0.0,0.0,0.0,0.0,0.0,0.0,0.0,1.77,1.18,0.29,
2.976,81.76923844927717,51.526223349628765,38.0,0.0,27.0,0.0,0.0,0.0,0.0,0.0,0.0,0.0,1.67,1.08,0.39,
2.989,80.32092384492772,49.99962233496288,39.0,16.0,50.0,0.0,0.0,0.0,0.0,0.0,0.0,0.0,1.57,0.98,0.29,
3.002,80.12209238449277,49.04596223349628,38.0,27.0,3.0,0.0,0.0,0.0,0.0,0.0,0.0,0.0,1.57,0.88,0.2,
3.015,79.35520923844928,47.87959622334963,26.0,39.0,22.0,0.0,0.0,0.0,0.0,0.0,0.0,0.0,1.47,0.78,0.2,
3.028,78.13552092384492,46.04395962233497,13.0,39.0,7.0,0.0,0.0,0.0,0.0,0.0,0.0,0.0,1.28,0.78,0.2,
3.042,76.69055209238451,44.1593959622335,3.0,29.0,-16.0,0.0,0.0,0.0,0.0,0.0,0.0,0.0,0.98,0.88,0.1,
3.055,75.24105520923845,42.854939596223346,-3.0,-1.0,-32.0,0.0,0.0,0.0,0.0,0.0,0.0,0.0,0.69,0.88,0.1,
3.068,74.55610552092385,42.97649395962234,-8.0,-28.0,-53.0,0.0,0.0,0.0,0.0,0.0,0.0,0.0,0.69,0.78,0.1,
3.082,72.73261055209238,45.38264939596223,-11.0,-54.0,37.0,0.0,0.0,0.0,0.0,0.0,0.0,0.0,0.69,0.69,0.1,
3.095,72.50526105520923,46.739264939596225,-4.0,-79.0,8.0,0.0,0.0,0.0,0.0,0.0,0.0,0.0,0.69,0.59,0.1,
3.108,71.85252610552092,47.05492649395963,-2.0,-80.0,20.0,0.0,0.0,0.0,0.0,0.0,0.0,0.0,0.69,0.59,0.2,
3.122,74.6222526105521,47.482492649395965,15.0,-106.0,-84.0,0.0,0.0,0.0,0.0,0.0,0.0,0.0,0.69,0.59,0.29,
3.135,74.61122526105521,49.5142492649396,20.0,-70.0,-70.0,0.0,0.0,0.0,0.0,0.0,0.0,0.0,0.69,1.08,0.29,
3.148,76.20312252610552,51.53542492649395,15.0,-52.0,-38.0,0.0,0.0,0.0,0.0,0.0,0.0,0.0,0.69,1.57,0.29,
3.162,78.83731225261054,53.8165424926494,27.0,-21.0,-50.0,0.0,0.0,0.0,0.0,0.0,0.0,0.0,0.59,2.45,0.39,
3.175,81.09873122526106,57.97765424926494,49.0,-2.0,-45.0,0.0,0.0,0.0,0.0,0.0,0.0,0.0,0.69,3.43,0.49,
3.188,80.50587312252611,66.5297654249265,13.0,-22.0,69.0,0.0,0.0,0.0,0.0,0.0,0.0,0.0,0.69,3.83,0.49,
3.202,83.4165873122526,67.83497654249265,5.0,-40.0,96.0,0.0,0.0,0.0,0.0,0.0,0.0,0.0,0.78,3.73,0.49,
3.215,80.96265873122525,70.42249765424926,-11.0,21.0,19.0,0.0,0.0,0.0,0.0,0.0,0.0,0.0,0.88,3.14,0.59,
3.228,80.11426587312252,66.88324976542492,2.0,191.0,45.0,0.0,0.0,0.0,0.0,0.0,0.0,0.0,0.98,2.75,0.69,
3.243,82.42342658731226,66.1153249765425,21.0,109.0,32.0,0.0,0.0,0.0,0.0,0.0,0.0,0.0,1.08,2.65,0.78,
3.256,82.29434265873124,67.32553249765425,43.0,-10.0,-5.0,0.0,0.0,0.0,0.0,0.0,0.0,0.0,1.57,2.55,0.88,
3.269,82.15543426587313,69.39955324976542,24.0,-26.0,39.0,0.0,0.0,0.0,0.0,0.0,0.0,0.0,1.86,2.35,0.98,
3.283,83.30254342658732,70.98395532497653,6.0,-12.0,-1.0,0.0,0.0,0.0,0.0,0.0,0.0,0.0,1.96,2.35,1.28,
3.297,81.83325434265873,72.95139553249766,-36.0,169.0,13.0,0.0,0.0,0.0,0.0,0.0,0.0,0.0,1.96,2.45,1.47,
3.31,91.00132543426587,69.81813955324976,-15.0,81.0,-7.0,0.0,0.0,0.0,0.0,0.0,0.0,0.0,2.06,2.55,1.37,
3.323,89.59613254342658,70.74681395532497,-3.0,8.0,15.0,0.0,0.0,0.0,0.0,0.0,0.0,0.0,1.96,2.55,1.37,
3.338,88.69061325434267,71.3526813955325,-9.0,5.0,7.0,0.0,0.0,0.0,0.0,0.0,0.0,0.0,1.96,2.55,1.37,
3.351,88.56406132543425,71.74626813955325,-7.0,0.0,-6.0,0.0,0.0,0.0,0.0,0.0,0.0,0.0,2.06,2.55,1.37,
3.364,87.84940613254342,72.30762681395534,-8.0,-8.0,-14.0,0.0,1.0,0.0,0.0,0.0,0.0,0.0,2.06,2.55,1.47,
3.378,86.58994061325434,73.39876268139552,-18.0,22.0,-13.0,0.0,0.0,0.0,0.0,0.0,0.0,0.0,2.06,2.65,1.37,
3.392,86.13999406132544,74.01187626813955,-15.0,-6.0,8.0,0.0,0.0,0.0,0.0,0.0,0.0,0.0,1.96,2.65,1.37,
3.405,86.51799940613256,73.77618762681395,-10.0,-5.0,9.0,0.0,0.0,0.0,0.0,0.0,0.0,0.0,1.96,2.75,1.47,
3.419,86.65479994061326,73.2576187626814,-10.0,-13.0,-6.0,0.0,0.0,0.0,0.0,0.0,0.0,0.0,1.96,2.84,1.37,
3.432,86.53347999406132,73.14276187626814,-8.0,-20.0,-16.0,0.0,0.0,0.0,0.0,0.0,0.0,0.0,1.86,2.75,1.18,
3.446,85.87334799940614,73.28427618762682,-5.0,-16.0,-17.0,0.0,0.0,0.0,0.0,0.0,0.0,0.0,1.77,2.16,1.08,
3.46,85.0603347999406,73.45142761876268,-6.0,0.0,0.0,0.0,0.0,0.0,0.0,0.0,0.0,0.0,1.57,1.86,0.88,
3.473,84.86203347999407,73.06314276187626,-4.0,12.0,16.0,0.0,0.0,0.0,0.0,0.0,0.0,0.0,1.47,1.77,0.69,
3.487,85.61620334799942,72.07931427618762,-1.0,10.0,13.0,0.0,0.0,0.0,0.0,0.0,0.0,0.0,1.47,1.67,0.69,
3.501,86.60062033479994,71.31493142761876,1.0,3.0,-15.0,0.0,0.0,0.0,0.0,0.0,0.0,0.0,1.37,1.67,0.69,
3.514,86.26706203347999,71.74249314276187,11.0,5.0,-22.0,0.0,0.0,0.0,0.0,0.0,0.0,0.0,1.37,1.77,0.78,
3.527,85.063706203348,73.35124931427619,0.0,11.0,-2.0,0.0,0.0,0.0,0.0,0.0,0.0,0.0,1.28,1.96,0.78,
3.54,85.69037062033482,73.38612493142762,5.0,4.0,0.0,0.0,0.0,0.0,0.0,0.0,0.0,0.0,1.18,2.35,0.98,
3.554,85.52803706203349,73.65061249314277,2.0,5.0,-2.0,0.0,0.0,0.0,0.0,0.0,0.0,0.0,1.08,3.04,1.08,
3.567,85.80880370620335,73.39806124931428,1.0,3.0,2.0,0.0,0.0,0.0,0.0,0.0,0.0,0.0,1.08,4.22,1.18,
3.58,85.64788037062033,73.62480612493144,0.0,6.0,0.0,0.0,0.0,0.0,0.0,0.0,0.0,0.0,1.08,4.71,1.28,
3.594,85.53278803706203,73.95348061249314,-1.0,5.0,3.0,0.0,0.0,0.0,0.0,0.0,0.0,0.0,0.88,5.0,1.47,
3.607,85.7192788037062,73.99534806124932,-1.0,4.0,6.0,0.0,0.0,0.0,0.0,0.0,0.0,0.0,0.88,5.2,1.57,
3.621,86.02592788037063,73.81953480612493,-1.0,3.0,3.0,0.0,0.0,0.0,0.0,0.0,0.0,0.0,0.88,5.4,1.67,
3.635,86.31759278803706,73.6669534806125,0.0,1.0,-3.0,0.0,1.0,0.0,0.0,0.0,0.0,0.0,0.88,6.08,1.67,
3.648,86.3287592788037,73.66069534806124,0.0,3.0,-5.0,0.0,1.0,0.0,0.0,0.0,0.0,0.0,0.88,6.47,1.77,
3.661,86.13187592788036,73.79506953480612,-1.0,4.0,-3.0,0.0,1.0,0.0,0.0,0.0,0.0,0.0,0.88,6.97,2.06,
3.675,85.99518759278804,73.85350695348062,-1.0,4.0,-1.0,0.0,1.0,0.0,0.0,0.0,0.0,0.0,0.88,7.65,2.06,
3.688,86.03551875927882,73.89535069534807,-2.0,5.0,-1.0,0.0,1.0,0.0,0.0,0.0,0.0,0.0,0.88,8.14,1.96,
3.701,86.14755187592787,73.8905350695348,-1.0,4.0,0.0,0.0,1.0,0.0,0.0,0.0,0.0,0.0,0.98,9.12,2.06,
3.715,86.2937551875928,73.90805350695348,0.0,4.0,-1.0,0.0,1.0,0.0,0.0,0.0,0.0,0.0,0.88,9.61,2.06,
3.728,86.38937551875928,73.90080535069535,-1.0,3.0,-1.0,0.0,1.0,0.0,0.0,0.0,0.0,0.0,0.98,10.01,2.16,
3.742,86.46193755187593,73.90908053506953,0.0,4.0,0.0,0.0,1.0,0.0,0.0,0.0,0.0,0.0,0.98,10.3,2.26,
3.756,86.4511937551876,73.90990805350695,0.0,4.0,-2.0,0.0,1.0,0.0,0.0,0.0,0.0,0.0,0.98,10.89,2.26,
3.769,86.74711937551876,74.47699080535071,-2.0,4.0,-5.0,0.0,1.0,0.0,0.0,0.0,0.0,0.0,0.88,11.28,2.35,
3.782,86.84871193755188,74.65969908053508,-1.0,3.0,-2.0,0.0,1.0,0.0,0.0,0.0,0.0,0.0,0.88,11.77,2.35,
3.796,86.87687119375518,74.7319699080535,-1.0,0.0,-3.0,0.0,1.0,0.0,0.0,0.0,0.0,0.0,0.88,12.36,2.45,
3.81,86.81668711937552,74.72119699080535,-2.0,2.0,0.0,0.0,1.0,0.0,0.0,0.0,0.0,0.0,0.78,12.95,2.45,
3.823,86.74766871193755,74.60311969908054,-2.0,3.0,0.0,0.0,1.0,0.0,0.0,0.0,0.0,0.0,0.88,13.83,2.45,
3.837,86.79476687119376,74.46531196990806,-2.0,4.0,0.0,0.0,1.0,0.0,0.0,0.0,0.0,0.0,0.98,14.13,2.55,
3.851,86.84447668711937,74.39753119699081,-1.0,4.0,-1.0,0.0,1.0,1.0,0.0,0.0,0.0,0.0,0.98,14.42,2.45,
3.864,86.93044766871193,74.45375311969907,-1.0,4.0,0.0,0.0,1.0,1.0,0.0,0.0,0.0,0.0,0.88,14.52,2.55,
3.878,87.1190447668712,74.40537531196992,-1.0,2.0,0.0,0.0,1.0,1.0,0.0,0.0,0.0,0.0,0.88,15.01,2.45,
3.892,87.17390447668713,74.346537531197,-1.0,3.0,0.0,0.0,1.0,1.0,0.0,0.0,0.0,0.0,0.98,15.5,2.45,
3.905,87.15239044766871,74.29565375311971,-1.0,1.0,0.0,0.0,1.0,1.0,0.0,0.0,0.0,0.0,0.88,15.89,2.55,
3.918,87.22223904476688,74.24556537531197,-1.0,1.0,-1.0,0.0,1.0,1.0,0.0,0.0,0.0,0.0,0.78,16.28,2.55,
3.933,87.29222390447669,74.19555653753119,0.0,0.0,-2.0,0.0,1.0,1.0,0.0,0.0,0.0,0.0,0.69,16.87,2.55,
3.946,87.23622239044767,74.25355565375312,0.0,1.0,-1.0,0.0,1.0,1.0,0.0,0.0,0.0,0.0,0.69,16.97,2.65,
3.959,87.25762223904476,74.29535556537532,-1.0,0.0,0.0,0.0,1.0,1.0,0.0,0.0,0.0,0.0,0.69,16.97,2.55,
3.973,87.31376222390446,74.29953555653753,-1.0,0.0,0.0,0.0,1.0,1.0,0.0,0.0,0.0,0.0,0.59,17.17,2.65,
3.987,87.49937622239045,74.34495355565375,-1.0,-1.0,0.0,0.0,1.0,1.0,0.0,0.0,0.0,0.0,0.59,17.36,2.65,
4.0,87.46393762223904,74.38549535556538,-1.0,-1.0,0.0,0.0,1.0,1.0,0.0,0.0,0.0,0.0,0.59,17.85,2.65,
4.014,87.27139376222391,74.44354953555654,-1.0,0.0,1.0,0.0,1.0,1.0,0.0,0.0,0.0,0.0,0.69,18.15,2.65,
4.028,87.20713937622239,74.45835495355564,-1.0,0.0,0.0,0.0,1.0,1.0,0.0,0.0,0.0,0.0,0.59,18.34,2.65,
4.041,87.24571393762224,74.47783549535558,-1.0,1.0,0.0,0.0,1.0,1.0,0.0,0.0,0.0,0.0,0.59,18.54,2.65,
4.055,87.33957139376221,74.40778354953557,0.0,-1.0,0.0,0.0,1.0,1.0,0.0,0.0,0.0,0.0,0.59,19.42,2.75,
4.069,87.32195713937621,74.54477835495355,0.0,-1.0,-1.0,0.0,1.0,1.0,0.0,0.0,0.0,0.0,0.59,19.91,2.75,
4.082,87.31119571393762,74.54947783549535,0.0,-1.0,1.0,0.0,1.0,1.0,0.0,0.0,0.0,0.0,0.49,20.7,2.84,
4.096,87.22911957139377,74.51394778354954,0.0,-1.0,0.0,0.0,1.0,1.0,0.0,0.0,0.0,0.0,0.49,21.58,2.84,
4.109,87.16691195713938,74.54639477835495,0.0,-3.0,0.0,1.0,1.0,1.0,0.0,0.0,0.0,0.0,0.39,22.46,2.84,
4.123,87.14269119571394,74.5856394778355,0.0,-2.0,0.0,1.0,1.0,1.0,0.0,0.0,0.0,0.0,0.39,24.03,2.84,
4.136,87.0952691195714,74.58056394778355,0.0,-2.0,0.0,1.0,1.0,1.0,0.0,0.0,0.0,0.0,0.29,24.43,2.94,
4.15,87.03652691195714,74.55305639477835,0.0,-2.0,0.0,1.0,2.0,1.0,0.0,0.0,0.0,0.0,0.29,24.62,2.84,
4.164,86.98565269119572,74.58630563947783,0.0,-1.0,-2.0,1.0,2.0,1.0,0.0,0.0,0.0,0.0,0.29,24.52,2.84,
4.177,86.97156526911957,74.58963056394778,0.0,-1.0,-2.0,1.0,2.0,1.0,0.0,0.0,0.0,0.0,0.29,23.74,2.84,
4.191,87.02415652691195,74.71596305639478,0.0,0.0,-1.0,1.0,2.0,1.0,0.0,0.0,0.0,0.0,0.2,23.45,2.94,
4.205,87.05641565269119,74.78259630563949,-1.0,-2.0,-2.0,1.0,2.0,1.0,0.0,0.0,0.0,0.0,0.2,23.45,2.84,
4.218,86.95164156526911,74.78025963056396,-2.0,0.0,-5.0,1.0,2.0,1.0,0.0,0.0,0.0,0.0,0.29,23.74,2.84,
4.232,86.95016415652692,74.7890259630564,-6.0,1.0,-13.0,1.0,1.0,1.0,0.0,0.0,0.0,0.0,0.29,25.02,2.94,
4.246,86.9050164156527,75.02390259630565,-9.0,-1.0,-7.0,1.0,1.0,1.0,0.0,0.0,0.0,0.0,0.29,26.0,2.84,
4.259,86.88250164156526,74.88539025963057,-11.0,0.0,-1.0,0.0,1.0,1.0,0.0,0.0,0.0,0.0,0.39,27.47,2.45,
4.274,86.97025016415654,74.77253902596306,-10.0,-1.0,-2.0,0.0,1.0,1.0,0.0,0.0,0.0,0.0,0.59,29.04,2.26,
4.287,86.99702501641565,74.5812539025963,-11.0,0.0,-3.0,0.0,1.0,1.0,0.0,0.0,0.0,0.0,0.59,31.98,2.06,
4.301,87.14370250164157,74.48112539025962,-12.0,-1.0,-7.0,0.0,1.0,1.0,0.0,0.0,0.0,0.0,0.69,33.06,1.86,
4.315,87.18537025016415,74.45311253902597,-14.0,-1.0,-7.0,0.0,1.0,0.0,0.0,0.0,0.0,0.0,0.69,34.34,1.47,
4.329,87.18953702501642,74.39631125390261,-15.0,-3.0,-4.0,0.0,1.0,0.0,0.0,0.0,0.0,0.0,0.59,35.71,1.28,
4.342,87.03695370250163,74.10263112539026,-14.0,-2.0,-3.0,0.0,1.0,0.0,0.0,0.0,0.0,0.0,0.59,37.38,0.98,
4.357,86.93169537025017,73.63226311253902,-11.0,-1.0,-3.0,0.0,1.0,0.0,0.0,0.0,0.0,0.0,0.49,40.22,0.78,
4.37,87.01116953702501,73.4502263112539,-5.0,1.0,-2.0,0.0,1.0,0.0,0.0,0.0,0.0,0.0,0.59,41.1,0.59,
4.383,87.0731169537025,73.31502263112539,-5.0,-1.0,-4.0,0.0,1.0,0.0,0.0,0.0,0.0,0.0,0.39,41.69,0.39,
4.398,87.06131169537025,73.09450226311253,-4.0,0.0,-2.0,0.0,1.0,0.0,0.0,0.0,0.0,0.0,0.39,41.99,0.39,
4.411,87.08713116953703,72.98245022631126,-3.0,0.0,-1.0,0.0,1.0,0.0,0.0,0.0,0.0,0.0,0.29,42.08,0.29,
4.424,87.04471311695372,72.97124502263112,-2.0,0.0,-2.0,0.0,1.0,0.0,0.0,0.0,0.0,0.0,0.29,41.99,0.29,
4.438,87.00447131169537,72.96112450226312,-2.0,0.0,-2.0,0.0,1.0,0.0,0.0,0.0,0.0,0.0,0.29,41.79,0.39,
4.451,87.05444713116954,73.05011245022632,-3.0,0.0,-4.0,0.0,1.0,0.0,0.0,0.0,0.0,0.0,0.29,41.69,0.29,
4.465,86.99644471311694,73.05001124502263,-3.0,-1.0,-3.0,0.0,1.0,0.0,0.0,0.0,0.0,0.0,0.2,41.89,0.39,
4.478,87.07164447131169,72.93300112450225,-2.0,-3.0,-4.0,0.0,1.0,0.0,0.0,0.0,0.0,0.0,0.2,42.08,0.39,
4.492,87.04316444713118,72.90330011245024,0.0,-4.0,-5.0,0.0,1.0,0.0,0.0,0.0,0.0,0.0,0.2,42.38,0.39,
4.506,86.97731644471311,72.87333001124503,-1.0,-2.0,-5.0,0.0,1.0,0.0,0.0,0.0,0.0,0.0,0.2,42.48,0.39,
4.519,87.1147316444713,73.0323330011245,-3.0,-4.0,-7.0,0.0,1.0,0.0,0.0,0.0,0.0,0.0,0.2,42.38,0.39,
4.533,87.11047316444713,73.18323330011246,-5.0,-4.0,-8.0,0.0,0.0,0.0,0.0,0.0,0.0,0.0,0.1,42.87,0.39,
4.547,87.1010473164447,73.04532333001124,-6.0,-8.0,-8.0,0.0,0.0,0.0,0.0,0.0,0.0,0.0,0.0,43.56,0.29,
4.56,86.68610473164446,72.88753233300113,-6.0,-9.0,-10.0,0.0,0.0,0.0,0.0,0.0,0.0,0.0,0.0,44.34,0.2,
4.574,86.68061047316446,73.09675323330012,-3.0,-6.0,-8.0,0.0,0.0,0.0,0.0,0.0,0.0,0.0,0.0,44.93,0.2,
4.588,86.77006104731645,73.15367532333,0.0,-1.0,-2.0,0.0,0.0,0.0,0.0,0.0,0.0,0.0,0.0,45.42,0.1,
4.601,86.87800610473165,73.13236753233299,-1.0,-1.0,-2.0,0.0,0.0,0.0,0.0,0.0,0.0,0.0,0.0,45.32,0.1,
4.615,86.99680061047317,73.2022367532333,-2.0,-2.0,-3.0,0.0,0.0,0.0,0.0,0.0,0.0,0.0,0.0,45.13,0.1,
4.629,86.81968006104732,73.11922367532334,-2.0,-3.0,-5.0,0.0,0.0,0.0,0.0,0.0,0.0,0.0,0.0,45.22,0.1,
4.642,86.61296800610474,72.88592236753233,0.0,-5.0,-7.0,0.0,0.0,0.0,0.0,0.0,0.0,0.0,0.0,45.62,0.0,
4.656,86.49329680061048,72.79959223675324,1.0,-4.0,-7.0,0.0,0.0,0.0,0.0,0.0,0.0,0.0,0.0,45.71,0.0,
4.669,86.63432968006106,72.83595922367533,1.0,-4.0,-8.0,0.0,0.0,0.0,0.0,0.0,0.0,0.0,0.0,45.42,0.1,
4.683,86.79243296800611,72.99259592236754,3.0,-1.0,-2.0,0.0,0.0,0.0,0.0,0.0,0.0,0.0,0.0,45.03,0.1,
4.697,86.66424329680062,73.17925959223676,2.0,0.0,0.0,0.0,0.0,0.0,0.0,0.0,0.0,0.0,0.0,44.44,0.1,
4.71,86.53442432968005,73.20692595922367,2.0,0.0,2.0,0.0,0.0,0.0,0.0,0.0,0.0,0.0,0.0,43.36,0.2,
4.723,86.467442432968,73.17369259592238,3.0,0.0,0.0,0.0,0.0,0.0,0.0,0.0,0.0,0.0,0.0,42.67,0.29,
4.737,86.4427442432968,73.24236925959224,4.0,1.0,2.0,0.0,0.0,0.0,0.0,0.0,0.0,0.0,0.0,41.89,0.49,
4.75,86.37727442432968,73.24923692595922,6.0,1.0,3.0,0.0,1.0,0.0,0.0,0.0,0.0,0.0,0.0,40.91,0.59,
4.764,86.33472744243296,73.26792369259591,8.0,1.0,3.0,0.0,1.0,0.0,0.0,0.0,0.0,0.0,0.1,39.83,0.78,
4.777,86.27647274424329,73.4137923692596,8.0,0.0,4.0,0.0,1.0,0.0,0.0,0.0,0.0,0.0,0.2,37.08,0.98,
4.791,86.33364727442434,73.77037923692596,7.0,0.0,7.0,0.0,1.0,1.0,0.0,0.0,0.0,0.0,0.2,35.51,1.28,
4.804,86.34836472744243,74.0670379236926,5.0,0.0,14.0,0.0,1.0,1.0,0.0,0.0,0.0,0.0,0.29,33.84,1.57,
4.817,86.35883647274424,74.11470379236927,5.0,0.0,15.0,0.0,1.0,1.0,0.0,0.0,0.0,0.0,0.29,32.08,1.77,
4.832,86.50388364727442,74.04747037923694,4.0,0.0,10.0,1.0,1.0,1.0,0.0,0.0,0.0,0.0,0.39,28.65,1.86,
4.845,86.54538836472744,74.1577470379237,3.0,-2.0,7.0,1.0,1.0,1.0,0.0,0.0,0.0,0.0,0.69,27.08,1.96,
4.858,86.62153883647274,74.24077470379237,1.0,-3.0,6.0,1.0,1.0,1.0,0.0,0.0,0.0,0.0,0.88,25.51,2.16,
4.873,86.60215388364728,74.44707747037923,0.0,-4.0,6.0,1.0,2.0,1.0,0.0,0.0,0.0,0.0,0.98,24.23,2.16,
4.886,86.44721538836473,74.47670774703793,0.0,-4.0,6.0,1.0,2.0,1.0,0.0,0.0,0.0,0.0,1.08,23.15,2.26,
4.899,86.41372153883648,74.5516707747038,0.0,-3.0,3.0,1.0,2.0,1.0,0.0,0.0,0.0,0.0,1.18,21.88,2.26,
4.913,86.38337215388366,74.62216707747038,0.0,-1.0,3.0,1.0,2.0,1.0,0.0,0.0,0.0,0.0,1.18,21.48,2.26,
4.927,86.39833721538837,74.64721670774703,0.0,-1.0,2.0,1.0,2.0,1.0,0.0,0.0,0.0,0.0,1.18,21.19,2.26,
4.94,86.36383372153884,74.64072167077471,0.0,-2.0,1.0,1.0,2.0,1.0,0.0,0.0,0.0,0.0,1.18,20.9,2.26,
4.954,86.29738337215389,74.74807216707748,0.0,0.0,1.0,1.0,2.0,1.0,0.0,0.0,0.0,0.0,1.18,20.6,2.26,
4.967,86.29073833721539,74.70480721670775,0.0,0.0,1.0,1.0,2.0,1.0,0.0,0.0,0.0,0.0,1.08,20.6,2.26,
4.981,86.20907383372153,74.71848072167077,0.0,0.0,2.0,1.0,2.0,1.0,0.0,0.0,0.0,0.0,0.98,20.6,2.26,
4.995,86.17390738337215,74.63884807216708,0.0,-1.0,0.0,1.0,2.0,1.0,0.0,0.0,0.0,0.0,0.88,20.6,2.26,
5.008,86.17939073833722,74.6308848072167,0.0,0.0,0.0,1.0,2.0,1.0,0.0,0.0,0.0,0.0,0.88,20.5,2.26,
5.021,86.13493907383372,74.71108848072167,0.0,0.0,0.0,1.0,2.0,1.0,0.0,0.0,0.0,0.0,0.78,20.21,2.26,
5.035,86.04049390738338,74.76410884807215,0.0,0.0,0.0,1.0,2.0,1.0,0.0,0.0,0.0,0.0,0.69,20.01,2.26,
5.048,86.04004939073835,74.7964108848072,0.0,0.0,0.0,1.0,2.0,1.0,0.0,0.0,0.0,0.0,0.69,19.91,2.26,
5.062,85.96800493907382,74.88064108848071,-1.0,0.0,0.0,1.0,2.0,1.0,0.0,0.0,0.0,0.0,0.59,20.01,2.26,
5.075,86.00580049390739,74.96106410884806,0.0,0.0,-1.0,1.0,2.0,1.0,0.0,0.0,0.0,0.0,0.59,20.01,2.26,
5.089,85.94658004939075,75.06810641088481,-1.0,0.0,0.0,1.0,2.0,1.0,0.0,0.0,0.0,0.0,0.69,20.21,2.35,
5.102,85.85965800493908,75.06981064108848,-1.0,0.0,0.0,1.0,2.0,1.0,0.0,0.0,0.0,0.0,0.59,20.21,2.26,
5.116,85.80596580049391,75.05198106410884,-1.0,0.0,0.0,1.0,2.0,1.0,0.0,0.0,0.0,0.0,0.59,20.31,2.26,
5.13,85.70159658004938,75.05019810641089,-1.0,0.0,0.0,1.0,2.0,1.0,0.0,0.0,0.0,0.0,0.59,20.4,2.26,
5.143,85.68215965800495,75.05001981064109,-1.0,0.0,0.0,1.0,2.0,1.0,0.0,0.0,0.0,0.0,0.49,20.5,2.16,
5.156,85.73421596580049,75.03200198106411,-2.0,0.0,0.0,1.0,2.0,1.0,0.0,0.0,0.0,0.0,0.49,20.5,2.26,
5.171,85.73942159658004,74.99420019810641,-2.0,0.0,0.0,1.0,2.0,1.0,0.0,0.0,0.0,0.0,0.49,20.7,2.35,
5.184,85.802942159658,74.97242001981064,-2.0,0.0,0.0,1.0,2.0,1.0,0.0,0.0,0.0,0.0,0.39,20.8,2.26,
5.197,85.8272942159658,74.99724200198106,-2.0,0.0,0.0,1.0,2.0,1.0,0.0,0.0,0.0,0.0,0.39,20.9,2.26,
5.212,85.78472942159658,75.0627242001981,-2.0,0.0,0.0,1.0,2.0,1.0,0.0,0.0,0.0,0.0,0.49,20.99,2.26,
5.225,85.78947294215968,75.03327242001981,-2.0,0.0,0.0,1.0,2.0,1.0,0.0,0.0,0.0,0.0,0.49,20.99,2.26,
5.238,85.79894729421596,75.02132724200197,-2.0,0.0,0.0,1.0,2.0,1.0,0.0,0.0,0.0,0.0,0.49,21.09,2.26,
5.252,85.7998947294216,75.0021327242002,-2.0,0.0,0.0,1.0,2.0,1.0,0.0,0.0,0.0,0.0,0.39,21.09,2.16,
5.266,85.82698947294216,75.06321327242001,-2.0,0.0,0.0,1.0,2.0,1.0,0.0,0.0,0.0,0.0,0.29,21.09,2.16,
5.279,85.84769894729422,75.06032132724201,-2.0,0.0,0.0,1.0,2.0,1.0,0.0,0.0,0.0,0.0,0.2,21.09,2.16,
5.293,85.84976989472942,75.0600321327242,-2.0,0.0,0.0,1.0,2.0,1.0,0.0,0.0,0.0,0.0,0.29,20.9,2.16,
5.307,85.86797698947294,75.06900321327242,-2.0,0.0,0.0,1.0,2.0,1.0,0.0,0.0,0.0,0.0,0.29,20.9,2.35,
5.32,85.8247976989473,75.03390032132724,-2.0,0.0,-1.0,1.0,2.0,1.0,0.0,0.0,0.0,0.0,0.29,20.9,2.35,
5.334,85.84747976989473,75.03039003213273,-2.0,0.0,-1.0,1.0,2.0,1.0,0.0,0.0,0.0,0.0,0.2,20.9,2.26,
5.348,85.84974797698948,75.07503900321328,-2.0,0.0,-1.0,1.0,2.0,1.0,0.0,0.0,0.0,0.0,0.2,20.9,2.26,
5.361,85.87697479769895,75.09750390032133,-2.0,0.0,0.0,1.0,2.0,1.0,0.0,0.0,0.0,0.0,0.2,20.99,2.26,
5.374,85.90669747976989,75.11775039003214,-2.0,0.0,-1.0,1.0,2.0,1.0,0.0,0.0,0.0,0.0,0.29,20.99,2.16,
5.389,85.86466974797699,75.05677503900321,-2.0,0.0,0.0,1.0,2.0,1.0,0.0,0.0,0.0,0.0,0.29,20.99,2.16,
5.402,85.8694669747977,75.07767750390032,-2.0,0.0,-1.0,1.0,2.0,1.0,0.0,0.0,0.0,0.0,0.2,20.99,2.26,
5.415,85.95094669747976,75.07976775039003,-2.0,0.0,-1.0,1.0,2.0,1.0,0.0,0.0,0.0,0.0,0.2,20.9,2.26,
5.43,85.97709466974798,75.097976775039,-2.0,0.0,0.0,1.0,2.0,1.0,0.0,0.0,0.0,0.0,0.2,20.8,2.26,
5.443,86.0247094669748,75.0997976775039,-2.0,0.0,0.0,1.0,2.0,1.0,0.0,0.0,0.0,0.0,0.29,20.7,2.16,
5.456,86.07447094669747,75.0819797677504,-2.0,0.0,0.0,1.0,2.0,1.0,0.0,0.0,0.0,0.0,0.29,20.7,2.16,
5.47,86.12444709466975,75.10719797677504,-2.0,0.0,0.0,1.0,2.0,1.0,0.0,0.0,0.0,0.0,0.29,20.6,2.16,
5.484,86.09344470946698,75.14571979767751,-2.0,0.0,-1.0,1.0,2.0,1.0,0.0,0.0,0.0,0.0,0.2,20.6,2.16,
5.497,86.0903444709467,75.13157197976776,-2.0,0.0,-1.0,1.0,2.0,1.0,0.0,0.0,0.0,0.0,0.2,20.5,2.16,
5.511,86.08103444709467,75.08515719797677,-2.0,0.0,0.0,1.0,2.0,1.0,0.0,0.0,0.0,0.0,0.29,20.4,2.16,
5.525,86.15210344470947,75.07151571979767,-2.0,0.0,0.0,1.0,2.0,1.0,0.0,0.0,0.0,0.0,0.2,20.21,2.26,
5.538,86.18621034447094,75.12415157197977,-1.0,0.0,0.0,1.0,2.0,1.0,0.0,0.0,0.0,0.0,0.2,20.01,2.16,
5.552,86.22562103444709,75.12941515719798,-1.0,0.0,0.0,1.0,2.0,1.0,0.0,0.0,0.0,0.0,0.29,19.91,2.16,
5.565,86.2385621034447,75.1209415157198,-1.0,0.0,0.0,1.0,2.0,1.0,0.0,0.0,0.0,0.0,0.29,19.82,2.16,
5.579,86.23985621034447,75.08409415157197,-1.0,0.0,0.0,1.0,2.0,1.0,0.0,0.0,0.0,0.0,0.29,19.72,2.26,
5.593,86.21298562103445,75.09840941515719,-1.0,0.0,-1.0,1.0,2.0,1.0,0.0,0.0,0.0,0.0,0.29,19.52,2.26,
5.606,86.15629856210346,75.11784094151572,-1.0,0.0,-1.0,1.0,2.0,1.0,0.0,0.0,0.0,0.0,0.2,19.42,2.26,
5.62,86.13262985621034,75.16478409415157,-2.0,0.0,0.0,1.0,2.0,1.0,0.0,0.0,0.0,0.0,0.2,19.33,2.16,
5.634,86.18426298562103,75.19647840941516,-1.0,0.0,0.0,1.0,2.0,1.0,0.0,0.0,0.0,0.0,0.29,19.33,2.16,
5.647,86.2074262985621,75.21764784094152,-1.0,0.0,0.0,1.0,2.0,1.0,0.0,0.0,0.0,0.0,0.29,19.23,2.26,
5.66,86.26374262985621,75.20176478409415,-1.0,0.0,0.0,1.0,2.0,1.0,0.0,0.0,0.0,0.0,0.2,19.23,2.26,
5.675,86.17937426298562,75.20017647840942,-1.0,0.0,0.0,1.0,2.0,1.0,0.0,0.0,0.0,0.0,0.39,19.03,2.26,
5.688,86.15293742629856,75.21801764784095,-1.0,0.0,0.0,1.0,2.0,1.0,0.0,0.0,0.0,0.0,0.29,18.93,2.26,
5.701,86.17729374262987,75.25580176478411,-1.0,0.0,-1.0,1.0,2.0,1.0,0.0,0.0,0.0,0.0,0.29,18.84,2.26,
5.715,86.21572937426299,75.23258017647842,-1.0,0.0,0.0,1.0,2.0,1.0,0.0,0.0,0.0,0.0,0.29,18.74,2.26,
5.729,86.21957293742629,75.24825801764786,-1.0,0.0,0.0,1.0,2.0,1.0,0.0,0.0,0.0,0.0,0.29,18.64,2.26,
5.742,86.24695729374262,75.26782580176479,-1.0,0.0,0.0,1.0,2.0,1.0,0.0,0.0,0.0,0.0,0.39,18.54,2.26,
5.755,86.23169572937427,75.27878258017648,-1.0,0.0,-1.0,1.0,2.0,1.0,0.0,0.0,0.0,0.0,0.39,18.54,2.35,
5.77,86.23016957293743,75.28887825801766,-1.0,0.0,-1.0,1.0,2.0,1.0,0.0,0.0,0.0,0.0,0.39,18.44,2.35,
5.783,86.21201695729374,75.31688782580176,-1.0,0.0,-1.0,1.0,2.0,1.0,0.0,0.0,0.0,0.0,0.39,18.34,2.26,
5.796,86.21920169572937,75.31968878258017,-1.0,0.0,-1.0,1.0,2.0,1.0,0.0,0.0,0.0,0.0,0.39,18.05,2.35,
5.811,86.22892016957293,75.35596887825801,-1.0,0.0,-1.0,1.0,2.0,1.0,0.0,0.0,0.0,0.0,0.29,17.95,2.35,
5.824,86.2298920169573,75.36859688782582,-2.0,0.0,0.0,1.0,2.0,1.0,0.0,0.0,0.0,0.0,0.39,17.85,2.35,
5.837,86.26598920169573,75.4238596887826,-1.0,0.0,-1.0,1.0,2.0,1.0,0.0,0.0,0.0,0.0,0.49,17.85,2.35,
5.852,86.19759892016957,75.50138596887827,-1.0,0.0,-1.0,1.0,2.0,1.0,0.0,0.0,0.0,0.0,0.49,17.66,2.35,
5.865,86.10075989201697,75.49113859688782,-2.0,0.0,-1.0,1.0,2.0,1.0,0.0,0.0,0.0,0.0,0.59,17.56,2.35,
5.879,86.0910759892017,75.48111385968878,-2.0,0.0,-1.0,1.0,2.0,1.0,0.0,0.0,0.0,0.0,0.59,17.46,2.35,
5.893,86.20710759892017,75.48911138596888,-2.0,0.0,-1.0,1.0,2.0,1.0,0.0,0.0,0.0,0.0,0.59,17.36,2.45,
5.906,86.20071075989202,75.4809111385969,-2.0,0.0,-1.0,1.0,2.0,1.0,0.0,0.0,0.0,0.0,0.69,17.36,2.45,
5.92,86.2540710759892,75.45309111385968,-2.0,0.0,-2.0,1.0,2.0,1.0,0.0,0.0,0.0,0.0,0.78,17.46,2.45,
5.934,86.27740710759892,75.44130911138596,-2.0,0.0,-1.0,1.0,2.0,1.0,0.0,0.0,0.0,0.0,0.78,17.46,2.45,
5.947,86.2257407107599,75.4221309111386,-2.0,-1.0,-1.0,1.0,2.0,1.0,0.0,0.0,0.0,0.0,0.78,17.46,2.45,
5.961,86.19357407107599,75.40221309111388,-2.0,0.0,-1.0,1.0,2.0,1.0,0.0,0.0,0.0,0.0,0.78,17.46,2.45,
5.975,86.15435740710761,75.4002213091114,-2.0,0.0,-1.0,1.0,2.0,1.0,0.0,0.0,0.0,0.0,0.88,17.56,2.45,
5.988,86.13243574071076,75.37302213091115,-2.0,0.0,-1.0,1.0,2.0,1.0,0.0,0.0,0.0,0.0,1.08,17.66,2.45,
6.002,86.15724357407107,75.38830221309111,-2.0,0.0,-1.0,1.0,2.0,1.0,0.0,0.0,0.0,0.0,0.98,17.76,2.45,
6.016,86.1417243574071,75.42583022130913,-2.0,0.0,-1.0,1.0,2.0,1.0,0.0,0.0,0.0,0.0,0.98,17.76,2.45,
6.029,86.15817243574071,75.38458302213091,-2.0,0.0,-1.0,1.0,2.0,1.0,0.0,0.0,0.0,0.0,1.18,17.85,2.45,
6.043,86.16881724357407,75.38045830221309,-2.0,0.0,-1.0,1.0,2.0,1.0,0.0,0.0,0.0,0.0,1.28,17.95,2.35,
6.056,86.1878817243574,75.3350458302213,-2.0,0.0,-1.0,1.0,2.0,1.0,0.0,0.0,0.0,0.0,1.28,18.05,2.35,
6.071,86.29778817243574,75.29450458302213,-3.0,0.0,-1.0,1.0,2.0,1.0,0.0,0.0,0.0,0.0,1.37,18.15,2.35,
6.084,86.28177881724358,75.2994504583022,-2.0,0.0,-1.0,1.0,2.0,1.0,0.0,0.0,0.0,0.0,1.37,18.44,2.45,
6.097,86.35217788172436,75.26394504583023,-2.0,-1.0,-3.0,1.0,2.0,1.0,0.0,0.0,0.0,0.0,1.47,18.54,2.26,
6.112,86.32321778817244,75.32339450458302,-2.0,0.0,-1.0,1.0,2.0,1.0,0.0,0.0,0.0,0.0,1.57,18.64,2.35,
6.125,86.27532177881724,75.32933945045829,-2.0,0.0,-1.0,1.0,2.0,1.0,0.0,0.0,0.0,0.0,1.57,18.74,2.35,
6.138,86.27053217788172,75.33893394504584,-2.0,0.0,-1.0,1.0,2.0,1.0,0.0,0.0,0.0,0.0,1.67,18.84,2.35,
6.153,86.22505321778817,75.38489339450459,-2.0,0.0,-1.0,1.0,2.0,1.0,0.0,0.0,0.0,0.0,1.77,19.03,2.26,
6.166,86.27450532177882,75.32648933945046,-3.0,0.0,-1.0,1.0,2.0,1.0,0.0,0.0,0.0,0.0,1.86,19.13,2.35,
6.179,86.19845053217787,75.26664893394505,-2.0,-1.0,-2.0,1.0,2.0,1.0,0.0,0.0,0.0,0.0,1.86,19.13,2.35,
6.194,86.16384505321778,75.2966648933945,-2.0,0.0,0.0,1.0,2.0,1.0,0.0,0.0,0.0,0.0,1.86,19.23,2.26,
6.207,86.16038450532177,75.19166648933945,-2.0,0.0,-1.0,1.0,2.0,1.0,0.0,0.0,0.0,0.0,1.96,19.42,2.26,
6.22,86.16003845053217,75.22616664893395,-2.0,0.0,0.0,1.0,2.0,1.0,0.0,0.0,0.0,0.0,1.96,19.42,2.26,
6.235,86.18700384505321,75.2026166648934,-2.0,0.0,0.0,1.0,2.0,1.0,0.0,0.0,0.0,0.0,1.96,19.52,2.26,
6.248,86.18070038450533,75.20026166648934,-2.0,0.0,0.0,1.0,2.0,1.0,0.0,0.0,0.0,0.0,1.96,19.42,2.26,
6.261,86.19807003845052,75.17302616664894,-2.0,0.0,0.0,1.0,2.0,1.0,0.0,0.0,0.0,0.0,1.86,19.33,2.26,
6.276,86.12780700384506,75.2513026166649,-1.0,0.0,0.0,1.0,2.0,1.0,0.0,0.0,0.0,0.0,1.96,19.23,2.26,
6.289,86.1027807003845,75.26813026166649,-1.0,0.0,0.0,1.0,2.0,1.0,0.0,0.0,0.0,0.0,1.86,19.03,2.26,
6.302,86.10927807003844,75.26081302616666,-1.0,0.0,0.0,1.0,2.0,1.0,0.0,0.0,0.0,0.0,1.77,18.93,2.26,
6.316,86.10092780700384,75.23308130261667,-1.0,0.0,0.0,1.0,2.0,1.0,0.0,0.0,0.0,0.0,1.67,18.74,2.26,
6.33,86.1180927807004,75.26630813026166,-1.0,0.0,0.0,1.0,2.0,1.0,0.0,0.0,0.0,0.0,1.57,18.44,2.26,
6.343,86.06580927807005,75.27863081302617,-1.0,0.0,0.0,1.0,2.0,1.0,0.0,0.0,0.0,0.0,1.57,18.25,2.26,
6.356,86.105580927807,75.31586308130261,-1.0,0.0,0.0,1.0,2.0,1.0,0.0,0.0,0.0,0.0,1.47,17.95,2.26,
6.37,86.1455580927807,75.31958630813025,-1.0,0.0,0.0,1.0,2.0,1.0,0.0,0.0,0.0,0.0,1.47,17.85,2.26,
6.384,86.14055580927807,75.40995863081302,-1.0,0.0,0.0,1.0,2.0,1.0,0.0,0.0,0.0,0.0,1.37,17.76,2.16,
6.397,86.1040555809278,75.4189958630813,-2.0,0.0,0.0,1.0,2.0,1.0,0.0,0.0,0.0,0.0,1.37,17.76,2.26,
6.411,86.12740555809278,75.43789958630813,-2.0,0.0,0.0,1.0,2.0,1.0,0.0,0.0,0.0,0.0,1.37,17.76,2.16,
6.424,86.14774055580929,75.44878995863081,-2.0,0.0,0.0,1.0,2.0,1.0,0.0,0.0,0.0,0.0,1.28,17.85,2.26,
6.438,86.14077405558092,75.42287899586307,-2.0,0.0,0.0,1.0,2.0,1.0,0.0,0.0,0.0,0.0,1.18,17.85,2.26,
6.452,86.14007740555809,75.41128789958631,-2.0,0.0,0.0,1.0,2.0,1.0,0.0,0.0,0.0,0.0,1.18,17.95,2.16,
6.465,86.09500774055581,75.47312878995864,-2.0,0.0,0.0,1.0,2.0,1.0,0.0,0.0,0.0,0.0,1.08,18.05,2.26,
6.479,86.08150077405557,75.48831287899587,-2.0,0.0,0.0,1.0,2.0,1.0,0.0,0.0,0.0,0.0,1.08,18.15,2.26,
6.493,86.13415007740555,75.44483128789959,-2.0,0.0,0.0,1.0,2.0,1.0,0.0,0.0,0.0,0.0,1.08,18.25,2.16,
6.506,86.20241500774056,75.46748312878997,-2.0,0.0,0.0,1.0,2.0,1.0,0.0,0.0,0.0,0.0,1.08,18.25,2.16,
6.519,86.21824150077406,75.45174831287899,-2.0,0.0,-1.0,1.0,2.0,1.0,0.0,0.0,0.0,0.0,1.08,18.34,2.16,
6.534,86.1748241500774,75.43217483128791,-2.0,0.0,0.0,1.0,2.0,1.0,0.0,0.0,0.0,0.0,1.18,18.44,2.16,
6.547,86.17048241500774,75.44821748312879,-2.0,0.0,0.0,1.0,2.0,1.0,0.0,0.0,0.0,0.0,1.08,18.54,2.16,
6.56,86.20604824150077,75.45882174831289,-2.0,0.0,0.0,1.0,2.0,1.0,0.0,0.0,0.0,0.0,1.08,18.54,2.16,
6.574,86.21860482415008,75.4598821748313,-2.0,0.0,-1.0,1.0,2.0,1.0,0.0,0.0,0.0,0.0,1.08,18.74,2.16,
6.588,86.192860482415,75.41498821748313,-2.0,0.0,-1.0,1.0,2.0,1.0,0.0,0.0,0.0,0.0,1.08,18.74,2.16,
6.601,86.1452860482415,75.42849882174832,-2.0,0.0,0.0,1.0,2.0,1.0,0.0,0.0,0.0,0.0,0.98,18.84,2.06,
6.615,86.15852860482414,75.46584988217484,-2.0,0.0,0.0,1.0,2.0,1.0,0.0,0.0,0.0,0.0,0.98,18.84,2.06,
6.629,86.2138528604824,75.46058498821748,-2.0,0.0,0.0,1.0,2.0,1.0,0.0,0.0,0.0,0.0,0.98,19.03,2.16,
6.642,86.25538528604824,75.43305849882177,-2.0,0.0,-1.0,1.0,2.0,1.0,0.0,0.0,0.0,0.0,0.98,19.13,2.16,
6.656,86.18753852860483,75.36730584988217,-2.0,0.0,-1.0,1.0,2.0,1.0,0.0,0.0,0.0,0.0,0.98,19.23,2.06,
6.67,86.17175385286048,75.39673058498823,-2.0,0.0,-1.0,1.0,2.0,1.0,0.0,0.0,0.0,0.0,0.98,19.33,2.06,
6.683,86.14317538528604,75.39067305849882,-2.0,0.0,0.0,1.0,2.0,1.0,0.0,0.0,0.0,0.0,0.98,19.33,2.16,
6.696,86.16731753852861,75.41706730584988,-2.0,0.0,0.0,1.0,2.0,1.0,0.0,0.0,0.0,0.0,0.98,19.33,2.06,
6.711,86.18773175385286,75.374706730585,-2.0,0.0,0.0,1.0,2.0,1.0,0.0,0.0,0.0,0.0,0.98,19.33,2.16,
6.724,86.1807731753853,75.35247067305849,-2.0,0.0,-1.0,1.0,2.0,1.0,0.0,0.0,0.0,0.0,0.98,19.42,2.16,
6.737,86.18907731753853,75.30524706730584,-2.0,0.0,0.0,1.0,2.0,1.0,0.0,0.0,0.0,0.0,0.98,19.52,2.16,
6.751,86.18990773175385,75.32752470673059,-2.0,0.0,0.0,1.0,2.0,1.0,0.0,0.0,0.0,0.0,0.98,19.52,2.16,
6.765,86.16299077317538,75.30275247067306,-2.0,0.0,0.0,1.0,2.0,1.0,0.0,0.0,0.0,0.0,0.98,19.62,2.16,
6.778,86.17829907731755,75.29127524706732,-2.0,0.0,0.0,1.0,2.0,1.0,0.0,0.0,0.0,0.0,0.98,19.62,2.16,
6.792,86.19782990773174,75.32612752470672,-2.0,0.0,0.0,1.0,2.0,1.0,0.0,0.0,0.0,0.0,0.98,19.62,2.06,
6.805,86.23578299077317,75.32061275247067,-2.0,0.0,0.0,1.0,2.0,1.0,0.0,0.0,0.0,0.0,0.98,19.62,2.06,
6.819,86.24857829907731,75.34706127524706,-2.0,0.0,0.0,1.0,2.0,1.0,0.0,0.0,0.0,0.0,0.98,19.62,2.06,
6.833,86.23185782990772,75.36770612752471,-2.0,0.0,0.0,1.0,2.0,1.0,0.0,0.0,0.0,0.0,1.08,19.52,2.06,
6.846,86.20318578299077,75.37877061275248,-2.0,0.0,-1.0,1.0,2.0,1.0,0.0,0.0,0.0,0.0,0.98,19.62,2.06,
6.86,86.17331857829907,75.37987706127524,-2.0,0.0,0.0,1.0,2.0,1.0,0.0,0.0,0.0,0.0,0.98,19.72,2.06,
6.874,86.18833185782991,75.33498770612752,-2.0,0.0,0.0,1.0,2.0,1.0,0.0,0.0,0.0,0.0,0.98,19.82,2.06,
6.887,86.18983318578299,75.28549877061276,-2.0,0.0,-1.0,1.0,2.0,1.0,0.0,0.0,0.0,0.0,0.98,19.82,2.06,
6.901,86.2169833185783,75.27154987706128,-2.0,0.0,-1.0,1.0,2.0,1.0,0.0,0.0,0.0,0.0,0.88,19.72,2.06,
6.915,86.22869833185783,75.32415498770612,-2.0,0.0,-1.0,1.0,2.0,1.0,0.0,0.0,0.0,0.0,0.98,19.72,2.06,
6.928,86.21186983318577,75.36541549877063,-2.0,0.0,-1.0,1.0,2.0,1.0,0.0,0.0,0.0,0.0,0.98,19.82,2.06,
6.942,86.17418698331858,75.40554154987706,-2.0,0.0,-1.0,1.0,2.0,1.0,0.0,0.0,0.0,0.0,0.98,19.82,2.16,
6.956,86.19741869833186,75.4185541549877,-2.0,0.0,0.0,1.0,2.0,1.0,0.0,0.0,0.0,0.0,0.98,19.91,2.16,
6.969,86.21774186983319,75.41085541549877,-2.0,0.0,0.0,1.0,2.0,1.0,0.0,0.0,0.0,0.0,0.98,19.82,2.06,
6.982,86.25577418698332,75.41908554154988,-2.0,0.0,-1.0,1.0,2.0,1.0,0.0,0.0,0.0,0.0,0.88,19.82,2.06,
6.996,86.26857741869833,75.39290855415499,-2.0,0.0,0.0,1.0,2.0,1.0,0.0,0.0,0.0,0.0,0.98,19.72,2.06,
7.01,86.30585774186983,75.37229085541551,-2.0,0.0,0.0,1.0,2.0,1.0,0.0,0.0,0.0,0.0,0.98,19.72,2.06,
7.023,86.29158577418698,75.36122908554155,-2.0,0.0,0.0,1.0,2.0,1.0,0.0,0.0,0.0,0.0,0.98,19.91,2.06,
7.037,86.2901585774187,75.33312290855415,-2.0,0.0,0.0,1.0,2.0,1.0,0.0,0.0,0.0,0.0,0.98,19.91,2.06,
7.051,86.24501585774186,75.33931229085542,-2.0,0.0,0.0,1.0,2.0,1.0,0.0,0.0,0.0,0.0,0.98,19.91,2.06,
7.064,86.26750158577418,75.41193122908554,-2.0,0.0,0.0,1.0,2.0,1.0,0.0,0.0,0.0,0.0,0.98,19.91,2.06,
7.077,86.25175015857742,75.44619312290855,-2.0,0.0,0.0,1.0,2.0,1.0,0.0,0.0,0.0,0.0,0.98,19.82,2.06,
7.092,86.23217501585773,75.39561931229085,-2.0,0.0,-1.0,1.0,2.0,1.0,0.0,0.0,0.0,0.0,0.98,19.82,2.06,
7.105,86.26621750158577,75.35456193122909,-2.0,0.0,-1.0,1.0,2.0,1.0,0.0,0.0,0.0,0.0,0.98,19.82,2.06,
7.118,86.27862175015858,75.42245619312293,-2.0,0.0,-1.0,1.0,2.0,1.0,0.0,0.0,0.0,0.0,0.98,19.82,2.06,
7.133,86.30686217501585,75.4742456193123,-2.0,0.0,0.0,1.0,2.0,1.0,0.0,0.0,0.0,0.0,0.98,19.82,2.06,
7.146,86.3456862175016,75.45242456193122,-2.0,0.0,0.0,1.0,2.0,1.0,0.0,0.0,0.0,0.0,0.98,19.82,2.06,
7.159,86.33156862175016,75.44124245619312,-2.0,0.0,-1.0,1.0,2.0,1.0,0.0,0.0,0.0,0.0,0.98,19.72,2.06,
7.174,86.30315686217502,75.40412424561933,-2.0,0.0,0.0,1.0,2.0,1.0,0.0,0.0,0.0,0.0,0.98,19.62,2.06,
7.187,86.2283156862175,75.34641242456195,-2.0,-1.0,0.0,1.0,2.0,1.0,0.0,0.0,0.0,0.0,0.98,19.52,2.06,
7.2,86.29283156862175,75.3136412424562,-2.0,0.0,-1.0,1.0,2.0,1.0,0.0,0.0,0.0,0.0,0.88,19.33,1.96,
7.215,86.28128315686217,75.27436412424561,-2.0,-2.0,0.0,1.0,2.0,1.0,0.0,0.0,0.0,0.0,0.88,18.74,1.96,
7.228,86.21712831568621,75.22543641242457,-1.0,-3.0,0.0,1.0,2.0,1.0,0.0,0.0,0.0,0.0,0.98,17.07,1.96,
7.241,86.12071283156861,75.21154364124244,0.0,-3.0,-3.0,1.0,2.0,1.0,0.0,0.0,0.0,0.0,0.98,16.09,1.96,
7.256,86.11107128315686,75.18315436412425,-1.0,-2.0,-3.0,1.0,2.0,1.0,0.0,0.0,0.0,0.0,0.98,14.81,1.96,
7.269,86.18210712831568,75.18031543641243,0.0,-3.0,-9.0,1.0,2.0,1.0,0.0,0.0,0.0,0.0,0.88,13.15,1.96,
7.282,86.16221071283157,75.30603154364124,-2.0,-4.0,-9.0,1.0,2.0,1.0,0.0,0.0,0.0,0.0,0.88,10.1,1.77,
7.297,86.18722107128315,75.51660315436413,-4.0,-3.0,-6.0,1.0,1.0,1.0,0.0,0.0,0.0,0.0,0.98,8.83,1.57,
7.31,86.08172210712831,75.44766031543641,-5.0,-6.0,-5.0,0.0,1.0,1.0,0.0,0.0,0.0,0.0,0.78,8.14,1.57,
7.324,85.98117221071283,75.56676603154365,-5.0,-7.0,-2.0,0.0,1.0,1.0,0.0,0.0,0.0,0.0,0.69,7.46,1.57,
7.337,85.84511722107128,75.67767660315435,-7.0,-3.0,3.0,0.0,1.0,1.0,0.0,0.0,0.0,0.0,0.69,6.57,1.37,
7.351,85.79551172210714,75.48176766031544,-7.0,-3.0,1.0,0.0,1.0,0.0,0.0,0.0,0.0,0.0,0.59,6.38,1.18,
7.365,85.74555117221071,75.38117676603156,-6.0,-1.0,0.0,0.0,1.0,0.0,0.0,0.0,0.0,0.0,0.59,6.57,1.18,
7.378,85.68655511722108,75.30811767660315,-6.0,-1.0,0.0,0.0,1.0,0.0,0.0,0.0,0.0,0.0,0.59,6.57,1.18,
7.392,85.6266555117221,75.25581176766032,-7.0,-1.0,0.0,0.0,1.0,0.0,0.0,0.0,0.0,0.0,0.59,6.57,1.08,
7.405,85.55766555117222,75.14258117676603,-7.0,0.0,0.0,0.0,1.0,0.0,0.0,0.0,0.0,0.0,0.59,6.28,0.98,
7.419,85.57776655511722,75.0412581176766,-7.0,0.0,0.0,0.0,1.0,0.0,0.0,0.0,0.0,0.0,0.59,6.18,0.88,
7.433,85.70577665551171,74.99512581176766,-7.0,0.0,-1.0,0.0,1.0,0.0,0.0,0.0,0.0,0.0,0.49,5.89,0.78,
7.446,85.76357766555117,74.84651258117675,-6.0,0.0,-1.0,0.0,1.0,0.0,0.0,0.0,0.0,0.0,0.49,5.59,0.78,
7.459,85.81435776655512,74.77765125811767,-5.0,0.0,-2.0,0.0,1.0,0.0,0.0,0.0,0.0,0.0,0.39,5.49,0.69,
7.474,85.86443577665551,74.75276512581178,-5.0,0.0,-2.0,0.0,1.0,0.0,0.0,0.0,0.0,0.0,0.39,5.69,0.59,
7.487,85.84244357766555,74.65127651258118,-5.0,-1.0,-1.0,0.0,1.0,0.0,0.0,0.0,0.0,0.0,0.39,5.89,0.49,
7.5,85.85824435776655,74.59612765125812,-4.0,0.0,-1.0,0.0,1.0,0.0,0.0,0.0,0.0,0.0,0.29,6.08,0.59,
7.514,85.82382443577666,74.59061276512581,-4.0,0.0,-1.0,0.0,1.0,0.0,0.0,0.0,0.0,0.0,0.39,6.18,0.49,
7.528,85.82938244357766,74.59006127651259,-4.0,0.0,-1.0,0.0,1.0,0.0,0.0,0.0,0.0,0.0,0.29,6.38,0.59,
7.541,85.90193824435777,74.59000612765126,-4.0,0.0,-1.0,0.0,1.0,0.0,0.0,0.0,0.0,0.0,0.29,6.77,0.59,
7.555,85.90019382443577,74.58100061276512,-4.0,0.0,-1.0,0.0,1.0,0.0,0.0,0.0,0.0,0.0,0.2,7.36,0.49,
7.568,85.84601938244357,74.49010006127652,-4.0,0.0,-3.0,0.0,1.0,0.0,0.0,0.0,0.0,0.0,0.2,8.34,0.59,
7.582,85.84060193824436,74.50801000612766,-5.0,1.0,-5.0,0.0,1.0,0.0,0.0,0.0,0.0,0.0,0.2,10.59,0.69,
7.596,85.88506019382444,74.51880100061277,-7.0,2.0,-5.0,0.0,1.0,0.0,0.0,0.0,0.0,0.0,0.2,11.97,0.59,
7.609,85.91650601938244,74.56488010006127,-8.0,4.0,-4.0,0.0,1.0,0.0,0.0,0.0,0.0,0.0,0.2,13.64,0.59,
7.623,85.93765060193824,74.44348801000613,-9.0,5.0,-4.0,0.0,1.0,0.0,0.0,0.0,0.0,0.0,0.1,15.89,0.49,
7.636,86.02076506019382,74.30534880100062,-9.0,6.0,-6.0,0.0,1.0,0.0,0.0,0.0,0.0,0.0,0.0,18.54,0.39,
7.65,86.07407650601938,74.18353488010005,-9.0,9.0,-10.0,0.0,1.0,0.0,0.0,0.0,0.0,0.0,0.0,25.02,0.29,
7.663,86.11540765060195,74.04535348801001,-8.0,12.0,-8.0,0.0,1.0,0.0,0.0,0.0,0.0,0.0,0.0,28.84,0.29,
7.677,86.1825407650602,73.833535348801,-7.0,14.0,-7.0,0.0,1.0,0.0,0.0,0.0,0.0,0.0,0.0,33.55,0.1,
7.691,86.64825407650602,73.5963535348801,-8.0,12.0,-13.0,0.0,0.0,0.0,0.0,0.0,0.0,0.0,0.0,39.34,0.0,
7.705,86.7038254076506,73.500635353488,-18.0,0.0,-15.0,0.0,0.0,0.0,0.0,0.0,0.0,0.0,0.0,55.23,0.0,
7.718,86.92538254076507,73.4280635353488,-7.0,-3.0,-16.0,0.0,0.0,0.0,0.0,0.0,0.0,0.0,0.0,65.24,0.0,
7.733,86.8575382540765,72.98880635353488,-8.0,0.0,-18.0,0.0,0.0,0.0,0.0,0.0,0.0,0.0,0.0,76.62,0.0,
7.746,86.93175382540764,72.53988063535348,-5.0,1.0,-18.0,0.0,0.0,0.0,0.0,0.0,0.0,0.0,0.0,89.07,0.0,
7.76,86.95717538254075,72.54898806353535,3.0,13.0,-12.0,1.0,0.0,1.0,0.0,0.0,0.0,0.0,0.0,114.78,0.0,
7.774,86.95071753825408,72.85589880635354,2.0,-5.0,-13.0,1.0,0.0,1.0,0.0,0.0,0.0,0.0,0.0,127.24,0.0,
7.788,87.18407175382539,73.11158988063536,5.0,-5.0,-10.0,1.0,0.0,1.0,0.0,0.0,0.0,0.0,0.0,139.99,0.0,
7.801,87.14440717538254,73.23615898806354,2.0,-8.0,-8.0,2.0,1.0,1.0,0.0,0.0,0.0,0.0,0.0,152.55,0.0,
7.816,86.94244071753826,73.60861589880636,5.0,-7.0,-11.0,2.0,1.0,1.0,0.0,0.0,0.0,0.0,0.0,172.85,0.1,
7.829,86.82324407175383,73.82586158988065,7.0,-9.0,-10.0,2.0,1.0,1.0,0.0,0.0,0.0,0.0,0.0,180.8,0.2,
7.843,86.77532440717539,74.09958615898806,8.0,-3.0,-9.0,2.0,1.0,1.0,0.0,0.0,0.0,0.0,0.0,187.57,0.2,
7.857,86.69853244071754,73.99195861589881,5.0,-6.0,-9.0,2.0,1.0,1.0,0.0,0.0,1.0,0.0,0.0,193.65,0.39,
7.871,86.42085324407176,73.95419586158988,6.0,-10.0,-12.0,2.0,1.0,1.0,0.0,0.0,1.0,0.0,0.0,203.26,0.69,
7.884,86.30308532440718,74.193419586159,6.0,-2.0,-4.0,3.0,1.0,1.0,0.0,0.0,1.0,0.0,0.0,206.21,0.88,
7.899,86.41730853244073,74.1723419586159,7.0,-4.0,-3.0,3.0,1.0,1.0,0.0,0.0,1.0,0.0,0.0,207.58,0.98,
7.912,86.50073085324408,74.11623419586158,8.0,-9.0,-5.0,3.0,2.0,1.0,0.0,0.0,1.0,0.0,0.0,208.17,1.18,
7.926,86.58107308532442,74.30862341958616,8.0,-6.0,-5.0,3.0,2.0,2.0,0.0,0.0,1.0,0.0,0.0,206.5,1.37,
7.94,86.45410730853244,74.70586234195862,5.0,-6.0,-3.0,3.0,2.0,2.0,0.0,0.0,1.0,0.0,0.0,204.34,1.57,
7.953,86.46841073085325,74.80858623419586,6.0,-6.0,-4.0,3.0,2.0,2.0,0.0,0.0,1.0,0.0,0.0,201.6,1.67,
7.967,86.44284107308533,74.82785862341957,5.0,-5.0,-2.0,3.0,2.0,2.0,0.0,0.0,1.0,0.0,0.0,198.26,1.77,
7.981,86.48528410730853,74.95578586234195,5.0,-4.0,-4.0,3.0,2.0,2.0,0.0,0.0,1.0,0.0,0.0,190.31,1.86,
7.995,86.50752841073086,75.00457858623419,5.0,-4.0,-2.0,3.0,2.0,2.0,0.0,0.0,1.0,0.0,0.0,186.0,1.96,
8.008,86.5367528410731,75.04545785862342,6.0,-4.0,-1.0,3.0,2.0,2.0,0.0,0.0,1.0,0.0,0.0,181.78,2.06,
8.023,86.53067528410732,75.01354578586233,8.0,-3.0,0.0,3.0,3.0,2.0,0.0,0.0,1.0,0.0,0.0,177.95,2.16,
8.036,86.51206752841074,75.09135457858623,10.0,-1.0,1.0,3.0,3.0,2.0,0.0,0.0,1.0,0.0,0.0,174.23,2.45,
8.05,86.47420675284108,75.01813545785862,13.0,1.0,3.0,4.0,3.0,2.0,0.0,0.0,1.0,0.0,0.0,165.3,2.65,
8.064,86.53342067528412,75.26281354578587,16.0,1.0,3.0,5.0,4.0,2.0,0.0,0.0,2.0,0.0,0.0,159.8,3.04,
8.077,86.59334206752841,74.9092813545786,13.0,2.0,0.0,5.0,4.0,2.0,0.0,0.0,2.0,0.0,0.29,154.02,3.24,
8.091,86.82433420675284,75.33292813545786,11.0,0.0,0.0,5.0,4.0,2.0,0.0,0.0,2.0,0.0,0.98,148.23,3.53,
8.104,86.87443342067527,75.7442928135458,5.0,0.0,-2.0,5.0,4.0,2.0,0.0,0.0,2.0,0.0,1.37,138.12,4.02,
8.118,86.95144334206752,76.01942928135458,4.0,1.0,0.0,5.0,5.0,2.0,0.0,0.0,2.0,0.0,1.67,134.2,4.22,
8.132,86.94114433420674,76.13694292813547,5.0,0.0,0.0,5.0,5.0,2.0,0.0,0.0,2.0,0.0,2.06,130.87,4.32,
8.145,86.89511443342067,76.25669429281355,4.0,0.0,-1.0,5.0,5.0,2.0,0.0,0.0,2.0,0.0,2.45,127.82,4.51,
8.159,86.86351144334208,76.43066942928137,4.0,0.0,0.0,5.0,5.0,2.0,0.0,0.0,3.0,0.0,3.53,120.27,5.1,
8.173,86.86035114433422,76.70006694292813,4.0,1.0,-1.0,5.0,5.0,2.0,0.0,0.0,3.0,0.0,4.02,115.66,5.4,
8.186,86.87803511443342,76.9700066942928,2.0,1.0,0.0,5.0,5.0,2.0,0.0,0.0,3.0,0.0,4.61,111.05,5.59,
8.201,86.94280351144334,77.21300066942928,1.0,0.0,0.0,5.0,6.0,2.0,0.0,0.0,3.0,0.0,5.1,106.63,5.69,
8.214,86.94028035114432,77.26430006694292,0.0,0.0,0.0,5.0,5.0,2.0,0.0,0.0,3.0,0.0,5.59,99.87,6.18,
8.227,86.91302803511442,77.36843000669428,0.0,-1.0,0.0,6.0,5.0,2.0,0.0,0.0,3.0,0.0,6.47,97.12,6.28,
8.242,86.85630280351143,77.36984300066943,0.0,-1.0,0.0,5.0,6.0,2.0,0.0,0.0,3.0,0.0,6.87,94.27,6.47,
8.255,86.64363028035115,77.28898430006694,1.0,0.0,0.0,6.0,6.0,2.0,0.0,0.0,3.0,0.0,7.26,91.53,6.67,
8.269,86.69436302803511,77.4518984300067,-1.0,0.0,-1.0,6.0,6.0,2.0,0.0,0.0,3.0,0.0,7.65,86.62,6.97,
8.283,86.8074363028035,77.63918984300068,0.0,0.0,0.0,6.0,6.0,2.0,0.0,0.0,3.0,0.0,8.24,84.46,7.26,
8.297,86.85474363028035,77.73891898430007,0.0,0.0,0.0,5.0,6.0,2.0,0.0,0.0,4.0,0.0,8.63,82.11,7.55,
8.31,86.65247436302803,77.82989189843002,0.0,-1.0,2.0,5.0,6.0,3.0,0.0,0.0,4.0,0.0,9.03,79.95,7.85,
8.325,86.9112474363028,77.64998918984301,-6.0,-3.0,1.0,5.0,6.0,3.0,0.0,0.0,4.0,0.0,9.42,77.99,8.14,
8.338,86.58612474363028,77.7039989189843,4.0,1.0,6.0,5.0,6.0,3.0,0.0,0.0,4.0,0.0,9.91,73.67,8.44,
8.352,86.62561247436302,77.71839989189843,-3.0,-1.0,1.0,5.0,6.0,3.0,0.0,0.0,4.0,0.0,10.59,71.51,8.53,
8.366,86.7375612474363,77.75583998918985,-3.0,-2.0,0.0,6.0,6.0,3.0,0.0,0.0,4.0,0.0,10.89,69.45,8.73,
8.38,86.76675612474364,77.786583998919,1.0,-4.0,2.0,6.0,6.0,3.0,0.0,0.0,4.0,0.0,11.09,66.12,9.03,
8.394,86.66167561247437,77.7266583998919,-1.0,-5.0,2.0,6.0,6.0,3.0,0.0,0.0,4.0,0.0,11.28,64.55,9.03,
8.408,86.63316756124743,77.94566583998919,3.0,-5.0,6.0,6.0,6.0,3.0,0.0,0.0,4.0,0.0,11.38,62.98,9.22,
8.422,86.54031675612475,78.09356658399892,-1.0,-12.0,4.0,6.0,6.0,3.0,0.0,0.0,4.0,0.0,11.38,61.41,9.32,
8.436,86.19803167561247,78.18035665839989,0.0,-3.0,4.0,6.0,6.0,3.0,0.0,0.0,4.0,0.0,11.48,58.47,9.32,
8.45,86.16380316756124,78.22503566584,0.0,0.0,3.0,6.0,6.0,3.0,0.0,0.0,4.0,0.0,11.58,57.0,9.42,
8.464,86.16038031675612,78.06750356658401,1.0,-7.0,2.0,6.0,6.0,3.0,0.0,0.0,4.0,0.0,11.87,55.52,9.42,
8.477,86.06103803167561,78.0877503566584,0.0,-12.0,-1.0,6.0,6.0,3.0,0.0,0.0,4.0,0.0,12.07,53.96,9.52,
8.492,85.83510380316756,77.99977503566583,1.0,-12.0,-2.0,6.0,6.0,3.0,0.0,0.0,4.0,0.0,12.36,48.95,9.71,
8.506,85.85751038031675,78.04497750356659,2.0,-14.0,-1.0,6.0,6.0,3.0,0.0,0.0,5.0,0.0,12.56,46.7,9.91,
8.519,85.61675103803168,78.03149775035666,4.0,-15.0,0.0,6.0,6.0,3.0,0.0,0.0,5.0,0.0,13.15,44.83,10.01,
8.534,85.15167510380317,78.08414977503567,10.0,-11.0,3.0,6.0,6.0,3.0,0.0,0.0,5.0,0.0,13.54,43.07,10.2,
8.548,85.15016751038033,78.21541497750357,4.0,-11.0,0.0,6.0,6.0,3.0,0.0,0.0,5.0,0.0,14.22,39.24,10.59,
8.562,84.98801675103803,78.27354149775036,5.0,-10.0,-1.0,6.0,6.0,3.0,0.0,0.0,5.0,0.0,14.81,37.77,10.89,
8.577,84.9898016751038,78.38735414977504,6.0,-12.0,-2.0,6.0,7.0,3.0,0.0,0.0,5.0,0.0,15.89,36.4,11.18,
8.59,84.81898016751038,78.62373541497752,6.0,-15.0,-4.0,6.0,7.0,3.0,0.0,0.0,5.0,0.0,16.48,35.22,11.58,
8.604,84.44189801675104,78.71937354149775,6.0,-17.0,-4.0,6.0,7.0,3.0,0.0,0.0,6.0,0.0,17.07,32.77,11.87,
8.619,84.21518980167511,78.85493735414978,6.0,-16.0,-8.0,6.0,7.0,3.0,0.0,0.0,6.0,0.0,17.56,31.39,12.07,
8.633,84.02151898016751,79.11149373541498,3.0,-11.0,-7.0,6.0,7.0,3.0,0.0,0.0,6.0,0.0,18.64,30.12,12.46,
8.647,83.73215189801675,79.20914937354149,3.0,-3.0,-7.0,6.0,7.0,3.0,0.0,0.0,6.0,0.0,19.13,28.15,13.24,
8.662,83.60421518980168,79.27291493735416,1.0,-1.0,-7.0,6.0,7.0,3.0,0.0,0.0,6.0,1.0,19.72,27.47,13.73,
8.675,83.49242151898017,79.4412914937354,0.0,1.0,-5.0,6.0,7.0,3.0,0.0,0.0,7.0,1.0,20.31,26.88,14.03,
8.689,83.58024215189802,79.56612914937354,0.0,0.0,-3.0,6.0,7.0,3.0,0.0,0.0,7.0,1.0,21.39,26.49,14.42,
8.704,83.6880242151898,79.72261291493734,0.0,2.0,-3.0,6.0,7.0,3.0,0.0,0.0,7.0,1.0,21.88,26.59,15.11,
8.717,83.76180242151898,84.49026129149374,-65.0,250.0,127.0,6.0,7.0,3.0,0.0,0.0,7.0,1.0,22.27,26.68,15.6,
8.731,91.4011802421519,84.05802612914938,-15.0,-36.0,-35.0,6.0,7.0,3.0,0.0,0.0,7.0,1.0,22.66,26.68,16.09,
8.745,91.25611802421518,83.94280261291495,4.0,-3.0,-8.0,6.0,8.0,3.0,0.0,0.0,7.0,1.0,23.54,26.19,17.07,
8.76,89.41461180242152,83.3822802612915,-21.0,86.0,76.0,6.0,7.0,3.0,0.0,0.0,7.0,1.0,23.74,26.0,17.36,
8.774,88.12346118024215,82.86722802612915,0.0,-14.0,-15.0,6.0,8.0,3.0,0.0,0.0,7.0,1.0,24.13,26.0,17.85,
8.788,87.94934611802422,82.06872280261292,-2.0,6.0,1.0,6.0,8.0,3.0,0.0,0.0,7.0,1.0,24.43,26.29,18.34,
8.803,88.00393461180242,81.2148722802613,2.0,-3.0,-3.0,7.0,8.0,3.0,0.0,0.0,8.0,1.0,24.92,26.49,19.13,
8.816,87.62239346118024,79.59948722802613,-8.0,51.0,27.0,6.0,8.0,3.0,0.0,0.0,8.0,1.0,25.11,26.09,19.42,
8.83,89.71723934611802,78.81694872280261,-3.0,-9.0,-6.0,6.0,8.0,3.0,0.0,0.0,8.0,1.0,25.21,25.6,19.72,
8.845,88.9457239346118,79.17069487228027,-2.0,3.0,8.0,6.0,8.0,3.0,0.0,0.0,8.0,1.0,25.41,24.92,20.21,
8.859,89.41757239346117,78.79206948722802,-8.0,14.0,6.0,6.0,8.0,3.0,0.0,0.0,8.0,1.0,25.8,23.64,20.5,
8.872,88.86175723934612,79.6092069487228,-6.0,5.0,-1.0,6.0,8.0,3.0,0.0,0.0,8.0,1.0,26.0,23.15,20.8,
8.887,88.40117572393461,80.76192069487229,-4.0,6.0,3.0,6.0,8.0,3.0,0.0,0.0,8.0,1.0,26.19,22.76,21.09,
8.901,88.32811757239347,80.41819206948722,-5.0,10.0,2.0,6.0,8.0,3.0,0.0,0.0,8.0,1.0,26.49,22.37,21.58,
8.915,88.72581175723934,80.18581920694872,-3.0,9.0,-4.0,6.0,8.0,3.0,0.0,0.0,8.0,1.0,26.98,21.97,21.88,
8.929,88.51358117572393,79.28058192069489,-1.0,18.0,-4.0,6.0,8.0,3.0,0.0,0.0,8.0,1.0,27.17,21.78,22.17,
8.943,89.53635811757239,79.15405819206948,-1.0,-1.0,-5.0,6.0,8.0,3.0,0.0,0.0,8.0,1.0,27.37,21.58,22.27,
8.957,89.46763581175723,79.15040581920697,-2.0,0.0,0.0,6.0,8.0,3.0,0.0,0.0,8.0,1.0,27.66,21.39,22.37,
8.972,89.73076358117572,79.15904058192069,-3.0,2.0,1.0,7.0,8.0,3.0,0.0,0.0,8.0,1.0,27.96,21.68,22.56,
8.985,89.31607635811757,79.34890405819208,-4.0,5.0,4.0,7.0,8.0,3.0,0.0,0.0,8.0,1.0,28.06,21.88,22.46,
8.999,89.55360763581176,79.03489040581921,-2.0,-1.0,-1.0,6.0,8.0,3.0,0.0,0.0,8.0,1.0,28.06,22.27,22.46,
9.014,89.23536076358117,79.39948904058191,-3.0,0.0,3.0,6.0,8.0,3.0,0.0,0.0,8.0,1.0,28.06,23.25,22.37,
9.028,89.23053607635812,79.30994890405819,-2.0,-2.0,0.0,6.0,8.0,3.0,0.0,0.0,8.0,1.0,27.76,23.64,22.17,
9.041,89.3110536076358,79.13899489040583,-2.0,-1.0,0.0,7.0,8.0,3.0,0.0,0.0,8.0,1.0,27.76,23.84,22.07,
9.056,89.59810536076358,79.07689948904058,-3.0,-4.0,-3.0,7.0,8.0,3.0,0.0,0.0,8.0,1.0,27.76,23.84,22.17,
9.07,89.38381053607637,79.07068994890406,-2.0,0.0,-1.0,7.0,8.0,3.0,0.0,0.0,8.0,1.0,27.86,23.74,22.17,
9.084,89.34438105360763,77.46806899489042,4.0,28.0,8.0,6.0,8.0,3.0,0.0,0.0,8.0,1.0,27.96,23.54,22.17,
9.098,89.53843810536077,77.38880689948904,-1.0,2.0,-1.0,7.0,8.0,3.0,0.0,0.0,8.0,1.0,27.96,23.35,22.17,
9.112,89.56684381053607,77.6238806899489,-2.0,0.0,1.0,7.0,8.0,3.0,0.0,0.0,8.0,1.0,27.96,23.25,22.17,
9.126,89.5516843810536,77.80038806899489,-2.0,0.0,0.0,7.0,8.0,3.0,0.0,0.0,8.0,1.0,27.86,23.54,22.27,
9.14,89.46916843810536,77.88103880689948,-2.0,0.0,0.0,7.0,8.0,3.0,0.0,0.0,8.0,1.0,27.76,23.64,22.27,
9.154,89.37991684381055,78.01510388068995,-1.0,0.0,-1.0,7.0,8.0,3.0,0.0,0.0,8.0,1.0,27.76,23.84,22.17,
9.168,89.28999168438105,78.370510388069,-4.0,3.0,1.0,7.0,8.0,3.0,0.0,0.0,8.0,1.0,27.86,23.74,22.07,
9.183,89.52399916843811,78.2260510388069,0.0,2.0,0.0,7.0,8.0,3.0,0.0,0.0,8.0,1.0,27.86,23.54,22.17,
9.196,89.21439991684383,78.56260510388068,-2.0,7.0,1.0,7.0,8.0,3.0,0.0,0.0,8.0,1.0,27.86,23.35,22.17,
9.21,89.52543999168438,78.57826051038806,-2.0,3.0,-1.0,6.0,8.0,3.0,0.0,0.0,8.0,1.0,27.96,23.15,22.17,
9.225,89.39454399916843,78.6968260510388,-2.0,3.0,0.0,7.0,8.0,3.0,0.0,0.0,8.0,1.0,27.96,22.66,22.17,
9.238,89.63345439991684,78.63668260510387,-2.0,4.0,-1.0,7.0,8.0,3.0,0.0,0.0,8.0,1.0,27.96,22.46,22.17,
9.252,89.74734543999169,78.57666826051037,-2.0,0.0,0.0,7.0,8.0,3.0,0.0,0.0,8.0,1.0,28.06,22.46,22.17,
9.267,89.76773454399915,78.64266682605104,-2.0,1.0,0.0,7.0,8.0,3.0,0.0,0.0,8.0,1.0,28.06,22.37,22.17,
9.28,89.85077345439991,78.64926668260512,-2.0,1.0,0.0,7.0,8.0,3.0,0.0,0.0,8.0,1.0,28.06,21.97,22.17,
9.294,89.81407734544,78.6319266682605,-2.0,1.0,0.0,7.0,8.0,3.0,0.0,0.0,8.0,1.0,27.96,21.88,22.07,
9.309,89.82840773454399,78.66619266682605,-2.0,2.0,-1.0,6.0,8.0,3.0,0.0,0.0,8.0,1.0,27.86,21.68,21.97,
9.322,89.8838407734544,78.6696192666826,-2.0,0.0,0.0,6.0,8.0,3.0,0.0,0.0,8.0,1.0,27.76,21.39,21.78,
9.336,89.88038407734544,78.66096192666825,-1.0,1.0,0.0,6.0,8.0,3.0,0.0,0.0,8.0,1.0,27.76,21.09,21.68,
9.351,89.85303840773454,78.66909619266681,-1.0,0.0,0.0,6.0,8.0,3.0,0.0,0.0,9.0,1.0,27.76,20.7,21.68,
9.364,89.90430384077345,78.67890961926669,-1.0,1.0,0.0,6.0,8.0,3.0,0.0,0.0,8.0,1.0,27.96,20.4,21.78,
9.378,89.94543038407734,78.71589096192666,-2.0,1.0,-1.0,6.0,8.0,3.0,0.0,0.0,8.0,1.0,28.06,19.42,21.78,
9.393,90.02154303840773,78.74658909619266,-1.0,1.0,-1.0,6.0,8.0,3.0,0.0,0.0,8.0,1.0,28.25,19.03,21.88,
9.407,90.03815430384077,78.74965890961927,-1.0,0.0,0.0,6.0,8.0,3.0,0.0,0.0,8.0,1.0,28.25,18.74,21.88,
9.42,90.01281543038408,78.75896589096193,-2.0,1.0,0.0,7.0,8.0,3.0,0.0,0.0,8.0,1.0,28.35,18.54,21.88,
9.435,90.0372815430384,78.71489658909618,-2.0,0.0,0.0,7.0,8.0,3.0,0.0,0.0,8.0,1.0,28.25,18.15,21.88,
9.449,90.06672815430385,78.70148965890962,-2.0,0.0,0.0,7.0,8.0,3.0,0.0,0.0,8.0,1.0,28.15,17.95,21.88,
9.462,90.00667281543038,78.68214896589097,-2.0,0.0,0.0,7.0,8.0,3.0,0.0,0.0,8.0,1.0,28.25,17.95,21.88,
9.477,90.00966728154303,78.6802148965891,-2.0,0.0,0.0,7.0,8.0,3.0,0.0,0.0,8.0,1.0,28.15,18.05,21.78,
9.491,90.0009667281543,78.68002148965893,-2.0,0.0,0.0,7.0,8.0,3.0,0.0,0.0,8.0,1.0,27.96,18.44,21.68,
9.504,90.04509667281543,78.64400214896588,-2.0,0.0,0.0,7.0,8.0,3.0,0.0,0.0,8.0,1.0,27.96,18.44,21.68,
9.519,90.07650966728154,78.61340021489659,-2.0,0.0,0.0,6.0,8.0,3.0,0.0,0.0,8.0,1.0,27.86,18.44,21.58,
9.533,90.13365096672815,78.62834002148965,-3.0,0.0,0.0,6.0,8.0,3.0,0.0,0.0,8.0,1.0,27.66,18.34,21.58,
9.546,90.12136509667282,78.59383400214897,-2.0,0.0,0.0,6.0,8.0,3.0,0.0,0.0,8.0,1.0,27.27,18.25,21.48,
9.561,90.12913650966729,78.59938340021489,-2.0,0.0,0.0,6.0,8.0,3.0,0.0,0.0,8.0,1.0,27.17,18.25,21.48,
9.574,90.16591365096673,78.59993834002148,-2.0,0.0,0.0,6.0,8.0,3.0,0.0,0.0,8.0,1.0,27.08,18.25,21.48,
9.588,90.18759136509668,78.59999383400213,-2.0,0.0,0.0,6.0,8.0,3.0,0.0,0.0,8.0,1.0,26.98,18.25,21.48,
9.603,90.23475913650967,78.6629993834002,-2.0,0.0,0.0,6.0,8.0,3.0,0.0,0.0,8.0,1.0,26.88,18.15,21.39,
9.616,90.22147591365098,78.66929993834002,-2.0,0.0,0.0,6.0,8.0,3.0,0.0,0.0,8.0,1.0,26.78,18.15,21.29,
9.63,90.2471475913651,78.606929993834,-2.0,0.0,0.0,6.0,8.0,3.0,0.0,0.0,8.0,1.0,26.68,18.34,21.29,
9.645,90.27671475913652,78.6006929993834,-2.0,0.0,0.0,6.0,8.0,3.0,0.0,0.0,8.0,1.0,26.68,18.44,21.19,
9.658,90.28867147591366,78.60906929993834,-2.0,0.0,0.0,6.0,8.0,3.0,0.0,0.0,8.0,1.0,26.59,18.44,21.19,
9.672,90.29886714759135,78.59190692999384,-2.0,0.0,0.0,6.0,8.0,3.0,0.0,0.0,8.0,1.0,26.59,18.25,21.09,
9.687,90.31788671475913,78.67119069299939,-2.0,0.0,0.0,6.0,8.0,3.0,0.0,0.0,8.0,1.0,26.49,18.15,21.09,
9.7,90.26578867147592,78.63411906929993,-2.0,0.0,0.0,6.0,8.0,3.0,0.0,0.0,8.0,1.0,26.49,18.15,20.9,
9.714,90.2515788671476,78.62141190693,-2.0,0.0,0.0,6.0,8.0,3.0,0.0,0.0,8.0,1.0,26.49,18.15,20.9,
9.729,90.28615788671476,78.63814119069299,-2.0,0.0,0.0,6.0,8.0,3.0,0.0,0.0,8.0,1.0,26.49,18.15,20.9,
9.742,90.27161578867147,78.6308141190693,-2.0,0.0,0.0,6.0,8.0,3.0,0.0,0.0,8.0,1.0,26.39,18.05,20.8,
9.756,90.24316157886713,78.66608141190693,-2.0,0.0,0.0,6.0,8.0,3.0,0.0,0.0,8.0,1.0,26.29,17.95,20.8,
9.771,90.23131615788672,78.6696081411907,-2.0,0.0,0.0,6.0,8.0,3.0,0.0,0.0,8.0,1.0,26.19,17.95,20.8,
9.784,90.26613161578867,78.64296081411906,-2.0,0.0,0.0,6.0,8.0,3.0,0.0,0.0,8.0,1.0,26.19,17.85,20.7,
9.798,90.26061316157887,78.6402960814119,-2.0,0.0,0.0,6.0,8.0,3.0,0.0,0.0,8.0,1.0,26.09,17.85,20.7,
9.812,90.28706131615789,78.6760296081412,-2.0,0.0,0.0,6.0,8.0,3.0,0.0,0.0,8.0,1.0,25.9,18.15,20.7,
9.826,90.2897061316158,78.66160296081412,-2.0,0.0,0.0,6.0,8.0,3.0,0.0,0.0,8.0,1.0,26.0,18.34,20.7,
9.84,90.27197061316157,78.64216029608141,-2.0,0.0,0.0,6.0,8.0,3.0,0.0,0.0,8.0,1.0,25.9,18.64,20.8,
9.854,90.22519706131617,78.62221602960815,-2.0,0.0,0.0,6.0,8.0,3.0,0.0,0.0,8.0,1.0,25.9,18.84,20.8,
9.868,90.22051970613163,78.59322160296082,-2.0,0.0,0.0,6.0,8.0,3.0,0.0,0.0,8.0,1.0,25.9,18.84,20.8,
9.882,90.22005197061317,78.55432216029607,-2.0,0.0,0.0,6.0,8.0,3.0,0.0,0.0,8.0,1.0,25.8,18.74,20.8,
9.896,90.20200519706133,78.4964322160296,-2.0,0.0,0.0,6.0,8.0,3.0,0.0,0.0,8.0,1.0,25.7,18.54,20.8,
9.91,90.29920051970615,78.46364322160295,-2.0,0.0,0.0,6.0,8.0,3.0,0.0,0.0,8.0,1.0,25.7,18.44,20.8,
9.924,90.30892005197063,78.4963643221603,-2.0,0.0,0.0,6.0,8.0,3.0,0.0,0.0,8.0,1.0,25.7,18.05,20.8,
9.938,90.32789200519706,78.49063643221602,-2.0,0.0,0.0,6.0,8.0,3.0,0.0,0.0,8.0,1.0,25.6,18.15,20.9,
9.952,90.3207892005197,78.5350636432216,-2.0,0.0,0.0,6.0,8.0,3.0,0.0,0.0,8.0,1.0,25.7,18.34,20.99,
9.966,90.40107892005197,78.58450636432217,-2.0,0.0,0.0,6.0,8.0,3.0,0.0,0.0,8.0,1.0,25.6,18.44,20.99,
9.979,90.3821078920052,78.64345063643222,-2.0,0.0,0.0,6.0,8.0,3.0,0.0,0.0,8.0,1.0,25.51,18.64,20.9,
9.994,90.37121078920053,78.60434506364322,-2.0,0.0,0.0,6.0,8.0,3.0,0.0,0.0,8.0,1.0,25.41,18.84,20.9,
10.008,90.33412107892005,78.59143450636432,-2.0,0.0,0.0,6.0,8.0,3.0,0.0,0.0,8.0,1.0,25.31,19.13,20.8,
10.022,90.330412107892,78.60814345063642,-2.0,0.0,0.0,6.0,8.0,3.0,0.0,0.0,8.0,1.0,25.21,19.33,20.8,
10.036,90.34804121078919,78.59181434506365,-2.0,0.0,0.0,6.0,8.0,3.0,0.0,0.0,8.0,1.0,25.21,19.33,20.8,
10.05,90.34980412107892,78.56318143450638,-2.0,0.0,0.0,6.0,8.0,3.0,0.0,0.0,8.0,1.0,25.21,19.33,20.8,
10.064,90.38598041210788,78.56031814345064,-2.0,0.0,0.0,6.0,8.0,3.0,0.0,0.0,8.0,1.0,25.11,19.42,20.7,
10.079,90.3985980412108,78.57803181434505,-2.0,0.0,0.0,6.0,8.0,3.0,0.0,0.0,8.0,1.0,25.02,19.23,20.7,
10.092,90.41785980412108,78.58880318143451,-2.0,0.0,0.0,6.0,8.0,3.0,0.0,0.0,8.0,1.0,25.02,19.23,20.7,
10.106,90.4377859804121,78.57188031814344,-2.0,0.0,0.0,6.0,8.0,3.0,0.0,0.0,8.0,1.0,24.92,19.23,20.7,
10.121,90.47577859804122,78.57918803181434,-2.0,0.0,0.0,6.0,8.0,3.0,0.0,0.0,8.0,1.0,24.82,19.33,20.6,
10.134,90.48857785980412,78.57091880318143,-2.0,0.0,0.0,6.0,8.0,3.0,0.0,0.0,8.0,1.0,24.72,19.52,20.7,
10.148,90.5078577859804,78.57909188031813,-2.0,0.0,0.0,6.0,8.0,3.0,0.0,0.0,8.0,1.0,24.72,19.82,20.6,
10.163,90.48278577859804,78.54390918803182,-2.0,0.0,0.0,6.0,8.0,3.0,0.0,0.0,8.0,1.0,24.62,20.11,20.6,
10.177,90.54327857785981,78.46839091880317,-2.0,0.0,0.0,6.0,8.0,3.0,0.0,0.0,8.0,1.0,24.52,20.6,20.6,
10.19,90.52232785778598,78.52383909188032,-2.0,0.0,0.0,6.0,8.0,3.0,0.0,0.0,8.0,1.0,24.43,20.99,20.5,
10.205,90.5112327857786,78.53838390918804,-2.0,0.0,0.0,6.0,8.0,3.0,0.0,0.0,8.0,1.0,24.43,21.19,20.5,
10.219,90.55512327857787,78.5488383909188,-2.0,0.0,0.0,6.0,8.0,3.0,0.0,0.0,8.0,1.0,24.43,21.39,20.5,
10.233,90.60451232785779,78.53188383909189,-2.0,0.0,0.0,6.0,8.0,3.0,0.0,0.0,8.0,1.0,24.23,21.88,20.4,
10.247,90.60945123278579,78.53918838390919,-2.0,0.0,0.0,6.0,8.0,3.0,0.0,0.0,8.0,1.0,24.23,22.07,20.4,
10.261,90.56494512327858,78.58491883839093,-2.0,0.0,0.0,6.0,8.0,3.0,0.0,0.0,8.0,1.0,24.23,22.27,20.4,
10.275,90.55149451232786,78.5354918838391,-2.0,0.0,0.0,6.0,8.0,3.0,0.0,0.0,8.0,1.0,24.23,22.56,20.5,
10.29,90.55014945123278,78.53954918838392,-2.0,0.0,0.0,6.0,8.0,3.0,0.0,0.0,8.0,1.0,24.13,22.86,20.5,
10.303,90.47801494512328,78.54895491883838,-2.0,0.0,0.0,6.0,8.0,3.0,0.0,0.0,8.0,1.0,24.03,23.15,20.4,
10.317,90.49780149451233,78.54989549188383,-2.0,0.0,0.0,6.0,8.0,3.0,0.0,0.0,8.0,1.0,24.03,23.35,20.4,
10.332,90.51778014945123,78.53198954918838,-2.0,0.0,0.0,6.0,8.0,3.0,0.0,0.0,8.0,1.0,24.03,23.64,20.5,
10.346,90.53777801494513,78.53019895491884,-2.0,0.0,0.0,6.0,8.0,3.0,0.0,0.0,8.0,1.0,24.13,24.03,20.4,
10.359,90.53977780149452,78.56601989549188,-2.0,0.0,0.0,6.0,8.0,3.0,0.0,0.0,8.0,1.0,24.03,24.23,20.5,
10.374,90.52197778014946,78.5876019895492,-2.0,0.0,0.0,6.0,8.0,3.0,0.0,0.0,8.0,1.0,24.03,24.43,20.6,
10.388,90.51119777801495,78.51776019895493,-2.0,0.0,0.0,6.0,8.0,3.0,0.0,0.0,8.0,1.0,24.13,24.72,20.6,
10.402,90.5371197778015,78.5107760198955,-2.0,0.0,0.0,6.0,8.0,3.0,0.0,0.0,8.0,1.0,24.13,24.92,20.7,
10.416,90.55771197778014,78.51907760198954,-2.0,0.0,0.0,6.0,8.0,3.0,0.0,0.0,8.0,1.0,24.03,25.02,20.7,
10.43,90.595771197778,78.58290776019896,-2.0,0.0,0.0,6.0,8.0,3.0,0.0,0.0,8.0,1.0,24.13,25.11,20.7,
10.444,90.57257711977779,78.6252907760199,-2.0,0.0,0.0,6.0,8.0,3.0,0.0,0.0,8.0,1.0,24.03,25.41,20.7,
10.459,90.57925771197779,78.620529077602,-2.0,0.0,0.0,6.0,8.0,3.0,0.0,0.0,8.0,1.0,24.13,25.41,20.7,
10.472,90.57092577119776,78.56605290776021,-2.0,0.0,0.0,6.0,8.0,3.0,0.0,0.0,8.0,1.0,24.13,25.7,20.7,
10.486,90.61509257711978,78.59660529077601,-2.0,0.0,0.0,6.0,8.0,3.0,0.0,0.0,8.0,1.0,24.13,26.0,20.8,
10.501,90.53850925771198,78.5726605290776,-2.0,0.0,0.0,6.0,8.0,3.0,0.0,0.0,8.0,1.0,24.13,26.59,20.8,
10.515,90.5758509257712,78.53426605290777,-2.0,0.0,0.0,7.0,8.0,3.0,0.0,0.0,8.0,1.0,24.13,26.88,20.8,
10.528,90.5705850925771,78.50342660529078,-2.0,0.0,0.0,6.0,8.0,3.0,0.0,0.0,8.0,1.0,24.13,26.98,20.9,
10.543,90.59705850925769,78.47334266052908,-2.0,0.0,0.0,6.0,8.0,3.0,0.0,0.0,8.0,1.0,24.23,27.37,20.99,
10.557,90.59970585092576,78.5153342660529,-2.0,0.0,0.0,6.0,8.0,3.0,0.0,0.0,8.0,1.0,24.33,27.37,20.9,
10.571,90.57297058509256,78.49253342660528,-2.0,0.0,0.0,6.0,8.0,3.0,0.0,0.0,8.0,1.0,24.13,27.27,20.9,
10.585,90.58829705850926,78.49025334266052,-2.0,0.0,0.0,6.0,8.0,3.0,0.0,0.0,8.0,1.0,24.13,27.27,20.99,
10.599,90.58982970585093,78.50802533426605,-2.0,0.0,0.0,6.0,8.0,3.0,0.0,0.0,8.0,1.0,24.23,27.27,20.99,
10.613,90.5539829705851,78.5458025334266,-2.0,0.0,0.0,6.0,8.0,3.0,0.0,0.0,8.0,1.0,24.23,27.27,21.09,
10.628,90.5953982970585,78.49558025334265,-2.0,0.0,0.0,6.0,8.0,3.0,0.0,0.0,8.0,1.0,24.33,27.47,21.09,
10.641,90.61753982970586,78.45455802533426,-2.0,0.0,0.0,6.0,8.0,3.0,0.0,0.0,8.0,1.0,24.23,27.66,21.09,
10.655,90.62875398297058,78.43245580253343,-2.0,0.0,0.0,7.0,8.0,3.0,0.0,0.0,8.0,1.0,24.23,28.35,21.19,
10.67,90.65687539829705,78.41224558025334,-2.0,0.0,0.0,7.0,8.0,3.0,0.0,0.0,8.0,1.0,24.23,28.65,21.19,
10.684,90.6326875398297,78.42822455802533,-2.0,0.0,0.0,7.0,8.0,3.0,0.0,0.0,8.0,1.0,24.23,28.84,21.09,
10.697,90.64826875398298,78.42082245580254,-2.0,0.0,0.0,7.0,8.0,4.0,0.0,0.0,8.0,1.0,24.13,29.14,21.19,
10.712,90.63182687539829,78.34808224558026,-2.0,0.0,0.0,7.0,8.0,4.0,0.0,0.0,8.0,1.0,24.13,29.53,21.19,
10.726,90.56718268753983,78.35880822455803,-2.0,0.0,0.0,7.0,8.0,4.0,0.0,0.0,8.0,1.0,24.13,29.63,21.09,
10.74,90.62371826875398,78.3508808224558,-2.0,0.0,0.0,7.0,8.0,3.0,0.0,0.0,8.0,1.0,24.13,29.72,21.09,
10.754,90.5933718268754,78.33208808224558,-2.0,0.0,0.0,7.0,8.0,3.0,0.0,0.0,8.0,1.0,24.03,30.02,21.09,
10.768,90.60833718268755,78.34820880822456,-2.0,0.0,0.0,7.0,8.0,3.0,0.0,0.0,8.0,1.0,24.03,30.21,21.09,
10.782,90.65483371826875,78.37682088082245,-2.0,0.0,0.0,7.0,8.0,3.0,0.0,0.0,8.0,1.0,24.03,30.31,21.09,
10.797,90.66848337182688,78.32568208808225,-2.0,0.0,0.0,7.0,8.0,4.0,0.0,0.0,8.0,1.0,24.03,30.41,21.09,
10.81,90.6428483371827,78.32056820880823,-2.0,0.0,0.0,7.0,8.0,3.0,0.0,0.0,8.0,1.0,24.03,30.9,21.09,
10.824,90.65828483371826,78.39205682088082,-2.0,0.0,0.0,7.0,8.0,3.0,0.0,0.0,8.0,1.0,24.03,31.1,21.09,
10.839,90.65982848337183,78.39020568208808,-2.0,0.0,0.0,7.0,8.0,4.0,0.0,0.0,8.0,1.0,23.94,31.39,21.09,
10.853,90.6419828483372,78.40802056820881,-2.0,0.0,-1.0,6.0,8.0,4.0,0.0,0.0,8.0,1.0,23.94,31.59,21.09,
10.866,90.68519828483372,78.39180205682088,-2.0,0.0,0.0,6.0,8.0,4.0,0.0,0.0,8.0,1.0,23.94,31.88,20.99,
10.881,90.75251982848339,78.34518020568208,-2.0,0.0,0.0,7.0,8.0,3.0,0.0,0.0,8.0,1.0,23.84,31.88,21.09,
10.895,90.70525198284835,78.38551802056821,-2.0,0.0,0.0,6.0,8.0,4.0,0.0,0.0,8.0,1.0,23.84,31.98,20.99,
10.909,90.74552519828484,78.43455180205683,-2.0,0.0,0.0,6.0,8.0,4.0,0.0,0.0,8.0,1.0,23.84,32.27,20.99,
10.923,90.77655251982848,78.44845518020568,-2.0,0.0,0.0,6.0,8.0,4.0,0.0,0.0,8.0,1.0,23.84,32.37,20.99,
10.937,90.77065525198284,78.41384551802057,-2.0,0.0,0.0,6.0,8.0,4.0,0.0,0.0,8.0,1.0,23.84,32.47,20.99,
10.951,90.76106552519829,78.41038455180205,-2.0,0.0,0.0,6.0,8.0,4.0,0.0,0.0,8.0,1.0,23.74,32.57,20.9,
10.966,90.74210655251983,78.3920384551802,-2.0,0.0,0.0,7.0,8.0,4.0,0.0,0.0,8.0,1.0,23.84,32.77,20.99,
10.979,90.75821065525199,78.35420384551801,-2.0,0.0,0.0,7.0,8.0,4.0,0.0,0.0,8.0,1.0,23.74,32.96,20.9,
10.993,90.8048210655252,78.3414203845518,-2.0,0.0,0.0,7.0,8.0,4.0,0.0,0.0,8.0,1.0,23.64,33.16,20.9,
11.008,90.88148210655253,78.37614203845519,-2.0,0.0,0.0,7.0,8.0,4.0,0.0,0.0,8.0,1.0,23.64,33.26,20.9,
11.022,90.88914821065525,78.36161420384552,-2.0,0.0,0.0,7.0,8.0,4.0,0.0,0.0,8.0,1.0,23.64,33.45,20.9,
11.035,90.90791482106553,78.38716142038456,-2.0,0.0,0.0,7.0,8.0,4.0,0.0,0.0,8.0,1.0,23.64,33.45,20.9,
11.049,90.89179148210656,78.38971614203845,-2.0,0.0,0.0,6.0,8.0,4.0,0.0,0.0,8.0,1.0,23.64,33.45,20.9,
11.064,90.88117914821066,78.34497161420384,-2.0,0.0,0.0,6.0,8.0,4.0,0.0,0.0,8.0,1.0,23.54,33.55,20.9,
11.078,90.87111791482107,78.32249716142039,-2.0,0.0,0.0,6.0,8.0,4.0,0.0,0.0,8.0,1.0,23.54,33.55,20.8,
11.091,90.8251117914821,78.33824971614203,-2.0,0.0,0.0,6.0,8.0,4.0,0.0,0.0,8.0,1.0,23.54,33.55,20.8,
11.106,90.85651117914821,78.3038249716142,-2.0,0.0,0.0,6.0,8.0,4.0,0.0,0.0,8.0,1.0,23.54,33.75,20.9,
11.12,90.82365111791482,78.31838249716142,-2.0,0.0,0.0,7.0,8.0,4.0,0.0,0.0,8.0,1.0,23.54,34.04,20.9,
11.134,90.81136511179147,78.33783824971614,-2.0,0.0,0.0,6.0,8.0,4.0,0.0,0.0,8.0,1.0,23.45,34.14,20.9,
11.148,90.85513651117915,78.33078382497162,-2.0,0.0,0.0,6.0,8.0,4.0,0.0,0.0,8.0,1.0,23.54,34.24,20.8,
11.162,90.81451365111792,78.33007838249716,-2.0,0.0,0.0,6.0,8.0,4.0,0.0,0.0,8.0,1.0,23.54,34.34,20.9,
11.176,90.84645136511179,78.33900783824971,-2.0,0.0,0.0,6.0,8.0,4.0,0.0,0.0,8.0,1.0,23.54,34.43,20.8,
11.191,90.87664513651117,78.34890078382497,-2.0,0.0,-1.0,6.0,8.0,4.0,0.0,0.0,8.0,1.0,23.54,34.24,20.9,
11.204,90.89766451365112,78.3678900783825,-2.0,0.0,0.0,6.0,8.0,4.0,0.0,0.0,7.0,1.0,23.54,34.24,20.9,
11.218,90.92676645136511,78.30678900783825,-2.0,0.0,0.0,6.0,8.0,4.0,0.0,0.0,8.0,1.0,23.54,34.14,20.9,
11.233,90.89367664513651,78.31867890078382,-2.0,0.0,0.0,6.0,8.0,4.0,0.0,0.0,8.0,1.0,23.54,33.84,20.8,
11.247,90.88136766451365,78.31986789007838,-2.0,0.0,0.0,6.0,8.0,4.0,0.0,0.0,8.0,1.0,23.54,33.75,20.8,
11.26,90.90713676645137,78.31998678900784,-2.0,0.0,0.0,6.0,8.0,4.0,0.0,0.0,8.0,1.0,23.54,33.65,20.8,
11.275,90.90071367664514,78.30199867890079,-2.0,0.0,0.0,6.0,8.0,4.0,0.0,0.0,8.0,1.0,23.54,33.75,20.8,
11.289,90.89107136766451,78.32719986789007,-2.0,0.0,0.0,7.0,8.0,4.0,0.0,0.0,8.0,1.0,23.54,33.75,20.8,
11.303,90.89910713676645,78.302719986789,-2.0,0.0,0.0,7.0,8.0,4.0,0.0,0.0,8.0,1.0,23.54,33.75,20.8,
11.317,90.89991071367665,78.2822719986789,-2.0,0.0,-1.0,7.0,8.0,4.0,0.0,0.0,8.0,1.0,23.54,33.84,20.8,
11.331,90.88199107136766,78.33422719986788,-2.0,0.0,0.0,6.0,8.0,4.0,0.0,0.0,8.0,1.0,23.54,33.75,20.9,
11.345,90.88019910713676,78.32142271998678,-2.0,0.0,0.0,6.0,8.0,4.0,0.0,0.0,8.0,1.0,23.64,33.65,20.9,
11.36,90.86201991071367,78.36514227199868,-2.0,0.0,0.0,6.0,8.0,4.0,0.0,0.0,8.0,1.0,23.74,33.35,20.8,
11.373,90.87820199107136,78.30651422719987,-2.0,0.0,0.0,7.0,8.0,4.0,0.0,0.0,8.0,1.0,23.74,33.16,20.7,
11.387,90.80782019910714,78.30965142271998,-2.0,0.0,0.0,7.0,8.0,4.0,0.0,0.0,8.0,1.0,23.74,32.77,20.8,
11.402,90.85478201991072,78.381965142272,-2.0,0.0,0.0,7.0,8.0,4.0,0.0,0.0,8.0,1.0,23.74,32.77,20.9,
11.416,90.83247820199107,78.3621965142272,-2.0,0.0,0.0,7.0,8.0,4.0,0.0,0.0,8.0,1.0,23.74,32.77,20.9,
11.429,90.7852478201991,78.35121965142272,-2.0,0.0,0.0,7.0,8.0,4.0,0.0,0.0,8.0,1.0,23.74,32.86,20.9,
11.444,90.79852478201991,78.39512196514227,-2.0,0.0,0.0,7.0,8.0,4.0,0.0,0.0,8.0,1.0,23.64,32.77,20.9,
11.458,90.78185247820198,78.42651219651422,-2.0,0.0,0.0,7.0,8.0,4.0,0.0,0.0,8.0,1.0,23.74,32.67,20.8,
11.472,90.7801852478202,78.42065121965142,-2.0,0.0,0.0,7.0,8.0,4.0,0.0,0.0,8.0,1.0,23.74,32.47,20.9,
11.486,90.80701852478202,78.43806512196514,-2.0,0.0,0.0,7.0,8.0,4.0,0.0,0.0,8.0,1.0,23.84,32.37,20.8,
11.5,90.79170185247821,78.40380651219651,-2.0,0.0,0.0,7.0,8.0,4.0,0.0,0.0,8.0,1.0,23.74,32.37,20.8,
11.514,90.73617018524783,78.36438065121965,-2.0,0.0,0.0,7.0,8.0,4.0,0.0,0.0,8.0,1.0,23.74,32.37,20.8,
11.529,90.76661701852478,78.37843806512197,-2.0,0.0,0.0,7.0,8.0,4.0,0.0,0.0,8.0,1.0,23.74,32.37,20.8,
11.542,90.81466170185247,78.3708438065122,-2.0,0.0,0.0,6.0,8.0,4.0,0.0,0.0,8.0,1.0,23.74,32.18,20.8,
11.556,90.80146617018525,78.31608438065122,-2.0,0.0,0.0,6.0,8.0,4.0,0.0,0.0,8.0,1.0,23.74,32.18,20.7,
11.571,90.83614661701853,78.35560843806512,-2.0,0.0,0.0,6.0,8.0,4.0,0.0,0.0,8.0,1.0,23.74,31.98,20.8,
11.585,90.87561466170186,78.3955608438065,-2.0,0.0,0.0,6.0,8.0,4.0,0.0,0.0,8.0,1.0,23.74,31.88,20.8,
11.598,90.90656146617019,78.39955608438065,-2.0,0.0,0.0,6.0,8.0,4.0,0.0,0.0,8.0,1.0,23.74,31.88,20.8,
11.613,90.86465614661702,78.41795560843806,-2.0,0.0,0.0,6.0,8.0,4.0,0.0,0.0,8.0,1.0,23.84,31.88,20.8,
11.627,90.8874656146617,78.40179556084381,-2.0,0.0,0.0,6.0,8.0,4.0,0.0,0.0,8.0,1.0,23.74,31.98,20.8,
11.641,90.84474656146617,78.41817955608438,-2.0,0.0,0.0,6.0,8.0,4.0,0.0,0.0,8.0,1.0,23.74,31.98,20.8,
11.655,90.82247465614661,78.43781795560844,-2.0,0.0,0.0,6.0,8.0,4.0,0.0,0.0,8.0,1.0,23.74,31.98,20.8,
11.669,90.84724746561466,78.50278179556085,-2.0,0.0,0.0,7.0,8.0,4.0,0.0,0.0,8.0,1.0,23.84,31.98,20.8,
11.683,90.85872474656146,78.50927817955609,-2.0,0.0,0.0,6.0,8.0,4.0,0.0,0.0,8.0,1.0,23.84,31.88,20.8,
11.698,90.82387247465614,78.43792781795561,-2.0,0.0,0.0,6.0,8.0,4.0,0.0,0.0,8.0,1.0,23.94,31.59,20.8,
11.711,90.85638724746562,78.42179278179556,-2.0,0.0,0.0,6.0,8.0,4.0,0.0,0.0,8.0,1.0,23.94,31.49,20.8,
11.725,90.83263872474656,78.41117927817956,-2.0,0.0,0.0,6.0,8.0,4.0,0.0,0.0,8.0,1.0,24.03,31.39,20.7,
11.74,90.81226387247466,78.37411792781796,-2.0,0.0,0.0,6.0,8.0,4.0,0.0,0.0,8.0,1.0,23.84,31.29,20.7,
11.754,90.77422638724747,78.3704117927818,-2.0,0.0,0.0,6.0,8.0,4.0,0.0,0.0,8.0,1.0,964.81,31.39,20.8,
11.777,90.73442263872475,78.33404117927817,-2.0,0.0,0.0,6.0,8.0,4.0,0.0,0.0,8.0,1.0,23.84,31.49,20.7,
11.79,90.77544226387246,78.37540411792781,-2.0,0.0,0.0,6.0,8.0,4.0,0.0,0.0,8.0,1.0,23.74,31.59,20.8,
11.804,90.79754422638725,78.33454041179277,-2.0,0.0,-1.0,6.0,8.0,4.0,0.0,0.0,8.0,1.0,23.74,31.49,20.6,
11.819,90.81775442263873,78.37545404117928,-2.0,0.0,-1.0,6.0,8.0,4.0,0.0,0.0,8.0,1.0,23.74,31.2,20.5,
11.833,90.89177544226388,78.35254540411793,-2.0,-1.0,0.0,6.0,8.0,4.0,0.0,0.0,8.0,1.0,23.45,30.8,20.4,
11.847,90.83617754422639,78.3772545404118,-3.0,-2.0,0.0,6.0,8.0,4.0,0.0,0.0,8.0,1.0,23.35,30.31,20.11,
11.86,90.99261775442264,78.36172545404118,-3.0,-4.0,-1.0,6.0,8.0,4.0,0.0,0.0,7.0,1.0,23.15,29.63,19.82,
11.875,91.04426177544225,78.38717254540411,-3.0,-5.0,0.0,6.0,8.0,3.0,0.0,0.0,7.0,1.0,22.76,27.08,19.33,
11.889,90.93242617754423,78.44371725454042,-5.0,-3.0,0.0,6.0,7.0,3.0,0.0,0.0,7.0,1.0,21.39,25.6,18.74,
11.904,90.72324261775444,78.44037172545404,-5.0,-3.0,0.0,6.0,7.0,3.0,0.0,0.0,7.0,1.0,20.6,24.82,17.07,
11.918,90.78332426177545,78.3230371725454,-5.0,0.0,0.0,6.0,7.0,3.0,0.0,0.0,6.0,1.0,19.72,24.82,16.28,
11.932,90.73533242617755,78.29330371725455,-5.0,-1.0,0.0,6.0,7.0,3.0,0.0,0.0,6.0,1.0,18.84,26.29,15.6,
11.947,90.70353324261777,78.29033037172546,-5.0,-1.0,0.0,6.0,7.0,3.0,0.0,0.0,6.0,1.0,17.56,27.17,15.21,
11.96,90.65535332426178,78.23603303717256,-6.0,-1.0,-1.0,5.0,7.0,3.0,0.0,0.0,6.0,0.0,16.87,28.15,14.32,
11.974,90.64153533242619,78.19460330371724,-6.0,-1.0,0.0,5.0,7.0,3.0,0.0,0.0,5.0,0.0,16.19,30.61,13.73,
11.988,90.61315353324262,78.11846033037173,-6.0,-1.0,0.0,5.0,6.0,3.0,0.0,0.0,5.0,0.0,15.3,31.88,13.05,
12.003,90.46631535332426,77.86784603303718,-2.0,0.0,0.0,5.0,6.0,3.0,0.0,0.0,5.0,0.0,13.54,33.45,11.58,
12.017,90.51463153533243,77.86978460330373,0.0,2.0,0.0,5.0,6.0,3.0,0.0,0.0,5.0,0.0,12.85,35.02,11.18,
12.03,90.42946315353325,77.96897846033038,1.0,2.0,0.0,5.0,7.0,3.0,0.0,0.0,5.0,0.0,13.05,35.22,11.09,
12.045,90.43894631535332,77.99689784603304,2.0,4.0,-1.0,6.0,7.0,3.0,0.0,0.0,6.0,1.0,13.73,34.04,11.28,
12.059,90.57489463153533,77.9996897846033,4.0,4.0,-1.0,6.0,7.0,3.0,0.0,0.0,6.0,1.0,15.99,32.67,12.56,
12.073,90.66948946315354,78.11696897846032,4.0,3.0,-1.0,6.0,7.0,3.0,0.0,0.0,6.0,1.0,17.76,30.8,13.64,
12.087,90.66994894631536,78.29969689784603,3.0,0.0,-2.0,6.0,7.0,4.0,0.0,0.0,7.0,1.0,19.62,26.19,14.81,
12.101,90.59799489463154,78.43496968978461,-1.0,0.0,-3.0,6.0,8.0,4.0,0.0,0.0,7.0,1.0,21.68,23.84,15.89,
12.115,90.66279948946317,78.50249696897846,-4.0,-3.0,-2.0,6.0,8.0,3.0,0.0,0.0,7.0,1.0,24.33,22.07,17.76,
12.13,90.81327994894632,78.43724969689785,-6.0,-3.0,0.0,6.0,8.0,3.0,0.0,0.0,6.0,1.0,24.33,20.8,18.44,
12.144,90.78332799489462,78.39472496968979,-6.0,-3.0,-1.0,6.0,8.0,3.0,0.0,0.0,6.0,1.0,23.64,20.9,18.74,
12.157,90.71733279948945,78.34547249696898,-6.0,-6.0,0.0,6.0,7.0,3.0,0.0,0.0,6.0,1.0,22.46,20.99,18.54,
12.172,90.74673327994894,78.3405472496969,-6.0,-7.0,-2.0,5.0,7.0,3.0,0.0,0.0,5.0,1.0,19.23,20.7,17.95,
12.186,90.84867332799489,78.2410547249697,-7.0,-9.0,0.0,5.0,7.0,3.0,0.0,0.0,4.0,0.0,17.07,18.84,17.07,
12.2,90.86786733279949,78.12310547249697,-7.0,-9.0,2.0,4.0,6.0,3.0,0.0,0.0,3.0,0.0,14.62,17.36,16.09,
12.214,90.88778673327995,78.3093105472497,-12.0,-11.0,3.0,4.0,6.0,3.0,0.0,0.0,2.0,0.0,12.16,16.09,13.05,
12.228,90.37677867332799,78.58893105472498,-18.0,-11.0,1.0,4.0,5.0,2.0,0.0,0.0,1.0,0.0,7.55,15.7,10.99,
12.242,89.6866778673328,78.56289310547251,-24.0,0.0,-4.0,3.0,5.0,2.0,0.0,0.0,0.0,0.0,4.91,21.48,8.83,
12.256,89.65366778673328,78.27228931054725,-28.0,3.0,-5.0,3.0,4.0,2.0,0.0,0.0,0.0,0.0,2.55,28.15,7.16,
12.27,89.34436677867333,77.68522893105472,-27.0,7.0,-4.0,3.0,4.0,2.0,0.0,0.0,0.0,0.0,0.88,36.79,5.0,
12.283,89.91643667786732,77.24852289310547,-26.0,14.0,-1.0,3.0,4.0,2.0,0.0,0.0,0.0,0.0,0.0,46.7,4.22,
12.298,89.94664366778673,77.04285228931055,-21.0,15.0,3.0,3.0,4.0,2.0,0.0,0.0,0.0,0.0,0.0,69.16,3.24,
12.311,90.66966436677868,76.06828522893105,-20.0,14.0,-1.0,3.0,4.0,2.0,0.0,0.0,0.0,0.0,0.0,81.23,2.84,
12.325,90.84096643667786,75.4038285228931,-10.0,20.0,-3.0,3.0,4.0,2.0,0.0,0.0,0.0,0.0,0.0,93.88,2.55,
12.339,91.15509664366778,75.07638285228931,-5.0,21.0,-6.0,4.0,4.0,2.0,0.0,0.0,0.0,0.0,0.0,107.22,2.84,
12.353,91.55550966436678,75.18763828522894,-2.0,23.0,-4.0,4.0,5.0,2.0,0.0,0.0,1.0,0.0,0.0,132.93,3.34,
12.367,91.84755096643667,75.1537638285229,0.0,25.0,-2.0,5.0,5.0,3.0,0.0,0.0,1.0,0.0,0.2,143.72,445.37,
12.39,92.47075509664367,75.28537638285229,0.0,21.0,-4.0,5.0,6.0,3.0,0.0,0.0,2.0,0.0,0.69,152.84,6.38,
12.403,92.76707550966437,75.42453763828523,2.0,18.0,-7.0,6.0,6.0,3.0,0.0,0.0,2.0,0.0,2.94,168.73,7.16,
12.418,93.03970755096643,75.49245376382852,0.0,13.0,-4.0,6.0,7.0,3.0,0.0,0.0,3.0,0.0,4.61,184.53,8.04,
12.432,93.24697075509664,75.53524537638286,-2.0,17.0,0.0,6.0,7.0,3.0,0.0,0.0,3.0,0.0,8.24,193.16,8.93,
12.446,93.47469707550967,75.61152453763829,-3.0,19.0,0.0,6.0,8.0,3.0,0.0,0.0,3.0,0.0,9.91,202.09,10.69,
12.46,93.48846970755096,75.50215245376383,-7.0,19.0,0.0,6.0,8.0,3.0,0.0,0.0,3.0,0.0,11.58,211.8,11.58,
12.474,93.56184697075508,75.35621524537639,-4.0,16.0,-2.0,7.0,8.0,3.0,0.0,0.0,3.0,0.0,13.15,232.69,12.65,
12.488,93.66818469707552,75.37762152453763,-4.0,14.0,-5.0,7.0,8.0,3.0,0.0,0.0,3.0,1.0,15.79,241.23,13.44,
12.503,93.99381846970756,75.33476215245376,-2.0,7.0,0.0,6.0,8.0,3.0,0.0,0.0,4.0,1.0,16.97,247.21,14.91,
12.517,94.05338184697077,75.17747621524538,-1.0,5.0,-3.0,7.0,8.0,3.0,0.0,0.0,4.0,1.0,18.05,252.12,15.3,
12.531,94.14033818469709,74.88274762152453,1.0,6.0,-5.0,6.0,9.0,4.0,0.0,0.0,4.0,1.0,19.03,252.22,15.6,
12.546,94.0590338184697,74.83527476215245,3.0,4.0,-5.0,7.0,9.0,4.0,0.0,0.0,4.0,1.0,21.09,250.65,16.09,
12.56,101.41290338184697,76.32452747621524,2.0,-100.0,19.0,6.0,9.0,4.0,0.0,0.0,4.0,1.0,22.17,247.31,16.28,
12.574,102.7872903381847,75.69945274762152,-7.0,-7.0,-15.0,6.0,9.0,4.0,0.0,0.0,4.0,1.0,23.35,238.48,16.28,
12.589,101.80872903381847,75.33094527476216,-4.0,-44.0,10.0,7.0,9.0,4.0,0.0,0.0,4.0,1.0,26.0,234.07,16.28,
12.603,100.31587290338184,75.42909452747621,1.0,-16.0,0.0,7.0,9.0,4.0,0.0,0.0,4.0,1.0,27.27,229.26,16.09,
12.617,99.22158729033818,75.52890945274763,2.0,3.0,-11.0,6.0,9.0,4.0,0.0,0.0,4.0,1.0,28.45,218.76,15.99,
12.632,98.28415872903382,75.85389094527477,1.0,0.0,-5.0,6.0,9.0,4.0,0.0,0.0,4.0,1.0,29.63,213.47,15.79,
12.646,98.02841587290338,76.28238909452747,-2.0,-22.0,0.0,6.0,9.0,4.0,0.0,0.0,4.0,1.0,31.69,208.46,15.79,
12.66,97.28284158729033,75.85723890945275,0.0,-14.0,-3.0,7.0,10.0,4.0,0.0,0.0,4.0,1.0,32.57,203.85,15.89,
12.675,97.50528415872904,75.93172389094528,-2.0,-11.0,-5.0,7.0,10.0,4.0,0.0,0.0,4.0,1.0,33.16,194.92,15.99,
12.689,96.84352841587291,75.88517238909452,0.0,-7.0,-4.0,7.0,10.0,3.0,0.0,0.0,4.0,1.0,33.84,190.22,16.38,
12.703,95.94935284158728,76.17751723890945,3.0,-9.0,3.0,7.0,10.0,4.0,0.0,0.0,4.0,1.0,34.83,184.92,16.78,
12.718,95.37393528415873,76.26975172389095,3.0,-2.0,-2.0,7.0,10.0,4.0,0.0,0.0,5.0,1.0,35.32,172.66,17.36,
12.732,95.20839352841588,76.2609751723891,4.0,-3.0,-1.0,7.0,10.0,4.0,0.0,0.0,5.0,1.0,35.81,165.89,18.25,
12.746,94.7148393528416,76.2510975172389,5.0,-1.0,-3.0,7.0,11.0,4.0,0.0,0.0,5.0,1.0,37.47,158.82,20.5,
12.761,94.21548393528415,76.28610975172388,5.0,0.0,-3.0,7.0,11.0,4.0,0.0,0.0,6.0,1.0,38.46,151.27,21.68,
12.775,94.02154839352842,76.4336109751724,4.0,0.0,-3.0,7.0,11.0,4.0,0.0,0.0,6.0,1.0,39.63,135.97,23.05,
12.789,93.88515483935285,76.61936109751724,3.0,0.0,-3.0,7.0,11.0,4.0,0.0,0.0,7.0,1.0,41.01,129.1,25.8,
12.804,93.63751548393527,76.72793610975172,2.0,0.0,-3.0,7.0,11.0,4.0,0.0,0.0,7.0,1.0,43.26,123.41,27.08,
12.818,93.54975154839353,76.81079361097517,2.0,0.0,-3.0,7.0,11.0,4.0,0.0,0.0,7.0,1.0,43.95,115.66,28.25,
12.832,93.41497515483935,76.85507936109752,2.0,0.0,-2.0,7.0,11.0,4.0,0.0,0.0,7.0,1.0,44.64,113.31,29.43,
12.846,93.29349751548393,76.85050793610975,3.0,-1.0,-2.0,7.0,11.0,4.0,0.0,0.0,8.0,2.0,45.13,111.25,31.98,
12.861,93.1013497515484,76.93105079361096,4.0,-2.0,-1.0,7.0,12.0,4.0,0.0,0.0,8.0,2.0,46.3,108.79,33.26,
12.875,92.94713497515485,77.04710507936109,5.0,-1.0,-3.0,7.0,12.0,4.0,0.0,0.0,8.0,2.0,46.99,101.63,34.63,
12.89,92.8777134975155,77.20271050793612,4.0,-2.0,-2.0,8.0,12.0,4.0,0.0,0.0,9.0,2.0,47.87,97.12,37.18,
12.904,92.86177134975155,77.36227105079361,3.0,-1.0,-2.0,8.0,12.0,4.0,0.0,0.0,9.0,2.0,49.44,92.61,38.46,
12.918,92.77017713497516,77.53122710507937,3.0,-2.0,-1.0,8.0,12.0,4.0,0.0,0.0,9.0,2.0,49.93,85.15,39.63,
12.933,92.67101771349752,77.59312271050794,2.0,0.0,-2.0,8.0,12.0,4.0,0.0,0.0,9.0,2.0,50.33,82.6,41.69,
12.947,92.55310177134976,77.6893122710508,1.0,0.0,-2.0,8.0,12.0,4.0,0.0,0.0,9.0,2.0,50.42,80.83,42.67,
12.961,92.37931017713497,77.71693122710508,0.0,0.0,-2.0,8.0,12.0,4.0,0.0,0.0,10.0,2.0,50.33,78.09,43.85,
12.976,92.3709310177135,77.74669312271051,0.0,0.0,-3.0,8.0,12.0,4.0,0.0,0.0,10.0,2.0,49.83,76.71,45.03,
12.99,92.38809310177135,77.74966931227105,0.0,0.0,-3.0,8.0,12.0,4.0,0.0,0.0,10.0,2.0,49.15,75.14,47.58,
13.004,92.47980931017713,77.80396693122711,1.0,0.0,-2.0,8.0,0.0,3.0,0.0,0.0,10.0,2.0,48.17,73.28,48.56,
13.019,92.62398093101771,77.81839669312271,1.0,0.0,-2.0,8.0,12.0,3.0,0.0,0.0,10.0,2.0,47.09,69.06,49.54,
13.033,92.60239809310177,77.82883966931226,2.0,-1.0,-1.0,8.0,12.0,3.0,0.0,0.0,11.0,2.0,47.09,67.1,51.99,
13.047,92.40223980931017,77.83888396693123,2.0,0.0,-1.0,8.0,11.0,3.0,0.0,0.0,11.0,2.0,47.58,65.53,53.56,
13.062,92.30122398093103,77.93888839669313,3.0,0.0,-2.0,8.0,12.0,3.0,0.0,0.0,11.0,2.0,49.15,62.2,55.33,
13.076,92.1741223980931,78.01188883966931,4.0,-1.0,-4.0,8.0,12.0,3.0,0.0,0.0,11.0,2.0,50.23,59.45,57.39,
13.09,92.14341223980931,78.04618888396693,6.0,-3.0,-5.0,8.0,11.0,3.0,0.0,0.0,12.0,2.0,51.5,55.62,62.88,
13.105,92.02334122398094,78.0856188883967,9.0,-4.0,-9.0,8.0,11.0,3.0,1.0,0.0,12.0,2.0,53.07,44.05,66.02,
13.119,92.1193341223981,78.09856188883965,13.0,-11.0,-7.0,8.0,11.0,3.0,1.0,0.0,1.0,2.0,57.39,36.4,69.45,
13.134,91.93993341223981,78.14485618888398,15.0,-11.0,-10.0,7.0,11.0,3.0,1.0,0.0,2.0,2.0,60.43,28.06,76.22,
13.149,91.99399334122398,78.4464856188884,20.0,-11.0,-4.0,7.0,11.0,3.0,1.0,0.0,3.0,3.0,63.77,19.82,79.17,
13.163,92.01739933412239,78.40464856188885,31.0,-9.0,-1.0,6.0,11.0,3.0,1.0,0.0,6.0,3.0,71.22,5.79,81.62,
13.177,92.37073993341224,78.44546485618889,36.0,-20.0,-16.0,5.0,11.0,3.0,1.0,0.0,8.0,3.0,74.36,0.78,84.86,
13.192,92.62207399334123,78.7645464856189,42.0,-41.0,-11.0,5.0,10.0,3.0,1.0,0.0,10.0,3.0,77.11,0.0,85.25,
13.207,91.42320739933412,79.03945464856189,54.0,-46.0,-5.0,4.0,10.0,3.0,1.0,0.0,13.0,3.0,79.46,0.0,84.37,
13.221,89.92632073993342,79.12094546485619,60.0,-34.0,-23.0,2.0,9.0,3.0,1.0,0.0,13.0,3.0,83.09,0.0,78.48,
13.236,89.73163207399332,79.09309454648563,78.0,-9.0,-40.0,1.0,8.0,2.0,1.0,1.0,14.0,3.0,84.56,0.98,73.08,
13.25,89.53216320739935,79.85530945464856,99.0,-5.0,-31.0,1.0,7.0,1.0,1.0,1.0,14.0,3.0,85.64,1.47,66.02,
13.264,88.53121632073993,80.72353094546486,168.0,41.0,-129.0,1.0,5.0,0.0,1.0,1.0,14.0,3.0,86.43,1.18,57.19,
13.279,87.765121632074,82.18735309454648,167.0,45.0,-92.0,1.0,3.0,0.0,1.0,1.0,11.0,3.0,85.45,0.88,34.53,
13.293,88.48051216320741,82.92773530945465,140.0,79.0,-103.0,1.0,2.0,0.0,1.0,1.0,4.0,3.0,82.7,0.39,23.45,
13.307,92.27805121632075,84.19877353094547,132.0,81.0,-99.0,1.0,2.0,0.0,1.0,1.0,12.0,3.0,77.7,0.2,15.4,
13.322,95.34880512163207,89.14087735309455,118.0,-2.0,2.0,1.0,3.0,0.0,1.0,2.0,9.0,2.0,55.13,0.0,5.89,
13.336,97.25788051216321,90.86808773530946,95.0,-1.0,11.0,1.0,2.0,0.0,1.0,2.0,7.0,3.0,35.41,0.0,4.22,
13.35,100.12178805121633,90.36580877353096,92.0,-46.0,54.0,1.0,1.0,0.0,0.0,3.0,4.0,3.0,18.15,0.0,3.83,
13.364,101.71317880512164,88.57858087735309,91.0,-107.0,76.0,1.0,0.0,0.0,0.0,2.0,1.0,2.0,8.83,0.0,3.34,
13.378,101.52131788051217,85.9788580877353,76.0,-118.0,36.0,1.0,0.0,0.0,0.0,0.0,1.0,1.0,0.69,0.0,2.75,
13.391,96.98413178805123,84.49488580877353,75.0,-61.0,13.0,1.0,0.0,0.0,0.0,0.0,1.0,1.0,0.0,0.0,2.55,
13.405,95.06341317880512,81.34948858087736,66.0,7.0,85.0,1.0,0.0,0.0,0.0,0.0,1.0,1.0,0.0,0.59,2.45,
13.418,90.78534131788052,80.24294885808774,12.0,50.0,1.0,1.0,0.0,0.0,0.0,0.0,1.0,1.0,0.0,1.57,2.75,
13.431,93.57053413178805,74.62429488580878,-33.0,-45.0,-123.0,1.0,0.0,0.0,0.0,0.0,1.0,1.0,0.0,1.08,2.16,
13.446,95.6670534131788,74.46742948858089,-20.0,-178.0,-182.0,1.0,0.0,0.0,0.0,0.0,1.0,1.0,0.0,0.0,1.96,
13.459,90.10770534131788,75.9277429488581,-13.0,-131.0,-210.0,1.0,0.0,0.0,0.0,0.0,1.0,1.0,0.0,0.0,1.96,
13.473,85.69977053413177,76.37977429488582,8.0,-128.0,-104.0,1.0,0.0,0.0,0.0,0.0,1.0,1.0,0.0,0.0,1.86,
13.487,82.99097705341319,75.43497742948858,-7.0,17.0,-141.0,1.0,0.0,0.0,0.0,0.0,1.0,1.0,0.0,0.0,1.47,
13.5,81.48709770534131,79.46249774294886,0.0,70.0,-42.0,1.0,0.0,0.0,0.0,0.0,1.0,1.0,0.0,0.0,1.37,
13.513,83.98270977053413,77.44424977429489,15.0,-22.0,-60.0,1.0,0.0,0.0,0.0,0.0,1.0,1.0,0.0,0.0,1.28,
13.527,80.23627097705341,79.75342497742949,37.0,-8.0,-12.0,1.0,0.0,0.0,0.0,0.0,1.0,1.0,0.0,0.0,1.28,
13.541,79.87062709770534,82.38734249774295,49.0,-64.0,-39.0,1.0,0.0,0.0,0.0,0.0,1.0,1.0,0.1,0.0,1.28,
13.554,78.07006270977054,85.8367342497743,40.0,-1.0,17.0,1.0,0.0,0.0,0.0,0.0,1.0,1.0,0.29,0.0,1.28,
13.568,77.36800627097706,88.10767342497743,49.0,20.0,25.0,1.0,0.0,0.0,0.0,0.0,1.0,1.0,0.59,0.0,1.28,
13.581,76.85680062709771,89.93676734249775,54.0,22.0,14.0,1.0,0.0,0.0,0.0,0.0,1.0,1.0,1.08,0.0,1.28,
13.594,76.25668006270976,91.58667673424978,52.0,8.0,-1.0,1.0,0.0,0.0,0.0,0.0,1.0,1.0,1.28,0.0,1.37,
13.607,75.50366800627097,93.19166767342497,51.0,-7.0,-2.0,1.0,0.0,0.0,0.0,0.0,1.0,1.0,1.37,0.0,1.28,
13.621,74.9603668006271,94.39616676734249,48.0,-14.0,1.0,1.0,0.0,0.0,0.0,0.0,1.0,1.0,1.28,0.0,1.37,
13.634,74.3660366800627,95.32661667673426,46.0,-15.0,1.0,1.0,0.0,0.0,0.0,0.0,1.0,1.0,1.28,0.0,1.37,
13.647,73.78460366800627,96.32866166767343,40.0,-15.0,-1.0,1.0,0.0,0.0,0.0,0.0,1.0,1.0,1.57,0.0,1.37,
13.662,73.19546036680062,97.40086616676734,30.0,-17.0,-13.0,1.0,0.0,0.0,0.0,0.0,1.0,1.0,1.67,0.0,1.37,
13.675,72.47054603668006,98.80408661667673,21.0,-18.0,-12.0,1.0,0.0,0.0,0.0,0.0,1.0,1.0,1.77,0.0,1.47,
13.688,71.669054603668,100.17740866166767,16.0,-4.0,0.0,1.0,0.0,0.0,0.0,0.0,1.0,1.0,1.86,0.0,1.47,
13.702,70.96790546036681,101.39474086616677,10.0,14.0,3.0,1.0,0.0,0.0,0.0,0.0,1.0,1.0,1.96,0.0,1.57,
13.715,70.00679054603668,101.93047408661667,6.0,30.0,3.0,1.0,0.0,0.0,0.0,0.0,1.0,1.0,2.16,0.0,1.57,
13.728,68.75867905460368,101.94804740866168,0.0,35.0,4.0,1.0,0.0,0.0,0.0,0.0,1.0,1.0,2.16,0.0,1.57,
13.742,67.95886790546037,101.42780474086616,-12.0,30.0,4.0,1.0,0.0,0.0,0.0,0.0,1.0,1.0,2.06,0.0,1.57,
13.756,67.65388679054604,100.0347804740866,-24.0,27.0,3.0,1.0,0.0,0.0,0.0,0.0,1.0,1.0,1.96,0.0,1.57,
13.769,67.2363886790546,98.33847804740867,-35.0,22.0,0.0,1.0,0.0,0.0,0.0,0.0,1.0,1.0,1.96,0.29,1.67,
13.783,66.49263886790546,96.62084780474088,-47.0,17.0,-5.0,1.0,0.0,0.0,0.0,0.0,1.0,1.0,1.86,0.39,1.77,
13.796,65.66226388679054,94.79308478047409,-59.0,12.0,-8.0,1.0,0.0,0.0,0.0,0.0,1.0,1.0,1.77,0.49,1.77,
13.809,64.24722638867905,92.2253084780474,-68.0,5.0,-7.0,1.0,0.0,0.0,0.0,0.0,1.0,1.0,1.67,0.39,1.77,
13.822,65.2667226388679,87.55853084780475,-77.0,-4.0,-6.0,1.0,0.0,0.0,0.0,0.0,1.0,1.0,1.67,0.39,1.77,
13.836,63.21767226388679,86.82185308478047,-82.0,-17.0,-6.0,1.0,0.0,0.0,0.0,0.0,1.0,1.0,1.57,0.39,1.67,
13.85,61.95976722638868,87.10818530847804,-88.0,-37.0,-4.0,1.0,0.0,0.0,0.0,0.0,1.0,1.0,1.67,0.39,1.67,
13.863,61.53697672263887,87.5328185308478,-101.0,-28.0,-1.0,1.0,0.0,0.0,0.0,0.0,1.0,1.0,1.67,0.39,1.77,
13.877,61.791697672263886,87.79128185308477,-112.0,-24.0,2.0,1.0,0.0,0.0,0.0,0.0,1.0,1.0,1.77,0.29,1.67,
13.89,61.84416976722639,87.62812818530848,-129.0,-33.0,-1.0,1.0,0.0,0.0,0.0,0.0,1.0,1.0,1.86,0.29,1.77,
13.904,61.633416976722636,87.04481281853086,-138.0,-41.0,-4.0,1.0,0.0,0.0,0.0,0.0,1.0,1.0,1.96,0.39,1.77,
13.918,61.47734169767226,85.87948128185309,-146.0,-29.0,6.0,1.0,0.0,0.0,0.0,0.0,1.0,1.0,1.96,0.39,1.77,
13.931,62.22673416976723,84.7999481281853,-156.0,-13.0,14.0,1.0,0.0,0.0,0.0,0.0,1.0,1.0,1.96,0.29,1.77,
13.945,64.10167341697672,84.28699481281853,-166.0,-10.0,24.0,1.0,0.0,0.0,0.0,0.0,1.0,1.0,1.86,0.29,1.67,
13.959,67.28616734169768,81.48169948128185,-180.0,-18.0,17.0,1.0,0.0,0.0,0.0,0.0,1.0,1.0,1.86,0.29,1.67,
13.973,70.88961673416976,75.86416994812818,-163.0,0.0,56.0,1.0,0.0,0.0,0.0,0.0,1.0,1.0,1.77,0.29,1.57,
13.986,72.32996167341697,74.76241699481282,-195.0,-36.0,-11.0,1.0,0.0,0.0,0.0,0.0,1.0,1.0,1.77,0.2,1.47,
14.0,71.7719961673417,73.72524169948127,-192.0,-5.0,47.0,1.0,0.0,0.0,0.0,0.0,1.0,1.0,1.77,0.2,1.47,
14.013,72.44519961673417,71.60552416994813,-196.0,-2.0,59.0,1.0,0.0,0.0,0.0,0.0,1.0,1.0,1.77,0.2,1.57,
14.027,73.49351996167341,69.62955241699481,-198.0,6.0,53.0,1.0,0.0,0.0,0.0,0.0,1.0,1.0,1.67,0.2,1.57,
14.041,75.27235199616734,67.00195524169948,-208.0,7.0,37.0,1.0,0.0,0.0,0.0,0.0,1.0,1.0,1.77,0.2,1.57,
14.054,76.21523519961673,64.82219552416994,-197.0,-2.0,49.0,1.0,0.0,0.0,0.0,0.0,1.0,1.0,1.77,0.2,1.37,
14.067,76.52552351996168,62.74121955241699,-194.0,-10.0,39.0,1.0,0.0,0.0,0.0,0.0,1.0,1.0,1.86,0.2,1.37,
14.082,76.77255235199617,61.0571219552417,-182.0,-31.0,22.0,1.0,0.0,0.0,0.0,0.0,1.0,1.0,1.77,0.1,1.28,
14.095,76.69825523519961,60.46571219552417,-173.0,-36.0,14.0,0.0,0.0,0.0,0.0,0.0,1.0,1.0,1.86,0.0,1.28,
14.108,76.35782552351996,60.15457121955241,-170.0,-8.0,39.0,0.0,0.0,0.0,0.0,0.0,1.0,1.0,1.86,0.0,1.28,
14.123,76.91778255235201,59.87145712195524,-179.0,29.0,-3.0,0.0,0.0,0.0,0.0,0.0,1.0,1.0,2.06,0.0,1.28,
14.136,77.92777825523521,59.699145712195524,-169.0,-10.0,9.0,0.0,0.0,0.0,0.0,0.0,1.0,1.0,2.16,0.0,1.18,
14.149,77.98377782552352,59.86191457121956,-156.0,-42.0,10.0,0.0,0.0,0.0,0.0,0.0,1.0,1.0,2.26,0.0,1.18,
14.162,77.81837778255235,59.806191457121955,-145.0,-27.0,10.0,0.0,0.0,0.0,0.0,0.0,1.0,1.0,2.45,0.0,1.08,
14.177,77.93683777825524,59.6926191457122,-134.0,-8.0,-1.0,0.0,0.0,0.0,0.0,0.0,1.0,1.0,2.45,0.0,1.08,
14.19,78.35368377782552,59.50126191457122,-118.0,-6.0,-3.0,0.0,0.0,0.0,0.0,0.0,1.0,1.0,2.55,0.0,1.08,
14.203,78.51236837778256,59.446126191457125,-101.0,-12.0,-26.0,0.0,0.0,0.0,0.0,0.0,1.0,1.0,2.65,0.0,1.08,
14.217,78.29423683777826,59.32361261914571,-81.0,-16.0,-29.0,0.0,0.0,0.0,0.0,0.0,1.0,1.0,2.84,0.0,1.08,
14.23,77.72342368377782,59.59036126191457,-63.0,-20.0,-41.0,0.0,0.0,0.0,0.0,0.0,1.0,1.0,2.94,0.0,1.18,
14.244,76.84734236837778,60.319036126191456,-59.0,-17.0,-16.0,0.0,0.0,0.0,0.0,0.0,1.0,1.0,3.04,0.0,1.08,
14.258,76.83173423683778,60.53590361261915,-63.0,-22.0,4.0,0.0,0.0,0.0,0.0,0.0,1.0,1.0,2.75,0.0,1.08,
14.271,77.35217342368378,60.26059036126191,-68.0,-42.0,-1.0,0.0,0.0,0.0,0.0,0.0,1.0,1.0,2.45,0.0,1.08,
14.284,77.28721734236838,60.37705903612619,-63.0,-51.0,-19.0,0.0,0.0,0.0,0.0,0.0,1.0,1.0,2.45,0.0,1.18,
14.298,76.47972173423685,61.44170590361262,-45.0,-19.0,-32.0,0.0,0.0,0.0,0.0,0.0,1.0,1.0,2.75,0.0,1.28,
14.312,75.79597217342368,63.12317059036127,-11.0,57.0,-39.0,0.0,0.0,0.0,0.0,0.0,1.0,1.0,3.04,0.0,1.28,
14.325,76.17759721734237,65.07331705903613,24.0,131.0,-47.0,0.0,0.0,0.0,0.0,0.0,1.0,1.0,3.43,0.0,1.18,
14.339,77.35875972173423,67.21233170590362,51.0,154.0,-16.0,0.0,0.0,0.0,0.0,0.0,1.0,1.0,3.53,0.0,1.08,
14.352,79.83487597217342,68.99223317059037,66.0,102.0,0.0,0.0,0.0,0.0,0.0,0.0,1.0,1.0,3.34,0.0,0.98,
14.366,82.07148759721733,71.66322331705904,63.0,18.0,10.0,0.0,0.0,0.0,0.0,0.0,1.0,1.0,3.04,0.0,0.88,
14.38,82.87114875972173,73.7843223317059,64.0,-63.0,47.0,0.0,0.0,0.0,0.0,0.0,1.0,1.0,2.94,0.0,0.88,
14.393,82.75311487597216,75.00443223317059,46.0,-91.0,35.0,0.0,0.0,0.0,0.0,0.0,1.0,1.0,2.45,0.0,0.88,
14.406,81.88631148759723,75.26144322331707,37.0,-63.0,25.0,0.0,0.0,0.0,0.0,0.0,1.0,1.0,2.45,0.0,0.88,
14.419,81.53863114875973,74.02714432233171,34.0,-17.0,-12.0,0.0,0.0,0.0,0.0,0.0,1.0,1.0,2.65,0.0,0.98,
14.433,73.23286311487598,66.31671443223317,70.0,70.0,-10.0,0.0,0.0,0.0,0.0,0.0,1.0,1.0,2.94,0.0,0.98,
14.446,69.7652863114876,62.17967144322332,78.0,76.0,2.0,0.0,0.0,0.0,0.0,0.0,1.0,1.0,3.14,0.0,1.08,
14.459,67.96952863114875,60.748967144322336,158.0,104.0,23.0,0.0,0.0,0.0,0.0,0.0,1.0,1.0,2.94,13.24,1.18,
14.474,69.43695286311487,70.46989671443222,230.0,157.0,164.0,0.0,0.0,0.0,0.0,0.0,1.0,1.0,2.55,49.74,1.28,
14.487,75.42469528631149,70.24498967144322,247.0,-7.0,63.0,0.0,0.0,0.0,0.0,0.0,1.0,1.0,2.06,88.29,0.98,
14.5,80.46946952863115,70.94249896714432,200.0,-72.0,-205.0,0.0,0.0,0.0,0.0,0.0,1.0,1.0,1.18,105.65,0.78,
14.515,82.49494695286312,76.65524989671444,162.0,-15.0,-143.0,0.0,0.0,0.0,0.0,0.0,1.0,1.0,0.2,113.31,0.88,
14.528,82.91349469528632,79.71952498967144,126.0,-56.0,123.0,0.0,0.0,0.0,0.0,0.0,1.0,1.0,0.0,123.61,1.28,
14.542,79.67034946952863,80.74595249896714,147.0,23.0,113.0,0.0,0.0,0.0,0.0,0.0,1.0,1.0,0.0,136.56,1.67,
14.556,72.20003494695287,71.78559524989672,129.0,124.0,102.0,0.0,0.0,0.0,0.0,0.0,1.0,1.0,0.0,149.41,1.96,
14.57,71.34500349469529,70.86255952498968,152.0,23.0,17.0,1.0,1.0,1.0,0.0,0.0,1.0,1.0,0.0,171.38,2.26,
14.584,76.03850034946954,73.98325595249898,94.0,61.0,-121.0,2.0,2.0,1.0,0.0,0.0,1.0,1.0,0.29,185.9,3.24,
14.598,83.77985003494696,77.66132559524989,29.0,47.0,-50.0,3.0,3.0,2.0,0.0,0.0,0.0,1.0,0.78,210.33,4.32,
14.612,83.1319850034947,78.02913255952498,0.0,40.0,20.0,3.0,4.0,2.0,0.0,0.0,1.0,1.0,1.96,237.11,5.3,
14.626,83.30119850034947,78.7049132559525,-1.0,64.0,21.0,3.0,5.0,2.0,0.0,0.0,1.0,0.0,3.04,265.56,5.89,
14.641,83.23711985003496,77.63849132559525,3.0,53.0,10.0,4.0,5.0,2.0,0.0,0.0,2.0,0.0,2.94,266.54,6.67,
14.654,83.5097119850035,77.11784913255953,3.0,51.0,-3.0,3.0,6.0,2.0,0.0,0.0,2.0,0.0,2.55,264.87,6.87,
14.668,84.22997119850035,76.89478491325596,3.0,49.0,-7.0,4.0,6.0,2.0,0.0,0.0,2.0,0.0,2.45,263.99,7.16,
14.683,84.51799711985004,76.22447849132561,2.0,49.0,-11.0,4.0,7.0,2.0,0.0,0.0,2.0,0.0,3.24,268.21,7.55,
14.697,85.05079971198501,75.98644784913255,0.0,50.0,-15.0,4.0,7.0,2.0,0.0,0.0,2.0,0.0,6.38,272.33,8.14,
14.711,85.7520799711985,75.81864478491325,-2.0,41.0,-11.0,4.0,8.0,2.0,0.0,0.0,3.0,0.0,8.44,277.03,8.34,
14.725,86.17320799711985,75.74786447849132,-3.0,30.0,-10.0,4.0,8.0,2.0,0.0,0.0,3.0,0.0,10.69,288.41,8.44,
14.739,86.28732079971198,75.63278644784914,-3.0,31.0,-5.0,5.0,8.0,2.0,0.0,0.0,3.0,1.0,12.85,294.4,8.63,
14.753,86.3707320799712,75.52227864478492,-4.0,29.0,-4.0,5.0,8.0,2.0,0.0,0.0,3.0,1.0,17.36,299.5,8.73,
14.768,86.58607320799712,75.26822786447849,-5.0,28.0,-8.0,5.0,9.0,2.0,0.0,0.0,3.0,1.0,19.42,302.83,8.93,
14.782,87.00360732079972,75.02682278644785,-3.0,21.0,-9.0,5.0,9.0,2.0,0.0,0.0,3.0,1.0,21.29,304.21,9.03,
14.796,87.36036073207998,74.84968227864478,-3.0,17.0,-12.0,5.0,9.0,2.0,0.0,0.0,2.0,1.0,22.86,302.74,9.12,
14.811,87.900036073208,74.76896822786448,-2.0,17.0,-14.0,5.0,9.0,3.0,0.0,0.0,2.0,1.0,25.21,300.09,9.12,
14.825,88.3860036073208,74.71589682278643,-5.0,16.0,-14.0,5.0,9.0,3.0,0.0,0.0,2.0,1.0,26.19,293.81,9.12,
14.839,88.83060036073208,74.61158968227865,-2.0,8.0,-8.0,5.0,10.0,3.0,0.0,0.0,2.0,1.0,27.08,290.77,8.83,
14.854,89.2710600360732,74.43015896822786,-1.0,12.0,-12.0,5.0,10.0,3.0,0.0,0.0,2.0,1.0,28.74,287.92,8.63,
14.868,89.04510600360732,74.61001589682279,-2.0,14.0,-15.0,5.0,10.0,3.0,0.0,0.0,2.0,1.0,29.33,282.82,8.63,
14.882,89.05851060036073,74.62800158968228,-1.0,8.0,-12.0,5.0,10.0,3.0,0.0,0.0,2.0,1.0,30.02,280.17,8.53,
14.897,89.31185106003608,74.57580015896822,-1.0,8.0,-11.0,5.0,10.0,3.0,0.0,0.0,2.0,1.0,30.51,277.72,8.34,
14.911,89.43618510600362,74.46258001589683,-1.0,7.0,-10.0,5.0,10.0,3.0,0.0,0.0,1.0,1.0,31.49,275.76,8.34,
14.925,89.82661851060037,74.30725800158969,-1.0,-5.0,-2.0,5.0,10.0,3.0,0.0,0.0,1.0,1.0,32.08,272.52,8.34,
14.941,91.35066185106002,74.46272580015898,0.0,-17.0,9.0,5.0,11.0,3.0,0.0,0.0,1.0,1.0,32.67,271.74,8.53,
14.954,90.189066185106,73.7672725800159,-1.0,2.0,-8.0,5.0,11.0,3.0,0.0,0.0,1.0,1.0,33.26,271.25,8.53,
14.968,89.7759066185106,73.49072725800158,-2.0,2.0,-6.0,5.0,11.0,3.0,0.0,0.0,1.0,1.0,34.43,269.97,8.53,
14.983,90.00459066185105,73.48107272580016,-2.0,2.0,-4.0,5.0,11.0,3.0,0.0,0.0,1.0,1.0,35.02,269.28,8.53,
14.997,90.0364590661851,73.68710727258001,-1.0,-4.0,1.0,5.0,11.0,3.0,0.0,0.0,1.0,1.0,35.51,268.3,8.63,
15.011,92.08264590661852,74.62571072725801,0.0,-11.0,6.0,5.0,11.0,3.0,0.0,0.0,1.0,1.0,36.59,266.93,8.63,
15.026,91.65726459066185,74.5665710727258,0.0,-5.0,-2.0,5.0,11.0,3.0,0.0,0.0,1.0,1.0,36.98,262.32,8.63,
15.04,91.23672645906618,74.81265710727259,0.0,-5.0,0.0,5.0,11.0,3.0,0.0,0.0,1.0,1.0,37.38,259.57,8.63,
15.054,90.88867264590661,74.81926571072725,0.0,-5.0,-1.0,5.0,11.0,3.0,0.0,0.0,1.0,1.0,37.67,256.83,8.73,
15.069,90.31386726459067,75.02692657107272,0.0,-2.0,-1.0,5.0,11.0,3.0,0.0,0.0,1.0,1.0,38.55,251.72,8.73,
15.083,90.17538672645907,74.89469265710727,0.0,0.0,-1.0,5.0,11.0,3.0,0.0,0.0,1.0,1.0,38.65,249.57,8.83,
15.096,89.99953867264591,74.95346926571072,0.0,0.0,-2.0,5.0,11.0,3.0,0.0,0.0,1.0,1.0,38.85,247.6,8.83,
15.111,89.5589538672646,74.88734692657107,0.0,1.0,-2.0,5.0,11.0,3.0,0.0,0.0,1.0,1.0,38.85,245.84,8.93,
15.125,89.28089538672646,74.76373469265711,0.0,3.0,-4.0,5.0,11.0,3.0,0.0,0.0,1.0,1.0,38.65,244.17,8.93,
15.139,89.21708953867264,74.73337346926571,0.0,4.0,-3.0,5.0,11.0,3.0,0.0,0.0,1.0,1.0,38.46,244.86,9.12,
15.154,89.27370895386727,74.89233734692657,0.0,2.0,-3.0,5.0,11.0,3.0,0.0,0.0,1.0,1.0,38.46,246.13,9.22,
15.168,89.38737089538674,74.90823373469266,1.0,2.0,-5.0,5.0,11.0,3.0,0.0,0.0,1.0,1.0,38.46,247.31,9.42,
15.181,89.45273708953867,74.91882337346927,1.0,2.0,-5.0,5.0,11.0,3.0,0.0,0.0,1.0,1.0,38.55,248.19,9.61,
15.196,89.20727370895388,77.02588233734693,-4.0,15.0,15.0,5.0,11.0,3.0,0.0,0.0,2.0,2.0,38.55,248.68,9.71,
15.21,88.69672737089539,77.34458823373468,-1.0,2.0,-3.0,5.0,12.0,3.0,0.0,0.0,2.0,2.0,38.46,249.96,9.91,
15.224,88.33067273708954,77.94345882337348,-1.0,3.0,-2.0,5.0,11.0,3.0,0.0,0.0,2.0,2.0,38.46,255.26,10.01,
15.239,88.25806727370895,77.68834588233736,-1.0,5.0,0.0,5.0,11.0,3.0,0.0,0.0,2.0,2.0,38.36,258.1,10.5,
15.253,88.26880672737089,77.23983458823373,-1.0,10.0,-3.0,5.0,11.0,3.0,0.0,0.0,2.0,2.0,38.26,260.06,10.59,
15.267,88.6118806727371,76.80798345882337,-2.0,13.0,-4.0,5.0,11.0,3.0,0.0,0.0,2.0,2.0,37.77,260.85,10.79,
15.282,89.06918806727373,76.43179834588234,-3.0,9.0,-8.0,5.0,11.0,3.0,0.0,0.0,2.0,2.0,34.43,259.18,11.67,
15.296,89.41191880672739,76.19617983458824,-6.0,1.0,-8.0,5.0,10.0,3.0,0.0,0.0,2.0,1.0,32.37,253.2,11.97,
15.31,89.80619188067273,75.75861798345882,-9.0,-4.0,-7.0,5.0,10.0,3.0,0.0,0.0,2.0,1.0,30.51,241.13,11.67,
15.325,90.18761918806727,75.24686179834589,5.0,-13.0,13.0,5.0,9.0,3.0,0.0,0.0,2.0,1.0,28.94,203.56,10.99,
15.339,89.86576191880673,75.06968617983459,7.0,-40.0,11.0,5.0,9.0,3.0,0.0,0.0,2.0,1.0,25.11,180.01,9.52,
15.353,89.54557619188068,75.36696861798347,3.0,-27.0,10.0,5.0,8.0,3.0,0.0,0.0,2.0,1.0,22.86,155.1,9.03,
15.368,89.64855761918807,75.43269686179835,-1.0,-23.0,2.0,5.0,8.0,3.0,0.0,0.0,2.0,0.0,20.9,114.88,8.63,
15.382,89.17285576191881,75.29526968617984,-5.0,-10.0,-4.0,6.0,7.0,2.0,0.0,0.0,2.0,0.0,18.84,103.1,8.14,
15.396,88.99928557619188,75.21852696861798,-7.0,-7.0,-2.0,6.0,7.0,2.0,0.0,0.0,2.0,0.0,15.11,96.43,7.85,
15.411,88.77492855761919,74.95885269686181,-5.0,-9.0,-5.0,5.0,7.0,2.0,0.0,0.0,2.0,0.0,13.54,92.9,7.65,
15.425,88.52749285576192,74.77088526968619,-4.0,-8.0,-6.0,5.0,6.0,2.0,0.0,0.0,2.0,0.0,12.07,88.19,445.57,
15.448,88.4307492855762,74.76108852696862,-2.0,-9.0,-8.0,5.0,6.0,2.0,0.0,0.0,2.0,0.0,9.81,84.37,6.38,
15.461,88.21407492855761,74.70610885269687,-2.0,-7.0,-8.0,4.0,6.0,2.0,0.0,0.0,1.0,0.0,8.93,73.48,5.79,
15.475,88.02140749285576,74.84461088526967,-5.0,-11.0,-13.0,4.0,5.0,2.0,0.0,0.0,1.0,0.0,7.36,67.79,5.3,
15.49,87.69614074928558,74.98446108852697,-7.0,-5.0,-13.0,3.0,5.0,2.0,0.0,0.0,1.0,0.0,6.57,62.69,4.91,
15.503,87.49261407492855,75.1604461088527,-9.0,-9.0,-1.0,3.0,5.0,2.0,0.0,0.0,1.0,0.0,5.79,54.64,3.92,
15.517,87.12126140749285,75.41204461088527,-7.0,-2.0,11.0,3.0,5.0,2.0,0.0,0.0,1.0,0.0,5.1,51.5,3.53,
15.531,87.30912614074927,74.74420446108853,-6.0,-6.0,8.0,3.0,4.0,2.0,0.0,0.0,0.0,0.0,3.83,48.76,3.24,
15.545,87.27391261407492,75.51442044610884,1.0,28.0,31.0,3.0,4.0,2.0,0.0,0.0,0.0,0.0,3.34,46.5,2.84,
15.558,87.13539126140749,73.45844204461089,-11.0,-9.0,2.0,2.0,4.0,1.0,0.0,0.0,0.0,0.0,3.04,42.87,2.45,
15.572,87.22953912614074,72.70384420446109,-8.0,-22.0,-2.0,3.0,4.0,1.0,0.0,0.0,0.0,0.0,2.75,41.4,2.35,
15.586,86.62695391261408,72.70038442044611,-4.0,-3.0,-10.0,3.0,4.0,1.0,0.0,0.0,0.0,0.0,2.35,40.12,2.26,
15.6,86.33269539126141,72.78103844204462,-2.0,1.0,-3.0,3.0,4.0,2.0,0.0,0.0,0.0,0.0,2.26,38.75,2.26,
15.613,86.63626953912615,72.98710384420447,0.0,4.0,-1.0,3.0,4.0,2.0,0.0,0.0,0.0,0.0,2.35,36.69,2.35,
15.628,86.76562695391262,73.63771038442044,2.0,11.0,13.0,3.0,4.0,2.0,0.0,0.0,0.0,0.0,2.55,36.3,2.45,
15.641,86.96756269539125,74.31477103844205,1.0,4.0,2.0,3.0,4.0,2.0,0.0,0.0,1.0,0.0,2.75,36.3,2.55,
15.655,87.08675626953912,74.40947710384421,2.0,2.0,-2.0,3.0,4.0,2.0,0.0,0.0,1.0,0.0,3.04,36.98,2.75,
15.669,86.9816756269539,74.47294771038443,2.0,2.0,0.0,3.0,4.0,2.0,0.0,0.0,1.0,0.0,3.24,39.04,2.94,
15.682,87.0341675626954,74.54229477103844,1.0,5.0,-2.0,3.0,4.0,2.0,0.0,0.0,1.0,0.0,3.34,40.02,3.14,
15.696,86.99441675626953,74.54022947710385,2.0,3.0,-1.0,4.0,4.0,2.0,0.0,0.0,1.0,0.0,3.53,40.61,3.34,
15.71,86.98144167562697,74.47702294771038,3.0,7.0,-2.0,4.0,5.0,2.0,0.0,0.0,1.0,0.0,3.92,41.2,3.43,
15.724,87.1961441675627,74.47070229477103,3.0,5.0,0.0,4.0,5.0,2.0,0.0,0.0,1.0,0.0,4.32,41.89,3.73,
15.737,87.24461441675628,74.4610702294771,3.0,3.0,0.0,4.0,5.0,2.0,0.0,0.0,1.0,0.0,4.71,41.69,4.41,
15.752,87.38446144167564,74.56810702294771,2.0,2.0,-1.0,4.0,5.0,2.0,0.0,0.0,1.0,0.0,5.1,41.1,4.81,
15.765,87.29044614416757,74.74081070229478,2.0,1.0,-2.0,4.0,5.0,2.0,0.0,0.0,2.0,0.0,5.69,40.42,5.2,
15.779,87.27204461441674,74.90208107022947,1.0,2.0,-2.0,4.0,5.0,2.0,0.0,0.0,2.0,0.0,6.77,38.95,5.59,
15.793,87.46820446144167,74.92720810702296,4.0,3.0,-3.0,4.0,5.0,1.0,0.0,0.0,2.0,0.0,7.16,37.87,6.38,
15.807,87.79382044614417,75.0647208107023,4.0,2.0,0.0,4.0,5.0,2.0,0.0,0.0,2.0,0.0,7.65,36.59,6.77,
15.82,88.10538204461443,75.27647208107022,4.0,1.0,1.0,4.0,5.0,2.0,0.0,0.0,2.0,0.0,8.14,34.92,7.16,
15.835,88.16353820446145,75.35164720810702,3.0,1.0,1.0,4.0,6.0,2.0,0.0,0.0,2.0,0.0,9.32,32.27,7.55,
15.848,88.14235382044615,75.4491647208107,2.0,3.0,2.0,5.0,6.0,2.0,0.0,0.0,3.0,0.0,9.81,31.78,8.34,
15.862,88.34723538204462,75.59391647208108,0.0,2.0,0.0,5.0,6.0,2.0,0.0,0.0,3.0,0.0,10.1,31.78,8.63,
15.876,88.33172353820446,75.64439164720811,0.0,0.0,-2.0,5.0,6.0,2.0,0.0,0.0,3.0,0.0,10.59,32.27,9.03,
15.89,88.23117235382044,75.56843916472081,-1.0,1.0,-1.0,5.0,6.0,2.0,0.0,0.0,3.0,0.0,10.89,33.45,9.32,
15.904,88.25711723538205,75.64184391647208,0.0,2.0,0.0,5.0,6.0,2.0,0.0,0.0,3.0,0.0,11.38,33.65,9.52,
15.918,88.40371172353821,75.69418439164721,0.0,1.0,0.0,5.0,6.0,2.0,0.0,0.0,3.0,0.0,11.67,33.84,9.61,
15.932,88.38237117235383,75.85241843916472,0.0,2.0,1.0,5.0,6.0,2.0,0.0,0.0,3.0,0.0,11.87,33.94,9.91,
15.945,88.44323711723538,75.91324184391647,-1.0,1.0,0.0,5.0,6.0,2.0,0.0,0.0,3.0,0.0,12.16,34.83,10.2,
15.96,88.45832371172352,75.92832418439164,-1.0,1.0,-1.0,5.0,6.0,1.0,0.0,0.0,3.0,0.0,12.56,35.61,10.4,
15.974,88.44183237117235,75.94783241843916,-2.0,1.0,-1.0,5.0,6.0,1.0,0.0,0.0,3.0,0.0,12.65,36.4,10.5,
15.988,88.54818323711724,75.91378324184392,-2.0,1.0,-2.0,5.0,6.0,1.0,0.0,0.0,3.0,0.0,12.75,37.28,10.59,
16.003,88.58581832371173,75.86537832418439,-1.0,1.0,-1.0,5.0,6.0,2.0,0.0,0.0,3.0,0.0,12.95,38.85,10.99,
16.017,88.65258183237117,75.91453783241845,-1.0,2.0,-1.0,5.0,6.0,2.0,0.0,0.0,3.0,0.0,13.54,39.34,11.28,
16.03,88.66825818323711,75.92845378324185,-1.0,1.0,0.0,6.0,6.0,2.0,0.0,0.0,4.0,0.0,13.83,39.83,11.58,
16.045,88.7418258183237,75.98384537832418,-1.0,2.0,0.0,6.0,7.0,2.0,0.0,0.0,4.0,0.0,14.22,41.3,11.77,
16.059,88.81218258183237,75.92638453783242,-1.0,1.0,0.0,6.0,7.0,2.0,0.0,0.0,4.0,0.0,14.62,42.08,12.26,
16.073,88.93621825818325,75.94763845378324,0.0,1.0,1.0,6.0,7.0,2.0,0.0,0.0,4.0,0.0,15.5,42.87,12.56,
16.087,88.88562182581833,75.93176384537833,0.0,0.0,3.0,6.0,7.0,2.0,0.0,0.0,4.0,0.0,15.99,43.46,12.85,
16.101,88.79956218258184,75.94817638453783,0.0,1.0,1.0,6.0,7.0,2.0,1.0,0.0,4.0,0.0,16.38,43.85,13.54,
16.115,88.78195621825819,75.95881763845377,0.0,1.0,2.0,6.0,7.0,2.0,1.0,0.0,4.0,0.0,16.97,44.05,14.03,
16.129,88.78019562182581,75.95988176384536,0.0,2.0,3.0,6.0,7.0,2.0,1.0,0.0,4.0,0.0,17.85,44.64,14.42,
16.143,88.81601956218259,75.95998817638453,0.0,1.0,3.0,6.0,7.0,3.0,1.0,0.0,4.0,0.0,18.15,45.22,15.01,
16.157,88.80160195621826,76.05899881763844,-1.0,2.0,2.0,6.0,7.0,2.0,1.0,0.0,4.0,0.0,18.44,46.79,15.79,
16.172,88.86316019562183,76.11389988176386,-1.0,2.0,3.0,6.0,7.0,3.0,1.0,0.0,5.0,0.0,18.74,47.68,16.09,
16.185,88.95031601956217,76.07438998817638,0.0,0.0,2.0,6.0,7.0,3.0,1.0,0.0,5.0,0.0,19.23,48.76,16.38,
16.199,88.78803160195622,76.11543899881765,-1.0,2.0,3.0,6.0,7.0,3.0,1.0,0.0,5.0,0.0,19.42,51.11,16.58,
16.214,88.94280316019561,76.14654389988178,-1.0,1.0,2.0,7.0,8.0,3.0,1.0,0.0,5.0,0.0,19.62,52.29,16.87,
16.227,88.79628031601956,76.23965438998817,-1.0,0.0,2.0,6.0,8.0,3.0,1.0,0.0,5.0,0.0,19.82,53.56,17.07,
16.241,88.75462803160195,76.23096543899882,-1.0,1.0,2.0,6.0,8.0,3.0,1.0,0.0,5.0,0.0,20.11,54.64,17.27,
16.256,88.8494628031602,76.23009654389988,0.0,0.0,1.0,6.0,8.0,3.0,1.0,0.0,5.0,0.0,20.31,55.92,17.56,
16.27,88.69694628031603,76.21200965438999,0.0,3.0,2.0,7.0,8.0,3.0,1.0,0.0,5.0,0.0,20.7,56.21,18.15,
16.283,88.7626946280316,76.381200965439,-1.0,-1.0,3.0,7.0,8.0,3.0,1.0,0.0,5.0,0.0,20.9,56.51,18.34,
16.297,88.82326946280315,76.3171200965439,-1.0,1.0,0.0,7.0,8.0,3.0,1.0,0.0,5.0,0.0,21.19,56.7,18.64,
16.312,88.85632694628032,76.2927120096544,0.0,0.0,1.0,7.0,8.0,3.0,1.0,0.0,5.0,0.0,21.29,56.9,19.03,
16.325,88.83263269462803,76.30827120096544,-1.0,0.0,0.0,7.0,8.0,3.0,1.0,0.0,5.0,0.0,21.39,56.8,19.23,
16.339,88.8842632694628,76.36382712009654,-1.0,0.0,0.0,7.0,8.0,3.0,1.0,0.0,5.0,0.0,21.58,56.7,19.42,
16.354,88.93442632694628,76.34238271200965,-1.0,0.0,0.0,7.0,8.0,3.0,1.0,0.0,5.0,0.0,21.97,56.41,19.62,
16.368,88.97544263269464,76.35823827120097,-1.0,0.0,0.0,7.0,8.0,3.0,1.0,0.0,5.0,0.0,21.97,55.52,20.11,
16.381,89.00654426326948,76.4318238271201,-1.0,0.0,0.0,7.0,8.0,3.0,1.0,0.0,6.0,0.0,21.97,54.94,20.4,
16.396,88.93765442632696,76.50218238271202,-1.0,0.0,0.0,7.0,8.0,3.0,1.0,0.0,6.0,0.0,22.07,54.45,20.6,
16.41,88.9487654426327,76.52721823827122,-1.0,0.0,0.0,7.0,8.0,3.0,1.0,0.0,6.0,0.0,22.17,53.66,20.7,
16.424,88.99487654426328,76.58372182382713,-1.0,0.0,0.0,7.0,8.0,3.0,1.0,0.0,6.0,0.0,22.27,53.46,20.99,
16.438,88.96348765442632,76.56237218238272,-1.0,0.0,0.0,7.0,8.0,3.0,1.0,0.0,6.0,0.0,22.17,53.17,20.99,
16.452,88.90634876544263,76.59623721823827,-1.0,0.0,0.0,7.0,8.0,3.0,1.0,0.0,6.0,0.0,22.27,52.88,20.99,
16.466,88.87363487654426,76.59962372182382,-1.0,0.0,0.0,7.0,8.0,3.0,1.0,0.0,6.0,0.0,22.27,52.19,21.19,
16.481,88.85236348765443,76.57296237218237,-1.0,-1.0,-1.0,7.0,8.0,3.0,1.0,0.0,6.0,0.0,22.37,51.7,21.29,
16.495,88.84123634876545,76.57029623721823,-1.0,0.0,0.0,7.0,8.0,3.0,1.0,0.0,6.0,0.0,22.37,51.11,21.29,
16.508,88.83112363487655,76.61502962372184,0.0,-1.0,0.0,7.0,8.0,3.0,1.0,0.0,6.0,0.0,22.37,50.42,21.29,
16.523,88.84811236348766,76.6465029623722,-1.0,0.0,0.0,7.0,8.0,3.0,1.0,0.0,6.0,0.0,22.56,48.66,21.39,
16.537,88.84081123634877,76.58665029623721,-1.0,-1.0,0.0,7.0,8.0,3.0,1.0,0.0,6.0,0.0,22.66,47.77,21.48,
16.551,88.80408112363487,76.61666502962373,-1.0,-1.0,-1.0,7.0,8.0,3.0,1.0,0.0,6.0,0.0,22.76,46.79,21.58,
16.566,88.82740811236349,76.68266650296238,-1.0,0.0,0.0,7.0,8.0,3.0,1.0,0.0,6.0,0.0,22.96,45.13,21.58,
16.579,88.85674081123635,76.65326665029625,-1.0,0.0,0.0,7.0,8.0,3.0,1.0,0.0,6.0,0.0,23.05,44.44,21.68,
16.593,88.88667408112363,76.66832666502962,-1.0,0.0,0.0,7.0,8.0,3.0,1.0,0.0,6.0,0.0,23.15,43.85,21.68,
16.608,88.88066740811237,76.67883266650297,-1.0,0.0,0.0,7.0,8.0,3.0,1.0,0.0,6.0,0.0,23.25,43.46,21.68,
16.622,88.82606674081124,76.6978832666503,-1.0,0.0,-1.0,7.0,8.0,3.0,1.0,0.0,6.0,0.0,23.25,42.67,21.68,
16.635,88.88360667408112,76.71778832666503,-1.0,0.0,-1.0,7.0,8.0,3.0,1.0,0.0,6.0,0.0,23.45,42.18,21.68,
16.65,88.86236066740811,76.78277883266651,-1.0,0.0,-1.0,7.0,8.0,3.0,1.0,0.0,6.0,0.0,23.54,41.5,21.68,
16.664,88.86923606674081,76.77127788326665,-1.0,0.0,-1.0,7.0,8.0,3.0,1.0,0.0,6.0,0.0,23.54,41.01,21.68,
16.678,88.82492360667408,76.77012778832666,-1.0,0.0,0.0,7.0,8.0,3.0,1.0,0.0,6.0,0.0,23.54,40.12,21.78,
16.693,88.8204923606674,76.80601277883267,-1.0,0.0,0.0,7.0,8.0,3.0,1.0,0.0,6.0,0.0,23.54,39.73,21.68,
16.706,88.76604923606673,76.81860127788326,-1.0,0.0,0.0,7.0,8.0,3.0,1.0,0.0,6.0,0.0,23.54,39.34,21.68,
16.72,88.78760492360666,76.81986012778832,-1.0,0.0,0.0,7.0,8.0,3.0,1.0,0.0,6.0,0.0,23.45,38.85,21.58,
16.735,88.77176049236067,76.85598601277884,-2.0,0.0,-1.0,7.0,8.0,3.0,1.0,0.0,6.0,0.0,23.45,38.55,21.58,
16.749,88.78817604923607,76.85059860127788,-1.0,0.0,0.0,7.0,8.0,3.0,1.0,0.0,6.0,0.0,23.54,38.36,21.58,
