time,pitch,roll,gyrx,gyry,gyrz,f1,f2,f3,f4,f5,f6,f7,g1,g2,g3
0.433,40.81,92.37,-2.5,1.11,1.39,0,0,0,10,0,0,0,0.00,0.00,0.10,
0.456,44.122,99.90299999999999,-2.92,1.15,3.05,0,0,0,10,0,0,0,0.00,0.10,0.49,
0.481,47.0542,107.01930000000002,-3.55,-0.5,2.15,0,0,0,10,0,0,0,0.00,0.20,0.78,
0.504,49.75942,113.20293000000001,-4.01,-0.2,0.75,0,0,0,10,0,0,0,0.00,0.20,0.59,
0.528,52.099942,118.51029299999999,-3.93,1.24,-0.39,0,0,0,10,0,0,0,0.00,0.20,0.10,
0.551,54.0349942,122.9830293,-3.8,1.81,-0.4,0,0,0,10,0,0,0,0.00,0.20,0.00,
0.576,55.668499419999996,126.86830292999998,-4.22,1.92,0.71,0,0,0,10,0,0,0,0.00,0.29,0.39,
0.6,56.848849941999994,130.163830293,-3.95,0.95,1.39,0,0,0,10,0,0,0,0.00,0.20,0.69,
0.623,57.8038849942,132.9773830293,-3.28,1.22,0.41,0,0,0,10,0,0,0,0.00,0.29,0.78,
0.647,58.79038849942,135.31973830293,-3.17,0.79,-0.21,0,0,0,10,0,0,0,0.00,0.29,0.49,
0.671,59.564038849942,137.281973830293,-3.34,0.42,0.72,0,0,0,10,0,0,0,0.00,0.29,0.00,
0.695,60.370403884994204,138.9901973830293,-2.44,1.42,0.77,0,0,0,10,0,0,0,0.00,0.39,0.10,
0.718,60.86504038849942,140.54701973830294,-3.07,0.82,1.47,0,0,0,10,0,0,0,0.00,0.39,0.49,
0.742,61.130504038849935,141.80970197383027,-1.69,0.27,0.51,0,0,0,10,0,0,0,0.00,0.39,0.78,
0.765,61.47205040388499,143.00697019738303,-1.07,0.69,1.21,0,0,0,10,0,0,0,0.00,0.39,0.78,
0.79,61.7132050403885,143.91869701973832,-0.72,0.1,1.89,0,0,0,10,0,0,0,0.00,0.39,0.29,
0.814,62.034320504038845,144.60386970197385,-1.02,-0.05,1.78,0,0,0,10,0,0,0,0.00,0.39,0.00,
0.837,62.327432050403885,145.16738697019738,-1.79,-0.13,1.89,0,0,0,10,0,0,0,0.00,0.49,0.20,
0.861,62.446743205040384,145.69173869701976,-1.88,1.16,1.82,0,0,0,10,0,0,0,0.00,0.88,0.59,
0.884,62.602674320504036,146.068173869702,-1.11,0.04,1.11,0,0,0,10,0,0,0,0.00,0.39,0.78,
0.909,62.92426743205041,146.3758173869702,-2.58,-1.42,1.44,0,0,0,10,0,0,0,0.00,0.00,0.59,
0.932,63.27142674320505,146.523581738697,-3.35,0.12,1.73,0,0,0,10,0,0,0,0.00,0.10,0.20,
0.956,63.4591426743205,146.7453581738697,-4.34,0.58,1.79,0,0,0,10,0,0,0,0.00,0.00,0.10,
0.979,63.65791426743205,146.84853581738696,-5.29,0.24,1.69,0,0,0,10,0,0,0,0.00,0.00,0.59,
1.003,64.1187914267432,146.99385358173868,-4.37,1.03,0.21,0,0,0,10,0,0,0,0.00,0.00,0.98,
1.028,64.41687914267432,147.13438535817386,-6.02,1.04,0.63,0,0,0,10,0,0,0,0.00,0.00,0.98,
1.051,64.42868791426744,147.25643853581738,-5.93,1.77,0.95,0,0,0,10,0,0,0,0.00,0.00,0.49,
1.075,64.54686879142675,147.47564385358174,-5.75,2.02,0.82,0,0,0,10,0,0,0,0.00,0.00,0.20,
1.098,64.53168687914268,147.60556438535818,-5.88,1.12,0.66,0,0,0,10,0,0,0,0.00,0.10,0.20,
1.122,64.44916868791427,147.80755643853584,-5.11,1.39,0.06,0,0,0,10,0,0,0,0.00,0.10,0.78,
1.146,64.37791686879143,147.98975564385358,-4.81,1.3,0.56,0,0,0,10,0,0,0,0.10,0.00,0.78,
1.17,64.19079168687914,148.04397556438536,-4.66,0.76,0.67,0,0,0,10,0,0,0,0.00,0.10,0.78,
1.193,64.19007916868792,148.08539755643855,-4.06,0.8,0.62,0,0,0,10,0,0,0,0.00,0.20,0.29,
1.217,64.13600791686879,148.13453975564386,-3.95,0.35,0.38,0,0,0,10,0,0,0,0.00,0.20,0.10,
1.241,64.11260079168687,148.1844539755644,-3.7,0.58,0.84,0,0,0,10,0,0,0,0.00,0.20,0.29,
1.265,64.21826007916869,148.27944539755643,-4.08,0.46,1.03,0,0,0,10,0,0,0,0.00,0.10,0.78,
1.289,64.32782600791687,148.33394453975563,-3.26,1.32,1.34,0,0,0,10,0,0,0,0.00,0.29,0.88,
1.312,64.28478260079169,148.33939445397556,-2.55,1.02,0.76,0,0,0,10,0,0,0,0.00,0.20,0.69,
1.336,64.32547826007917,148.3579394453976,-2.99,0.05,0.59,0,0,0,10,0,0,0,0.00,0.20,0.39,
1.359,64.39254782600793,148.26979394453974,-2.82,1.13,0.56,0,0,0,10,0,0,0,0.00,0.20,0.29,
1.384,64.34525478260079,148.19797939445397,-3.37,1.64,0.82,0,0,0,10,0,0,0,0.00,0.29,0.78,
1.408,64.31352547826009,148.1817979394454,-3.69,1.18,1.16,0,0,0,10,0,0,0,0.00,0.20,0.88,
1.431,64.220352547826,148.27017979394452,-3.36,0.95,0.84,0,0,0,10,0,0,0,0.00,0.29,0.69,
1.455,64.1570352547826,148.24301797939447,-2.69,0.53,0.42,0,0,0,10,0,0,0,0.00,0.29,0.29,
1.478,64.24070352547827,148.20430179793945,-2.73,0.1,0.6,0,0,0,10,0,0,0,0.00,0.39,0.29,
1.503,64.34807035254782,148.09243017979395,-3.48,-0.03,0.89,0,0,0,10,0,0,0,0.00,0.29,0.39,
1.526,64.52080703525479,148.0902430179794,-3.92,0.76,0.82,0,0,0,10,0,0,0,0.10,0.20,0.78,
1.55,64.64608070352547,148.09002430179794,-3.98,1.1,1.37,0,0,0,10,0,0,0,0.00,0.29,0.98,
1.573,64.64960807035256,148.0720024301798,-3.72,1.63,0.89,0,0,0,10,0,0,0,0.00,0.29,0.69,
1.597,64.64096080703526,147.99820024301798,-3.6,1.27,1.14,0,0,0,10,0,0,0,0.00,0.29,0.20,
1.622,64.64009608070353,147.9998200243018,-4.07,0.46,0.79,0,0,0,10,0,0,0,0.00,0.39,0.29,
1.645,64.68500960807035,148.02698200243017,-5.06,0.5,1.24,0,0,0,10,0,0,0,0.00,0.39,0.49,
1.669,64.63550096080702,148.05669820024303,-4.49,1.8,0.86,0,0,0,10,0,0,0,0.00,0.39,0.98,
1.692,64.62155009608071,148.0056698200243,-4.21,1.13,0.31,0,0,0,10,0,0,0,0.00,0.39,0.78,
1.716,64.62015500960808,148.05456698200246,-4.21,0.71,0.37,0,0,0,10,0,0,0,0.00,0.39,0.49,
1.74,64.6380155009608,148.02345669820025,-4.37,0.9,0.52,0,0,0,10,0,0,0,0.00,0.29,0.10,
1.764,64.62180155009608,148.01134566982003,-5.37,-0.14,1.42,0,0,0,10,0,0,0,0.00,0.59,0.20,
1.787,64.54818015500962,148.100134566982,-4.39,1.54,0.34,0,0,0,10,0,0,0,0.00,0.59,0.78,
1.811,64.50481801550096,148.24401345669818,-4.25,1.11,-0.46,0,0,0,10,0,0,0,0.00,0.49,1.08,
1.836,64.39248180155009,148.3394013456698,-3.73,0.55,-0.55,0,0,0,10,0,0,0,0.00,0.49,0.88,
1.859,64.36324818015501,148.34894013456696,-2.43,1.02,1.02,0,0,0,10,0,0,0,0.00,0.59,0.29,
1.883,64.29732481801551,148.35889401345673,-2.9,-0.36,1.85,0,0,0,10,0,0,0,0.00,0.59,0.10,
1.906,64.19173248180155,148.40488940134566,-2.82,0.16,1.39,0,0,0,10,0,0,0,0.00,0.69,0.29,
1.931,64.20817324818015,148.40948894013457,-2.17,-0.03,0.7,0,0,0,10,0,0,0,0.00,0.59,0.00,
1.954,64.16481732481802,148.34694889401345,-1.83,0.85,0.82,0,0,0,10,0,0,0,0.00,0.59,0.00,
1.978,64.15148173248181,148.26869488940133,-2.4,0.15,1.51,0,0,0,10,0,0,0,0.10,0.49,0.49,
2.001,64.15914817324818,148.21586948894014,-2.36,-0.47,1.25,0,0,0,10,0,0,0,0.00,0.59,0.78,
2.026,64.2319148173248,148.09358694889403,-2.28,1.3,0.86,0,0,0,10,0,0,0,0.00,0.39,0.39,
2.05,64.34719148173248,147.9643586948894,-2.95,0.22,0.53,0,0,0,10,0,0,0,0.00,0.49,0.10,
2.073,64.65571914817325,147.84343586948896,-3.79,-0.8,0.92,0,0,0,10,0,0,0,0.00,0.49,0.00,
2.097,64.90257191481733,147.8403435869489,-4.71,0.52,1.56,0,0,0,10,0,0,0,0.00,0.49,0.39,
2.12,64.98125719148173,147.7680343586949,-3.95,0.54,1.08,0,0,0,10,0,0,0,0.00,0.39,0.78,
2.145,65.12412571914818,147.6348034358695,-4.99,1.01,0.04,0,0,0,10,0,0,0,0.00,0.49,0.98,
2.168,65.17441257191483,147.59448034358695,-5.41,1.59,0.22,0,0,0,10,0,0,0,0.00,0.59,0.29,
2.192,65.21544125719149,147.5634480343587,-5.38,2.06,0.8,0,0,0,10,0,0,0,0.00,0.69,0.10,
2.215,65.23754412571914,147.49734480343588,-6.23,1.97,1.1,0,0,0,10,0,0,0,0.00,0.69,0.20,
2.239,65.25775441257193,147.3197344803436,-7.4,3.24,1.63,0,0,0,10,0,0,0,0.00,0.69,0.59,
2.264,65.7277754412572,146.69897344803437,-9.22,1.73,1.95,0,0,0,10,0,0,0,0.00,0.69,0.78,
2.287,67.15177754412572,145.70989734480344,-15.59,3.29,4.21,0,0,0,10,0,0,0,0.00,0.69,0.69,
2.311,68.57217775441258,144.04498973448037,-27.5,9.7,5.52,0,0,0,10,0,0,0,0.00,0.78,0.29,
2.334,70.26221777544126,142.26749897344803,-42.21,8.46,5.62,0,0,0,10,0,0,0,0.00,0.88,0.00,
2.359,71.57422177754412,140.2897498973448,-58.09,10.24,-2.16,0,0,0,10,0,0,0,0.00,0.88,0.10,
2.382,72.66842217775442,138.1029749897345,-68.15,22.64,-12.54,0,0,0,10,0,0,0,0.00,1.08,0.49,
2.406,74.37984221777543,136.25529749897345,-67.0,27.38,-20.08,0,0,0,10,0,0,0,0.00,1.28,0.59,
2.43,75.85598422177753,135.59352974989736,-64.36,39.63,-19.98,0,0,0,10,0,0,0,0.00,1.37,0.59,
2.455,76.14759842217777,135.65335297498973,-68.73,37.37,-8.37,0,0,0,10,0,0,0,0.00,1.37,0.00,
2.479,76.35675984221778,135.15533529749897,-68.88,41.73,3.65,0,0,0,10,0,0,0,0.00,1.18,0.00,
2.502,77.36767598422178,133.9715335297499,-74.36,38.35,12.41,0,0,0,10,0,0,0,0.00,1.28,0.59,
2.527,78.80076759842217,130.99115335297498,-77.69,37.5,16.12,0,0,0,10,0,0,0,0.00,1.37,0.88,
2.55,79.93407675984221,127.5611153352975,-72.89,43.91,4.55,0,0,0,10,0,0,0,0.00,1.57,0.49,
2.574,81.26240767598422,124.62611153352975,-79.79,42.27,-5.49,0,0,0,10,0,0,0,0.00,1.57,0.39,
2.598,82.25924076759843,121.83961115335298,-83.69,47.53,-6.02,0,0,0,10,0,0,0,0.00,1.57,0.29,
2.622,83.51092407675985,119.8239611153353,-79.95,46.31,-6.99,0,0,0,10,0,0,0,0.00,1.57,0.59,
2.647,84.41009240767599,118.08339611153353,-79.54,45.89,3.18,0,0,0,10,0,0,0,0.00,1.57,0.78,
2.67,85.3910092407676,115.92033961115337,-70.61,41.85,10.16,0,0,0,10,0,0,0,0.00,1.57,0.88,
2.694,85.76810092407676,115.05603396111533,-69.77,32.45,11.24,0,0,0,10,0,0,0,0.00,1.57,0.88,
2.718,85.60781009240768,114.09660339611152,-78.6,28.81,17.54,0,0,0,10,0,0,0,0.00,1.67,0.49,
2.742,85.00678100924077,111.98466033961115,-73.16,37.34,11.47,0,0,0,10,0,0,0,0.00,1.47,0.49,
2.766,84.30767810092408,110.47746603396112,-65.1,41.48,-3.02,0,0,0,10,0,0,0,0.00,1.37,0.69,
2.79,84.19276781009242,110.0297466033961,-63.45,29.07,-7.52,0,0,0,10,0,0,0,0.00,1.47,0.78,
2.814,84.34327678100925,109.73297466033961,-64.61,11.8,-8.9,0,0,0,10,0,0,0,0.00,1.37,0.69,
2.838,84.49332767810094,109.56829746603395,-68.23,5.08,-3.22,0,0,0,10,0,0,0,0.00,1.37,0.29,
2.862,84.7603327678101,109.72282974660338,-67.68,10.92,11.44,0,0,0,10,0,0,0,0.00,1.37,0.10,
2.886,85.03903327678101,110.53028297466034,-59.76,13.86,17.98,0,0,0,10,0,0,0,0.00,1.28,0.29,
2.91,84.9229033276781,110.85402829746603,-49.66,4.4,18.08,0,0,0,10,0,0,0,0.00,1.18,0.00,
2.934,84.35329033276781,110.41840282974661,-51.02,0.51,4.03,0,0,0,10,0,0,0,0.00,1.18,0.00,
2.958,83.98132903327678,110.83384028297466,-57.85,10.97,-10.05,0,0,0,10,0,0,0,0.00,1.18,0.29,
2.981,83.92613290332768,112.54938402829745,-46.58,18.53,3.47,0,0,0,10,0,0,0,0.00,1.28,0.59,
3.006,83.98361329033276,114.57493840282973,-18.95,17.51,9.33,0,0,0,10,0,0,0,0.00,1.08,0.78,
3.03,83.89036132903328,115.54249384028297,1.24,9.35,-0.5,0,0,0,10,0,0,0,0.00,1.18,0.39,
3.053,84.07903613290333,116.1702493840283,-2.05,12.83,-19.67,0,0,0,10,0,0,0,0.00,0.98,0.29,
3.078,84.55690361329033,117.33102493840282,-9.05,23.13,-17.23,0,0,0,10,0,0,0,0.00,0.98,0.39,
3.101,84.66769036132904,118.23910249384028,-0.61,6.28,-5.69,0,0,0,10,0,0,0,0.00,0.88,0.69,
3.125,85.0567690361329,118.76191024938403,16.16,-6.18,2.69,0,0,0,10,0,0,0,0.00,0.59,0.88,
3.149,85.7976769036133,118.3101910249384,19.01,-7.77,12.95,0,0,0,10,0,0,0,0.00,0.49,0.49,
3.173,86.05176769036132,116.38401910249384,12.08,-4.26,5.83,0,0,0,10,0,0,0,0.00,0.49,0.39,
3.196,86.43717676903614,113.99540191024938,-7.18,1.07,-12.66,0,0,0,10,0,0,0,0.00,0.49,0.59,
3.221,87.40271767690362,111.08354019102495,-25.87,-16.89,-18.55,0,0,0,10,0,0,0,0.00,0.39,0.29,
3.245,88.71427176769036,108.37135401910248,-16.5,0.51,-4.82,0,0,0,10,0,0,0,0.10,0.39,0.10,
3.269,88.80942717676903,107.05613540191024,-4.11,-1.66,1.55,0,0,0,10,0,0,0,0.39,0.10,0.20,
3.293,89.03494271767691,106.15061354019102,-6.7,2.25,-1.4,0,0,0,10,0,0,0,0.39,0.29,0.39,
3.317,90.02949427176769,105.32206135401911,-5.87,-0.64,-3.86,0,0,0,10,0,0,0,0.29,0.39,0.59,
3.341,90.19194942717675,104.40220613540191,-2.14,-4.95,-3.4,0,0,0,10,0,0,0,0.49,0.39,0.59,
3.365,90.35219494271769,103.77022061354019,-0.05,-4.19,-4.83,0,0,0,10,0,0,0,0.49,0.59,0.98,
3.389,90.53921949427178,103.76102206135401,1.51,-6.2,-0.86,0,0,0,10,0,0,0,0.29,0.39,1.37,
3.414,90.79192194942718,103.7331022061354,-0.51,-7.41,0.12,0,0,0,10,0,0,0,0.29,0.39,1.08,
3.437,90.93419219494272,103.57731022061354,-3.89,-6.75,0.73,0,0,0,10,0,0,0,0.10,0.39,0.88,
3.461,90.60641921949426,103.21073102206137,-6.33,-4.61,0.08,0,0,0,10,0,0,0,0.10,0.29,0.10,
3.485,90.30364192194942,102.73307310220613,-6.32,-2.21,1.19,0,0,0,10,0,0,0,0.00,0.49,0.20,
3.509,90.02136419219494,102.34330731022061,-6.2,1.07,1.58,0,0,0,10,0,0,0,0.20,0.59,0.59,
3.533,89.90313641921949,101.97133073102206,-6.44,2.0,0.47,0,0,0,10,0,0,0,0.20,0.78,0.69,
3.557,89.92731364192196,101.52913307310222,-4.05,1.95,-0.25,0,0,0,10,0,0,0,0.20,0.88,0.59,
3.58,90.0287313641922,101.31391330731022,-2.44,1.96,0.8,0,0,0,10,0,0,0,0.29,0.88,0.29,
3.605,90.02987313641921,101.25639133073102,-1.76,3.95,2.75,0,0,0,10,0,0,0,0.29,0.88,0.29,
3.629,90.20098731364193,100.80963913307312,-1.46,0.11,2.35,0,0,0,10,0,0,0,0.39,0.78,0.49,
3.652,90.3800987313642,100.72896391330731,0.5,0.21,-0.24,0,0,0,10,0,0,0,0.39,0.69,0.00,
3.677,90.36200987313642,100.84689639133073,-1.92,1.09,0.18,0,0,0,10,0,0,0,0.29,0.49,0.20,
3.7,90.30620098731363,100.87668963913308,-4.5,1.23,-0.25,0,0,0,10,0,0,0,0.29,0.39,0.69,
3.724,90.37262009873136,100.8436689639133,-5.15,2.15,-0.86,0,0,0,10,0,0,0,0.29,0.29,0.78,
3.748,90.29826200987314,100.68736689639134,-4.01,0.89,-2.81,0,0,0,10,0,0,0,0.20,0.29,0.39,
3.772,90.26382620098732,100.66273668963913,-4.73,3.02,-4.33,0,0,0,10,0,1,0,0.29,0.39,0.20,
3.796,90.38638262009874,100.73227366896391,-7.6,4.61,-5.11,0,0,0,10,0,1,0,0.20,0.29,0.00,
3.82,90.48863826200987,100.7302273668964,-6.53,4.69,-3.95,0,0,0,10,0,1,0,0.39,0.39,0.69,
3.845,90.51686382620099,100.47802273668964,-5.56,4.28,-6.19,0,0,0,10,0,1,1,0.59,0.39,0.88,
3.868,90.47468638262009,100.40780227366898,-5.05,2.44,-3.69,0,0,0,10,0,2,1,0.78,0.20,0.88,
3.893,90.515468638262,100.3647802273669,-5.69,4.21,-4.84,0,0,0,10,0,2,1,0.88,0.29,0.69,
3.917,90.55554686382621,100.44147802273669,-3.77,4.32,-0.43,0,0,0,10,0,2,1,1.08,0.20,0.49,
3.941,90.46055468638262,100.38614780227367,-4.92,0.01,2.16,0,0,0,10,0,3,1,1.18,0.20,0.78,
3.965,90.55005546863826,100.46161478022736,-6.08,1.44,1.21,0,0,0,10,0,3,1,1.28,0.10,1.18,
3.989,90.72100554686382,100.20816147802275,-5.54,-5.04,-1.31,0,0,0,10,0,4,1,1.47,0.00,0.98,
4.014,90.97210055468639,100.20981614780226,-3.36,2.79,2.11,0,0,0,10,0,4,1,1.57,0.00,0.59,
4.037,91.15021005546863,100.46198161478023,-2.4,4.44,0.9,0,0,0,10,0,4,1,1.67,0.00,0.39,
4.062,91.15902100554686,100.28919816147801,-4.24,1.69,4.21,0,0,0,10,0,4,1,1.77,0.00,0.39,
4.085,91.0249021005547,100.24491981614779,-3.08,4.92,5.18,0,0,0,10,0,4,1,1.86,0.00,0.39,
4.109,91.06549021005546,100.18649198161478,-3.38,2.12,5.62,0,0,0,10,0,4,1,1.86,0.00,0.78,
4.133,90.79954902100555,100.00064919816148,-1.67,7.55,4.31,0,0,0,10,0,3,1,2.06,0.00,0.69,
4.157,91.02495490210055,100.04506491981616,-1.05,6.18,2.77,0,0,0,10,0,3,1,2.16,0.00,0.39,
4.182,91.13749549021006,100.09450649198162,-1.68,3.57,3.65,0,0,0,10,0,2,1,2.16,0.00,0.10,
4.205,91.112749549021,99.95545064919816,-1.37,2.85,2.19,0,0,0,10,0,2,1,2.26,0.00,0.20,
4.229,91.3262749549021,100.02254506491981,-2.13,5.96,1.27,0,0,0,10,0,2,0,2.26,0.00,0.69,
4.253,91.63562749549021,100.02925450649198,-2.36,3.37,1.87,0,0,0,10,0,2,1,2.26,0.00,0.78,
4.277,91.63956274954901,99.6249254506492,-4.01,-3.21,3.17,0,0,0,10,0,2,1,2.26,0.00,0.59,
4.301,91.7299562749549,99.65649254506492,-3.49,1.63,3.5,0,0,0,10,0,2,0,2.45,0.00,0.59,
4.325,91.82899562749549,99.7406492545065,-2.91,3.54,1.09,0,0,0,10,0,2,0,2.35,0.00,0.29,
4.349,91.70389956274954,99.79406492545064,-3.53,2.92,1.47,0,0,0,10,0,2,0,2.45,0.00,0.10,
4.373,91.74538995627495,99.83540649254508,-3.35,3.39,0.95,0,0,0,10,0,1,0,2.45,0.00,0.10,
4.397,91.7585389956275,99.89354064925452,-2.93,2.69,1.08,0,0,0,10,0,1,0,2.45,0.00,0.20,
4.421,91.64285389956275,99.95335406492545,-2.91,2.72,1.24,0,0,0,10,0,1,0,2.55,0.00,0.49,
4.445,91.64028538995628,99.97733540649254,-3.05,2.37,1.0,0,0,0,10,0,1,0,2.45,0.00,0.69,
4.468,91.77502853899563,100.03373354064925,-3.27,2.61,1.52,0,0,0,10,0,1,0,2.55,0.00,0.49,
4.493,91.77950285389957,100.03937335406492,-3.02,1.46,1.85,0,0,0,10,0,1,0,2.55,0.00,0.10,
4.516,91.80695028538996,99.95893733540649,-3.32,0.59,1.3,0,0,0,10,0,1,0,2.55,0.00,0.29,
4.541,91.935695028539,100.04989373354064,-2.98,1.21,1.15,0,0,0,10,0,1,0,2.55,0.00,0.49,
4.564,92.06556950285389,100.09498937335407,-3.44,1.79,2.09,0,0,0,10,0,1,0,2.65,0.00,0.78,
4.588,91.97055695028538,100.09049893733541,-2.46,1.53,1.18,0,0,0,10,0,1,0,2.65,0.00,0.78,
4.613,91.99705569502854,100.17104989373354,-2.92,1.89,1.36,0,0,0,10,0,1,0,2.65,0.00,0.59,
4.636,92.03570556950287,100.22410498937336,-3.49,1.16,2.11,0,0,0,10,0,1,0,2.65,0.00,0.20,
4.661,92.09357055695028,100.24741049893734,-3.23,0.56,2.27,0,0,0,10,0,1,0,2.65,0.00,0.29,
4.684,92.25235705569501,100.31274104989373,-3.79,0.98,2.4,0,0,0,10,0,1,0,2.75,0.00,0.78,
4.709,92.25923570556951,100.30127410498937,-3.61,0.49,2.69,0,0,0,10,0,1,0,2.65,0.00,0.98,
4.732,92.19692357055695,100.29112741049894,-3.37,1.14,2.23,0,0,0,10,0,0,0,2.65,0.00,0.88,
4.756,92.2716923570557,100.20911274104989,-2.82,1.96,2.2,0,0,0,10,0,0,0,2.75,0.00,0.29,
4.781,92.20716923570558,100.128911274105,-3.2,1.27,1.98,0,0,0,10,0,0,0,2.75,0.00,0.20,
4.804,92.18271692357055,100.1478911274105,-3.08,1.35,1.43,0,0,0,10,0,0,0,2.65,0.00,0.49,
4.829,92.27027169235706,100.21278911274106,-3.31,0.67,1.95,0,0,0,10,0,0,0,2.75,0.00,0.78,
4.852,92.18902716923571,100.13827891127411,-2.87,-0.16,1.93,0,0,0,10,0,0,0,2.55,0.00,0.69,
4.877,92.19890271692357,100.12182789112741,-3.15,-0.36,1.56,0,0,0,10,0,0,0,2.65,0.00,0.59,
4.9,92.23589027169234,100.24618278911275,-4.08,-1.79,2.93,0,0,0,10,0,0,0,2.55,0.00,0.20,
4.925,92.24858902716923,100.28561827891129,-3.26,-0.35,1.97,0,0,0,10,0,0,0,2.45,0.00,0.10,
4.948,92.34885890271691,100.37056182789112,-3.59,1.08,2.28,0,0,0,10,0,0,0,2.65,0.00,0.69,
4.973,92.19688589027169,100.35205618278911,-4.16,-1.02,3.56,0,0,0,10,0,0,0,2.65,0.00,0.98,
4.997,92.25368858902718,100.36820561827892,-3.98,-0.71,2.24,0,0,0,10,0,0,0,2.65,0.00,0.88,
5.021,92.37636885890271,100.2078205618279,-4.56,-2.64,4.29,0,0,0,10,0,0,0,2.65,0.00,0.69,
5.045,92.37063688589028,100.1377820561828,-4.06,-0.21,3.74,0,0,0,10,0,1,0,2.65,0.00,0.49,
5.069,92.25306368858901,100.08577820561828,-3.5,0.59,0.85,0,0,0,10,0,1,0,2.65,0.00,0.29,
5.093,92.21430636885889,100.16157782056183,-3.88,-0.55,1.93,0,0,0,10,0,1,0,2.65,0.00,0.00,
5.117,92.22843063688589,100.10615778205619,-3.31,0.19,1.01,0,0,0,10,0,1,0,2.65,0.00,0.29,
5.141,92.22984306368859,100.16361577820562,-3.86,-0.72,1.67,0,0,0,10,0,1,0,2.65,0.00,0.39,
5.166,92.23898430636885,100.11536157782056,-3.34,0.76,1.26,0,0,0,10,0,1,0,2.65,0.00,0.69,
5.189,92.19489843063688,100.06553615778205,-3.37,0.76,0.89,0,1,0,10,0,1,0,2.75,0.00,0.59,
5.213,92.16348984306369,100.0245536157782,-3.34,0.22,0.92,0,1,0,10,0,1,0,2.55,0.00,0.39,
5.237,92.13334898430637,100.03845536157782,-3.18,0.92,1.21,0,1,0,10,0,1,0,2.55,0.00,0.20,
5.261,92.11233489843063,100.03084553615778,-3.47,0.4,1.13,0,1,0,10,0,1,0,2.55,0.00,0.29,
5.285,92.11023348984307,100.03008455361578,-3.51,0.51,0.99,0,1,0,10,0,1,0,2.55,0.00,0.78,
5.309,92.11902334898431,100.04800845536158,-3.28,0.84,0.9,0,1,0,10,0,1,0,2.65,0.00,0.88,
5.334,92.10190233489843,100.04980084553615,-3.37,0.92,0.91,0,1,0,10,0,1,0,2.55,0.00,0.69,
5.357,92.10019023348984,100.03198008455361,-3.35,0.24,0.87,0,1,0,10,0,1,0,2.45,0.00,0.39,
5.381,92.13601902334898,100.03019800845536,-3.57,0.88,1.08,0,1,0,10,0,1,0,2.45,0.00,0.29,
5.405,92.1036019023349,99.97601980084553,-3.19,0.48,0.74,0,1,0,10,0,1,0,2.55,0.00,0.59,
5.429,91.9923601902335,99.99760198008455,-3.45,0.84,0.77,0,1,0,10,0,1,0,2.45,0.00,0.88,
5.453,91.95423601902336,100.01776019800846,-3.27,0.34,0.48,0,1,0,10,0,1,0,2.35,0.00,0.88,
5.477,91.94142360190233,100.03777601980084,-3.18,0.4,0.77,0,1,0,10,0,1,0,2.35,0.00,0.39,
5.5,91.87714236019023,100.03977760198009,-2.93,0.31,0.4,0,1,0,10,0,1,0,2.45,0.00,0.29,
5.525,91.83471423601902,100.06697776019801,-3.16,0.36,0.82,0,1,0,10,0,1,0,2.45,0.00,0.49,
5.549,91.8124714236019,100.06969777601981,-3.45,-0.05,1.02,0,1,0,10,0,1,0,2.45,0.00,1.08,
5.573,91.8012471423602,100.11496977760198,-3.17,0.95,0.62,0,1,0,10,0,1,0,2.35,0.00,0.98,
5.597,91.72812471423602,100.1284969777602,-3.03,0.83,0.7,0,1,0,10,0,1,0,2.45,0.00,0.88,
5.621,91.6488124714236,100.14784969777602,-3.18,0.76,0.66,0,1,0,10,0,1,0,2.45,0.00,0.49,
5.645,91.63188124714236,100.1767849697776,-3.18,1.19,0.73,0,1,0,10,0,1,0,2.45,0.00,0.20,
5.669,91.61218812471424,100.14367849697777,-3.06,1.23,0.94,0,1,0,10,0,1,0,2.35,0.00,0.39,
5.693,91.53821881247143,100.14036784969778,-3.04,1.11,0.76,0,1,0,10,0,1,0,2.35,0.00,0.20,
5.716,91.48582188124715,100.10403678496978,-2.94,0.21,0.4,0,1,0,10,0,1,0,2.35,0.00,0.20,
5.741,91.51658218812472,100.02840367849697,-2.98,0.65,0.56,0,1,0,10,0,1,0,2.35,0.00,0.49,
5.765,91.52865821881248,100.0208403678497,-2.96,0.47,1.05,0,1,0,10,0,1,0,2.35,0.00,0.69,
5.789,91.55686582188126,99.97508403678496,-2.98,0.76,0.43,0,1,0,10,0,1,0,2.16,0.00,0.39,
5.813,91.53268658218813,99.9885084036785,-2.91,0.7,0.57,0,1,0,10,0,1,0,2.35,0.00,0.10,
5.837,91.53926865821882,99.99885084036785,-2.76,0.34,0.76,0,1,0,10,0,1,0,2.26,0.00,0.00,
5.861,91.57592686582188,100.00888508403679,-2.85,0.28,1.13,0,1,0,10,0,1,0,2.26,0.00,0.49,
5.884,91.6155926865822,100.02788850840368,-3.27,0.9,0.82,0,1,0,10,0,1,0,2.26,0.00,0.69,
5.909,91.70955926865823,100.03878885084036,-3.15,0.69,1.11,0,1,0,10,0,1,0,2.16,0.00,0.59,
5.933,91.76395592686582,100.03987888508404,-3.06,0.66,1.31,0,1,0,10,0,1,0,2.26,0.00,0.29,
5.957,91.87739559268658,100.09398788850841,-3.21,1.05,1.05,0,1,0,10,0,1,0,2.26,0.00,0.20,
5.981,91.88873955926866,100.02739878885083,-3.13,0.9,0.98,0,1,0,10,0,1,0,2.26,0.00,0.20,
6.005,91.93487395592686,100.04773987888508,-3.08,1.79,1.23,0,1,0,10,0,1,0,2.26,0.00,0.59,
6.029,91.87648739559269,100.05877398788851,-3.14,1.86,0.89,0,1,0,10,0,1,0,2.26,0.00,0.78,
6.052,91.74464873955927,100.05087739878886,-3.15,1.9,1.5,0,1,0,10,0,1,0,2.35,0.00,0.69,
6.077,91.73146487395593,100.02308773987889,-3.16,1.1,1.24,0,1,0,10,0,1,0,2.26,0.00,0.29,
6.1,91.6491464873956,99.98430877398789,-3.27,1.01,0.81,0,1,0,10,0,1,0,2.26,0.00,0.20,
6.125,91.66791464873955,100.00743087739879,-3.14,0.62,0.92,0,1,0,10,0,1,0,2.26,0.00,0.49,
6.149,91.69679146487395,100.02774308773988,-3.4,0.73,0.89,0,1,0,10,0,1,0,2.26,0.00,0.88,
6.173,91.6726791464874,100.047774308774,-3.29,0.2,1.16,0,1,0,10,0,1,0,2.35,0.00,0.78,
6.197,91.68826791464873,100.0857774308774,-3.11,0.77,1.17,0,1,0,10,0,1,0,2.26,0.00,0.49,
6.22,91.73482679146487,100.08057774308774,-3.24,-0.08,0.92,0,1,0,10,0,1,0,2.35,0.00,0.20,
6.245,91.8024826791465,100.04405777430877,-3.5,1.02,1.49,0,1,0,10,0,1,0,2.26,0.00,0.39,
6.268,91.82724826791465,100.00440577743088,-3.27,0.4,1.23,0,1,0,10,0,1,0,2.35,0.00,0.69,
6.293,91.88372482679148,100.01844057774309,-3.25,1.17,1.21,0,1,0,10,0,1,0,2.26,0.00,0.98,
6.317,91.92537248267915,100.02884405777431,-3.26,0.63,0.87,0,1,0,10,0,1,0,2.35,0.00,0.78,
6.341,91.9655372482679,100.03888440577742,-3.49,1.5,1.01,0,1,0,10,0,1,0,2.45,0.00,0.49,
6.365,91.96055372482678,100.01288844057774,-3.39,0.89,1.06,0,1,0,10,0,1,0,2.45,0.00,0.29,
6.389,91.90605537248268,99.97428884405777,-3.3,0.4,1.21,0,1,0,10,0,1,0,2.26,0.00,0.39,
6.413,91.87360553724827,99.99742888440578,-3.29,0.62,0.91,0,1,0,10,0,1,0,2.45,0.00,0.00,
6.436,91.87036055372484,99.96374288844058,-3.36,0.8,1.06,0,1,0,10,0,1,0,2.45,0.00,0.10,
6.461,91.88803605537248,100.01437428884405,-3.37,0.75,1.07,0,1,0,10,0,1,0,2.35,0.00,0.59,
6.484,91.82680360553724,100.0104374288844,-3.3,0.98,1.2,0,1,0,10,0,1,0,2.35,0.00,0.78,
6.508,91.79368036055372,100.02804374288844,-3.4,0.51,0.79,0,1,0,10,0,1,0,2.35,0.00,0.39,
6.533,91.75436803605537,100.02980437428884,-3.29,0.78,1.01,0,1,0,10,0,1,0,2.35,0.00,0.20,
6.556,91.77743680360554,99.99398043742889,-3.31,0.74,1.01,0,1,0,10,0,1,0,2.35,0.00,0.10,
6.581,91.82474368036056,99.98139804374289,-3.33,0.6,1.01,0,1,0,10,0,1,0,2.35,0.00,0.39,
6.604,91.82047436803605,99.98013980437429,-3.44,0.88,1.31,0,1,0,10,0,1,0,2.35,0.00,0.59,
6.628,91.88304743680361,99.96201398043743,-3.17,0.9,1.02,0,1,0,10,0,1,0,2.35,0.00,0.59,
6.652,91.88030474368036,99.96020139804374,-3.39,1.15,1.3,0,1,0,10,0,1,0,2.45,0.00,0.39,
6.676,91.87103047436804,99.91502013980437,-3.1,1.12,1.18,0,1,0,10,0,0,0,2.45,0.00,0.20,
6.701,91.87010304743681,99.93750201398043,-3.03,1.69,0.93,0,1,0,10,0,1,0,2.45,0.00,0.39,
6.724,91.80701030474368,99.94875020139804,-3.29,1.11,0.99,0,1,0,10,0,1,0,2.35,0.00,0.69,
6.748,91.77370103047437,99.9858750201398,-3.26,0.85,0.76,0,1,0,10,0,1,0,2.45,0.00,0.69,
6.772,91.75237010304744,99.96258750201397,-3.2,0.52,1.06,0,1,0,10,0,1,0,2.45,0.00,0.78,
6.796,91.78623701030475,99.96025875020139,-3.17,0.91,1.1,0,1,0,10,0,0,0,2.45,0.00,0.49,
6.819,91.75362370103048,99.96002587502014,-3.05,1.4,1.31,0,1,0,10,0,0,0,2.45,0.00,0.10,
6.844,91.75036237010305,99.90600258750203,-3.19,1.1,1.11,0,1,0,10,0,0,0,2.35,0.00,0.49,
6.867,91.77703623701031,99.9096002587502,-3.39,0.56,1.04,0,1,0,10,0,0,0,2.35,0.00,0.78,
6.891,91.79770362370104,99.96396002587502,-3.14,0.9,0.89,0,1,0,10,0,0,0,2.45,0.00,0.88,
6.916,91.78177036237011,99.9873960025875,-3.07,0.9,0.85,0,1,0,10,0,1,0,2.45,0.00,0.49,
6.939,91.726177036237,100.00773960025874,-3.25,0.61,1.08,0,1,0,10,0,1,0,2.45,0.00,0.29,
6.963,91.7026177036237,100.01877396002587,-3.27,0.51,0.85,0,1,0,10,0,1,0,2.45,0.00,0.39,
6.987,91.68226177036239,100.01987739600258,-3.17,0.5,1.12,0,1,0,10,0,1,0,2.45,0.00,0.69,
7.011,91.72522617703623,100.02898773960025,-3.33,0.7,1.09,0,1,0,10,0,1,0,2.45,0.00,0.78,
7.035,91.70252261770362,100.04789877396003,-3.24,1.35,1.1,0,1,0,10,0,1,0,2.45,0.00,0.78,
7.059,91.66425226177036,100.031789877396,-3.19,0.14,0.86,0,1,0,10,0,1,0,2.45,0.00,0.49,
7.084,91.62442522617704,100.0301789877396,-3.26,1.05,0.97,0,1,0,10,0,1,0,2.45,0.00,0.20,
7.107,91.62044252261771,100.05701789877396,-3.06,0.79,1.22,0,1,0,10,0,1,0,2.35,0.00,0.39,
7.132,91.62904425226176,100.0777017898774,-3.21,0.63,1.08,0,1,0,10,0,1,0,2.45,0.00,0.78,
7.155,91.60290442522617,100.03477017898774,-3.34,0.71,1.03,0,1,0,10,0,1,0,2.45,0.00,0.88,
7.179,91.56429044252263,100.03947701789878,-3.34,0.82,0.91,0,1,0,10,0,1,0,2.35,0.00,0.20,
7.203,91.61442904425228,100.02194770178988,-2.98,0.39,0.96,0,1,0,10,0,1,0,2.55,0.00,0.39,
7.227,91.67344290442524,100.08319477017899,-2.19,-2.78,3.26,0,1,0,10,0,1,0,2.35,0.00,0.49,
7.251,91.82334429044252,99.9453194770179,-0.63,-4.09,4.26,0,1,0,10,0,0,0,2.26,0.00,0.20,
7.275,91.70333442904425,99.99453194770179,-2.59,-4.42,4.04,0,1,0,10,0,0,0,2.06,0.00,0.10,
7.3,91.55633344290443,99.98145319477018,-1.29,-8.48,6.45,0,1,0,10,0,0,0,1.77,0.00,0.39,
7.323,91.40663334429044,99.98914531947702,1.16,-9.36,1.79,0,1,0,10,0,0,0,1.67,0.00,0.88,
7.348,91.19366333442903,100.0079145319477,0.21,-6.86,0.58,0,1,0,10,0,0,0,1.28,0.00,0.98,
7.371,90.9653663334429,100.15379145319477,-3.44,-3.89,0.08,0,1,0,10,0,0,0,1.08,0.00,0.69,
7.396,90.79853663334428,100.15037914531948,-2.5,-4.59,-0.15,0,1,0,10,0,0,0,0.98,0.00,0.39,
7.419,90.63785366333443,100.18603791453195,-2.91,-4.91,0.22,0,1,0,10,0,1,0,0.78,0.00,0.39,
7.444,90.58578536633345,100.2976037914532,-4.59,-5.12,0.04,0,1,0,10,0,1,0,0.69,0.00,0.59,
7.468,90.45457853663335,100.18276037914532,-4.9,-4.79,0.91,0,1,0,10,0,1,0,0.59,0.00,0.78,
7.492,90.44145785366334,100.14427603791454,-4.29,-4.24,-0.87,0,1,0,10,0,1,1,0.59,0.00,0.78,
7.517,90.44014578536633,100.16742760379145,-5.11,-1.87,-2.0,0,1,0,10,0,2,1,0.49,0.00,0.59,
7.54,90.25101457853664,100.18774276037915,-3.85,0.34,0.93,0,1,0,10,0,2,2,0.59,0.00,0.29,
7.565,90.11510145785367,100.12677427603792,-1.06,0.47,0.94,0,1,0,10,0,2,2,0.69,0.00,0.59,
7.588,90.06551014578537,100.1206774276038,-0.08,0.41,1.77,0,1,0,10,0,2,2,0.59,0.00,0.78,
7.613,90.07855101457854,99.95806774276038,4.42,0.71,4.21,0,1,0,10,0,2,2,0.39,0.00,0.98,
7.636,90.33185510145785,100.15780677427604,5.48,3.2,4.96,0,1,0,10,0,1,2,0.29,0.00,0.88,
7.661,90.73518551014578,100.32178067742761,7.21,-1.88,11.47,0,1,0,10,0,1,1,0.00,0.00,0.59,
7.685,90.22651855101458,101.31017806774277,10.76,-2.56,18.53,0,1,0,9,0,0,1,0.00,0.00,0.49,
7.709,89.73465185510146,102.66901780677426,2.3,-13.11,16.36,0,0,0,9,0,0,1,0.00,0.00,0.10,
7.734,89.93746518551015,102.27390178067743,-8.21,-0.81,10.52,0,0,0,9,0,1,1,0.00,0.00,0.39,
7.757,89.606746518551,101.89239017806773,-3.71,-8.79,17.35,0,1,0,9,0,1,1,0.00,0.00,0.00,
7.782,90.21267465185511,98.63223901780677,-3.01,-17.15,4.53,0,1,0,8,0,2,1,0.00,0.00,0.00,
7.806,90.0212674651855,98.27922390178067,-9.47,-16.36,4.5,0,1,0,9,0,2,1,0.00,0.00,1.67,
7.83,89.93012674651854,98.40592239017806,-6.58,-12.53,1.14,0,1,0,9,0,2,2,0.39,0.00,1.18,
7.855,89.63301267465185,98.72459223901781,-9.57,-8.17,0.19,1,1,0,9,0,2,2,0.69,0.00,0.59,
7.879,89.16230126746518,99.03545922390177,-11.94,-2.89,1.13,1,1,0,10,0,2,2,1.08,0.00,0.78,
7.903,89.04323012674652,99.33654592239019,-12.76,1.59,-2.79,2,1,0,10,0,2,2,1.67,0.00,0.88,
7.927,89.03132301267466,99.32165459223901,-10.91,1.27,-3.11,2,2,0,10,0,2,2,2.35,0.00,1.37,
7.952,88.93113230126747,99.3291654592239,-7.54,2.21,1.42,3,2,0,10,0,2,2,3.04,0.00,1.18,
7.975,88.67811323012675,99.54591654592238,-6.89,-0.19,3.06,3,2,0,11,0,2,2,3.53,0.00,0.59,
8.0,88.68881132301267,99.58559165459224,-7.47,0.98,-0.05,3,2,0,11,0,2,2,3.83,0.00,0.10,
8.025,88.86088113230127,99.51755916545923,-10.53,0.96,-2.69,3,2,0,11,0,3,2,4.22,0.00,0.00,
8.048,88.83308811323013,99.66375591654592,-11.82,3.88,-4.8,4,2,0,11,0,3,3,5.20,0.00,0.29,
8.073,88.86630881132302,99.3453755916546,-15.84,3.63,-9.04,4,3,1,11,0,4,3,5.89,0.59,0.20,
8.097,88.47363088113231,99.05253755916546,-11.02,1.76,-1.09,5,3,1,11,0,4,3,7.06,2.16,0.00,
8.122,88.36236308811323,99.12225375591655,-10.13,1.14,-3.91,6,3,1,12,0,4,3,7.95,3.04,0.00,
8.145,88.44123630881133,98.84122537559165,-11.6,-2.95,-1.73,6,3,1,12,0,5,4,8.44,3.53,0.00,
8.17,88.69212363088113,98.84012253755917,-9.18,4.11,-0.74,6,4,1,0,0,5,4,9.12,4.22,0.00,
8.195,88.73521236308811,98.76801225375591,-7.59,2.8,-1.21,6,4,1,1,0,5,4,10.10,4.61,0.00,
8.219,88.5955212363088,98.40080122537559,-7.02,-0.99,-1.28,6,4,1,2,0,5,4,10.50,4.91,0.00,
8.243,88.61755212363089,98.29208012253756,-4.18,-1.17,2.44,6,4,1,2,0,6,4,10.99,4.91,0.00,
8.267,88.92575521236307,98.25420801225376,-7.87,-10.28,6.64,6,4,1,3,0,6,4,11.09,4.81,0.10,
8.292,88.10157552123631,98.64642080122537,-6.56,-0.11,-0.22,6,4,1,3,0,6,4,11.18,4.71,0.00,
8.316,88.20815755212362,98.45164208012254,-6.42,-9.76,-0.2,6,4,1,4,0,6,4,11.28,4.81,0.00,
8.341,88.34481575521237,98.43216420801225,-5.08,1.41,-2.42,6,4,1,4,0,6,4,11.58,4.81,0.00,
8.366,88.15148157552123,98.33121642080123,-4.69,-3.19,-2.28,6,4,1,4,0,6,4,11.67,4.91,0.00,
8.389,87.97914815755212,98.18612164208012,-3.03,-3.44,-2.1,7,5,1,5,0,6,4,11.77,5.00,0.29,
8.414,87.79991481575522,98.22561216420802,-2.81,-5.03,-2.66,7,5,1,5,0,6,4,11.67,5.00,0.39,
8.438,87.79099148157553,98.3555612164208,-2.86,-2.34,-2.13,7,5,1,6,0,6,4,11.58,4.71,0.00,
8.463,87.88009914815756,98.43155612164207,-3.69,-6.44,-3.31,7,5,1,6,0,6,4,11.38,4.41,0.00,
8.487,87.72700991481575,98.34015561216421,-4.19,-4.82,-2.81,7,5,1,6,0,6,5,11.48,4.61,0.00,
8.512,87.62170099148157,98.14201556121643,-4.72,-5.58,-3.64,8,5,1,7,0,7,5,11.58,4.81,0.29,
8.537,87.35017009914814,98.06820155612165,-6.44,-5.26,-4.38,8,5,1,8,0,7,5,11.87,5.10,0.00,
8.561,87.11601700991481,97.81782015561217,-5.57,0.3,-4.87,9,5,2,8,0,8,5,12.36,5.89,0.00,
8.585,87.02060170099149,97.72078201556121,-7.01,-2.66,-5.26,9,5,2,8,0,8,6,12.95,6.47,0.00,
8.609,86.84006017009914,97.79207820155611,-5.31,-1.11,-4.4,10,6,2,9,0,9,6,13.64,7.36,0.20,
8.634,86.53400601700992,97.5652078201556,-6.59,-0.47,-3.88,10,6,2,11,1,9,7,14.52,8.14,0.00,
8.658,86.350400601701,97.46152078201555,-7.97,-2.18,-3.87,11,6,2,11,1,10,7,15.11,8.83,0.00,
8.683,86.2960400601701,97.37915207820157,-7.76,-2.44,-2.66,11,6,2,13,1,10,7,15.70,9.42,0.00,
8.708,86.37160400601701,97.36191520782015,-7.34,-1.8,-1.55,12,6,2,14,1,11,8,16.09,9.81,0.20,
8.732,86.46016040060171,97.17119152078202,-8.51,-3.69,-0.91,0,6,2,15,1,11,8,16.48,10.30,0.49,
8.758,86.35201604006018,96.9901191520782,-7.27,-1.34,-0.15,1,7,2,16,1,11,9,17.07,10.59,0.10,
8.782,86.24220160400601,96.99001191520782,-6.9,-1.22,-0.21,1,7,2,18,1,12,9,17.27,10.69,0.00,
8.807,86.2042201604006,96.99000119152078,-8.05,0.99,2.27,1,7,2,18,1,0,10,17.36,10.50,0.00,
8.832,86.00242201604006,96.82800011915208,-7.47,-0.12,1.59,1,7,3,19,1,2,10,17.36,10.50,0.00,
8.856,85.838242201604,96.73980001191521,-6.58,-1.45,0.62,2,7,3,20,1,2,11,17.66,10.59,0.00,
8.881,85.8398242201604,96.63198000119154,-6.28,-2.67,1.81,2,7,3,20,1,3,11,17.85,10.69,0.00,
8.905,85.84898242201604,96.59419800011916,-5.6,0.75,1.55,2,7,3,21,1,3,11,17.85,10.89,0.00,
8.93,85.79589824220162,96.54541980001193,-5.14,-0.34,1.69,2,7,3,21,1,4,11,17.95,11.28,0.10,
8.954,85.78158982422016,96.4595419800012,-5.51,-0.42,1.14,2,7,3,22,1,5,12,18.05,11.38,0.00,
8.979,85.70815898242202,96.31595419800013,-4.31,2.91,1.98,2,7,3,22,2,5,12,18.05,11.38,0.00,
9.004,85.64681589824221,96.25659541980001,-3.63,-1.59,1.06,2,7,3,22,2,5,12,18.15,11.38,0.00,
9.028,85.72168158982423,96.21465954198,-3.37,0.61,0.73,2,7,3,22,2,5,12,17.85,11.28,0.00,
9.053,85.73816815898242,96.210465954198,-2.41,2.1,1.37,2,7,3,23,2,5,12,17.66,11.18,0.69,
9.077,85.72181681589824,96.1740465954198,-2.51,0.15,1.12,2,7,3,23,1,5,12,17.56,10.99,0.59,
9.102,85.72918168158984,96.17040465954197,-3.22,0.54,1.07,2,7,3,23,1,5,12,17.46,10.50,0.20,
9.126,85.72991816815899,96.14304046595419,-4.02,1.13,0.76,2,7,3,23,1,5,12,17.36,10.40,0.39,
9.15,85.7659918168159,96.11330404659542,-3.59,1.72,0.38,3,7,3,23,2,6,0,17.46,10.50,0.10,
9.175,85.6615991816816,96.09233040465955,-3.82,0.79,0.31,3,7,3,24,2,6,12,17.56,10.50,0.00,
9.199,85.66915991816816,96.08123304046595,-4.05,0.33,0.29,3,7,3,24,2,6,12,17.56,10.50,0.00,
9.224,85.67891599181682,96.07112330404658,-4.39,1.11,1.37,3,7,3,24,2,6,0,17.56,10.59,0.10,
9.248,85.67989159918169,96.06111233040467,-4.34,1.81,0.63,3,8,3,24,2,6,0,17.76,10.69,0.49,
9.273,85.68898915991817,96.00611123304047,-4.11,1.53,0.46,3,7,3,24,2,6,0,17.66,10.59,0.39,
9.297,85.68089891599182,95.98261112330405,-3.18,1.24,0.66,3,7,3,25,2,6,0,17.76,10.59,0.29,
9.322,85.6800898915992,95.98026111233041,-3.55,2.33,1.0,3,7,3,25,2,6,0,17.85,10.69,0.00,
9.347,85.66200898915992,95.92602611123304,-3.78,0.78,0.72,4,7,3,25,2,6,0,17.76,10.69,0.10,
9.37,85.66020089891599,95.9026026111233,-3.44,1.35,0.72,4,7,3,25,2,6,0,17.85,10.59,0.69,
9.395,85.6510200898916,95.85526026111233,-3.27,1.61,1.05,4,7,3,25,2,6,0,17.85,10.59,0.69,
9.419,85.73110200898915,95.85952602611124,-3.53,1.8,1.17,4,7,3,25,2,6,0,17.76,10.69,0.49,
9.444,85.7121102008989,95.83295260261113,-3.34,1.63,0.94,4,7,3,25,2,6,0,17.85,10.69,0.10,
9.468,85.6832110200899,95.81229526026111,-3.05,0.98,0.47,5,7,3,25,2,6,0,17.95,10.69,0.49,
9.493,85.66232110200899,95.8012295260261,-2.61,1.17,0.81,5,7,3,25,2,6,0,17.95,10.59,0.20,
9.518,85.6602321102009,95.91712295260261,-2.69,1.63,0.96,5,7,3,26,2,6,0,17.95,10.59,0.00,
9.541,85.71402321102008,95.92871229526025,-2.91,1.64,0.71,5,7,3,26,2,6,0,18.05,10.59,0.10,
9.566,85.72840232110201,95.91187122952603,-2.53,1.76,0.57,5,7,3,26,1,5,12,18.05,10.40,0.69,
9.59,85.7748402321102,95.92818712295261,-2.67,1.93,0.79,5,7,3,26,2,5,12,18.05,10.30,0.69,
9.615,85.84248402321101,95.95681871229525,-2.89,2.21,0.92,5,7,3,26,1,5,12,18.05,10.20,0.49,
9.639,85.8492484023211,96.01368187122952,-2.84,1.23,0.69,5,7,3,26,2,5,12,18.15,10.10,0.20,
9.664,85.95792484023211,95.99236818712293,-2.92,2.02,0.81,6,7,3,26,1,5,12,18.15,10.20,0.20,
9.689,85.95079248402321,96.03523681871229,-3.08,2.4,0.85,6,7,3,26,1,5,12,18.25,10.10,0.49,
9.713,86.02207924840232,96.06652368187122,-3.02,1.35,0.86,6,8,3,26,1,5,12,18.34,10.10,0.69,
9.738,86.06520792484022,96.05165236818712,-3.25,1.4,1.35,6,7,3,26,1,5,12,18.25,10.20,0.78,
9.762,86.06052079248403,96.0231652368187,-3.31,1.53,0.92,6,7,2,26,2,5,12,18.34,10.01,0.39,
9.787,86.0690520792484,96.00231652368187,-3.3,1.24,1.04,6,7,2,26,2,5,12,18.44,10.01,0.49,
9.811,86.06090520792485,96.01823165236817,-3.52,0.4,1.1,6,7,3,26,2,5,12,18.25,9.91,0.29,
9.835,86.14109052079249,96.06482316523682,-3.85,-0.31,0.6,6,7,3,26,2,5,12,18.25,10.01,0.00,
9.861,86.17610905207925,96.03348231652369,-3.64,0.59,1.07,6,7,3,27,2,5,12,18.34,10.01,0.00,
9.884,86.26961090520793,96.01234823165237,-3.56,1.47,1.1,6,7,3,27,2,5,12,18.54,10.10,0.29,
9.909,86.2609610905208,95.96523482316522,-3.57,2.05,0.98,6,7,3,27,2,5,12,18.44,10.10,0.59,
9.933,86.26009610905209,95.99652348231652,-3.38,1.21,0.95,6,7,3,27,2,5,12,18.44,10.10,0.69,
9.958,86.2060096109052,95.95465234823166,-3.49,0.66,0.81,6,7,3,27,2,5,12,18.54,10.10,0.49,
9.982,86.21860096109052,95.90546523482317,-3.29,0.61,0.8,7,7,3,27,2,5,12,18.44,10.20,0.10,
10.007,86.20186009610904,95.86454652348232,-3.37,0.6,0.94,7,7,3,27,2,5,12,18.54,10.30,0.29,
10.032,86.1731860096109,95.84245465234824,-3.47,1.11,0.79,7,7,3,27,2,5,12,18.54,10.40,0.78,
10.056,86.17031860096108,95.80424546523483,-3.4,0.78,0.72,7,8,3,27,2,5,12,18.54,10.40,0.78,
10.081,86.17903186009612,95.82742454652347,-3.29,0.5,1.03,7,8,3,27,2,5,12,18.64,10.30,0.49,
10.105,86.19790318600961,95.84774245465235,-3.07,0.69,0.62,7,8,3,27,2,5,12,18.74,10.30,0.59,
10.13,86.20879031860096,95.87677424546524,-3.07,1.23,0.69,7,8,3,27,2,5,12,18.44,10.20,0.59,
10.155,86.2548790318601,95.88867742454653,-3.06,1.24,0.85,7,8,3,27,2,5,12,18.44,10.10,0.10,
10.179,86.27748790318601,95.91686774245466,-3.02,0.82,0.78,8,8,3,27,2,5,12,18.44,10.20,0.00,
10.204,86.2707487903186,95.92868677424546,-2.98,0.79,0.56,8,8,3,27,2,5,12,18.34,10.10,0.20,
10.228,86.25207487903185,95.94786867742455,-3.35,0.28,0.41,8,8,2,27,1,5,12,18.44,9.91,0.78,
10.253,86.25020748790318,95.93178686774246,-2.85,0.78,0.49,8,8,2,27,2,4,12,18.44,9.91,0.78,
10.277,86.25902074879032,95.98417868677424,-3.03,0.63,0.63,8,8,2,27,1,4,12,18.34,9.91,0.49,
10.302,86.18790207487905,95.97141786867743,-3.01,0.95,0.59,8,8,2,27,1,4,12,18.34,9.71,0.10,
10.327,86.18079020748792,95.98814178686773,-3.16,0.4,0.93,8,7,2,27,1,4,12,18.34,9.61,0.20,
10.351,86.18907902074879,96.00781417868677,-3.2,0.58,0.53,8,8,2,27,1,4,12,18.34,9.52,0.49,
10.376,86.19890790207488,95.99178141786867,-3.17,0.61,0.92,8,7,2,27,1,4,12,18.34,9.32,0.78,
10.4,86.26289079020749,95.99017814178686,-3.16,0.85,0.77,8,7,2,27,1,4,11,18.25,9.22,0.20,
10.425,86.22428907902075,95.98101781417868,-3.55,0.24,0.89,8,7,2,27,1,4,11,18.25,9.22,0.39,
10.449,86.15742890790209,95.91710178141787,-3.18,-0.63,0.11,8,7,2,27,1,4,11,18.15,9.03,0.59,
10.474,86.1957428907902,95.83871017814178,-3.29,-0.16,0.72,8,7,2,27,1,4,11,18.15,8.93,0.29,
10.499,86.17257428907902,95.84887101781418,-3.41,0.46,0.97,8,7,2,27,1,4,11,18.25,8.83,0.00,
10.523,86.1702574289079,95.85888710178142,-3.26,0.57,1.07,8,7,2,27,1,3,11,18.15,8.73,0.10,
10.548,86.1520257428908,95.86888871017814,-3.31,0.43,1.14,8,7,2,27,1,4,11,17.95,8.63,0.59,
10.572,86.15920257428908,95.92388887101782,-3.53,0.61,1.26,8,7,2,27,1,4,11,18.05,8.63,0.78,
10.597,86.09692025742892,95.85738888710178,-3.51,0.38,1.47,8,7,2,27,1,4,11,18.05,8.73,0.78,
10.621,86.0456920257429,95.84173888871018,-3.31,-0.26,1.15,8,7,2,27,1,4,11,18.15,8.53,0.39,
10.646,86.06756920257428,95.83117388887102,-3.47,1.12,1.07,8,7,3,27,1,3,11,18.05,8.53,0.20,
10.671,86.09675692025742,95.8301173888871,-3.34,0.75,0.91,8,7,3,27,1,4,11,18.05,8.53,0.39,
10.695,86.05467569202574,95.88401173888872,-3.24,0.19,1.37,8,7,3,27,1,3,11,18.05,8.53,0.00,
10.72,86.06846756920257,95.88040117388887,-2.99,0.79,1.25,8,7,3,27,1,3,11,18.15,8.53,0.00,
10.743,86.05184675692024,95.88904011738889,-3.24,1.07,1.08,8,7,2,27,1,3,11,18.05,8.53,0.39,
10.768,85.996184675692,95.89890401173889,-3.21,-0.04,1.21,8,7,3,27,1,3,11,17.95,8.44,0.78,
10.792,86.03561846756921,95.89089040117389,-3.27,1.1,1.0,8,7,2,27,1,3,11,17.95,8.34,0.49,
10.817,86.03956184675692,95.90808904011739,-3.12,0.27,1.14,8,7,2,27,1,3,11,17.85,8.24,0.29,
10.842,85.9859561846757,95.86480890401174,-3.18,0.27,1.05,8,7,2,27,1,3,11,17.76,8.04,0.10,
10.866,85.95359561846757,95.89648089040118,-3.03,-0.06,1.2,8,7,2,27,1,3,11,17.66,8.04,0.59,
10.891,86.01335956184676,95.92664808904011,-3.05,0.79,1.22,8,7,2,27,1,3,11,17.66,8.04,0.78,
10.915,85.99233595618466,95.893664808904,-3.1,0.76,0.45,8,7,2,27,1,3,11,17.66,8.04,0.88,
10.94,86.01723359561845,95.88136648089039,-3.1,0.82,0.98,8,7,2,27,1,3,11,17.66,8.14,0.59,
10.964,85.98372335956185,95.89813664808904,-2.92,1.01,1.1,8,7,2,27,1,3,11,17.56,7.95,0.29,
10.989,85.89037233595619,95.8458136648089,-3.24,0.37,1.05,8,7,2,27,1,3,11,17.66,7.95,0.29,
11.014,85.85403723359562,95.85858136648089,-3.28,0.01,0.76,8,7,2,27,1,3,11,17.46,7.95,0.00,
11.038,85.93140372335957,95.89585813664809,-3.17,0.94,1.08,8,7,2,27,1,3,11,17.46,7.85,0.00,
11.063,86.02014037233596,95.92658581366481,-3.13,0.5,0.95,8,7,2,27,1,3,11,17.46,7.75,0.10,
11.087,86.0470140372336,95.92965858136648,-3.3,0.76,0.86,8,7,2,27,1,3,11,17.36,7.75,0.49,
11.112,86.03170140372336,95.92996585813665,-3.15,0.93,0.88,8,7,2,26,1,3,11,17.46,7.65,0.59,
11.137,86.05717014037234,95.90299658581367,-3.3,0.78,1.05,8,7,2,27,1,3,11,17.36,7.75,0.29,
11.161,85.96971701403723,95.90929965858138,-3.55,1.08,1.86,8,7,2,27,1,3,11,17.46,7.85,0.00,
11.186,85.97897170140372,95.98192996585813,-3.38,0.89,1.26,8,7,2,27,1,3,11,17.46,7.85,0.29,
11.21,85.98889717014036,96.00719299658581,-3.28,0.53,1.17,8,7,2,27,1,3,11,17.46,7.85,0.59,
11.235,85.96288971701402,96.00971929965858,-3.11,0.65,1.03,8,7,2,27,1,3,11,17.56,7.85,0.98,
11.258,85.8702889717014,96.01897192996584,-3.22,0.5,0.96,8,7,2,27,1,3,12,17.46,7.85,0.78,
11.283,85.81602889717014,95.94789719299658,-3.42,0.82,1.11,8,7,2,27,1,3,12,17.56,7.65,0.39,
11.308,85.78360288971702,95.96778971929966,-3.29,1.0,1.03,8,7,2,27,1,3,12,17.46,7.75,0.69,
11.332,85.8073602889717,95.92477897192997,-3.34,-0.31,0.98,8,7,2,27,1,3,12,17.56,7.75,0.10,
11.357,85.83673602889716,95.929477897193,-3.58,0.05,0.98,8,7,2,27,1,3,12,17.56,7.75,0.00,
11.381,85.92967360288972,95.9569477897193,-3.52,-0.01,0.74,8,7,2,27,1,3,12,17.66,7.85,0.20,
11.406,86.04696736028897,95.93269477897194,-3.38,0.91,1.11,8,7,2,27,1,3,12,17.76,7.85,0.49,
11.43,86.0946967360289,95.9392694778972,-3.3,0.82,1.0,8,7,2,27,1,3,12,17.76,8.04,0.78,
11.455,86.08146967360288,95.93092694778971,-3.38,1.01,1.15,8,7,2,27,1,3,12,17.85,8.04,0.59,
11.48,86.02614696736028,95.91209269477898,-3.5,-0.04,0.67,8,7,2,27,1,3,12,17.85,7.95,0.29,
11.504,86.05661469673603,95.9102092694779,-3.46,0.22,1.02,8,7,2,27,1,3,12,17.95,7.95,0.20,
11.529,86.1046614696736,95.9100209269478,-3.28,1.19,1.18,8,7,2,27,1,3,12,17.85,8.14,0.59,
11.553,86.05546614696735,95.90100209269478,-3.31,1.42,1.05,8,7,2,27,1,3,12,17.95,8.04,0.69,
11.578,86.04154661469674,95.91810020926948,-3.34,0.7,0.91,8,7,2,27,1,3,12,17.95,8.14,0.88,
11.602,85.98615466146968,95.92881002092695,-3.4,0.61,0.64,8,7,2,27,1,3,12,17.85,8.24,0.59,
11.627,85.94461546614697,95.9208810020927,-3.4,1.16,1.01,8,7,2,27,1,3,12,18.05,8.24,0.49,
11.652,85.8864615466147,95.88408810020927,-3.4,0.66,1.1,8,7,2,27,1,4,12,18.05,8.24,0.20,
11.676,85.86264615466146,95.86240881002092,-3.39,0.52,0.98,8,8,2,27,1,4,12,17.95,8.24,0.00,
11.701,85.87826461546615,95.86024088100208,-3.52,0.59,0.76,8,8,2,27,1,4,12,18.05,8.24,0.00,
11.725,85.91582646154662,95.8420240881002,-3.34,0.45,1.08,8,7,2,27,1,4,12,18.15,8.24,0.20,
11.75,85.93758264615467,95.83120240881001,-3.5,0.52,1.12,8,7,2,27,1,4,12,18.15,8.34,0.49,
11.773,85.96675826461546,95.839120240881,-3.27,1.34,0.8,8,7,3,27,1,4,12,18.05,8.24,0.59,
11.798,85.98767582646154,95.82191202408809,-3.12,1.4,0.66,8,7,3,28,1,4,12,18.05,8.24,0.39,
11.823,85.89976758264615,95.8021912024088,-2.63,2.15,1.37,8,8,3,28,1,4,12,18.05,8.24,0.00,
11.847,85.86397675826461,95.7102191202409,-2.51,2.33,4.65,8,7,3,27,1,3,12,18.25,8.53,0.20,
11.872,85.75239767582646,95.8990219120241,-0.65,7.5,5.12,7,7,3,28,1,2,12,18.54,8.83,0.59,
11.896,85.84023976758264,96.02590219120242,-1.86,0.85,5.08,6,7,3,28,2,2,12,18.84,10.30,0.88,
11.921,85.97502397675825,96.03859021912025,-1.93,1.92,3.96,5,7,3,28,2,2,12,19.42,10.99,0.69,
11.945,86.05150239767583,96.09385902191201,-2.49,3.11,3.41,4,7,3,27,2,2,12,19.72,11.67,0.59,
11.97,86.19415023976758,96.11738590219122,-2.82,0.05,3.27,4,7,3,28,2,2,12,19.91,12.16,0.49,
11.995,86.28041502397676,96.23673859021912,-3.28,1.4,2.56,4,7,3,28,2,1,12,20.40,12.95,0.20,
12.019,86.28904150239768,96.2486738590219,-3.99,-1.79,1.95,4,7,3,28,2,2,12,20.60,13.54,0.10,
12.044,86.32590415023977,96.21386738590219,-5.96,-1.58,4.29,4,7,3,28,2,2,12,20.99,14.03,0.10,
12.069,86.29359041502397,96.19238673859022,-7.27,-5.3,1.71,3,7,3,27,2,3,0,21.19,14.13,0.49,
12.094,86.2993590415024,96.12723867385903,-7.03,-4.38,0.31,4,6,3,28,2,4,0,21.19,13.54,0.69,
12.119,86.08393590415025,95.9137238673859,-6.51,-10.66,3.53,4,6,3,27,2,4,0,21.09,12.85,0.39,
12.143,85.66639359041503,95.51437238673859,-4.31,-6.7,5.04,4,7,3,27,2,4,0,20.90,12.16,0.20,
12.168,85.4356393590415,95.48343723867386,-0.24,-9.76,-1.79,4,7,3,27,2,2,12,20.99,12.26,0.10,
12.192,85.23256393590414,95.46234372386738,-0.5,-11.8,-3.1,4,7,3,27,2,2,12,21.68,13.05,0.69,
12.217,84.90625639359043,95.80223437238674,-1.03,-7.2,-7.3,4,7,3,28,2,0,12,22.76,16.28,0.29,
12.241,85.17062563935905,96.11522343723868,-6.64,-10.36,2.03,3,8,3,28,3,1,0,23.84,19.42,0.49,
12.267,84.8910625639359,95.89452234372386,-15.35,-28.13,11.92,2,8,4,30,3,2,2,25.21,22.37,0.59,
12.292,84.06210625639359,95.72845223437238,-16.78,-33.42,-9.01,11,7,4,30,4,3,3,27.57,25.02,0.78,
12.316,83.76321062563936,95.95484522343725,-21.92,-28.21,-21.15,8,6,4,28,4,4,6,29.04,27.17,0.78,
12.342,83.62532106256393,96.63448452234373,-38.31,-45.07,-45.27,4,4,5,26,4,6,8,30.80,27.86,0.78,
12.366,82.6845321062564,97.29644845223439,-90.22,-81.46,-17.98,0,3,5,17,4,8,10,32.77,25.31,0.00,
12.391,80.33145321062564,95.07664484522343,-134.15,-70.2,-32.71,0,1,5,11,4,10,12,34.83,19.91,12.65,
12.417,78.24214532106257,94.48566448452235,-142.84,-78.06,-58.18,0,1,5,6,2,12,13,34.34,14.81,5.10,
12.441,70.49121453210626,87.07356644845223,-168.81,-156.51,-75.61,0,1,4,6,2,11,11,29.14,11.18,0.00,
12.467,68.24912145321062,85.40535664484523,-234.89,-117.02,-3.66,0,1,2,7,1,8,2,20.70,8.04,0.00,
12.491,68.05191214532107,83.33053566448451,-145.22,-4.71,-23.37,0,1,0,7,0,9,7,14.13,3.83,0.00,
12.516,70.80419121453211,82.26805356644846,-54.54,136.5,-20.83,0,1,0,7,0,2,1,6.38,0.00,0.00,
12.539,74.8774191214532,80.13680535664486,-64.29,51.51,38.62,0,1,0,7,0,0,1,0.10,0.00,0.00,
12.564,77.35474191214533,78.95168053566448,47.21,61.89,8.81,0,1,0,7,0,0,0,0.00,0.00,0.00,
12.588,79.36647419121454,81.88416805356644,80.02,138.82,35.45,0,1,0,8,0,1,0,0.00,0.00,6.47,
12.612,75.62564741912145,93.18441680535663,94.37,81.96,-3.82,0,1,0,8,0,0,0,0.00,0.00,13.64,
12.636,68.60056474191214,104.23244168053566,66.89,31.63,-10.24,0,2,0,8,0,0,0,0.00,0.00,5.30,
12.66,62.840056474191215,112.96024416805356,59.85,6.62,20.41,0,2,0,8,0,0,0,0.00,0.00,3.14,
12.685,57.26900564741912,119.41302441680536,92.27,-20.64,59.85,0,1,0,8,0,0,0,0.00,2.26,0.10,
12.708,54.956900564741915,123.94630244168054,103.4,-42.81,73.08,0,2,0,8,0,0,0,0.00,2.06,1.77,
12.733,53.16869005647419,125.56063024416805,109.63,-79.52,68.04,0,2,0,8,0,0,0,0.00,1.77,2.84,
12.758,52.80086900564742,123.9130630244168,121.86,-63.65,53.3,0,2,0,8,0,0,0,0.00,1.86,2.45,
12.782,53.772086900564744,121.91230630244168,150.34,-53.15,36.51,0,2,0,8,0,0,0,0.00,1.86,2.35,
12.806,55.147208690056466,120.26323063024417,150.83,-67.63,40.46,0,2,0,8,0,0,0,0.00,1.77,1.67,
12.83,56.382720869005645,117.96532306302441,144.93,-78.47,45.18,0,2,0,8,0,0,0,0.00,1.67,1.37,
12.855,57.433272086900566,115.91753230630243,142.58,-72.1,35.81,0,2,0,8,0,0,0,0.00,1.67,1.18,
12.879,58.30332720869006,113.88575323063024,118.89,-87.68,38.67,0,2,0,8,0,0,0,0.00,1.57,1.37,
12.903,58.669332720869,111.50457532306302,109.06,-94.87,39.43,0,2,0,8,0,0,0,0.00,1.77,2.26,
12.928,59.4349332720869,109.16045753230631,99.21,-68.81,28.06,0,2,0,8,0,0,0,0.00,1.77,1.96,
12.952,60.654493327208684,106.48704575323063,82.17,-49.75,25.17,0,2,0,8,0,0,0,0.00,1.77,2.35,
12.976,62.50444933272087,103.93370457532308,78.83,-13.51,2.37,0,2,0,8,0,0,0,0.00,1.86,4.02,
13.0,63.85044493327209,101.66237045753232,42.32,-16.82,-22.9,0,2,0,8,0,1,0,0.00,2.16,3.04,
13.025,63.85004449332721,98.96923704575323,1.66,-24.76,-38.85,0,2,0,8,0,1,0,0.00,2.26,2.84,
13.048,63.35500444933272,95.67592370457533,-7.78,-0.46,-35.47,0,2,0,8,0,1,0,0.00,2.35,1.96,
13.073,63.44950044493328,95.60759237045752,2.68,36.05,-45.85,0,2,0,8,0,1,0,0.00,2.16,0.00,
13.096,63.944950044493325,97.66175923704574,-9.6,24.56,-45.88,0,2,0,8,0,1,0,0.00,2.26,0.00,
13.121,63.823495004449335,98.65917592370457,-35.54,14.77,-3.07,0,2,0,8,0,1,0,0.00,2.35,0.00,
13.146,64.11734950044494,97.76891759237046,-35.18,29.31,-0.05,0,2,0,8,0,1,0,0.00,2.35,0.49,
13.169,66.40573495004449,100.99189175923705,34.79,48.24,-33.89,0,2,0,8,0,1,0,0.00,2.26,1.18,
13.194,61.62157349500445,109.28818917592369,-2.23,-219.46,-250.14,0,2,0,7,0,2,0,0.00,2.26,4.71,
13.218,63.65415734950045,112.38581891759237,-140.31,-182.05,-117.58,0,2,0,8,0,2,0,0.00,2.35,6.87,
13.243,61.14841573495004,103.92058189175924,-122.61,63.82,-53.84,0,2,0,8,0,2,0,0.00,4.51,5.40,
13.267,60.69084157349501,101.42705818917594,-6.66,115.05,-50.76,0,2,0,9,0,3,0,0.00,4.32,11.97,
13.291,60.6180841573495,100.49370581891759,-11.71,93.94,-21.08,1,3,0,9,0,3,0,0.59,4.81,5.69,
13.316,61.73580841573495,99.71637058189177,-10.95,111.38,-18.29,3,4,0,10,0,3,0,1.18,5.20,1.57,
13.34,62.8645808415735,99.39563705818918,-4.72,53.48,-7.71,6,4,0,11,0,3,0,1.28,9.42,3.83,
13.365,63.41845808415734,99.66956370581892,-4.37,56.48,-1.16,5,3,0,10,0,3,0,1.37,11.58,5.69,
13.388,63.48284580841574,99.71495637058189,-0.48,48.49,-4.4,4,3,0,10,0,3,0,1.18,9.42,0.00,
13.413,64.17328458084158,100.43049563705819,20.55,64.49,-23.74,3,3,0,10,0,3,0,1.28,3.73,0.00,
13.437,65.13332845808415,101.91504956370582,6.33,63.32,-12.25,4,3,0,10,0,3,0,1.57,3.63,0.00,
13.461,66.24633284580841,102.40550495637058,-15.87,37.73,5.09,5,3,0,11,0,3,0,2.06,5.30,0.00,
13.486,66.86163328458085,102.10355049563705,-16.06,43.98,19.65,6,4,0,11,0,4,0,2.55,7.55,1.57,
13.51,67.77816332845808,101.5783550495637,-5.68,69.48,7.14,8,4,0,11,0,5,0,3.04,9.81,1.67,
13.535,69.0308163328458,101.59783550495636,-4.57,70.42,-3.47,9,5,0,12,0,7,0,3.83,11.58,0.98,
13.559,70.37108163328458,101.87878355049563,-9.09,51.65,9.27,10,5,0,1,0,8,0,4.32,10.69,0.29,
13.583,71.03610816332846,101.54687835504957,-9.31,15.73,-6.27,12,5,0,2,0,10,1,4.32,8.83,0.00,
13.607,71.46261081633286,101.54068783550497,-4.56,32.17,-4.89,2,6,0,3,0,11,2,3.92,7.95,0.20,
13.632,72.23426108163328,101.0630687835505,-8.84,56.3,4.91,6,6,0,7,0,1,3,3.92,8.04,0.49,
13.657,76.01942610816333,101.06030687835505,-6.31,57.76,4.02,8,6,0,10,0,3,4,3.83,8.24,0.10,
13.68,78.25194261081634,100.0880306878355,-9.84,45.02,7.61,10,7,0,12,0,5,6,3.63,8.53,0.29,
13.705,78.87119426108164,99.62180306878355,-10.48,61.95,20.05,11,7,0,15,0,7,7,3.63,8.73,0.69,
13.729,80.38211942610816,98.12618030687835,-6.37,71.17,2.44,12,8,0,18,0,9,8,4.02,8.93,0.98,
13.754,81.10021194261083,98.69661803068783,-16.42,18.45,6.44,14,8,0,20,0,10,9,5.00,9.52,0.59,
13.778,81.67602119426108,98.36666180306878,-17.4,25.24,5.52,16,9,0,23,0,12,9,6.28,10.89,0.20,
13.803,81.74260211942611,98.10866618030688,-16.66,18.52,1.92,17,9,0,25,0,14,10,7.65,12.95,0.00,
13.828,81.0652602119426,96.97586661803068,-12.29,21.68,-6.58,19,10,1,27,0,16,11,8.83,15.50,0.00,
13.853,79.82752602119426,96.75458666180307,-34.76,-13.21,-9.87,20,10,2,28,1,19,12,9.32,19.13,0.00,
13.878,78.05675260211942,100.7284586661803,-54.79,11.21,99.92,21,10,3,31,2,21,1,8.93,23.64,0.00,
13.903,79.16667526021195,99.00184586661803,-20.56,36.05,5.63,21,10,3,31,2,23,3,9.81,32.57,0.00,
13.928,79.1606675260212,98.9371845866618,-19.32,28.02,0.49,21,10,4,32,3,26,4,11.48,37.96,0.00,
13.953,79.61006675260212,98.9937184586662,-22.98,-25.11,9.44,21,10,5,34,3,27,6,13.44,42.48,0.00,
13.978,80.79800667526021,98.24337184586662,-12.77,-66.76,-45.29,22,11,5,34,4,28,8,14.72,46.21,0.00,
14.003,80.52980066752602,98.89733718458666,-7.05,-77.4,-57.55,22,11,5,35,4,31,9,16.09,47.87,0.00,
14.028,80.7729800667526,97.83773371845868,-26.08,25.98,45.38,22,11,6,37,4,32,11,16.97,48.85,0.00,
14.053,80.68929800667527,97.38977337184588,-12.24,6.85,-5.6,22,11,6,37,4,34,12,17.66,50.72,0.00,
14.078,80.71692980066751,96.3999773371846,-16.35,11.18,9.16,22,10,7,37,5,35,13,18.15,52.39,0.00,
14.103,80.85469298006674,95.91399773371846,-15.71,6.16,10.56,22,10,7,39,5,39,6,18.64,53.66,0.00,
14.129,81.06646929800668,95.50539977337185,-12.9,7.9,5.99,22,11,8,39,5,39,0,19.03,55.13,0.00,
14.153,81.24064692980066,94.99653997733718,-12.53,6.29,7.11,22,11,8,39,6,40,8,19.52,55.52,0.00,
14.178,81.59106469298007,94.61265399773372,-6.44,12.25,5.46,22,11,8,39,5,40,7,19.91,54.54,0.00,
14.202,82.310106469298,94.63726539977337,-1.73,14.36,4.56,23,11,7,39,4,42,12,19.91,51.40,0.00,
14.228,82.5260106469298,94.72972653997732,-5.98,3.07,7.98,25,11,7,40,3,42,8,18.93,45.62,0.10,
14.253,82.12460106469298,94.36997265399773,-4.03,-7.88,-2.76,27,12,7,40,3,42,11,19.42,41.10,1.37,
14.278,81.8864601064693,94.25299726539977,-6.02,-3.01,-2.46,30,12,7,42,3,44,10,20.80,38.55,0.59,
14.303,81.86264601064694,94.32229972653998,-15.31,3.73,-7.49,30,0,7,44,3,46,10,22.66,37.57,0.29,
14.327,82.1662646010647,94.329229972654,-27.06,-8.83,-3.69,28,1,7,44,3,48,10,25.90,37.28,0.00,
14.353,81.85462646010646,93.9159229972654,-38.2,-11.38,-5.09,25,12,8,44,4,53,1,28.25,37.57,0.00,
14.377,81.60746264601065,93.28959229972654,-46.76,-13.92,0.73,18,11,9,42,5,55,10,31.10,36.98,0.00,
14.403,81.14174626460107,92.14695922997265,-45.83,-8.89,1.05,7,9,10,39,6,60,6,35.02,35.12,0.00,
14.428,81.2121746264601,91.40269592299727,-51.6,-7.73,4.6,10,7,11,34,7,60,11,39.14,33.55,0.00,
14.453,80.90421746264602,90.41926959229974,-59.03,-11.56,0.53,5,5,12,25,7,63,22,45.81,30.51,0.00,
14.478,80.0904217462646,89.55592695922996,-72.47,-32.69,-1.64,0,4,12,11,8,63,7,51.70,26.19,0.00,
14.502,80.06304217462646,89.33459269592299,-84.69,-13.45,-27.03,0,2,0,11,8,63,0,59.15,21.29,0.00,
14.528,79.60130421746264,88.6644592695923,-98.56,-27.69,-23.0,0,1,0,8,7,66,7,68.38,16.87,0.00,
14.553,78.43913042174626,87.40944592695922,-103.88,-44.89,-13.5,0,1,0,8,7,66,10,77.99,9.61,0.00,
14.577,77.27891304217462,86.63594459269592,-115.85,-25.07,-60.91,0,1,12,9,7,66,9,76.91,2.16,6.87,
14.603,76.89289130421746,86.0095944592696,-142.44,-26.6,-69.59,0,1,10,9,6,66,10,72.99,0.00,4.02,
14.627,75.65728913042174,85.44295944592696,-170.5,-79.71,-70.21,0,1,7,9,5,63,9,62.00,0.00,2.94,
14.652,73.25672891304218,83.92829594459269,-202.27,-88.15,-46.36,0,1,5,10,5,53,8,43.46,0.00,1.96,
14.678,71.45067289130422,83.30882959445927,-200.26,-44.69,-62.73,0,1,4,9,3,39,7,17.07,0.00,0.39,
14.702,70.38806728913042,83.25588295944593,-175.85,-17.28,-57.26,0,1,3,8,2,18,5,4.02,0.00,0.69,
14.727,71.16380672891304,82.6385882959446,-169.95,23.05,2.08,0,1,3,9,1,11,3,0.00,0.00,0.00,
14.751,71.5113806728913,77.77085882959446,-132.88,82.04,80.72,0,1,3,9,0,2,0,0.00,0.00,0.00,
14.776,72.86913806728913,70.26408588295945,-38.78,19.4,152.75,0,1,3,9,0,2,0,0.00,0.00,4.91,
14.799,73.83291380672893,67.16440858829594,86.99,108.92,8.68,0,1,2,9,0,1,0,0.00,0.00,10.89,
14.824,75.87329138067288,66.9894408588296,87.92,135.58,-48.3,0,2,2,10,0,1,0,0.00,0.00,0.00,
14.849,76.97732913806729,67.50294408588296,84.95,167.84,-42.23,0,2,1,9,0,1,0,0.00,0.98,7.16,
14.873,78.50973291380674,66.61829440858828,57.61,92.05,23.4,0,2,0,9,0,1,0,0.00,0.20,5.89,
14.897,76.53897329138067,63.17282944085883,84.48,44.63,48.63,0,2,0,9,0,1,0,0.00,0.00,2.45,
14.921,72.66989732913805,59.37228294408589,83.98,25.31,79.79,0,2,0,9,0,2,0,0.00,0.00,3.63,
14.946,67.2159897329138,54.49222829440859,91.53,24.11,70.71,0,2,0,9,0,2,0,0.00,0.00,3.04,
14.969,60.22659897329138,49.23422282944085,114.23,30.08,55.4,0,2,0,9,0,2,0,0.00,0.00,2.75,
14.994,55.369659897329136,46.809422282944084,125.5,24.31,48.78,0,2,0,9,0,2,0,0.00,0.00,1.86,
15.017,51.29296598973292,46.269942228294404,112.09,-8.62,53.87,0,2,0,9,0,2,0,0.00,0.00,1.08,
15.042,45.9712965989733,44.71299422282944,122.53,-31.66,70.35,0,2,0,9,0,2,0,0.00,0.00,0.00,
15.067,41.53312965989733,47.79729942228295,117.95,-40.92,65.15,0,2,0,9,0,2,0,0.00,0.00,0.88,
15.09,38.713312965989736,50.364729942228294,115.17,-78.12,85.73,0,2,0,9,0,2,0,0.00,0.00,1.08,
15.115,37.486331296598976,53.159472994222824,112.59,-114.33,52.6,0,2,0,9,0,3,0,0.00,0.00,0.69,
15.139,36.8956331296599,56.147947299422285,112.37,-108.41,28.74,0,2,0,9,0,2,0,0.00,0.00,3.14,
15.163,39.01456331296599,58.849794729942225,117.22,-111.58,-1.97,0,2,0,9,0,2,0,0.00,0.00,2.65,
15.187,42.0434563312966,61.84697947299422,113.08,-94.98,-20.35,0,2,0,9,0,2,0,0.00,0.00,3.43,
15.212,46.20734563312966,64.86469794729943,99.6,-121.92,-42.75,0,2,0,9,0,2,0,0.00,0.00,4.51,
15.237,49.062734563312965,67.62346979472994,-17.31,-203.32,-156.25,0,2,0,9,0,1,0,0.00,0.00,1.08,
15.261,51.859273456331294,68.124346979473,-145.97,-199.82,-55.85,0,2,0,9,0,0,1,0.00,0.00,0.00,
15.286,61.79592734563313,76.7064346979473,-64.1,-199.73,115.85,0,2,0,10,0,4,2,1.77,7.46,20.31,
15.31,59.828592734563316,81.09264346979472,210.94,-71.5,-250.14,0,4,1,5,0,5,3,2.65,2.16,4.71,
15.335,48.94885927345633,65.53826434697947,-56.89,250.14,250.13,7,5,2,7,0,8,5,2.55,1.86,6.28,
15.36,64.70888592734562,62.551826434697944,-32.87,75.96,124.7,8,5,3,8,1,9,5,5.00,5.49,0.00,
15.384,64.15188859273457,67.2391826434698,3.13,89.84,19.4,7,5,3,8,1,9,5,6.47,8.63,4.61,
15.409,74.34718885927346,71.98291826434698,13.18,103.02,8.02,8,5,3,8,1,9,6,8.44,10.89,4.61,
15.433,74.37671888592733,75.8232918264347,1.92,-35.77,5.22,10,6,4,9,1,10,6,9.03,12.56,0.78,
15.458,76.21567188859274,79.30332918264347,10.22,71.36,8.18,11,6,3,13,1,10,6,8.83,12.36,0.00,
15.482,76.43556718885927,81.73033291826434,5.49,-13.7,-2.17,12,6,3,14,1,10,6,8.24,11.28,0.00,
15.508,77.78055671888595,84.25003329182643,9.19,46.14,-2.66,12,6,3,15,1,10,6,7.75,10.99,1.08,
15.533,78.8510556718886,86.43700332918266,3.56,0.24,7.85,12,6,3,15,1,10,5,6.87,10.40,1.18,
15.557,79.83110556718886,88.26670033291828,4.29,22.23,5.7,12,6,3,15,1,9,5,6.28,9.61,0.78,
15.581,80.35211055671888,89.69167003329181,1.08,2.29,2.59,12,5,3,15,1,9,5,6.08,9.03,0.78,
15.605,81.02521105567189,90.84216700332918,1.05,17.5,0.95,12,5,3,15,1,9,5,5.59,8.53,0.78,
15.63,81.6145211055672,91.99221670033292,0.27,6.29,-0.55,12,5,3,15,0,9,5,5.49,7.85,0.88,
15.654,82.29445211055673,92.9802216700333,-0.95,9.29,1.47,12,5,3,15,0,9,5,5.20,7.36,0.78,
15.679,82.58744521105568,93.72702216700333,-1.94,1.42,1.24,12,5,3,15,0,9,5,5.10,6.87,0.69,
15.704,82.85974452110557,94.31470221670033,-1.62,4.55,1.57,12,5,3,15,0,9,5,4.91,6.28,0.59,
15.728,83.04897445211054,94.76047022167003,-2.02,5.72,-0.34,12,5,3,14,0,10,5,4.61,5.59,0.69,
15.753,83.32889744521106,95.300047022167,-1.28,2.36,-5.17,11,5,3,14,0,10,4,4.41,5.00,0.88,
15.777,83.74388974452111,95.8580047022167,-2.37,3.57,-2.89,12,5,2,14,0,10,4,4.32,4.51,1.18,
15.802,83.90238897445212,96.02180047022168,-0.27,1.75,-5.32,12,5,2,14,0,10,4,4.32,4.41,0.98,
15.826,84.00823889744521,96.16418004702217,2.38,-1.65,-3.98,11,5,2,14,0,10,3,3.83,3.73,0.29,
15.851,84.46882388974451,96.66441800470221,0.02,4.03,-2.24,11,5,2,12,0,10,2,3.43,2.84,0.10,
15.876,84.36188238897444,97.02044180047022,1.05,5.29,1.4,11,5,2,12,0,10,2,2.94,1.86,0.10,
15.9,84.13518823889744,97.10104418004703,1.78,-0.92,0.68,11,4,2,11,0,10,2,2.55,0.88,0.88,
15.925,84.26551882388975,97.4151044180047,-2.33,-9.05,-3.02,10,4,2,11,0,10,1,2.26,0.10,0.78,
15.949,84.09855188238897,98.20251044180048,-0.8,13.37,4.21,10,4,2,11,0,10,1,1.77,0.00,0.59,
15.974,84.50485518823889,98.34425104418006,-4.3,-8.24,-0.23,10,4,2,11,0,11,1,1.67,0.00,0.78,
15.998,84.11348551882388,98.250425104418,-1.64,4.89,-4.34,10,4,2,11,0,11,1,1.67,0.00,0.78,
16.023,84.38934855188239,98.52004251044178,-4.64,-4.51,-4.98,10,4,2,11,0,12,1,1.77,0.00,0.98,
16.048,84.76793485518824,98.61900425104417,-6.02,-2.44,-1.88,10,4,2,12,0,12,1,1.77,0.00,1.37,
16.072,84.85979348551884,98.5749004251044,-8.32,-1.43,9.74,10,5,2,12,0,12,1,1.96,0.00,1.77,
16.097,84.81497934855189,98.26449004251045,-5.73,0.14,3.85,10,5,2,13,0,12,1,2.35,0.10,1.28,
16.121,84.68449793485519,98.06244900425105,-5.68,0.16,2.01,11,5,2,13,0,12,1,2.55,0.10,0.98,
16.146,84.87844979348553,98.16824490042511,-6.96,2.69,3.75,11,5,2,13,0,12,1,2.75,0.10,1.28,
16.171,85.03284497934855,98.08882449004251,-6.36,0.3,1.63,11,5,2,13,0,12,1,2.94,0.00,1.37,
16.195,85.58828449793486,98.27888244900424,-5.56,-8.5,-6.46,11,5,2,14,0,11,1,3.14,0.00,1.28,
16.22,85.31082844979349,98.14488824490041,-7.69,6.41,2.69,12,5,2,14,0,11,1,3.63,0.00,0.29,
16.244,85.12108284497936,97.96948882449004,-6.8,-0.5,1.66,12,5,2,14,0,10,2,4.02,0.00,0.00,
16.269,84.83210828449793,97.90694888244902,-6.51,-1.32,1.15,0,5,2,15,0,10,2,4.41,0.00,0.29,
16.293,84.8842108284498,97.77469488824491,-6.46,-0.32,0.5,1,5,2,15,0,10,2,4.61,0.00,0.49,
16.318,84.80842108284497,97.74346948882449,-6.75,0.66,0.9,2,5,2,16,0,10,2,5.10,0.00,0.49,
16.343,84.7018421082845,97.57834694888246,-6.91,-2.02,0.03,2,5,2,16,0,10,3,5.79,0.00,0.10,
16.367,84.62818421082845,97.48083469488824,-5.85,0.41,0.23,2,5,2,17,0,10,3,6.38,0.00,0.29,
16.392,84.63881842108285,97.37208346948881,-6.14,0.06,0.94,3,5,3,17,0,10,3,6.87,0.00,0.39,
16.415,84.59488184210828,97.28920834694888,-5.51,1.67,1.37,3,5,3,17,0,10,3,7.16,0.00,0.00,
16.44,84.58148818421083,97.2359208346949,-5.01,0.92,1.12,3,5,3,17,0,10,3,7.55,0.00,0.10,
16.464,84.60714881842108,97.18559208346949,-5.49,1.73,1.18,3,6,3,18,0,10,4,7.85,0.00,0.29,
16.489,84.59171488184211,97.09055920834695,-5.22,1.21,1.24,4,6,3,18,0,10,4,8.34,0.00,0.49,
16.514,84.63517148818421,97.0450559208347,-4.71,1.17,1.31,4,6,3,18,0,10,4,8.53,0.00,0.49,
16.538,84.60351714881843,97.04950559208346,-4.95,2.28,1.41,4,6,3,18,0,10,4,8.73,0.29,0.29,
16.563,84.57335171488184,96.97795055920834,-4.98,1.09,1.41,5,6,3,19,0,10,4,9.03,0.49,0.29,
16.586,84.53433517148818,97.12379505592084,-4.63,2.7,1.67,5,6,3,18,0,10,4,9.42,0.49,0.29,
16.611,84.56643351714882,97.08437950559208,-4.44,1.86,1.19,5,6,3,18,0,10,4,9.61,0.69,0.49,
16.635,84.56964335171489,97.0264379505592,-4.24,2.45,1.52,5,6,3,19,0,10,4,10.01,0.88,0.59,
16.66,84.57896433517149,96.93964379505593,-4.3,1.69,1.44,5,6,3,19,0,10,4,10.20,0.98,0.39,
16.685,84.58889643351715,96.9219643795056,-4.15,1.6,1.59,6,6,3,19,0,10,4,10.40,1.28,0.29,
16.709,84.61688964335171,96.84819643795056,-3.97,0.97,1.44,6,6,3,19,0,10,4,10.59,1.37,0.49,
16.734,84.70968896433517,96.81381964379506,-3.94,1.9,2.02,6,6,3,19,0,10,4,10.79,1.37,0.69,
16.758,84.59296889643352,96.78338196437952,-3.97,0.99,1.39,6,6,3,19,0,10,4,10.89,1.37,0.10,
16.783,84.67129688964336,96.69033819643796,-4.29,0.99,1.13,7,6,3,19,0,10,4,11.09,1.47,0.10,
16.807,84.67912968896434,96.61803381964378,-4.15,1.37,1.18,7,6,3,20,0,10,4,11.28,1.47,0.49,
16.832,84.75191296889643,96.66480338196438,-4.04,1.12,1.15,7,6,3,20,0,10,4,11.48,1.67,0.49,
16.857,84.73219129688965,96.61548033819643,-4.2,0.41,1.51,8,6,3,20,0,10,4,11.58,1.77,0.29,
16.881,84.35221912968896,97.33054803381964,-5.04,1.65,3.27,8,6,3,20,0,10,4,11.77,1.86,0.10,
16.906,84.7192219129689,97.25805480338197,-3.32,0.82,-1.17,8,6,3,20,0,10,5,11.97,1.96,0.49,
16.93,84.69292219129689,97.26880548033819,-3.92,4.13,0.9,8,6,3,20,0,11,5,12.07,2.16,0.59,
16.955,84.60029221912968,97.25188054803382,-4.5,-0.02,1.43,8,6,4,21,0,11,5,12.36,2.26,0.69,
16.979,84.64502922191296,97.11518805480338,-4.34,0.98,0.75,8,7,4,21,0,11,5,12.46,2.55,0.49,
17.004,84.6405029221913,97.02051880548035,-4.38,1.56,1.01,9,7,4,21,1,11,5,12.75,2.84,0.29,
17.028,84.65805029221913,96.99305188054802,-4.72,0.05,0.66,9,7,4,21,1,11,5,12.95,3.04,0.29,
17.052,84.65980502922191,96.89130518805479,-5.1,0.17,0.92,9,7,4,21,1,11,5,13.34,3.24,0.20,
17.077,84.7229805029222,96.74613051880547,-4.79,1.11,0.9,9,7,4,21,1,11,5,13.54,3.53,0.10,
17.101,84.72029805029223,96.63261305188055,-4.47,0.9,0.93,10,7,4,22,1,11,5,13.93,3.83,0.10,
17.126,84.77402980502923,96.59426130518807,-4.12,0.79,1.31,10,7,4,22,1,11,5,14.22,4.02,0.39,
17.15,84.7434029805029,96.4734261305188,-4.02,1.01,1.3,10,7,4,22,1,11,5,14.42,4.12,0.39,
17.175,84.7583402980503,96.40734261305188,-3.93,1.53,1.05,10,7,4,22,1,12,5,14.62,4.32,0.39,
17.2,84.75083402980503,96.32873426130519,-4.39,0.51,0.9,10,7,4,22,1,12,5,14.62,4.32,0.39,
17.224,84.7410834029805,96.25787342613052,-4.13,1.03,1.28,10,7,4,23,1,12,5,14.81,4.51,0.49,
17.25,84.73110834029805,96.16978734261305,-4.23,0.62,1.29,10,7,4,23,1,12,5,15.01,4.61,0.49,
17.274,84.77511083402982,96.1429787342613,-3.97,1.32,1.15,10,7,4,23,1,12,6,15.21,4.81,0.69,
17.299,84.77951108340298,96.13129787342612,-3.92,1.42,1.15,10,7,4,23,1,12,6,15.40,4.91,0.59,
17.324,84.7619511083403,96.09412978734262,-3.74,1.01,1.09,11,7,4,24,1,12,6,15.50,4.91,0.49,
17.348,84.78719511083403,96.08141297873425,-3.38,2.38,1.16,11,7,4,24,1,0,6,15.50,4.91,0.39,
17.373,84.81671951108339,96.12514129787343,-3.34,1.11,1.16,11,7,4,24,1,12,6,15.70,4.81,0.20,
17.397,84.87367195110834,96.08451412978734,-3.52,1.67,1.47,11,7,4,24,1,0,6,15.70,4.91,0.20,
17.422,84.93336719511083,96.03545141297874,-3.32,2.69,1.55,11,7,4,24,1,0,6,15.70,5.00,0.20,
17.446,84.93033671951109,96.08454514129788,-3.33,1.19,1.85,11,7,4,24,1,0,6,15.79,5.00,0.39,
17.47,84.93903367195111,96.05345451412978,-3.95,1.79,2.79,11,7,4,24,1,0,6,15.99,5.10,0.59,
17.495,84.9489033671951,96.07734545141297,-3.69,0.75,4.66,11,7,4,24,1,0,6,15.79,5.00,0.59,
17.519,84.8328903367195,96.0887345451413,-3.97,0.41,3.14,11,7,4,24,1,12,6,15.79,4.91,0.49,
17.544,84.92928903367195,96.15287345451412,-3.03,1.09,4.17,11,7,4,24,1,12,6,15.89,4.91,0.20,
17.568,84.7049289033672,95.3042873454514,-4.53,-4.91,5.76,10,7,4,24,1,12,6,15.99,4.91,0.29,
17.594,84.91649289033671,95.26442873454515,-3.21,3.27,4.87,11,7,4,24,1,12,6,16.09,5.00,0.69,
17.618,84.76664928903368,95.33244287345453,-2.37,4.94,1.44,11,6,4,23,1,11,6,16.09,4.91,0.78,
17.643,84.76966492890335,95.34824428734545,-2.72,1.79,1.58,10,7,4,23,1,11,6,15.89,4.91,0.49,
17.668,84.86896649289034,95.48482442873454,-2.34,4.31,1.54,10,6,4,23,1,11,6,15.99,4.81,0.49,
17.692,84.93289664928903,95.56148244287344,-2.57,3.5,1.26,10,7,4,23,1,11,6,15.99,5.00,0.49,
17.717,85.0022896649289,95.65914824428735,-3.05,2.84,1.08,11,7,4,23,1,11,6,15.99,5.10,0.39,
17.741,85.05422896649289,95.69591482442874,-3.32,2.39,0.53,11,7,4,23,1,11,6,16.09,5.20,0.39,
17.766,85.0594228966493,95.71759148244287,-3.35,2.23,0.69,10,7,4,23,1,11,6,15.99,5.30,0.29,
17.79,85.11394228966493,95.76475914824428,-3.34,1.43,0.51,10,7,4,23,1,11,6,15.89,5.20,0.78,
17.815,85.1823942289665,95.79647591482443,-3.06,1.31,0.46,10,6,4,23,1,11,6,15.79,5.10,0.88,
17.84,85.24323942289666,95.87164759148244,-2.75,1.32,0.23,9,7,4,23,1,11,6,15.50,4.91,0.49,
17.864,85.27632394228968,95.89716475914824,-2.82,0.41,0.18,9,7,4,23,1,11,6,15.21,4.61,0.39,
17.889,85.35163239422897,95.89971647591483,-2.9,1.65,0.46,9,7,4,24,1,11,6,15.11,4.61,0.59,
17.913,85.28716323942291,95.89997164759149,-2.64,1.21,0.17,9,7,4,24,1,11,6,15.01,4.51,0.59,
17.938,85.2807163239423,95.90899716475914,-2.98,0.35,-0.02,10,7,4,24,1,12,6,14.91,4.51,0.29,
17.963,85.27107163239423,95.92789971647592,-3.3,0.47,-0.15,10,7,4,24,1,12,6,14.91,4.41,0.29,
17.987,85.27010716323942,95.95678997164758,-3.64,0.42,0.19,10,7,4,24,1,12,6,14.72,4.41,0.69,
18.012,85.27001071632394,95.94167899716476,-3.73,-0.39,-0.05,10,7,4,24,1,12,6,14.81,4.22,0.69,
18.036,85.2610010716324,95.95816789971647,-3.34,-0.62,0.22,10,7,4,24,1,12,6,14.72,4.12,0.59,
18.061,85.32310010716324,95.96881678997165,-3.0,0.76,0.25,10,7,4,24,1,12,6,14.81,4.12,0.49,
18.085,85.24831001071632,95.95188167899717,-3.2,-0.03,0.63,10,7,4,24,1,12,6,14.72,3.92,0.69,
18.11,85.24083100107163,95.95018816789971,-3.3,-0.61,0.59,10,7,4,24,1,12,6,14.72,3.83,0.69,
18.135,85.28508310010717,95.97701881678998,-3.4,0.24,0.82,10,7,4,25,1,12,6,14.52,3.73,0.69,
18.159,85.22650831001073,95.943701881679,-3.3,0.13,0.98,10,7,4,25,1,12,6,14.62,3.53,0.78,
18.184,85.17565083100108,95.9133701881679,-3.01,0.85,1.16,10,7,4,24,1,12,6,14.62,3.53,0.59,
18.208,85.17056508310012,95.90133701881679,-3.04,-0.28,1.53,10,7,4,24,1,11,6,14.42,3.43,0.78,
18.234,85.20605650831,95.90013370188169,-3.17,0.47,1.25,10,7,4,24,1,11,6,14.42,3.34,0.29,
18.258,85.155605650831,95.94501337018818,-3.31,0.82,1.02,10,7,4,24,1,11,6,14.22,3.24,0.29,
18.283,85.18656056508311,96.00350133701882,-3.31,0.26,1.18,10,7,4,24,1,11,6,14.32,3.24,0.49,
18.308,85.18965605650831,96.00935013370189,-3.55,0.76,1.13,10,7,4,24,1,11,6,14.42,3.24,0.69,
18.332,85.14496560565084,95.99193501337018,-3.49,0.6,1.24,10,7,4,25,1,11,6,14.42,3.14,0.78,
18.357,85.06849656056508,95.963193501337,-3.47,-0.02,1.39,10,7,4,25,1,11,6,14.42,3.24,0.59,
18.381,85.1148496560565,95.96031935013369,-3.2,1.27,1.64,10,7,4,25,1,11,6,14.52,3.14,0.39,
18.406,85.11948496560565,95.93303193501337,-3.14,1.47,1.52,10,7,4,25,1,12,6,14.42,3.14,0.39,
18.43,85.11094849656057,95.89430319350134,-3.33,1.2,1.66,10,7,4,25,1,12,6,14.52,3.24,0.49,
18.455,85.14609484965607,95.89943031935013,-3.4,0.87,1.61,10,7,4,25,1,12,6,14.52,3.24,0.88,
18.48,85.16760948496561,95.92694303193501,-3.15,1.75,1.43,10,7,4,25,1,11,6,14.62,3.24,0.78,
18.504,85.17876094849656,95.9116943031935,-2.92,2.49,1.11,10,7,4,25,1,11,6,14.72,3.24,0.49,
18.529,85.17087609484966,95.91016943031934,-3.05,1.08,1.07,10,7,4,24,1,11,6,14.72,3.34,0.49,
18.553,85.22408760948497,95.93701694303194,-3.24,1.58,1.04,10,7,4,24,1,11,6,14.62,3.24,0.49,
18.578,85.2294087609485,95.9307016943032,-3.37,1.84,0.85,9,7,4,24,1,11,6,14.62,3.34,0.29,
18.603,85.19394087609486,95.96607016943032,-3.31,2.02,0.76,9,7,4,25,1,11,6,14.72,3.34,0.29,
18.627,85.21739408760949,95.96060701694302,-3.05,1.11,0.74,9,7,4,24,1,11,6,14.62,3.24,0.59,
18.652,85.26473940876095,95.9690607016943,-3.51,0.75,0.86,8,7,4,24,1,11,6,14.62,3.24,0.78,
18.676,85.3054739408761,95.96090607016941,-3.31,1.2,0.86,8,7,4,25,1,11,6,14.72,3.24,0.88,
18.701,85.25554739408761,95.96009060701692,-3.15,0.8,0.92,8,6,4,25,1,11,6,14.62,3.04,0.59,
18.725,85.30455473940877,95.9960090607017,-3.14,0.76,1.08,7,6,4,25,1,11,6,14.72,3.04,0.49,
18.75,85.30945547394089,95.99060090607016,-3.18,0.37,1.21,7,6,4,24,1,11,6,14.62,3.04,0.49,
18.774,85.3639455473941,95.95406009060702,-3.34,0.44,1.07,7,6,4,24,1,11,6,14.81,3.04,0.88,
18.798,85.3513945547394,95.95940600906069,-3.51,0.0,1.15,6,6,4,25,1,11,6,14.62,2.84,0.59,
18.823,85.30513945547393,95.95094060090607,-3.46,-0.16,1.02,6,6,4,24,1,11,6,14.72,2.75,0.49,
18.847,85.2555139455474,96.0130940600906,-3.72,-0.69,1.03,6,6,4,24,1,11,6,14.62,2.75,0.59,
18.872,85.28655139455475,96.00130940600906,-3.95,-0.55,1.23,6,6,4,24,1,11,6,14.72,2.55,0.69,
18.896,85.21765513945547,95.9641309406009,-3.77,-0.44,1.24,6,6,4,25,1,11,6,14.72,2.35,0.49,
18.921,85.22876551394555,95.91541309406009,-3.91,-1.02,1.08,6,6,4,25,1,11,6,14.81,2.26,0.39,
18.946,85.19387655139457,95.91954130940601,-4.31,-0.75,0.63,6,6,4,24,1,11,6,14.91,2.26,0.59,
18.97,85.19938765513946,95.87495413094061,-4.12,-1.01,0.45,6,6,4,25,1,11,6,14.91,2.06,0.98,
18.995,85.11893876551395,95.85249541309406,-4.48,-1.08,0.5,6,6,4,24,1,11,6,15.11,2.06,0.88,
19.019,85.0568938765514,95.82324954130941,-4.74,-1.24,0.36,6,6,4,25,1,12,6,15.30,2.16,0.88,
19.044,85.10468938765514,95.85632495413094,-5.08,-1.55,0.56,6,6,4,25,1,12,6,15.50,2.16,0.78,
19.069,85.01946893876551,95.8686324954131,-6.2,-2.25,1.47,6,6,4,25,1,12,6,15.70,2.35,0.49,
19.094,84.98394689387655,95.81586324954131,-6.29,-3.02,1.11,6,6,4,25,1,1,7,15.60,2.45,0.39,
19.119,84.92639468938765,95.73858632495414,-7.73,-4.43,0.76,6,6,4,24,1,2,7,15.79,2.75,0.29,
19.142,84.86663946893876,95.64985863249542,-6.35,-1.92,0.09,7,6,4,24,1,3,7,15.79,3.14,0.49,
19.167,84.82466394689386,95.53298586324954,-5.79,-1.37,0.52,6,6,4,24,1,3,7,16.09,3.34,0.59,
19.191,84.74846639468937,95.46729858632496,-5.67,-1.84,0.7,6,6,4,24,1,4,8,16.28,3.53,0.69,
19.216,84.63284663946894,95.37072985863249,-5.31,-1.64,0.56,6,6,4,24,1,5,8,16.38,3.92,0.59,
19.24,84.5762846639469,95.32507298586324,-5.71,-2.32,0.15,6,6,5,24,1,5,8,16.58,4.22,0.59,
19.265,84.50762846639469,95.30250729858632,-5.06,-1.75,0.48,6,6,5,24,1,5,8,16.68,4.81,0.78,
19.29,84.48276284663947,95.28225072985865,-5.05,-1.65,0.61,6,6,5,24,1,6,8,16.97,5.20,0.98,
19.314,84.39927628466396,95.22622507298587,-4.38,-0.96,1.44,6,6,5,24,1,6,8,17.07,5.59,0.98,
19.339,84.3639276284664,95.1846225072986,-3.85,0.52,1.36,6,6,5,24,1,6,8,17.17,5.69,0.88,
19.363,84.31539276284664,95.18946225072986,-3.78,0.31,1.33,6,6,5,24,1,6,8,17.07,5.79,0.69,
19.388,84.29253927628467,95.17194622507299,-3.68,0.75,1.6,6,6,5,25,1,6,8,17.17,5.98,0.49,
19.412,84.18225392762847,95.12519462250731,-3.63,0.66,2.02,6,6,5,25,1,6,8,17.27,5.98,0.39,
19.436,84.18922539276285,95.09351946225073,-3.5,1.44,1.44,6,7,5,25,1,6,8,17.07,5.98,0.20,
19.461,84.1809225392763,95.08135194622507,-3.69,0.57,1.69,6,7,5,25,1,6,8,17.17,6.08,0.20,
19.485,84.10809225392762,95.05313519462251,-3.63,0.44,1.63,6,7,5,25,1,6,8,17.27,6.08,0.39,
19.51,84.06480922539276,95.00531351946225,-3.34,0.5,1.45,6,6,5,25,1,6,8,17.17,5.98,0.49,
19.534,84.06948092253927,95.00953135194622,-3.26,1.27,1.14,6,6,5,25,1,6,8,17.17,5.89,0.59,
19.559,84.10594809225393,94.99195313519462,-2.94,1.15,0.95,6,6,5,25,1,6,8,17.07,5.59,0.69,
19.584,84.10959480922538,94.98119531351946,-2.63,0.82,0.69,6,6,5,25,1,6,8,16.97,5.69,0.49,
19.607,84.04695948092255,94.94411953135194,-2.68,0.92,0.48,6,6,5,25,1,6,8,16.87,5.49,0.59,
19.632,84.09469594809225,94.9224119531352,-2.64,1.07,0.59,6,7,5,25,1,6,8,16.78,5.40,0.88,
19.656,84.13546959480922,94.94724119531352,-2.4,0.82,0.85,6,7,5,26,1,6,8,16.58,5.30,0.98,
19.681,84.09454695948094,94.91372411953135,-2.86,0.67,0.43,6,7,5,26,1,6,8,16.38,5.20,0.78,
19.705,84.0544546959481,94.91937241195313,-2.82,0.58,0.19,6,7,5,26,1,6,8,16.28,5.00,0.59,
19.73,84.11344546959482,94.94693724119531,-2.41,1.06,-0.19,6,7,5,26,1,6,8,16.09,4.91,0.69,
19.755,84.15534454695948,94.98569372411953,-2.5,1.0,0.36,6,7,5,26,1,5,8,15.99,4.91,0.29,
19.779,84.07853445469594,94.94456937241195,-2.43,0.62,0.59,6,7,5,26,1,5,8,15.99,4.81,0.10,
19.803,84.1788534454696,95.0394569372412,-2.19,0.53,0.37,7,7,5,26,1,5,8,15.89,4.81,0.29,
19.827,84.14388534454696,95.03994569372412,-2.53,1.37,0.8,8,7,5,26,1,4,8,15.89,4.71,0.49,
19.852,84.1043885344547,95.01299456937241,-3.08,-0.71,0.66,8,7,5,26,1,4,8,15.99,4.51,0.49,
19.876,84.18143885344547,95.01929945693723,-2.94,0.71,0.81,8,7,5,26,1,4,8,16.09,4.41,0.49,
19.901,84.13514388534455,95.03792994569372,-3.02,0.5,1.11,8,7,5,26,1,3,8,16.09,4.32,0.59,
19.926,84.09451438853446,94.98579299456937,-3.15,-0.08,0.94,8,7,5,26,1,3,7,16.19,4.41,0.59,
19.95,84.13545143885344,95.00757929945694,-3.05,1.89,1.18,8,7,5,26,1,3,7,16.19,4.22,0.59,
19.975,84.16654514388534,94.95575792994569,-2.8,1.64,1.44,8,7,5,26,1,3,7,16.28,4.32,0.78,
19.998,84.19665451438854,94.96857579299457,-2.55,1.05,1.34,8,7,5,26,1,2,7,16.38,4.32,0.69,
20.023,84.19066545143886,95.05985757929946,-2.2,2.69,1.11,8,7,5,26,1,0,7,16.97,4.22,0.39,
20.047,84.11806654514388,95.05098575792995,-2.18,1.69,1.18,8,7,5,25,1,12,7,17.36,4.12,0.29,
20.072,84.2188066545144,95.08609857579299,-2.07,2.44,1.08,8,7,5,26,1,11,6,17.56,3.92,0.59,
20.097,84.21088066545144,95.1436098575793,-2.31,2.14,1.43,9,7,5,25,1,10,6,17.46,3.63,0.49,
20.121,84.22808806654514,95.19436098575794,-1.85,2.2,1.07,8,7,5,25,1,10,6,17.56,3.63,0.20,
20.146,84.22080880665452,95.2174360985758,-1.88,2.3,1.27,8,7,5,25,1,9,6,17.36,3.43,0.49,
20.17,84.20208088066545,95.27374360985759,-1.91,2.14,0.94,9,7,4,25,1,9,6,17.56,3.14,0.59,
20.195,84.23620808806655,95.31537436098576,-1.99,2.63,0.46,9,7,4,26,1,9,6,17.46,2.94,0.49,
20.219,84.30262080880667,95.33753743609859,-2.11,1.91,0.59,9,7,4,25,1,9,6,17.36,2.75,0.49,
20.243,84.27326208088067,95.36675374360988,-2.49,1.99,0.62,9,7,4,25,1,9,5,17.27,2.55,0.39,
20.268,84.27032620808806,95.41467537436098,-2.54,1.07,0.48,9,7,4,25,1,9,5,17.17,2.55,0.59,
20.292,84.32403262080881,95.44646753743609,-2.66,1.31,0.44,9,7,4,25,1,9,5,17.17,2.55,0.78,
20.317,84.34740326208087,95.44964675374361,-2.72,1.21,0.86,9,7,4,25,1,9,5,17.07,2.55,0.88,
20.341,84.3677403262081,95.48596467537436,-2.56,1.25,0.73,9,7,4,25,1,9,5,16.97,2.55,0.59,
20.366,84.41477403262081,95.48959646753744,-2.55,1.15,0.8,9,7,4,25,1,10,5,16.78,2.55,0.59,
20.39,84.4464774032621,95.50795964675375,-2.54,1.22,0.92,9,7,4,25,1,10,5,16.87,2.65,0.39,
20.415,84.43164774032621,95.48279596467538,-2.79,0.93,0.95,10,7,4,25,1,10,5,16.78,2.55,0.49,
20.44,84.43016477403263,95.51627959646754,-2.66,1.11,0.81,10,7,4,25,1,10,5,16.68,2.45,0.29,
20.464,84.46601647740326,95.57362795964676,-2.67,1.27,1.01,10,7,4,25,1,10,5,16.58,2.45,0.20,
20.489,84.44260164774032,95.61536279596469,-2.69,1.47,0.78,10,7,4,25,1,10,5,16.58,2.45,0.59,
20.513,84.44026016477403,95.64653627959648,-2.79,1.28,0.92,10,7,4,25,1,10,5,16.58,2.55,0.49,
20.538,84.4310260164774,95.68565362795964,-2.84,1.31,0.74,10,7,4,26,1,10,5,16.68,2.65,0.49,
20.562,84.45710260164773,95.68056536279597,-2.95,1.83,0.92,10,7,4,26,1,10,5,16.78,2.65,0.29,
20.587,84.46871026016477,95.67105653627961,-2.94,1.77,0.76,10,7,4,26,1,10,5,16.87,2.65,0.49,
20.612,84.47887102601649,95.65210565362797,-2.78,1.27,0.46,10,7,4,26,1,10,5,16.97,2.65,0.88,
20.636,84.48888710260164,95.6772105653628,-2.87,2.15,0.4,10,7,4,26,1,10,5,16.97,2.65,0.98,
20.661,84.48088871026017,95.62572105653629,-2.6,1.05,0.28,11,7,4,26,1,9,5,16.97,2.75,1.08,
20.685,84.57008887102602,95.66557210565364,-2.4,2.14,0.68,11,7,4,26,1,9,5,16.97,2.75,0.69,
20.71,84.5700088871026,95.69655721056537,-2.37,2.42,0.66,11,7,4,26,1,9,5,17.07,2.55,0.59,
20.734,84.58800088871025,95.65465572105654,-2.47,1.67,0.35,11,7,4,26,1,9,5,17.07,2.55,0.39,
20.759,84.61680008887103,95.65046557210566,-2.42,1.91,0.35,11,7,4,26,1,9,5,17.07,2.65,0.29,
20.784,84.6826800088871,95.63204655721056,-2.7,2.56,0.6,11,7,4,26,1,9,5,17.17,2.65,0.49,
20.808,84.68026800088872,95.63920465572106,-2.67,1.8,0.7,11,7,4,26,1,9,5,17.27,2.65,0.49,
20.833,84.73402680008886,95.6669204655721,-2.53,2.23,0.5,11,7,4,26,1,9,5,93.29,2.75,0.78,
20.857,84.82040268000888,95.69669204655722,-2.67,2.35,0.26,11,7,4,26,1,9,5,17.46,2.94,0.69,
20.882,84.77504026800088,95.68166920465573,-2.98,1.41,0.63,11,7,4,26,1,9,5,17.56,3.04,0.69,
20.905,84.81550402680008,95.68016692046558,-3.19,1.15,0.85,11,7,4,26,1,9,5,17.56,3.04,0.59,
20.93,84.76555040268002,95.67101669204656,-2.98,1.18,0.67,11,7,4,26,1,9,5,17.56,3.14,0.59,
20.955,84.733555040268,95.67910166920467,-3.23,1.2,0.57,11,7,4,26,1,9,5,17.66,3.04,0.69,
20.979,84.81135550402679,95.68891016692046,-3.36,1.34,0.6,11,7,4,26,1,9,5,17.76,3.14,0.78,
21.004,84.81913555040268,95.71689101669205,-3.47,0.73,0.76,12,7,4,26,1,9,5,17.95,3.43,0.78,
21.028,84.83791355504027,95.70168910166922,-3.62,0.27,0.53,12,7,4,27,1,9,5,17.95,3.53,0.59,
21.053,84.83079135550402,95.66416891016692,-3.76,0.4,0.73,12,8,4,27,1,10,5,18.15,3.63,0.69,
21.078,84.9020791355504,95.6514168910167,-3.79,0.84,0.76,12,8,4,27,1,10,5,18.34,3.73,0.39,
21.102,84.90920791355504,95.67714168910167,-3.43,1.05,1.08,12,8,4,27,1,10,5,18.44,3.83,0.49,
21.127,84.92792079135552,95.70671416891017,-3.38,0.53,1.08,12,8,4,27,1,10,5,18.54,3.83,0.69,
21.151,84.98379207913555,95.66467141689101,-3.39,1.3,1.42,12,8,4,27,1,10,5,18.64,3.92,0.78,
21.176,84.96237920791356,95.66946714168911,-3.27,0.89,1.39,12,8,4,27,1,10,5,18.74,3.92,0.78,
21.2,85.01423792079136,95.67894671416892,-3.22,0.89,1.53,12,8,4,27,1,10,5,18.74,3.92,0.69,
21.225,85.00142379207914,95.6978946714169,-3.18,1.31,1.52,13,8,4,27,1,10,5,18.84,3.92,0.59,
21.25,84.96414237920791,95.73578946714169,-3.26,1.11,1.21,13,8,4,27,1,10,5,18.93,3.92,0.59,
21.274,84.96041423792079,95.76657894671416,-3.25,1.09,1.18,13,8,4,27,1,10,5,18.84,3.92,0.69,
21.299,84.99604142379208,95.75165789467141,-3.11,1.72,1.32,13,8,4,27,1,10,5,18.93,3.73,0.29,
21.323,85.01760414237921,95.80416578946713,-3.45,0.92,1.39,13,8,4,27,1,10,5,18.74,3.73,0.20,
21.348,84.96576041423792,95.82741657894671,-3.34,1.06,1.53,13,8,4,27,1,10,5,18.74,3.83,0.69,
21.372,84.96957604142379,95.82074165789467,-2.92,0.82,1.03,13,8,4,27,1,10,5,18.84,3.73,0.59,
21.397,84.98795760414238,95.81107416578946,-3.07,0.74,1.23,13,8,4,27,1,10,5,18.84,3.83,0.49,
21.422,84.99879576041424,95.81010741657894,-3.22,1.13,1.0,13,8,4,27,1,10,5,18.74,3.73,0.39,
21.447,84.99087957604142,95.72901074165789,-3.37,0.98,1.02,13,8,4,27,1,10,5,18.84,3.92,0.49,
21.472,84.97208795760415,95.69390107416578,-3.39,0.64,0.96,13,8,4,27,1,10,5,19.03,3.92,0.78,
21.496,84.95220879576041,95.68139010741659,-3.34,0.69,0.89,13,8,4,27,1,10,5,18.93,4.02,0.78,
21.521,84.91422087957604,95.68013901074167,-3.72,0.56,0.99,13,8,4,27,1,10,5,19.13,4.02,0.69,
21.545,84.9104220879576,95.63501390107416,-3.77,0.75,1.03,13,8,4,28,1,10,5,19.23,4.12,0.49,
21.57,84.90104220879577,95.63950139010743,-3.26,0.84,0.7,13,8,4,27,1,10,5,19.13,4.12,0.59,
21.595,84.89110422087957,95.69395013901075,-3.31,0.64,0.66,13,8,4,28,1,10,5,19.42,4.22,0.49,
21.619,84.85411042208796,95.69039501390107,-3.66,1.4,0.98,13,8,4,28,1,10,5,19.42,4.51,0.20,
21.644,84.82341104220879,95.6900395013901,-3.63,0.76,0.8,14,8,4,28,1,10,5,19.62,4.61,0.39,
21.668,84.82934110422087,95.690003950139,-3.74,0.15,0.63,13,8,4,28,1,10,5,19.72,4.61,0.69,
21.693,84.82093411042209,95.68100039501391,-3.72,0.53,0.68,13,8,4,28,1,10,5,19.72,4.61,0.69,
21.718,84.8200934110422,95.66210003950138,-3.53,0.59,0.64,13,8,4,28,1,10,5,19.82,4.61,0.49,
21.742,84.88300934110421,95.65121000395014,-3.17,1.1,1.01,13,8,4,28,1,10,5,19.72,4.51,0.49,
21.767,84.93430093411041,95.632121000395,-2.87,1.53,0.92,13,8,4,28,1,10,5,19.62,4.51,0.39,
21.791,84.92143009341103,95.6212121000395,-2.88,1.11,0.82,13,8,4,28,1,10,5,19.52,4.51,0.59,
21.816,84.9111430093411,95.60212121000394,-2.98,0.85,0.85,13,8,4,28,1,10,5,19.52,4.51,0.69,
21.84,84.91011430093411,95.6182121210004,-2.96,1.02,0.99,13,8,4,28,1,10,5,19.42,4.51,0.78,
21.865,85.00001143009341,95.66482121210005,-3.33,0.94,1.03,13,8,4,28,1,10,5,19.42,4.61,0.39,
21.89,85.03600114300934,95.64248212121001,-3.27,1.25,0.89,13,8,4,28,1,10,5,19.42,4.51,0.59,
21.914,85.03060011430094,95.66724821212101,-3.34,0.81,1.05,14,8,4,28,1,10,5,19.42,4.51,0.39,
21.939,85.0390600114301,95.6877248212121,-3.21,0.42,0.94,14,8,4,28,1,10,5,19.42,4.41,0.29,
21.963,85.03990600114301,95.67177248212121,-3.26,1.05,1.04,14,8,4,28,1,10,5,19.33,4.41,0.29,
21.988,85.03099060011431,95.64317724821213,-3.06,0.47,0.89,13,8,4,28,1,10,6,19.42,4.32,0.59,
22.012,85.04809906001142,95.66731772482122,-2.78,0.38,0.82,13,8,4,28,1,10,6,19.23,4.32,0.88,
22.037,85.04080990600114,95.65173177248212,-2.65,1.31,0.82,13,8,4,28,1,10,6,19.03,4.02,0.69,
22.062,84.96808099060011,95.68617317724821,-2.9,0.99,0.87,13,8,4,28,1,10,6,18.93,4.02,0.49,
22.086,84.94280809906,95.69861731772482,-3.17,0.77,1.21,13,8,4,28,1,10,6,18.74,4.02,0.39,
22.111,85.012280809906,95.73586173177247,-3.08,1.02,1.08,13,7,4,28,1,10,6,18.64,3.83,0.59,
22.135,85.0282280809906,95.73958617317724,-3.05,1.11,1.38,13,7,4,28,1,10,6,18.64,3.73,0.78,
22.16,85.02082280809906,95.76695861731773,-3.11,1.06,1.34,13,7,4,28,1,10,6,18.64,3.73,0.29,
22.184,85.0290822808099,95.78769586173178,-3.11,0.47,0.81,13,7,4,28,1,10,6,18.64,3.73,0.20,
22.209,84.96690822808098,95.77176958617318,-3.31,0.79,1.15,13,7,4,28,1,10,6,18.64,3.63,0.49,
22.234,84.9336908228081,95.76117695861733,-3.34,0.34,0.95,13,7,4,28,1,10,6,18.64,3.63,0.49,
22.258,84.93036908228082,95.74211769586172,-3.21,0.74,0.95,13,7,4,28,1,10,5,18.54,3.53,0.29,
22.283,84.93003690822809,95.74021176958617,-3.27,1.11,0.75,13,7,4,28,1,10,6,18.54,3.63,0.20,
22.307,84.9840036908228,95.73102117695862,-3.13,0.22,0.52,13,7,4,28,1,10,6,18.64,3.63,0.49,
22.333,84.96240036908227,95.73910211769586,-3.6,0.3,0.43,13,7,4,28,1,10,6,18.64,3.63,0.59,
22.358,84.92424003690823,95.77591021176958,-3.47,0.89,0.55,13,7,4,28,1,10,6,18.74,3.73,0.59,
22.382,84.90242400369084,95.81559102117696,-3.45,0.42,0.3,13,7,4,28,1,10,6,18.84,3.63,0.69,
22.407,84.9002424003691,95.8375591021177,-3.27,0.32,0.21,13,8,4,28,1,10,6,18.74,3.73,0.69,
22.431,84.9090242400369,95.80375591021176,-3.46,0.05,0.36,14,7,4,28,1,10,6,18.84,3.63,0.69,
22.456,84.8739024240037,95.77337559102116,-3.47,0.59,0.6,13,8,4,28,1,10,6,18.84,3.73,0.20,
22.48,84.87939024240036,95.76133755910213,-3.41,0.72,0.25,14,8,4,28,1,10,6,18.84,3.73,0.29,
22.505,84.86193902424003,95.7781337559102,-3.18,0.36,0.4,14,8,4,28,1,10,6,18.93,3.83,0.29,
22.53,84.887193902424,95.75281337559102,-3.34,1.05,0.66,14,8,4,28,1,10,6,18.93,3.83,0.59,
22.554,84.8987193902424,95.7502813375591,-3.21,0.95,0.79,14,8,4,28,1,10,6,19.03,3.92,0.78,
22.579,84.86387193902424,95.7500281337559,-3.37,1.33,0.79,14,8,4,28,1,10,6,18.93,4.02,0.59,
22.603,84.86038719390241,95.74100281337559,-3.43,1.04,0.95,14,8,4,28,1,11,6,18.93,3.92,0.69,
22.628,84.84203871939025,95.77610028133756,-3.51,1.34,0.95,14,8,4,28,1,11,6,19.13,4.02,0.59,
22.652,84.89420387193903,95.73461002813377,-3.53,1.25,1.07,14,8,4,28,1,11,6,19.13,4.12,0.88,
22.677,84.89942038719391,95.69446100281337,-3.27,1.31,1.15,13,8,4,28,1,11,6,19.23,4.22,0.88,
22.702,84.93594203871939,95.73544610028134,-3.36,0.98,0.98,13,8,4,28,1,11,6,19.23,4.22,0.88,
22.726,84.99359420387194,95.68554461002815,-3.42,1.25,1.24,14,8,4,28,1,11,6,19.23,4.22,0.59,
22.751,84.9903594203872,95.67155446100281,-3.44,1.24,1.13,14,8,4,28,1,11,6,19.33,4.32,0.39,
22.775,84.98103594203872,95.6701554461003,-3.37,0.63,0.99,14,8,4,28,1,11,6,19.33,4.32,0.29,
22.8,85.01610359420387,95.66101554461002,-3.54,1.14,0.98,14,8,4,28,1,11,6,19.42,4.32,0.10,
22.824,85.05561035942038,95.660101554461,-3.44,1.61,1.51,14,8,4,28,1,11,6,19.52,4.41,0.29,
22.849,85.08656103594204,95.6510101554461,-3.27,1.06,0.76,14,8,4,28,1,11,6,19.52,4.32,0.39,
22.874,85.0176561035942,95.59610101554462,-3.26,0.61,0.84,14,8,4,28,1,11,6,19.52,4.32,0.59,
22.898,85.00176561035941,95.56361010155446,-3.13,0.39,0.47,14,8,4,28,1,11,6,19.52,4.22,0.78,
22.923,84.96417656103594,95.59636101015543,-3.08,0.79,0.38,14,8,4,28,1,11,6,19.52,4.32,0.39,
22.947,84.96041765610359,95.55463610101555,-3.15,0.43,0.35,14,8,4,28,1,11,6,19.52,4.22,0.49,
22.972,84.90604176561037,95.56846361010155,-2.93,0.57,0.41,14,8,4,28,1,11,6,19.42,4.32,0.49,
22.996,84.90060417656105,95.58784636101015,-3.13,0.27,0.26,14,8,4,28,1,11,6,19.33,4.22,0.69,
23.021,84.9090604176561,95.60778463610102,-3.18,0.38,0.7,14,8,4,28,1,11,6,19.33,4.32,0.20,
23.046,84.89190604176561,95.61877846361011,-3.13,0.47,0.53,14,8,4,28,1,11,6,19.33,4.32,0.29,
23.07,84.89919060417657,95.62887784636101,-3.08,0.76,0.63,14,8,4,30,1,11,6,19.42,4.32,0.29,
23.095,84.85491906041764,95.5758877846361,-3.13,0.54,0.94,14,8,4,28,1,11,6,19.33,4.22,0.29,
23.119,84.85949190604175,95.57958877846362,-2.97,0.76,1.03,14,8,4,28,1,11,6,19.42,4.22,0.20,
23.144,84.86894919060418,95.59795887784635,-2.87,0.91,1.06,14,8,4,28,1,11,6,19.42,4.22,0.29,
23.169,84.88789491906041,95.56379588778464,-3.18,1.05,1.12,14,8,4,28,1,11,6,19.33,4.12,0.39,
23.194,84.93478949190603,95.55137958877847,-3.02,0.95,1.37,14,8,4,28,1,11,6,19.23,4.12,0.69,
23.219,84.9124789491906,95.57713795887786,-2.91,0.99,1.34,14,8,4,28,1,11,6,19.23,3.92,0.88,
23.243,84.93724789491905,95.52571379588778,-3.19,0.78,1.44,14,8,4,28,1,10,6,19.23,3.92,0.69,
23.268,84.9217247894919,95.52957137958879,-3.29,0.87,1.43,14,8,4,28,1,10,6,19.23,3.83,0.39,
23.292,84.94717247894918,95.47595713795889,-3.3,1.02,1.27,14,8,4,28,1,10,6,19.03,3.83,0.49,
23.317,84.97671724789491,95.42559571379589,-3.1,1.45,1.23,14,8,4,28,1,10,6,19.13,3.83,0.10,
23.342,84.96167172478948,95.44755957137959,-3.27,1.09,1.44,14,8,4,28,1,10,6,19.13,3.73,0.20,
23.366,84.97816717247895,95.43175595713797,-3.08,0.8,1.33,14,8,4,28,1,10,6,19.13,3.73,0.39,
23.391,85.00681671724789,95.46617559571379,-3.05,0.91,1.27,14,8,4,28,1,10,6,19.03,3.63,0.49,
23.415,85.0456816717248,95.53261755957138,-3.24,1.11,1.27,14,8,4,28,1,10,6,19.23,3.53,0.59,
23.44,85.04956816717248,95.53926175595714,-2.95,0.92,1.18,14,8,4,28,1,10,6,19.03,3.63,0.49,
23.464,85.07695681671726,95.56692617559571,-2.95,1.11,1.21,14,8,4,28,1,10,6,19.03,3.63,0.39,
23.489,85.09769568167172,95.62369261755956,-2.89,1.17,1.23,14,8,4,28,1,10,6,19.03,3.63,0.49,
23.514,85.03676956816717,95.62936926175595,-3.01,0.81,1.13,14,8,4,28,1,10,6,18.93,3.53,0.88,
23.538,85.01267695681672,95.6209369261756,-3.04,0.96,0.78,14,8,4,28,1,10,6,18.84,3.63,0.88,
23.563,84.97426769568168,95.64709369261757,-2.9,0.87,0.95,14,8,4,28,1,10,6,18.84,3.43,0.69,
23.587,84.96142676956816,95.69470936926177,-3.16,0.59,0.71,14,8,4,28,1,10,6,18.74,3.53,0.39,
23.612,84.9691426769568,95.65447093692619,-2.81,0.89,0.65,14,8,4,28,1,10,6,18.74,3.43,0.49,
23.636,84.94291426769567,95.64144709369262,-3.11,0.77,0.58,14,8,4,28,1,10,6,18.74,3.34,0.29,
23.661,84.94029142676956,95.65814470936925,-3.08,0.69,0.56,14,8,4,28,1,10,5,18.74,3.43,0.00,
23.686,84.98502914267695,95.67781447093694,-2.97,0.92,0.56,14,8,4,28,1,10,5,18.74,3.24,0.39,
23.71,85.00750291426769,95.7247814470937,-2.97,0.78,0.76,14,8,4,28,1,10,5,18.64,3.34,0.88,
23.735,85.05475029142677,95.78347814470938,-3.02,0.75,0.99,14,8,4,28,1,10,5,18.64,3.43,0.49,
23.759,85.06847502914268,95.78934781447094,-3.05,1.11,0.66,14,8,4,28,1,10,5,18.54,3.43,0.59,
23.784,85.04284750291427,95.77193478144709,-3.16,1.23,0.89,14,8,4,28,1,10,5,18.54,3.43,0.39,
23.809,85.00428475029142,95.7701934781447,-3.16,1.11,0.69,14,8,4,28,1,10,5,18.64,3.34,0.29,
