time,pitch,roll,gyrx,gyry,gyrz,f1,f2,f3,f4,f5,f6,f7,g1,g2,g3
0.344,338.49,338.49,0.0,0.0,0.0,0.0,0.0,0.0,0.0,0.0,0.0,0.0,0.1,0.0,0.0,
0.357,335.322,335.322,0.0,0.0,0.0,0.0,0.0,0.0,0.0,0.0,0.0,0.0,0.1,0.0,0.0,
0.369,332.3052,332.3052,0.0,0.0,0.0,0.0,0.0,0.0,0.0,0.0,0.0,0.0,0.1,0.0,0.0,
0.382,329.71752000000004,329.71752000000004,0.0,0.0,0.0,0.0,0.0,0.0,0.0,0.0,0.0,0.0,0.1,0.0,0.0,
0.395,327.505752,327.505752,0.0,0.0,0.0,0.0,0.0,0.0,0.0,0.0,0.0,0.0,0.1,0.0,0.0,
0.407,325.62857520000006,325.62857520000006,0.0,0.0,0.0,0.0,0.0,0.0,0.0,0.0,0.0,0.0,0.1,0.0,0.0,
0.42,324.03685752000007,324.03685752000007,0.0,0.0,0.0,0.0,0.0,0.0,0.0,0.0,0.0,0.0,0.1,0.0,0.0,
0.433,322.680685752,322.680685752,0.0,0.0,0.0,0.0,0.0,0.0,0.0,0.0,0.0,0.0,0.1,0.0,0.0,
0.446,321.5280685752,321.5280685752,0.0,0.0,0.0,0.0,0.0,0.0,0.0,0.0,0.0,0.0,0.1,0.0,0.0,
0.458,320.54880685752,320.54880685752,0.0,0.0,0.0,0.0,0.0,0.0,0.0,0.0,0.0,0.0,0.2,0.0,0.1,
0.472,319.712880685752,319.712880685752,0.0,0.0,0.0,0.0,0.0,0.0,0.0,0.0,0.0,0.0,0.1,0.0,0.1,
0.484,319.0082880685752,319.0082880685752,0.0,0.0,0.0,0.0,0.0,0.0,0.0,0.0,0.0,0.0,0.1,0.0,0.1,
0.497,318.4068288068575,318.4068288068575,0.0,0.0,0.0,0.0,0.0,0.0,0.0,0.0,0.0,0.0,0.1,0.0,0.0,
0.509,317.8966828806857,317.8966828806857,0.0,0.0,0.0,0.0,0.0,0.0,0.0,0.0,0.0,0.0,0.1,0.1,0.1,
0.522,317.4586682880686,317.4586682880686,0.0,0.0,0.0,0.0,0.0,0.0,0.0,0.0,0.0,0.0,0.2,0.1,0.0,
0.535,317.0908668288069,317.0908668288069,0.0,0.0,0.0,0.0,0.0,0.0,0.0,0.0,0.0,0.0,0.1,0.0,0.0,
0.547,316.7750866828807,316.7750866828807,0.0,0.0,0.0,0.0,0.0,0.0,0.0,0.0,0.0,0.0,0.1,0.0,0.0,
0.561,316.5095086682881,316.5095086682881,0.0,0.0,0.0,0.0,0.0,0.0,0.0,0.0,0.0,0.0,0.2,0.0,0.0,
0.573,316.2849508668288,316.2849508668288,0.0,0.0,0.0,0.0,0.0,0.0,0.0,0.0,0.0,0.0,0.2,0.0,0.1,
0.586,316.0914950866829,316.0914950866829,0.0,0.0,0.0,0.0,0.0,0.0,0.0,0.0,0.0,0.0,0.2,0.0,0.1,
0.599,315.9281495086683,315.9281495086683,0.0,0.0,0.0,0.0,0.0,0.0,0.0,0.0,0.0,0.0,0.1,0.0,0.0,
0.612,315.7858149508668,315.7858149508668,0.0,0.0,0.0,0.0,0.0,0.0,0.0,0.0,0.0,0.0,0.1,0.0,0.0,
0.624,315.6725814950867,315.6725814950867,0.0,0.0,0.0,0.0,0.0,0.0,0.0,0.0,0.0,0.0,0.1,0.1,0.0,
0.637,315.5712581495087,315.5712581495087,0.0,0.0,0.0,0.0,0.0,0.0,0.0,0.0,0.0,0.0,0.1,0.1,0.0,
0.65,315.48912581495085,315.48912581495085,0.0,0.0,0.0,0.0,0.0,0.0,0.0,0.0,0.0,0.0,0.1,0.0,0.0,
0.662,315.4089125814951,315.4089125814951,0.0,0.0,0.0,0.0,0.0,0.0,0.0,0.0,0.0,0.0,0.1,0.0,0.0,
0.675,315.34689125814947,315.34689125814947,0.0,0.0,0.0,0.0,0.0,0.0,0.0,0.0,0.0,0.0,0.2,0.0,0.0,
0.688,315.295689125815,315.295689125815,0.0,0.0,0.0,0.0,0.0,0.0,0.0,0.0,0.0,0.0,0.1,0.1,0.0,
0.701,315.25456891258153,315.25456891258153,0.0,0.0,0.0,0.0,0.0,0.0,0.0,0.0,0.0,0.0,0.1,0.0,0.0,
0.713,315.2144568912581,315.2144568912581,0.0,0.0,0.0,0.0,0.0,0.0,0.0,0.0,0.0,0.0,0.1,0.0,0.0,
0.727,315.18344568912585,315.18344568912585,0.0,0.0,0.0,0.0,0.0,0.0,0.0,0.0,0.0,0.0,0.1,0.0,0.0,
0.739,315.1533445689126,315.1533445689126,0.0,0.0,0.0,0.0,0.0,0.0,0.0,0.0,0.0,0.0,0.1,0.0,0.0,
0.752,315.1323344568913,315.1323344568913,0.0,0.0,0.0,0.0,0.0,0.0,0.0,0.0,0.0,0.0,0.1,0.0,0.0,
0.764,315.1122334456892,315.1122334456892,0.0,0.0,0.0,0.0,0.0,0.0,0.0,0.0,0.0,0.0,0.1,0.0,0.0,
0.778,315.0922233445689,315.0922233445689,0.0,0.0,0.0,0.0,0.0,0.0,0.0,0.0,0.0,0.0,0.1,0.0,0.0,
0.79,315.08122233445687,315.08122233445687,0.0,0.0,0.0,0.0,0.0,0.0,0.0,0.0,0.0,0.0,0.1,0.0,0.1,
0.802,315.0711222334457,315.0711222334457,0.0,0.0,0.0,0.0,0.0,0.0,0.0,0.0,0.0,0.0,0.1,0.0,0.0,
0.816,315.0611122233446,315.0611122233446,0.0,0.0,0.0,0.0,0.0,0.0,0.0,0.0,0.0,0.0,0.1,0.0,0.0,
0.828,315.0511112223345,315.0511112223345,0.0,0.0,0.0,0.0,0.0,0.0,0.0,0.0,0.0,0.0,0.1,0.0,0.0,
0.841,315.0411111222335,315.0411111222335,0.0,0.0,0.0,0.0,0.0,0.0,0.0,0.0,0.0,0.0,0.1,0.0,0.0,
0.854,315.04011111222337,315.04011111222337,0.0,0.0,0.0,0.0,0.0,0.0,0.0,0.0,0.0,0.0,0.1,0.0,0.1,
0.867,315.0310111112223,315.0310111112223,0.0,0.0,0.0,0.0,0.0,0.0,0.0,0.0,0.0,0.0,0.1,0.0,0.1,
0.879,315.03010111112224,315.03010111112224,0.0,0.0,0.0,0.0,0.0,0.0,0.0,0.0,0.0,0.0,0.1,0.0,0.0,
0.892,315.0210101111122,315.0210101111122,0.0,0.0,0.0,0.0,0.0,0.0,0.0,0.0,0.0,0.0,0.2,0.0,0.1,
0.905,315.0201010111112,315.0201010111112,0.0,0.0,0.0,0.0,0.0,0.0,0.0,0.0,0.0,0.0,0.2,0.0,0.0,
0.917,315.0200101011111,315.0200101011111,0.0,0.0,0.0,0.0,0.0,0.0,0.0,0.0,0.0,0.0,0.2,0.0,0.1,
0.93,315.0110010101111,315.0110010101111,0.0,0.0,0.0,0.0,0.0,0.0,0.0,0.0,0.0,0.0,0.1,0.0,0.1,
0.943,315.0101001010111,315.0101001010111,0.0,0.0,0.0,0.0,0.0,0.0,0.0,0.0,0.0,0.0,0.2,0.0,0.1,
0.956,315.0100100101011,315.0100100101011,0.0,0.0,0.0,0.0,0.0,0.0,0.0,0.0,0.0,0.0,0.2,0.0,0.1,
0.968,315.0100010010101,315.0100010010101,0.0,0.0,0.0,0.0,0.0,0.0,0.0,0.0,0.0,0.0,0.2,0.0,0.0,
0.982,315.010000100101,315.010000100101,0.0,0.0,0.0,0.0,0.0,0.0,0.0,0.0,0.0,0.0,0.2,0.0,0.0,
0.994,315.0100000100101,315.0100000100101,0.0,0.0,0.0,0.0,0.0,0.0,0.0,0.0,0.0,0.0,0.1,0.0,0.0,
1.007,315.010000001001,315.010000001001,0.0,0.0,0.0,0.0,0.0,0.0,0.0,0.0,0.0,0.0,0.1,0.0,0.1,
1.019,315.0010000001001,315.0010000001001,0.0,0.0,0.0,0.0,0.0,0.0,0.0,0.0,0.0,0.0,0.2,0.0,0.0,
1.033,315.00010000001,315.00010000001,0.0,0.0,0.0,0.0,0.0,0.0,0.0,0.0,0.0,0.0,0.1,0.0,0.0,
1.045,315.000010000001,315.000010000001,0.0,0.0,0.0,0.0,0.0,0.0,0.0,0.0,0.0,0.0,0.1,0.0,0.0,
1.057,315.0000010000001,315.0000010000001,0.0,0.0,0.0,0.0,0.0,0.0,0.0,0.0,0.0,0.0,0.2,0.0,0.1,
1.071,315.0000001,315.0000001,0.0,0.0,0.0,0.0,0.0,0.0,0.0,0.0,0.0,0.0,0.2,0.0,0.0,
1.083,315.00000001,315.00000001,0.0,0.0,0.0,0.0,0.0,0.0,0.0,0.0,0.0,0.0,0.2,0.0,0.0,
1.096,315.000000001,315.000000001,0.0,0.0,0.0,0.0,0.0,0.0,0.0,0.0,0.0,0.0,0.2,0.0,0.0,
1.108,315.0000000001,315.0000000001,0.0,0.0,0.0,0.0,0.0,0.0,0.0,0.0,0.0,0.0,0.2,0.0,0.0,
1.122,315.00000000001,315.00000000001,0.0,0.0,0.0,0.0,0.0,0.0,0.0,0.0,0.0,0.0,0.1,0.0,0.0,
1.134,315.000000000001,315.000000000001,0.0,0.0,0.0,0.0,0.0,0.0,0.0,0.0,0.0,0.0,0.1,0.1,0.0,
1.147,315.0000000000001,315.0000000000001,0.0,0.0,0.0,0.0,0.0,0.0,0.0,0.0,0.0,0.0,0.1,0.0,0.1,
1.16,315.0,315.0,0.0,0.0,0.0,0.0,0.0,0.0,0.0,0.0,0.0,0.0,0.1,0.0,0.0,
1.172,315.0,315.0,0.0,0.0,0.0,0.0,0.0,0.0,0.0,0.0,0.0,0.0,0.1,0.0,0.0,
1.185,315.0,315.0,0.0,0.0,0.0,0.0,0.0,0.0,0.0,0.0,0.0,0.0,0.2,0.0,0.0,
1.198,315.0,315.0,0.0,0.0,0.0,0.0,0.0,0.0,0.0,0.0,0.0,0.0,0.2,0.0,0.1,
1.211,315.0,315.0,0.0,0.0,0.0,0.0,0.0,0.0,0.0,0.0,0.0,0.0,0.1,0.0,0.1,
1.223,315.0,315.0,0.0,0.0,0.0,0.0,0.0,0.0,0.0,0.0,0.0,0.0,0.1,0.0,0.1,
1.236,315.0,315.0,0.0,0.0,0.0,0.0,0.0,0.0,0.0,0.0,0.0,0.0,0.1,0.0,0.0,
1.249,315.0,315.0,0.0,0.0,0.0,0.0,0.0,0.0,0.0,0.0,0.0,0.0,0.1,0.0,0.0,
1.262,315.0,315.0,0.0,0.0,0.0,0.0,0.0,0.0,0.0,0.0,0.0,0.0,0.1,0.1,0.0,
1.274,315.0,315.0,0.0,0.0,0.0,0.0,0.0,0.0,0.0,0.0,0.0,0.0,0.1,0.0,0.0,
1.288,315.0,315.0,0.0,0.0,0.0,0.0,0.0,0.0,0.0,0.0,0.0,0.0,0.1,0.0,0.0,
1.3,315.0,315.0,0.0,0.0,0.0,0.0,0.0,0.0,0.0,0.0,0.0,0.0,0.2,0.0,0.0,
1.312,315.0,315.0,0.0,0.0,0.0,0.0,0.0,0.0,0.0,0.0,0.0,0.0,0.1,0.0,0.0,
1.326,315.0,315.0,0.0,0.0,0.0,0.0,0.0,0.0,0.0,0.0,0.0,0.0,0.1,0.0,0.1,
1.338,315.0,315.0,0.0,0.0,0.0,0.0,0.0,0.0,0.0,0.0,0.0,0.0,0.1,0.0,0.0,
1.351,315.0,315.0,0.0,0.0,0.0,0.0,0.0,0.0,0.0,0.0,0.0,0.0,0.1,0.0,0.0,
1.363,315.0,315.0,0.0,0.0,0.0,0.0,0.0,0.0,0.0,0.0,0.0,0.0,0.1,0.0,0.0,
1.377,315.0,315.0,0.0,0.0,0.0,0.0,0.0,0.0,0.0,0.0,0.0,0.0,0.1,0.0,0.0,
1.389,315.0,315.0,0.0,0.0,0.0,0.0,0.0,0.0,0.0,0.0,0.0,0.0,0.2,0.0,0.0,
1.402,315.0,315.0,0.0,0.0,0.0,0.0,0.0,0.0,0.0,0.0,0.0,0.0,0.2,0.0,0.0,
1.415,315.0,315.0,0.0,0.0,0.0,0.0,0.0,0.0,0.0,0.0,0.0,0.0,0.1,0.0,0.0,
1.428,315.0,315.0,0.0,0.0,0.0,0.0,0.0,0.0,0.0,0.0,0.0,0.0,0.1,0.0,0.1,
1.44,315.0,315.0,0.0,0.0,0.0,0.0,0.0,0.0,0.0,0.0,0.0,0.0,0.2,0.0,0.0,
1.453,315.0,315.0,0.0,0.0,0.0,0.0,0.0,0.0,0.0,0.0,0.0,0.0,0.2,0.0,0.0,
1.466,315.0,315.0,0.0,0.0,0.0,0.0,0.0,0.0,0.0,0.0,0.0,0.0,0.2,0.0,0.0,
1.478,315.0,315.0,0.0,0.0,0.0,0.0,0.0,0.0,0.0,0.0,0.0,0.0,0.2,0.0,0.0,
1.491,315.0,315.0,0.0,0.0,0.0,0.0,0.0,0.0,0.0,0.0,0.0,0.0,0.2,0.0,0.1,
1.504,315.0,315.0,0.0,0.0,0.0,0.0,0.0,0.0,0.0,0.0,0.0,0.0,0.1,0.0,0.0,
1.517,315.0,315.0,0.0,0.0,0.0,0.0,0.0,0.0,0.0,0.0,0.0,0.0,0.2,0.0,0.0,
1.529,315.0,315.0,0.0,0.0,0.0,0.0,0.0,0.0,0.0,0.0,0.0,0.0,0.1,0.0,0.1,
1.543,315.0,315.0,0.0,0.0,0.0,0.0,0.0,0.0,0.0,0.0,0.0,0.0,0.1,0.0,0.1,
1.555,315.0,315.0,0.0,0.0,0.0,0.0,0.0,0.0,0.0,0.0,0.0,0.0,0.1,0.0,0.1,
1.567,315.0,315.0,0.0,0.0,0.0,0.0,0.0,0.0,0.0,0.0,0.0,0.0,0.2,0.0,0.1,
1.581,315.0,315.0,0.0,0.0,0.0,0.0,0.0,0.0,0.0,0.0,0.0,0.0,0.2,0.0,0.0,
1.593,315.0,315.0,0.0,0.0,0.0,0.0,0.0,0.0,0.0,0.0,0.0,0.0,0.2,0.0,0.0,
1.606,315.0,315.0,0.0,0.0,0.0,0.0,0.0,0.0,0.0,0.0,0.0,0.0,0.2,0.0,0.1,
1.618,315.0,315.0,0.0,0.0,0.0,0.0,0.0,0.0,0.0,0.0,0.0,0.0,0.29,0.0,0.1,
1.632,315.0,315.0,0.0,0.0,0.0,0.0,0.0,0.0,0.0,0.0,0.0,0.0,0.2,0.0,0.1,
1.644,315.0,315.0,0.0,0.0,0.0,0.0,0.0,0.0,0.0,0.0,0.0,0.0,0.2,0.0,0.1,
1.657,315.0,315.0,0.0,0.0,0.0,0.0,0.0,0.0,0.0,0.0,0.0,0.0,0.2,0.0,0.1,
1.67,315.0,315.0,0.0,0.0,0.0,0.0,0.0,0.0,0.0,0.0,0.0,0.0,0.2,0.0,0.1,
1.683,315.0,315.0,0.0,0.0,0.0,0.0,0.0,0.0,0.0,0.0,0.0,0.0,0.2,0.0,0.1,
1.695,315.0,315.0,0.0,0.0,0.0,0.0,0.0,0.0,0.0,0.0,0.0,0.0,0.2,0.0,0.1,
1.708,315.0,315.0,0.0,0.0,0.0,0.0,0.0,0.0,0.0,0.0,0.0,0.0,0.2,0.1,0.1,
1.721,315.0,315.0,0.0,0.0,0.0,0.0,0.0,0.0,0.0,0.0,0.0,0.0,0.1,0.0,0.1,
1.733,315.0,315.0,0.0,0.0,0.0,0.0,0.0,0.0,0.0,0.0,0.0,0.0,0.2,0.0,0.1,
1.746,315.0,315.0,0.0,0.0,0.0,0.0,0.0,0.0,0.0,0.0,0.0,0.0,0.29,0.0,0.1,
1.759,315.0,315.0,0.0,0.0,0.0,0.0,0.0,0.0,0.0,0.0,0.0,0.0,0.2,0.0,0.0,
1.772,315.0,315.0,0.0,0.0,0.0,0.0,0.0,0.0,0.0,0.0,0.0,0.0,0.2,0.0,0.0,
1.784,315.0,315.0,0.0,0.0,0.0,0.0,0.0,0.0,0.0,0.0,0.0,0.0,0.2,0.0,0.0,
1.798,315.0,315.0,0.0,0.0,0.0,0.0,0.0,0.0,0.0,0.0,0.0,0.0,0.29,0.0,0.1,
1.81,315.0,315.0,0.0,0.0,0.0,0.0,0.0,0.0,0.0,0.0,0.0,0.0,0.2,0.0,0.1,
1.823,315.0,315.0,0.0,0.0,0.0,0.0,0.0,0.0,0.0,0.0,0.0,0.0,0.2,0.0,0.0,
1.836,315.0,315.0,0.0,0.0,0.0,0.0,0.0,0.0,0.0,0.0,0.0,0.0,0.2,0.0,0.1,
1.848,315.0,315.0,0.0,0.0,0.0,0.0,0.0,0.0,0.0,0.0,0.0,0.0,0.2,0.0,0.1,
1.861,315.0,315.0,0.0,0.0,0.0,0.0,0.0,0.0,0.0,0.0,0.0,0.0,0.2,0.0,0.1,
1.873,315.0,315.0,0.0,0.0,0.0,0.0,0.0,0.0,0.0,0.0,0.0,0.0,0.2,0.0,0.1,
1.887,315.0,315.0,0.0,0.0,0.0,0.0,0.0,0.0,0.0,0.0,0.0,0.0,0.2,0.0,0.0,
1.899,315.0,315.0,0.0,0.0,0.0,0.0,0.0,0.0,0.0,0.0,0.0,0.0,0.2,0.0,0.1,
1.912,315.0,315.0,0.0,0.0,0.0,0.0,0.0,0.0,0.0,0.0,0.0,0.0,0.29,0.0,0.0,
1.925,315.0,315.0,0.0,0.0,0.0,0.0,0.0,0.0,0.0,0.0,0.0,0.0,0.29,0.0,0.1,
1.938,315.0,315.0,0.0,0.0,0.0,0.0,0.0,0.0,0.0,0.0,0.0,0.0,0.39,0.0,0.0,
1.95,315.0,315.0,0.0,0.0,0.0,0.0,0.0,0.0,0.0,0.0,0.0,0.0,0.39,0.0,0.2,
1.963,315.0,315.0,0.0,0.0,0.0,0.0,0.0,0.0,0.0,0.0,0.0,0.0,0.39,0.0,0.2,
1.976,315.0,315.0,0.0,0.0,0.0,0.0,0.0,0.0,0.0,0.0,0.0,0.0,0.29,0.0,0.1,
1.988,315.0,315.0,0.0,0.0,0.0,0.0,0.0,0.0,0.0,0.0,0.0,0.0,0.29,0.0,0.1,
2.001,315.0,315.0,0.0,0.0,0.0,0.0,0.0,0.0,0.0,0.0,0.0,0.0,0.29,0.0,0.1,
2.014,315.0,315.0,0.0,0.0,0.0,0.0,0.0,0.0,0.0,0.0,0.0,0.0,0.29,0.0,0.1,
2.027,315.0,315.0,0.0,0.0,0.0,0.0,0.0,0.0,0.0,0.0,0.0,0.0,0.29,0.0,0.1,
2.039,315.0,315.0,0.0,0.0,0.0,0.0,0.0,0.0,0.0,0.0,0.0,0.0,0.29,0.0,0.1,
2.053,315.0,315.0,0.0,0.0,0.0,0.0,0.0,0.0,0.0,0.0,0.0,0.0,0.29,0.0,0.0,
2.065,315.0,315.0,0.0,0.0,0.0,0.0,0.0,0.0,0.0,0.0,0.0,0.0,0.29,0.0,0.0,
2.078,315.0,315.0,0.0,0.0,0.0,0.0,0.0,0.0,0.0,0.0,0.0,0.0,0.39,0.0,0.0,
2.091,315.0,315.0,0.0,0.0,0.0,0.0,0.0,0.0,0.0,0.0,0.0,0.0,0.29,0.0,0.0,
2.104,315.0,315.0,0.0,0.0,0.0,0.0,0.0,0.0,0.0,0.0,0.0,0.0,0.29,0.0,0.0,
2.116,315.0,315.0,0.0,0.0,0.0,0.0,0.0,0.0,0.0,0.0,0.0,0.0,0.29,0.0,0.0,
2.128,315.0,315.0,0.0,0.0,0.0,0.0,0.0,0.0,0.0,0.0,0.0,0.0,0.29,0.0,0.0,
2.142,315.0,315.0,0.0,0.0,0.0,0.0,0.0,0.0,0.0,0.0,0.0,0.0,0.29,0.0,0.1,
2.154,315.0,315.0,0.0,0.0,0.0,0.0,0.0,0.0,0.0,0.0,0.0,0.0,0.29,0.1,0.0,
2.167,315.0,315.0,0.0,0.0,0.0,0.0,0.0,0.0,0.0,0.0,0.0,0.0,0.29,0.0,0.0,
2.18,315.0,315.0,0.0,0.0,0.0,0.0,0.0,0.0,0.0,0.0,0.0,0.0,0.29,0.1,0.0,
2.193,315.0,315.0,0.0,0.0,0.0,0.0,0.0,0.0,0.0,0.0,0.0,0.0,0.29,0.1,0.0,
2.205,315.0,315.0,0.0,0.0,0.0,0.0,0.0,0.0,0.0,0.0,0.0,0.0,0.39,0.0,0.0,
2.217,315.0,315.0,0.0,0.0,0.0,0.0,0.0,0.0,0.0,0.0,0.0,0.0,0.39,0.0,0.1,
2.231,315.0,315.0,0.0,0.0,0.0,0.0,0.0,0.0,0.0,0.0,0.0,0.0,0.39,0.0,0.1,
2.244,315.0,315.0,0.0,0.0,0.0,0.0,0.0,0.0,0.0,0.0,0.0,0.0,0.39,0.0,0.0,
2.256,315.0,315.0,0.0,0.0,0.0,0.0,0.0,0.0,0.0,0.0,0.0,0.0,0.39,0.0,0.1,
2.269,315.0,315.0,0.0,0.0,0.0,0.0,0.0,0.0,0.0,0.0,0.0,0.0,0.49,0.0,0.1,
2.282,315.0,315.0,0.0,0.0,0.0,0.0,0.0,0.0,0.0,0.0,0.0,0.0,0.49,0.0,0.2,
2.294,315.0,315.0,0.0,0.0,0.0,0.0,0.0,0.0,0.0,0.0,0.0,0.0,0.39,0.0,0.2,
2.308,315.0,315.0,0.0,0.0,0.0,0.0,0.0,0.0,0.0,0.0,0.0,0.0,0.49,0.0,0.1,
2.32,315.0,315.0,0.0,0.0,0.0,0.0,0.0,0.0,0.0,0.0,0.0,0.0,0.49,0.0,0.1,
2.333,315.0,315.0,0.0,0.0,0.0,0.0,0.0,0.0,0.0,0.0,0.0,0.0,0.39,0.0,0.1,
2.345,315.0,315.0,0.0,0.0,0.0,0.0,0.0,0.0,0.0,0.0,0.0,0.0,0.49,0.0,0.1,
2.358,315.0,315.0,0.0,0.0,0.0,0.0,0.0,0.0,0.0,0.0,0.0,0.0,0.39,0.0,0.1,
2.371,315.0,315.0,0.0,0.0,0.0,0.0,0.0,0.0,0.0,0.0,0.0,0.0,0.39,0.0,0.1,
2.383,315.0,315.0,0.0,0.0,0.0,0.0,0.0,0.0,0.0,0.0,0.0,0.0,0.29,0.0,0.1,
2.397,315.0,315.0,0.0,0.0,0.0,0.0,0.0,0.0,0.0,0.0,0.0,0.0,0.39,0.0,0.0,
2.409,315.0,315.0,0.0,0.0,0.0,0.0,0.0,0.0,0.0,0.0,0.0,0.0,0.49,0.0,0.0,
2.422,315.0,315.0,0.0,0.0,0.0,0.0,0.0,0.0,0.0,0.0,0.0,0.0,0.39,0.0,0.1,
2.435,315.0,315.0,0.0,0.0,0.0,0.0,0.0,0.0,0.0,0.0,0.0,0.0,0.39,0.0,0.1,
2.448,315.0,315.0,0.0,0.0,0.0,0.0,0.0,0.0,0.0,0.0,0.0,0.0,0.49,0.0,0.2,
2.46,315.0,315.0,0.0,0.0,0.0,0.0,0.0,0.0,0.0,0.0,0.0,0.0,0.49,0.0,0.2,
2.473,315.0,315.0,0.0,0.0,0.0,0.0,0.0,0.0,0.0,0.0,0.0,0.0,0.39,0.0,0.2,
2.486,315.0,315.0,0.0,0.0,0.0,0.0,0.0,0.0,0.0,0.0,0.0,0.0,0.49,0.0,0.29,
2.498,315.0,315.0,0.0,0.0,0.0,0.0,0.0,0.0,0.0,0.0,0.0,0.0,0.39,0.0,0.29,
2.511,315.0,315.0,0.0,0.0,0.0,0.0,0.0,0.0,0.0,0.0,0.0,0.0,0.59,0.0,0.39,
2.525,315.0,315.0,0.0,0.0,0.0,0.0,0.0,0.0,0.0,0.0,0.0,0.0,1.18,0.0,0.29,
2.537,315.0,315.0,0.0,0.0,0.0,0.0,0.0,0.0,0.0,0.0,0.0,0.0,2.55,0.0,0.29,
2.55,315.0,315.0,0.0,0.0,0.0,0.0,0.0,0.0,0.0,0.0,0.0,0.0,3.24,0.0,0.2,
2.563,315.0,315.0,0.0,0.0,0.0,0.0,0.0,0.0,0.0,0.0,0.0,0.0,3.53,0.0,0.0,
2.575,315.0,315.0,0.0,0.0,0.0,0.0,0.0,0.0,0.0,0.0,0.0,0.0,4.32,0.0,0.0,
2.588,315.0,315.0,0.0,0.0,0.0,0.0,1.0,0.0,0.0,0.0,0.0,0.0,5.4,0.0,0.0,
2.601,315.0,315.0,0.0,0.0,0.0,0.0,1.0,0.0,0.0,0.0,0.0,0.0,5.59,0.0,0.0,
2.614,315.0,315.0,0.0,0.0,0.0,0.0,1.0,0.0,0.0,0.0,0.0,0.0,5.49,0.29,0.0,
2.627,315.0,315.0,0.0,0.0,0.0,0.0,1.0,0.0,0.0,0.0,0.0,0.0,5.4,1.47,0.0,
2.639,315.0,315.0,0.0,0.0,0.0,0.0,1.0,0.0,0.0,0.0,0.0,0.0,5.4,2.84,0.0,
2.652,315.0,315.0,0.0,0.0,0.0,0.0,1.0,0.0,0.0,0.0,0.0,0.0,5.3,3.04,0.0,
2.665,315.0,315.0,0.0,0.0,0.0,0.0,1.0,0.0,0.0,0.0,0.0,0.0,5.2,1.86,0.0,
2.677,315.0,315.0,0.0,0.0,0.0,0.0,1.0,0.0,0.0,0.0,0.0,0.0,4.91,1.47,0.0,
2.691,315.0,315.0,0.0,0.0,0.0,0.0,1.0,0.0,0.0,0.0,0.0,0.0,4.81,1.37,0.0,
2.703,315.0,315.0,0.0,0.0,0.0,0.0,1.0,0.0,0.0,0.0,0.0,0.0,4.91,1.28,0.0,
2.716,315.0,315.0,0.0,0.0,0.0,0.0,1.0,0.0,0.0,0.0,0.0,0.0,5.0,1.57,0.0,
2.728,315.0,315.0,0.0,0.0,0.0,0.0,1.0,0.0,0.0,0.0,0.0,0.0,5.3,2.55,0.0,
2.742,315.0,315.0,0.0,0.0,0.0,0.0,1.0,0.0,0.0,0.0,0.0,0.0,5.49,4.12,0.0,
2.754,315.0,315.0,0.0,0.0,0.0,0.0,1.0,0.0,0.0,0.0,0.0,0.0,5.59,6.87,0.0,
2.767,315.0,315.0,0.0,0.0,0.0,0.0,1.0,0.0,1.0,0.0,0.0,0.0,5.69,7.75,0.0,
2.78,315.0,315.0,0.0,0.0,0.0,0.0,1.0,0.0,1.0,0.0,0.0,0.0,5.79,7.75,0.0,
2.793,315.0,315.0,0.0,0.0,0.0,0.0,1.0,0.0,1.0,0.0,0.0,0.0,5.98,7.36,0.0,
2.805,315.0,315.0,0.0,0.0,0.0,0.0,1.0,0.0,1.0,0.0,0.0,0.0,6.18,6.87,0.0,
2.819,315.0,315.0,0.0,0.0,0.0,0.0,1.0,0.0,1.0,0.0,0.0,0.0,6.18,6.67,0.0,
2.831,315.0,315.0,0.0,0.0,0.0,0.0,1.0,0.0,1.0,0.0,0.0,0.0,6.38,6.77,0.0,
2.843,315.0,315.0,0.0,0.0,0.0,0.0,1.0,0.0,1.0,0.0,0.0,0.0,6.47,6.97,0.0,
2.866,315.0,315.0,0.0,0.0,0.0,0.0,1.0,0.0,1.0,1.0,0.0,0.0,6.57,7.06,0.0,
2.878,315.0,315.0,0.0,0.0,0.0,0.0,1.0,0.0,1.0,1.0,0.0,0.0,6.77,7.26,0.0,
2.891,315.0,315.0,0.0,0.0,0.0,0.0,1.0,0.0,1.0,1.0,0.0,0.0,6.87,7.36,0.0,
2.904,315.0,315.0,0.0,0.0,0.0,0.0,1.0,0.0,1.0,1.0,0.0,0.0,6.97,7.46,0.0,
2.917,315.0,315.0,0.0,0.0,0.0,0.0,2.0,0.0,1.0,1.0,1.0,0.0,6.97,7.65,0.0,
2.929,315.0,315.0,0.0,0.0,0.0,0.0,2.0,0.0,1.0,1.0,1.0,0.0,6.97,7.85,0.0,
2.942,315.0,315.0,0.0,0.0,0.0,0.0,2.0,0.0,1.0,1.0,1.0,0.0,7.06,8.34,0.0,
2.955,315.0,315.0,0.0,0.0,0.0,0.0,2.0,0.0,1.0,1.0,0.0,0.0,7.06,8.63,0.0,
2.968,315.0,315.0,0.0,0.0,0.0,0.0,2.0,0.0,1.0,1.0,1.0,0.0,6.97,8.73,0.0,
2.98,315.0,315.0,0.0,0.0,0.0,0.0,2.0,0.0,1.0,1.0,0.0,0.0,6.97,8.93,0.0,
2.994,315.0,315.0,0.0,0.0,0.0,0.0,1.0,0.0,1.0,1.0,0.0,0.0,6.77,9.12,0.0,
3.006,315.0,315.0,0.0,0.0,0.0,0.0,1.0,0.0,1.0,0.0,0.0,0.0,6.57,9.32,0.0,
3.018,315.0,315.0,0.0,0.0,0.0,0.0,1.0,0.0,1.0,0.0,0.0,0.0,6.47,9.71,0.0,
3.032,315.0,315.0,0.0,0.0,0.0,0.0,1.0,0.0,1.0,0.0,0.0,0.0,6.18,10.4,0.0,
3.044,315.0,315.0,0.0,0.0,0.0,0.0,1.0,0.0,1.0,0.0,0.0,0.0,6.18,10.79,0.0,
3.057,315.0,315.0,0.0,0.0,0.0,0.0,1.0,0.0,1.0,0.0,0.0,0.0,6.08,11.09,0.0,
3.069,315.0,315.0,0.0,0.0,0.0,0.0,1.0,0.0,1.0,0.0,0.0,0.0,6.08,11.28,0.0,
3.083,315.0,315.0,0.0,0.0,0.0,0.0,1.0,0.0,1.0,0.0,0.0,0.0,5.89,11.28,0.0,
3.096,315.0,315.0,0.0,0.0,0.0,0.0,1.0,0.0,1.0,0.0,0.0,0.0,5.79,11.38,0.0,
3.108,315.0,315.0,0.0,0.0,0.0,0.0,1.0,0.0,1.0,0.0,0.0,0.0,5.69,11.48,0.0,
3.122,315.0,315.0,0.0,0.0,0.0,0.0,1.0,0.0,1.0,0.0,0.0,0.0,5.59,11.67,0.0,
3.134,315.0,315.0,0.0,0.0,0.0,0.0,1.0,0.0,1.0,0.0,0.0,0.0,5.49,11.77,0.0,
3.147,315.0,315.0,0.0,0.0,0.0,0.0,1.0,0.0,1.0,0.0,0.0,0.0,5.49,11.87,0.0,
3.16,315.0,315.0,0.0,0.0,0.0,0.0,1.0,0.0,1.0,0.0,0.0,0.0,5.4,11.87,0.0,
3.173,315.0,315.0,0.0,0.0,0.0,0.0,1.0,0.0,1.0,0.0,0.0,0.0,5.3,11.97,0.0,
3.185,315.0,315.0,0.0,0.0,0.0,0.0,1.0,0.0,1.0,0.0,0.0,0.0,5.2,12.07,0.0,
3.198,315.0,315.0,0.0,0.0,0.0,0.0,1.0,0.0,1.0,0.0,0.0,0.0,5.2,12.16,0.0,
3.211,315.0,315.0,0.0,0.0,0.0,0.0,1.0,0.0,1.0,0.0,0.0,0.0,5.1,12.26,0.0,
3.224,315.0,315.0,0.0,0.0,0.0,0.0,1.0,0.0,1.0,0.0,0.0,0.0,5.1,12.36,0.0,
3.236,315.0,315.0,0.0,0.0,0.0,0.0,1.0,0.0,1.0,0.0,0.0,0.0,5.0,12.36,0.0,
3.25,315.0,315.0,0.0,0.0,0.0,0.0,1.0,0.0,1.0,0.0,0.0,0.0,5.0,12.36,0.0,
3.262,315.0,315.0,0.0,0.0,0.0,0.0,1.0,0.0,1.0,0.0,0.0,0.0,4.91,12.36,0.0,
3.275,315.0,315.0,0.0,0.0,0.0,0.0,1.0,0.0,1.0,0.0,0.0,0.0,4.81,12.56,0.0,
3.289,315.0,315.0,0.0,0.0,0.0,0.0,1.0,0.0,1.0,0.0,0.0,0.0,4.71,12.56,0.0,
3.301,315.0,315.0,0.0,0.0,0.0,0.0,1.0,0.0,0.0,0.0,0.0,0.0,4.71,12.65,0.0,
3.314,315.0,315.0,0.0,0.0,0.0,0.0,1.0,0.0,0.0,0.0,0.0,0.0,4.61,12.75,0.0,
3.326,315.0,315.0,0.0,0.0,0.0,0.0,1.0,0.0,0.0,0.0,0.0,0.0,4.51,12.85,0.0,
3.34,315.0,315.0,0.0,0.0,0.0,0.0,1.0,0.0,0.0,0.0,0.0,0.0,4.51,13.05,0.0,
3.352,315.0,315.0,0.0,0.0,0.0,0.0,1.0,0.0,0.0,0.0,0.0,0.0,4.41,13.24,0.0,
3.365,315.0,315.0,0.0,0.0,0.0,0.0,1.0,0.0,0.0,0.0,0.0,0.0,4.22,13.44,0.0,
3.378,315.0,315.0,0.0,0.0,0.0,0.0,1.0,0.0,0.0,0.0,0.0,0.0,4.12,13.73,0.0,
3.391,315.0,315.0,0.0,0.0,0.0,0.0,1.0,0.0,0.0,0.0,0.0,0.0,4.02,13.93,0.0,
3.403,315.0,315.0,0.0,0.0,0.0,0.0,1.0,0.0,0.0,0.0,0.0,0.0,3.92,14.13,0.0,
3.417,315.0,315.0,0.0,0.0,0.0,0.0,1.0,0.0,0.0,0.0,0.0,0.0,3.92,14.32,0.0,
3.429,315.0,315.0,0.0,0.0,0.0,0.0,1.0,0.0,0.0,0.0,0.0,0.0,3.83,14.52,0.0,
3.442,315.0,315.0,0.0,0.0,0.0,0.0,1.0,0.0,0.0,0.0,0.0,0.0,3.63,14.91,0.0,
3.454,315.0,315.0,0.0,0.0,0.0,0.0,1.0,0.0,0.0,0.0,0.0,0.0,3.53,15.11,0.0,
3.468,315.0,315.0,0.0,0.0,0.0,0.0,1.0,0.0,0.0,0.0,0.0,0.0,3.43,15.3,0.0,
3.48,315.0,315.0,0.0,0.0,0.0,0.0,1.0,0.0,0.0,0.0,0.0,0.0,3.34,15.5,0.0,
3.493,315.0,315.0,0.0,0.0,0.0,0.0,1.0,0.0,0.0,0.0,0.0,0.0,3.34,15.6,0.0,
3.507,315.0,315.0,0.0,0.0,0.0,0.0,1.0,0.0,0.0,0.0,0.0,0.0,3.34,15.6,0.0,
3.519,315.0,315.0,0.0,0.0,0.0,0.0,1.0,0.0,0.0,0.0,0.0,0.0,3.34,15.7,0.0,
3.532,315.0,315.0,0.0,0.0,0.0,0.0,1.0,0.0,0.0,0.0,0.0,0.0,3.34,15.7,0.0,
3.545,315.0,315.0,0.0,0.0,0.0,0.0,1.0,0.0,0.0,0.0,0.0,0.0,3.34,15.7,0.0,
3.558,315.0,315.0,0.0,0.0,0.0,0.0,1.0,0.0,0.0,0.0,0.0,0.0,3.24,15.7,0.0,
3.57,315.0,315.0,0.0,0.0,0.0,0.0,1.0,0.0,0.0,0.0,0.0,0.0,3.24,15.79,0.0,
3.584,315.0,315.0,0.0,0.0,0.0,0.0,1.0,0.0,0.0,0.0,0.0,0.0,3.24,15.79,0.0,
3.596,315.0,315.0,0.0,0.0,0.0,0.0,1.0,0.0,0.0,0.0,0.0,0.0,3.14,15.89,0.0,
3.609,315.0,315.0,0.0,0.0,0.0,0.0,1.0,0.0,0.0,0.0,0.0,0.0,3.14,15.99,0.0,
3.621,315.0,315.0,0.0,0.0,0.0,0.0,1.0,0.0,0.0,0.0,0.0,0.0,3.14,16.09,0.0,
3.635,315.0,315.0,0.0,0.0,0.0,0.0,1.0,0.0,0.0,0.0,0.0,0.0,3.04,16.09,0.0,
3.647,315.0,315.0,0.0,0.0,0.0,0.0,1.0,0.0,0.0,0.0,0.0,0.0,3.04,16.19,0.0,
3.66,315.0,315.0,0.0,0.0,0.0,0.0,1.0,0.0,0.0,0.0,0.0,0.0,3.04,16.19,0.0,
3.673,315.0,315.0,0.0,0.0,0.0,0.0,1.0,0.0,0.0,0.0,0.0,0.0,3.04,16.28,0.0,
3.686,315.0,315.0,0.0,0.0,0.0,0.0,1.0,0.0,0.0,0.0,0.0,0.0,2.94,16.48,0.0,
3.699,315.0,315.0,0.0,0.0,0.0,0.0,1.0,0.0,0.0,0.0,0.0,0.0,2.94,16.48,0.0,
3.712,315.0,315.0,0.0,0.0,0.0,0.0,1.0,0.0,0.0,0.0,0.0,0.0,2.84,16.48,0.0,
3.725,315.0,315.0,0.0,0.0,0.0,0.0,1.0,0.0,0.0,0.0,0.0,0.0,2.84,16.48,0.0,
3.737,315.0,315.0,0.0,0.0,0.0,0.0,1.0,0.0,0.0,0.0,0.0,0.0,2.84,16.58,0.0,
3.75,315.0,315.0,0.0,0.0,0.0,0.0,1.0,0.0,0.0,0.0,0.0,0.0,2.84,16.58,0.0,
3.763,315.0,315.0,0.0,0.0,0.0,0.0,1.0,0.0,0.0,0.0,0.0,0.0,2.84,16.58,0.0,
3.776,315.0,315.0,0.0,0.0,0.0,0.0,1.0,0.0,0.0,0.0,0.0,0.0,2.84,16.58,0.0,
3.788,315.0,315.0,0.0,0.0,0.0,0.0,1.0,0.0,0.0,0.0,0.0,0.0,2.75,16.58,0.0,
3.802,315.0,315.0,0.0,0.0,0.0,0.0,1.0,0.0,0.0,0.0,0.0,0.0,2.75,16.48,0.0,
3.814,315.0,315.0,0.0,0.0,0.0,0.0,1.0,0.0,0.0,0.0,0.0,0.0,2.84,16.48,0.0,
3.827,315.0,315.0,0.0,0.0,0.0,0.0,1.0,0.0,0.0,0.0,0.0,0.0,2.84,16.38,0.0,
3.84,315.0,315.0,0.0,0.0,0.0,0.0,1.0,0.0,0.0,0.0,0.0,0.0,2.84,16.48,0.0,
3.853,315.0,315.0,0.0,0.0,0.0,0.0,1.0,0.0,0.0,0.0,0.0,0.0,2.84,16.19,0.0,
3.865,315.0,315.0,0.0,0.0,0.0,0.0,1.0,0.0,0.0,0.0,0.0,0.0,2.84,16.09,0.0,
3.878,315.0,315.0,0.0,0.0,0.0,0.0,1.0,0.0,0.0,0.0,0.0,0.0,2.84,16.09,0.0,
3.892,315.0,315.0,0.0,0.0,0.0,0.0,1.0,0.0,0.0,0.0,0.0,0.0,2.75,15.89,0.0,
3.904,315.0,315.0,0.0,0.0,0.0,0.0,1.0,0.0,0.0,0.0,0.0,0.0,2.75,15.79,0.0,
3.917,315.0,315.0,0.0,0.0,0.0,0.0,1.0,0.0,0.0,0.0,0.0,0.0,2.84,15.7,0.0,
3.93,315.0,315.0,0.0,0.0,0.0,0.0,1.0,0.0,0.0,0.0,0.0,0.0,2.84,15.6,0.0,
3.943,315.0,315.0,0.0,0.0,0.0,0.0,1.0,0.0,0.0,0.0,0.0,0.0,2.84,15.5,0.0,
3.955,315.0,315.0,0.0,0.0,0.0,0.0,1.0,0.0,0.0,0.0,0.0,0.0,2.84,15.4,0.0,
3.969,315.0,315.0,0.0,0.0,0.0,0.0,1.0,0.0,0.0,0.0,0.0,0.0,2.84,15.4,0.0,
3.981,315.0,315.0,0.0,0.0,0.0,0.0,1.0,0.0,0.0,0.0,0.0,0.0,2.84,15.3,0.0,
3.994,315.0,315.0,0.0,0.0,0.0,0.0,1.0,0.0,0.0,0.0,0.0,0.0,2.84,15.3,0.0,
4.006,315.0,315.0,0.0,0.0,0.0,0.0,1.0,0.0,0.0,0.0,0.0,0.0,2.84,15.11,0.0,
4.02,315.0,315.0,0.0,0.0,0.0,0.0,1.0,0.0,0.0,0.0,0.0,0.0,2.84,15.01,0.0,
4.032,315.0,315.0,0.0,0.0,0.0,0.0,1.0,0.0,0.0,0.0,0.0,0.0,2.75,14.91,0.0,
4.045,315.0,315.0,0.0,0.0,0.0,0.0,1.0,0.0,0.0,0.0,0.0,0.0,2.84,14.91,0.0,
4.058,315.0,315.0,0.0,0.0,0.0,0.0,1.0,0.0,0.0,0.0,0.0,0.0,2.84,14.81,0.0,
4.071,315.0,315.0,0.0,0.0,0.0,0.0,1.0,0.0,0.0,0.0,0.0,0.0,2.94,14.72,0.0,
4.084,315.0,315.0,0.0,0.0,0.0,0.0,1.0,0.0,0.0,0.0,0.0,0.0,3.04,14.62,0.0,
4.097,315.0,315.0,0.0,0.0,0.0,0.0,1.0,0.0,0.0,0.0,0.0,0.0,2.94,14.52,0.0,
4.11,315.0,315.0,0.0,0.0,0.0,0.0,1.0,0.0,0.0,0.0,0.0,0.0,2.84,14.42,0.0,
4.122,315.0,315.0,0.0,0.0,0.0,0.0,1.0,0.0,0.0,0.0,0.0,0.0,2.94,14.42,0.0,
4.135,315.0,315.0,0.0,0.0,0.0,0.0,1.0,0.0,0.0,0.0,0.0,0.0,2.94,14.32,0.0,
4.148,315.0,315.0,0.0,0.0,0.0,0.0,1.0,0.0,0.0,0.0,0.0,0.0,2.94,14.22,0.0,
4.161,315.0,315.0,0.0,0.0,0.0,0.0,1.0,0.0,0.0,0.0,0.0,0.0,2.94,14.22,0.0,
4.173,315.0,315.0,0.0,0.0,0.0,0.0,1.0,0.0,0.0,0.0,0.0,0.0,2.94,14.22,0.0,
4.187,315.0,315.0,0.0,0.0,0.0,0.0,1.0,0.0,0.0,0.0,0.0,0.0,2.84,14.22,0.0,
4.199,315.0,315.0,0.0,0.0,0.0,0.0,1.0,0.0,0.0,0.0,0.0,0.0,2.84,14.22,0.0,
4.212,315.0,315.0,0.0,0.0,0.0,0.0,1.0,0.0,0.0,0.0,0.0,0.0,2.84,14.22,0.0,
4.225,315.0,315.0,0.0,0.0,0.0,0.0,1.0,0.0,0.0,0.0,0.0,0.0,2.84,14.22,0.0,
4.238,315.0,315.0,0.0,0.0,0.0,0.0,1.0,0.0,0.0,0.0,0.0,0.0,2.84,14.13,0.0,
4.25,315.0,315.0,0.0,0.0,0.0,0.0,1.0,0.0,0.0,0.0,0.0,0.0,2.84,14.13,0.0,
4.263,315.0,315.0,0.0,0.0,0.0,0.0,1.0,0.0,0.0,0.0,0.0,0.0,2.84,14.22,0.0,
4.277,315.0,315.0,0.0,0.0,0.0,0.0,1.0,0.0,0.0,0.0,0.0,0.0,2.75,14.22,0.0,
4.289,315.0,315.0,0.0,0.0,0.0,0.0,1.0,0.0,0.0,0.0,0.0,0.0,2.84,14.22,0.0,
4.302,315.0,315.0,0.0,0.0,0.0,0.0,1.0,0.0,0.0,0.0,0.0,0.0,2.84,14.22,0.0,
4.315,315.0,315.0,0.0,0.0,0.0,0.0,1.0,0.0,0.0,0.0,0.0,0.0,2.75,14.22,0.0,
4.328,315.0,315.0,0.0,0.0,0.0,0.0,1.0,0.0,0.0,0.0,0.0,0.0,2.84,14.22,0.0,
4.34,315.0,315.0,0.0,0.0,0.0,0.0,1.0,0.0,0.0,0.0,0.0,0.0,2.84,14.32,0.0,
4.354,315.0,315.0,0.0,0.0,0.0,0.0,1.0,0.0,0.0,0.0,0.0,0.0,2.84,14.42,0.0,
4.366,315.0,315.0,0.0,0.0,0.0,0.0,1.0,0.0,0.0,0.0,0.0,0.0,2.84,14.32,0.0,
4.379,315.0,315.0,0.0,0.0,0.0,0.0,1.0,0.0,0.0,0.0,0.0,0.0,2.84,14.32,0.0,
4.391,315.0,315.0,0.0,0.0,0.0,0.0,1.0,0.0,0.0,0.0,0.0,0.0,2.84,14.32,0.0,
4.405,315.0,315.0,0.0,0.0,0.0,0.0,1.0,0.0,0.0,0.0,0.0,0.0,2.94,14.32,0.0,
4.417,315.0,315.0,0.0,0.0,0.0,0.0,1.0,0.0,0.0,0.0,0.0,0.0,2.94,14.32,0.0,
4.43,315.0,315.0,0.0,0.0,0.0,0.0,1.0,0.0,0.0,0.0,0.0,0.0,2.84,14.32,0.0,
4.444,315.0,315.0,0.0,0.0,0.0,0.0,1.0,0.0,0.0,0.0,0.0,0.0,2.75,14.42,0.0,
4.456,315.0,315.0,0.0,0.0,0.0,0.0,1.0,0.0,0.0,0.0,0.0,0.0,2.84,14.42,0.0,
4.469,315.0,315.0,0.0,0.0,0.0,0.0,1.0,0.0,0.0,0.0,0.0,0.0,2.84,14.42,0.0,
4.482,315.0,315.0,0.0,0.0,0.0,0.0,1.0,0.0,0.0,0.0,0.0,0.0,2.84,14.42,0.0,
4.495,315.0,315.0,0.0,0.0,0.0,0.0,1.0,0.0,0.0,0.0,0.0,0.0,2.84,14.32,0.0,
4.507,315.0,315.0,0.0,0.0,0.0,0.0,1.0,0.0,0.0,0.0,0.0,0.0,2.94,14.42,0.0,
4.52,315.0,315.0,0.0,0.0,0.0,0.0,1.0,0.0,0.0,0.0,0.0,0.0,2.94,14.42,0.0,
4.533,315.0,315.0,0.0,0.0,0.0,0.0,1.0,0.0,0.0,0.0,0.0,0.0,2.94,14.32,0.0,
4.546,315.0,315.0,0.0,0.0,0.0,0.0,1.0,0.0,0.0,0.0,0.0,0.0,2.94,14.32,0.0,
4.558,315.0,315.0,0.0,0.0,0.0,0.0,1.0,0.0,0.0,0.0,0.0,0.0,2.94,14.42,0.0,
4.572,315.0,315.0,0.0,0.0,0.0,0.0,1.0,0.0,0.0,0.0,0.0,0.0,2.94,14.42,0.0,
4.584,315.0,315.0,0.0,0.0,0.0,0.0,1.0,0.0,0.0,0.0,0.0,0.0,2.94,14.32,0.0,
4.597,315.0,315.0,0.0,0.0,0.0,0.0,1.0,0.0,0.0,0.0,0.0,0.0,2.94,14.22,0.0,
4.61,315.0,315.0,0.0,0.0,0.0,0.0,1.0,0.0,0.0,0.0,0.0,0.0,2.94,14.22,0.0,
4.623,315.0,315.0,0.0,0.0,0.0,0.0,1.0,0.0,0.0,0.0,0.0,0.0,2.94,14.22,0.0,
4.636,315.0,315.0,0.0,0.0,0.0,0.0,1.0,0.0,0.0,0.0,0.0,0.0,2.94,14.22,0.0,
4.648,315.0,315.0,0.0,0.0,0.0,0.0,1.0,0.0,0.0,0.0,0.0,0.0,2.94,14.22,0.0,
4.662,315.0,315.0,0.0,0.0,0.0,0.0,1.0,0.0,0.0,0.0,0.0,0.0,2.94,14.22,0.0,
4.674,315.0,315.0,0.0,0.0,0.0,0.0,1.0,0.0,0.0,0.0,0.0,0.0,2.94,14.13,0.0,
4.687,315.0,315.0,0.0,0.0,0.0,0.0,1.0,0.0,0.0,0.0,0.0,0.0,2.94,14.13,0.0,
4.7,315.0,315.0,0.0,0.0,0.0,0.0,1.0,0.0,0.0,0.0,0.0,0.0,2.94,14.13,0.0,
4.713,315.0,315.0,0.0,0.0,0.0,0.0,1.0,0.0,0.0,0.0,0.0,0.0,3.04,14.13,0.0,
4.725,315.0,315.0,0.0,0.0,0.0,0.0,1.0,0.0,0.0,0.0,0.0,0.0,2.94,14.03,0.0,
4.739,315.0,315.0,0.0,0.0,0.0,0.0,1.0,0.0,0.0,0.0,0.0,0.0,2.94,14.03,0.0,
4.751,315.0,315.0,0.0,0.0,0.0,0.0,1.0,0.0,0.0,0.0,0.0,0.0,2.94,14.03,0.0,
4.764,315.0,315.0,0.0,0.0,0.0,0.0,1.0,0.0,0.0,0.0,0.0,0.0,3.04,13.93,0.0,
4.776,315.0,315.0,0.0,0.0,0.0,0.0,1.0,0.0,0.0,0.0,0.0,0.0,2.94,13.93,0.0,
4.79,315.0,315.0,0.0,0.0,0.0,0.0,1.0,0.0,0.0,0.0,0.0,0.0,2.94,13.83,0.0,
4.802,315.0,315.0,0.0,0.0,0.0,0.0,1.0,0.0,0.0,0.0,0.0,0.0,2.94,13.73,0.0,
4.815,315.0,315.0,0.0,0.0,0.0,0.0,1.0,0.0,0.0,0.0,0.0,0.0,2.94,13.83,0.0,
4.829,315.0,315.0,0.0,0.0,0.0,0.0,1.0,0.0,0.0,0.0,0.0,0.0,3.04,13.73,0.0,
4.841,315.0,315.0,0.0,0.0,0.0,0.0,1.0,0.0,0.0,0.0,0.0,0.0,2.94,13.73,0.0,
4.854,315.0,315.0,0.0,0.0,0.0,0.0,1.0,0.0,0.0,0.0,0.0,0.0,3.14,13.73,0.0,
4.867,315.0,315.0,0.0,0.0,0.0,0.0,1.0,0.0,0.0,0.0,0.0,0.0,3.04,13.83,0.0,
4.88,315.0,315.0,0.0,0.0,0.0,0.0,1.0,0.0,0.0,0.0,0.0,0.0,3.04,13.73,0.0,
4.892,315.0,315.0,0.0,0.0,0.0,0.0,1.0,0.0,0.0,0.0,0.0,0.0,3.04,13.73,0.0,
4.905,315.0,315.0,0.0,0.0,0.0,0.0,1.0,0.0,0.0,0.0,0.0,0.0,3.04,13.64,0.0,
4.918,315.0,315.0,0.0,0.0,0.0,0.0,1.0,0.0,0.0,0.0,0.0,0.0,3.04,13.54,0.0,
4.931,315.0,315.0,0.0,0.0,0.0,0.0,1.0,0.0,0.0,0.0,0.0,0.0,3.14,13.44,0.0,
4.943,315.0,315.0,0.0,0.0,0.0,0.0,1.0,0.0,0.0,0.0,0.0,0.0,3.14,13.44,0.0,
4.957,315.0,315.0,0.0,0.0,0.0,0.0,1.0,0.0,0.0,0.0,0.0,0.0,3.04,13.54,0.0,
4.969,315.0,315.0,0.0,0.0,0.0,0.0,1.0,0.0,0.0,0.0,0.0,0.0,3.04,13.54,0.0,
4.982,315.0,315.0,0.0,0.0,0.0,0.0,1.0,0.0,0.0,0.0,0.0,0.0,3.04,13.44,0.0,
4.995,315.0,315.0,0.0,0.0,0.0,0.0,1.0,0.0,0.0,0.0,0.0,0.0,3.04,13.44,0.0,
5.008,315.0,315.0,0.0,0.0,0.0,0.0,1.0,0.0,0.0,0.0,0.0,0.0,3.04,13.44,0.0,
5.021,315.0,315.0,0.0,0.0,0.0,0.0,1.0,0.0,0.0,0.0,0.0,0.0,3.04,13.44,0.0,
5.033,315.0,315.0,0.0,0.0,0.0,0.0,1.0,0.0,0.0,0.0,0.0,0.0,3.04,13.34,0.0,
5.047,315.0,315.0,0.0,0.0,0.0,0.0,1.0,0.0,0.0,0.0,0.0,0.0,3.14,13.44,0.0,
5.059,315.0,315.0,0.0,0.0,0.0,0.0,1.0,0.0,0.0,0.0,0.0,0.0,3.14,13.44,0.0,
5.072,315.0,315.0,0.0,0.0,0.0,0.0,1.0,0.0,0.0,0.0,0.0,0.0,3.04,13.34,0.0,
5.085,315.0,315.0,0.0,0.0,0.0,0.0,1.0,0.0,0.0,0.0,0.0,0.0,3.04,13.44,0.0,
5.098,315.0,315.0,0.0,0.0,0.0,0.0,1.0,0.0,0.0,0.0,0.0,0.0,3.04,13.44,0.0,
5.11,315.0,315.0,0.0,0.0,0.0,0.0,1.0,0.0,0.0,0.0,0.0,0.0,3.04,13.34,0.0,
5.124,315.0,315.0,0.0,0.0,0.0,0.0,1.0,0.0,0.0,0.0,0.0,0.0,3.04,13.34,0.0,
5.136,315.0,315.0,0.0,0.0,0.0,0.0,1.0,0.0,0.0,0.0,0.0,0.0,3.04,13.34,0.0,
5.149,315.0,315.0,0.0,0.0,0.0,0.0,1.0,0.0,0.0,0.0,0.0,0.0,2.94,13.44,0.0,
5.161,315.0,315.0,0.0,0.0,0.0,0.0,1.0,0.0,0.0,0.0,0.0,0.0,2.94,13.54,0.0,
5.175,315.0,315.0,0.0,0.0,0.0,0.0,1.0,0.0,0.0,0.0,0.0,0.0,3.04,13.64,0.0,
5.187,315.0,315.0,0.0,0.0,0.0,0.0,1.0,0.0,0.0,0.0,0.0,0.0,2.84,13.64,0.0,
5.2,315.0,315.0,0.0,0.0,0.0,0.0,1.0,0.0,0.0,0.0,0.0,0.0,2.84,13.64,0.0,
5.214,315.0,315.0,0.0,0.0,0.0,0.0,1.0,0.0,0.0,0.0,0.0,0.0,2.94,13.64,0.0,
5.226,315.0,315.0,0.0,0.0,0.0,0.0,1.0,0.0,0.0,0.0,0.0,0.0,2.84,13.64,0.0,
5.239,315.0,315.0,0.0,0.0,0.0,0.0,1.0,0.0,0.0,0.0,0.0,0.0,2.94,13.73,0.0,
5.252,315.0,315.0,0.0,0.0,0.0,0.0,1.0,0.0,0.0,0.0,0.0,0.0,2.94,13.83,0.0,
5.265,315.0,315.0,0.0,0.0,0.0,0.0,1.0,0.0,0.0,0.0,0.0,0.0,2.84,13.83,0.0,
5.277,315.0,315.0,0.0,0.0,0.0,0.0,1.0,0.0,0.0,0.0,0.0,0.0,2.94,13.93,0.0,
5.291,315.0,315.0,0.0,0.0,0.0,0.0,1.0,0.0,0.0,0.0,0.0,0.0,2.84,14.13,0.0,
5.303,315.0,315.0,0.0,0.0,0.0,0.0,1.0,0.0,0.0,0.0,0.0,0.0,2.75,14.22,0.0,
5.316,315.0,315.0,0.0,0.0,0.0,0.0,1.0,0.0,0.0,0.0,0.0,0.0,2.65,14.42,0.0,
5.328,315.0,315.0,0.0,0.0,0.0,0.0,1.0,0.0,0.0,0.0,0.0,0.0,2.55,14.32,0.0,
5.342,315.0,315.0,0.0,0.0,0.0,0.0,1.0,0.0,0.0,0.0,0.0,0.0,2.55,14.42,0.0,
5.354,315.0,315.0,0.0,0.0,0.0,0.0,1.0,0.0,0.0,0.0,0.0,0.0,2.45,14.52,0.0,
5.367,315.0,315.0,0.0,0.0,0.0,0.0,1.0,0.0,0.0,0.0,0.0,0.0,2.35,14.72,0.0,
5.38,315.0,315.0,0.0,0.0,0.0,0.0,1.0,0.0,0.0,0.0,0.0,0.0,2.26,14.91,0.0,
5.393,315.0,315.0,0.0,0.0,0.0,0.0,1.0,0.0,0.0,0.0,0.0,0.0,2.06,15.21,0.0,
5.405,315.0,315.0,0.0,0.0,0.0,0.0,1.0,0.0,0.0,0.0,0.0,0.0,2.06,15.99,0.0,
5.419,315.0,315.0,0.0,0.0,0.0,0.0,1.0,0.0,0.0,0.0,0.0,0.0,1.96,16.28,0.0,
5.432,315.0,315.0,0.0,0.0,0.0,0.0,1.0,0.0,0.0,0.0,0.0,0.0,1.96,16.58,0.0,
5.444,315.0,315.0,0.0,0.0,0.0,0.0,1.0,0.0,0.0,0.0,0.0,0.0,1.96,16.78,0.0,
5.457,315.0,315.0,0.0,0.0,0.0,0.0,1.0,0.0,0.0,0.0,0.0,0.0,1.86,17.07,0.0,
5.47,315.0,315.0,0.0,0.0,0.0,0.0,1.0,0.0,0.0,0.0,0.0,0.0,1.77,17.27,0.0,
5.483,315.0,315.0,0.0,0.0,0.0,0.0,1.0,0.0,0.0,0.0,0.0,0.0,1.77,17.56,0.0,
5.495,315.0,315.0,0.0,0.0,0.0,0.0,1.0,0.0,0.0,0.0,0.0,0.0,1.86,17.66,0.0,
5.509,315.0,315.0,0.0,0.0,0.0,0.0,1.0,0.0,0.0,0.0,0.0,0.0,1.96,17.76,0.0,
5.521,315.0,315.0,0.0,0.0,0.0,0.0,1.0,0.0,0.0,0.0,0.0,0.0,1.86,17.95,0.0,
5.534,315.0,315.0,0.0,0.0,0.0,0.0,1.0,0.0,0.0,0.0,0.0,0.0,1.96,17.95,0.0,
5.547,315.0,315.0,0.0,0.0,0.0,0.0,1.0,0.0,0.0,0.0,0.0,0.0,2.06,17.95,0.0,
5.56,315.0,315.0,0.0,0.0,0.0,0.0,1.0,0.0,0.0,0.0,0.0,0.0,2.16,17.95,0.0,
5.573,315.0,315.0,0.0,0.0,0.0,0.0,1.0,0.0,0.0,0.0,0.0,0.0,2.16,18.05,0.0,
5.585,315.0,315.0,0.0,0.0,0.0,0.0,1.0,0.0,0.0,0.0,0.0,0.0,2.16,18.05,0.0,
5.599,315.0,315.0,0.0,0.0,0.0,0.0,1.0,0.0,0.0,0.0,0.0,0.0,2.26,17.85,0.0,
5.611,315.0,315.0,0.0,0.0,0.0,0.0,1.0,0.0,0.0,0.0,0.0,0.0,2.16,17.85,0.0,
5.624,315.0,315.0,0.0,0.0,0.0,0.0,1.0,0.0,0.0,0.0,0.0,0.0,2.06,17.85,0.0,
5.637,315.0,315.0,0.0,0.0,0.0,0.0,1.0,0.0,0.0,0.0,0.0,0.0,2.06,17.95,0.0,
5.65,315.0,315.0,0.0,0.0,0.0,0.0,1.0,0.0,0.0,0.0,0.0,0.0,1.96,17.95,0.0,
5.662,315.0,315.0,0.0,0.0,0.0,0.0,0.0,0.0,0.0,0.0,0.0,0.0,1.86,18.15,0.0,
5.676,315.0,315.0,0.0,0.0,0.0,0.0,0.0,0.0,0.0,0.0,0.0,0.0,1.77,18.44,0.0,
5.688,315.0,315.0,0.0,0.0,0.0,0.0,0.0,0.0,0.0,0.0,0.0,0.0,1.57,18.54,0.0,
5.701,315.0,315.0,0.0,0.0,0.0,0.0,0.0,0.0,0.0,0.0,0.0,0.0,1.47,18.64,0.0,
5.713,315.0,315.0,0.0,0.0,0.0,0.0,0.0,0.0,0.0,0.0,0.0,0.0,1.47,18.74,0.0,
5.727,315.0,315.0,0.0,0.0,0.0,0.0,0.0,0.0,0.0,0.0,0.0,0.0,1.37,18.34,0.0,
5.739,315.0,315.0,0.0,0.0,0.0,0.0,0.0,0.0,0.0,0.0,0.0,0.0,1.37,17.95,0.0,
5.752,315.0,315.0,0.0,0.0,0.0,0.0,0.0,0.0,0.0,0.0,0.0,0.0,1.37,17.46,0.0,
5.765,315.0,315.0,0.0,0.0,0.0,0.0,0.0,0.0,0.0,0.0,0.0,0.0,1.28,16.78,0.0,
5.778,315.0,315.0,0.0,0.0,0.0,0.0,0.0,0.0,0.0,0.0,0.0,0.0,1.08,16.09,0.0,
5.79,315.0,315.0,0.0,0.0,0.0,0.0,0.0,0.0,0.0,0.0,0.0,0.0,1.08,15.5,0.0,
5.804,315.0,315.0,0.0,0.0,0.0,0.0,0.0,0.0,0.0,0.0,0.0,0.0,1.08,14.91,0.0,
5.816,315.0,315.0,0.0,0.0,0.0,0.0,0.0,0.0,0.0,0.0,0.0,0.0,1.08,13.83,0.0,
5.829,315.0,315.0,0.0,0.0,0.0,0.0,0.0,0.0,0.0,0.0,0.0,0.0,1.08,13.24,0.0,
5.841,315.0,315.0,0.0,0.0,0.0,0.0,0.0,0.0,0.0,0.0,0.0,0.0,1.08,12.65,0.0,
5.855,315.0,315.0,0.0,0.0,0.0,0.0,0.0,0.0,0.0,0.0,0.0,0.0,1.18,12.26,0.0,
5.868,315.0,315.0,0.0,0.0,0.0,0.0,0.0,0.0,0.0,0.0,0.0,0.0,1.18,12.07,0.0,
5.88,315.0,315.0,0.0,0.0,0.0,0.0,0.0,0.0,0.0,0.0,0.0,0.0,1.18,11.58,0.0,
5.894,315.0,315.0,0.0,0.0,0.0,0.0,0.0,0.0,0.0,0.0,0.0,0.0,1.18,10.4,0.0,
5.906,315.0,315.0,0.0,0.0,0.0,0.0,0.0,0.0,0.0,0.0,0.0,0.0,1.08,9.81,0.0,
5.919,315.0,315.0,0.0,0.0,0.0,0.0,0.0,0.0,0.0,0.0,0.0,0.0,1.08,9.12,0.0,
5.932,315.0,315.0,0.0,0.0,0.0,0.0,1.0,0.0,0.0,0.0,0.0,0.0,1.08,8.63,0.0,
5.945,315.0,315.0,0.0,0.0,0.0,0.0,1.0,0.0,0.0,0.0,0.0,0.0,0.98,8.44,0.0,
5.957,315.0,315.0,0.0,0.0,0.0,0.0,1.0,0.0,0.0,0.0,0.0,0.0,0.98,8.44,0.0,
5.969,315.0,315.0,0.0,0.0,0.0,0.0,1.0,0.0,0.0,0.0,0.0,0.0,1.08,9.03,0.0,
5.983,315.0,315.0,0.0,0.0,0.0,0.0,1.0,0.0,0.0,0.0,0.0,0.0,1.08,11.48,0.0,
5.995,315.0,315.0,0.0,0.0,0.0,0.0,1.0,0.0,0.0,0.0,0.0,0.0,0.98,13.15,0.0,
6.008,315.0,315.0,0.0,0.0,0.0,0.0,1.0,0.0,0.0,0.0,0.0,0.0,0.88,15.01,0.0,
6.021,315.0,315.0,0.0,0.0,0.0,0.0,1.0,0.0,0.0,0.0,0.0,0.0,0.78,17.27,0.0,
6.034,315.0,315.0,0.0,0.0,0.0,0.0,1.0,0.0,0.0,0.0,0.0,0.0,0.59,20.11,0.0,
6.046,315.0,315.0,0.0,0.0,0.0,0.0,0.0,0.0,0.0,0.0,0.0,0.0,0.49,23.84,0.0,
6.06,315.0,315.0,0.0,0.0,0.0,0.0,0.0,0.0,0.0,0.0,0.0,0.0,0.1,35.22,0.0,
6.072,315.0,315.0,0.0,0.0,0.0,0.0,0.0,0.0,0.0,0.0,0.0,0.0,0.1,44.93,0.0,
6.085,315.0,315.0,0.0,0.0,0.0,0.0,0.0,0.0,0.0,0.0,0.0,0.0,0.1,56.6,0.0,
6.097,315.0,315.0,0.0,0.0,0.0,0.0,0.0,0.0,0.0,0.0,0.0,0.0,0.0,67.39,0.0,
6.111,315.0,315.0,0.0,0.0,0.0,0.0,0.0,0.0,0.0,0.0,0.0,0.0,0.0,76.52,0.0,
6.123,315.0,315.0,0.0,0.0,0.0,0.0,0.0,0.0,0.0,0.0,0.0,0.0,0.0,84.76,0.0,
6.136,315.0,315.0,0.0,0.0,0.0,0.0,0.0,0.0,0.0,0.0,0.0,0.0,0.1,93.69,0.0,
6.15,315.0,315.0,0.0,0.0,0.0,0.0,0.0,0.0,0.0,0.0,0.0,0.0,0.0,112.23,0.0,
6.162,315.0,315.0,0.0,0.0,0.0,0.0,0.0,0.0,0.0,0.0,0.0,0.0,0.1,119.39,0.0,
6.175,315.0,315.0,0.0,0.0,0.0,0.0,0.0,0.0,0.0,0.0,0.0,0.0,0.1,125.27,0.0,
6.188,315.0,315.0,0.0,0.0,0.0,0.0,0.0,0.0,0.0,0.0,0.0,0.0,0.0,129.59,0.0,
6.201,315.0,315.0,0.0,0.0,0.0,0.0,0.0,0.0,0.0,0.0,0.0,0.0,0.0,132.53,0.0,
6.214,315.0,315.0,0.0,0.0,0.0,0.0,0.0,0.0,0.0,0.0,0.0,0.0,0.0,135.18,0.0,
6.227,315.0,315.0,0.0,0.0,0.0,0.0,0.0,0.0,0.0,0.0,0.0,0.0,0.0,138.81,0.0,
6.24,315.0,315.0,0.0,0.0,0.0,0.0,0.0,0.0,0.0,0.0,0.0,0.0,0.0,139.79,0.0,
6.253,315.0,315.0,0.0,0.0,0.0,0.0,0.0,0.0,0.0,0.0,0.0,0.0,0.1,140.58,0.0,
6.265,315.0,315.0,0.0,0.0,0.0,1.0,0.0,0.0,0.0,0.0,1.0,0.0,0.1,140.97,0.0,
6.279,315.0,315.0,0.0,0.0,0.0,1.0,1.0,0.0,0.0,0.0,1.0,0.0,0.0,140.87,0.0,
6.292,315.0,315.0,0.0,0.0,0.0,1.0,1.0,0.0,0.0,0.0,1.0,0.0,0.0,140.28,0.0,
6.304,315.0,315.0,0.0,0.0,0.0,1.0,1.0,0.0,0.0,0.0,1.0,0.0,0.0,137.93,0.0,
6.318,315.0,315.0,0.0,0.0,0.0,1.0,1.0,0.0,0.0,0.0,1.0,0.0,0.0,136.16,0.0,
6.331,315.0,315.0,0.0,0.0,0.0,1.0,1.0,0.0,0.0,0.0,1.0,0.0,0.0,134.2,0.0,
6.343,315.0,315.0,0.0,0.0,0.0,1.0,1.0,0.0,0.0,0.0,1.0,0.0,0.0,131.75,0.0,
6.356,315.0,315.0,0.0,0.0,0.0,1.0,1.0,0.0,0.0,0.0,1.0,0.0,0.0,128.9,0.0,
6.369,315.0,315.0,0.0,0.0,0.0,1.0,1.0,0.0,0.0,0.0,1.0,0.0,0.1,125.86,0.0,
6.382,315.0,315.0,0.0,0.0,0.0,1.0,1.0,0.0,0.0,0.0,1.0,0.0,0.1,119.0,0.0,
6.395,315.0,315.0,0.0,0.0,0.0,2.0,1.0,0.0,0.0,0.0,1.0,0.0,0.1,115.37,0.0,
6.408,315.0,315.0,0.0,0.0,0.0,2.0,1.0,0.0,0.0,0.0,1.0,0.0,0.1,111.83,0.0,
6.421,315.0,315.0,0.0,0.0,0.0,1.0,1.0,1.0,0.0,0.0,1.0,0.0,0.1,108.5,0.0,
6.434,315.0,315.0,0.0,0.0,0.0,1.0,1.0,0.0,0.0,0.0,1.0,0.0,0.1,105.16,0.0,
6.447,315.0,315.0,0.0,0.0,0.0,1.0,1.0,0.0,0.0,0.0,1.0,0.0,0.1,102.02,0.0,
6.46,315.0,315.0,0.0,0.0,0.0,1.0,1.0,0.0,0.0,0.0,1.0,0.0,0.0,95.55,0.0,
6.472,315.0,315.0,0.0,0.0,0.0,1.0,1.0,0.0,0.0,0.0,1.0,0.0,0.1,92.51,0.0,
6.486,315.0,315.0,0.0,0.0,0.0,1.0,1.0,0.0,0.0,0.0,0.0,0.0,0.2,89.66,0.0,
6.498,315.0,315.0,0.0,0.0,0.0,1.0,1.0,0.0,0.0,0.0,0.0,0.0,0.2,87.01,0.0,
6.511,315.0,315.0,0.0,0.0,0.0,1.0,1.0,0.0,0.0,0.0,0.0,0.0,0.1,84.56,0.0,
6.523,315.0,315.0,0.0,0.0,0.0,1.0,1.0,0.0,0.0,0.0,0.0,0.0,0.2,81.91,0.0,
6.537,315.0,315.0,0.0,0.0,0.0,1.0,1.0,0.0,0.0,0.0,0.0,0.0,0.2,77.6,0.0,
6.549,315.0,315.0,0.0,0.0,0.0,0.0,1.0,0.0,0.0,0.0,0.0,0.0,0.2,75.83,0.0,
6.562,315.0,315.0,0.0,0.0,0.0,0.0,1.0,0.0,0.0,0.0,0.0,0.0,0.2,73.87,0.0,
6.576,315.0,315.0,0.0,0.0,0.0,0.0,1.0,0.0,0.0,0.0,0.0,0.0,0.2,71.51,0.0,
6.588,315.0,315.0,0.0,0.0,0.0,1.0,1.0,0.0,0.0,0.0,0.0,0.0,0.2,68.18,0.0,
6.601,315.0,315.0,0.0,0.0,0.0,1.0,1.0,0.0,0.0,0.0,0.0,0.0,0.2,64.45,0.0,
6.614,315.0,315.0,0.0,0.0,0.0,1.0,1.0,0.0,0.0,0.0,0.0,0.0,0.39,56.8,0.0,
6.627,315.0,315.0,0.0,0.0,0.0,0.0,1.0,0.0,0.0,0.0,0.0,0.0,0.49,53.66,0.0,
6.639,315.0,315.0,0.0,0.0,0.0,0.0,1.0,0.0,0.0,0.0,0.0,0.0,0.49,50.91,0.0,
6.652,315.0,315.0,0.0,0.0,0.0,0.0,1.0,0.0,0.0,0.0,0.0,0.0,0.49,48.27,0.0,
6.665,315.0,315.0,0.0,0.0,0.0,0.0,1.0,0.0,0.0,0.0,0.0,0.0,0.59,45.42,0.0,
6.678,315.0,315.0,0.0,0.0,0.0,0.0,1.0,0.0,0.0,0.0,0.0,0.0,0.59,42.28,0.0,
6.69,315.0,315.0,0.0,0.0,0.0,0.0,1.0,0.0,0.0,0.0,0.0,0.0,0.59,38.75,0.0,
6.704,315.0,315.0,0.0,0.0,0.0,0.0,1.0,0.0,0.0,0.0,0.0,0.0,0.69,31.88,0.0,
6.716,315.0,315.0,0.0,0.0,0.0,0.0,1.0,0.0,0.0,0.0,0.0,0.0,0.78,28.74,0.0,
6.729,315.0,315.0,0.0,0.0,0.0,0.0,1.0,0.0,0.0,0.0,0.0,0.0,0.88,26.0,0.0,
6.742,315.0,315.0,0.0,0.0,0.0,0.0,0.0,0.0,0.0,0.0,0.0,0.0,1.08,24.13,0.0,
6.755,315.0,315.0,0.0,0.0,0.0,0.0,0.0,0.0,0.0,0.0,0.0,0.0,1.08,22.96,0.0,
6.768,315.0,315.0,0.0,0.0,0.0,0.0,0.0,0.0,0.0,0.0,0.0,0.0,1.08,21.97,0.0,
6.78,315.0,315.0,0.0,0.0,0.0,0.0,0.0,0.0,0.0,0.0,0.0,0.0,1.08,20.6,0.0,
6.794,315.0,315.0,0.0,0.0,0.0,0.0,1.0,0.0,0.0,0.0,0.0,0.0,0.98,20.11,0.0,
6.806,315.0,315.0,0.0,0.0,0.0,0.0,1.0,0.0,0.0,0.0,0.0,0.0,1.08,19.82,0.0,
6.819,315.0,315.0,0.0,0.0,0.0,0.0,1.0,0.0,0.0,0.0,0.0,0.0,1.08,19.82,0.0,
6.832,315.0,315.0,0.0,0.0,0.0,0.0,1.0,0.0,0.0,0.0,0.0,0.0,1.18,19.82,0.0,
6.845,315.0,315.0,0.0,0.0,0.0,0.0,1.0,0.0,0.0,0.0,0.0,0.0,1.37,20.01,0.0,
6.857,315.0,315.0,0.0,0.0,0.0,0.0,1.0,0.0,0.0,0.0,0.0,0.0,1.57,20.5,0.0,
6.871,315.0,315.0,0.0,0.0,0.0,0.0,1.0,0.0,0.0,0.0,0.0,0.0,1.86,20.4,0.0,
6.884,315.0,315.0,0.0,0.0,0.0,0.0,1.0,0.0,0.0,0.0,0.0,0.0,2.16,20.6,0.0,
6.896,315.0,315.0,0.0,0.0,0.0,1.0,1.0,0.0,0.0,0.0,0.0,0.0,2.26,21.48,0.0,
6.909,315.0,315.0,0.0,0.0,0.0,1.0,1.0,0.0,0.0,0.0,0.0,0.0,2.35,23.25,0.0,
6.922,315.0,315.0,0.0,0.0,0.0,1.0,1.0,0.0,1.0,0.0,1.0,0.0,2.55,25.51,0.0,
6.935,315.0,315.0,0.0,0.0,0.0,1.0,1.0,1.0,1.0,0.0,1.0,0.0,2.75,28.35,0.0,
6.947,315.0,315.0,0.0,0.0,0.0,1.0,2.0,1.0,1.0,1.0,1.0,0.0,3.14,36.3,0.0,
6.961,315.0,315.0,0.0,0.0,0.0,2.0,2.0,1.0,1.0,1.0,1.0,0.0,3.83,41.1,0.0,
6.973,315.0,315.0,0.0,0.0,0.0,2.0,2.0,1.0,1.0,2.0,1.0,0.0,5.59,46.4,0.0,
6.986,315.0,315.0,0.0,0.0,0.0,2.0,2.0,1.0,1.0,2.0,1.0,0.0,6.47,51.89,0.0,
6.999,315.0,315.0,0.0,0.0,0.0,3.0,3.0,2.0,1.0,2.0,1.0,1.0,7.46,57.29,0.0,
7.012,315.0,315.0,0.0,0.0,0.0,3.0,3.0,2.0,2.0,3.0,2.0,1.0,8.44,62.59,0.0,
7.024,315.0,315.0,0.0,0.0,0.0,3.0,3.0,2.0,2.0,3.0,2.0,1.0,9.32,75.14,0.0,
7.037,315.0,315.0,0.0,0.0,0.0,3.0,4.0,2.0,2.0,3.0,2.0,1.0,10.01,82.21,0.0,
7.051,315.0,315.0,0.0,0.0,0.0,4.0,4.0,2.0,2.0,4.0,2.0,1.0,10.69,89.37,0.0,
7.063,315.0,315.0,0.0,0.0,0.0,4.0,4.0,3.0,2.0,4.0,2.0,1.0,11.67,96.33,0.0,
7.076,315.0,315.0,0.0,0.0,0.0,4.0,4.0,3.0,2.0,4.0,2.0,1.0,12.07,103.1,0.0,
7.09,315.0,315.0,0.0,0.0,0.0,4.0,4.0,3.0,2.0,4.0,2.0,1.0,12.36,109.19,0.0,
7.102,315.0,315.0,0.0,0.0,0.0,4.0,4.0,3.0,2.0,4.0,2.0,1.0,12.56,118.7,0.0,
7.115,315.0,315.0,0.0,0.0,0.0,4.0,4.0,3.0,2.0,4.0,2.0,1.0,12.75,122.33,0.0,
7.129,315.0,315.0,0.0,0.0,0.0,4.0,4.0,3.0,2.0,4.0,2.0,1.0,12.95,125.86,0.0,
7.141,315.0,315.0,0.0,0.0,0.0,4.0,4.0,3.0,2.0,5.0,3.0,1.0,13.05,129.1,0.0,
7.154,315.0,315.0,0.0,0.0,0.0,4.0,4.0,3.0,2.0,4.0,3.0,1.0,13.05,131.94,0.0,
7.168,315.0,315.0,0.0,0.0,0.0,4.0,4.0,3.0,2.0,4.0,3.0,1.0,13.05,134.5,0.0,
7.18,315.0,315.0,0.0,0.0,0.0,4.0,4.0,3.0,2.0,4.0,3.0,1.0,12.85,137.93,0.0,
7.193,315.0,315.0,0.0,0.0,0.0,4.0,4.0,3.0,3.0,4.0,3.0,1.0,12.65,138.52,0.0,
7.206,315.0,315.0,0.0,0.0,0.0,4.0,5.0,3.0,3.0,4.0,3.0,1.0,12.46,138.32,0.0,
7.22,315.0,315.0,0.0,0.0,0.0,4.0,5.0,3.0,3.0,4.0,3.0,1.0,12.56,137.73,0.0,
7.232,315.0,315.0,0.0,0.0,0.0,4.0,5.0,3.0,3.0,4.0,3.0,1.0,12.56,136.85,0.0,
7.245,315.0,315.0,0.0,0.0,0.0,5.0,5.0,3.0,3.0,4.0,3.0,1.0,12.65,135.67,0.0,
7.259,315.0,315.0,0.0,0.0,0.0,5.0,5.0,3.0,3.0,5.0,3.0,1.0,12.85,132.24,0.0,
7.271,315.0,315.0,0.0,0.0,0.0,5.0,5.0,3.0,3.0,5.0,3.0,1.0,13.05,130.77,0.0,
7.284,315.0,315.0,0.0,0.0,0.0,5.0,5.0,3.0,3.0,5.0,3.0,1.0,13.34,129.59,0.0,
7.298,315.0,315.0,0.0,0.0,0.0,5.0,5.0,3.0,3.0,5.0,3.0,1.0,13.64,128.61,0.0,
7.311,315.0,315.0,0.0,0.0,0.0,5.0,5.0,3.0,3.0,5.0,3.0,1.0,13.93,127.43,0.0,
7.323,315.0,315.0,0.0,0.0,0.0,5.0,5.0,3.0,3.0,5.0,3.0,2.0,14.42,125.86,0.0,
7.336,315.0,315.0,0.0,0.0,0.0,5.0,5.0,3.0,3.0,5.0,3.0,2.0,14.81,121.74,0.0,
7.35,315.0,315.0,0.0,0.0,0.0,5.0,5.0,3.0,3.0,6.0,3.0,2.0,15.11,119.19,0.0,
7.362,315.0,315.0,0.0,0.0,0.0,5.0,5.0,3.0,3.0,6.0,3.0,2.0,15.5,116.25,0.0,
7.375,315.0,315.0,0.0,0.0,0.0,5.0,5.0,3.0,3.0,6.0,3.0,2.0,15.89,113.11,0.0,
7.389,315.0,315.0,0.0,0.0,0.0,5.0,5.0,3.0,3.0,6.0,3.0,2.0,16.38,109.87,0.0,
7.401,315.0,315.0,0.0,0.0,0.0,5.0,6.0,3.0,3.0,6.0,3.0,2.0,17.46,103.69,0.0,
7.414,315.0,315.0,0.0,0.0,0.0,5.0,6.0,4.0,3.0,6.0,3.0,2.0,18.05,100.94,0.0,
7.428,315.0,315.0,0.0,0.0,0.0,5.0,6.0,4.0,3.0,6.0,3.0,2.0,18.54,98.39,0.0,
7.44,315.0,315.0,0.0,0.0,0.0,5.0,6.0,4.0,3.0,6.0,3.0,2.0,18.84,95.75,0.0,
7.453,315.0,315.0,0.0,0.0,0.0,5.0,6.0,4.0,3.0,6.0,3.0,2.0,19.13,92.8,0.0,
7.467,315.0,315.0,0.0,0.0,0.0,5.0,6.0,4.0,3.0,6.0,3.0,2.0,19.33,89.37,0.0,
7.479,315.0,315.0,0.0,0.0,0.0,5.0,6.0,4.0,3.0,7.0,3.0,2.0,19.42,81.91,0.0,
7.492,315.0,315.0,0.0,0.0,0.0,5.0,6.0,4.0,3.0,7.0,3.0,2.0,19.42,78.09,0.0,
7.504,315.0,315.0,0.0,0.0,0.0,5.0,6.0,4.0,3.0,6.0,3.0,2.0,19.42,74.36,0.0,
7.518,315.0,315.0,0.0,0.0,0.0,5.0,6.0,4.0,3.0,6.0,3.0,2.0,19.42,70.93,0.0,
7.531,315.0,315.0,0.0,0.0,0.0,5.0,6.0,4.0,3.0,6.0,3.0,2.0,19.33,67.79,0.0,
7.543,315.0,315.0,0.0,0.0,0.0,5.0,6.0,4.0,3.0,6.0,3.0,2.0,19.23,65.14,0.0,
7.557,315.0,315.0,0.0,0.0,0.0,5.0,6.0,4.0,3.0,6.0,3.0,2.0,19.03,60.33,0.0,
7.57,315.0,315.0,0.0,0.0,0.0,5.0,6.0,3.0,3.0,6.0,3.0,2.0,18.84,58.47,0.0,
7.582,315.0,315.0,0.0,0.0,0.0,5.0,5.0,3.0,3.0,6.0,3.0,2.0,18.34,56.8,0.0,
7.596,315.0,315.0,0.0,0.0,0.0,5.0,5.0,3.0,3.0,6.0,3.0,2.0,18.15,55.33,0.0,
7.608,315.0,315.0,0.0,0.0,0.0,5.0,5.0,3.0,3.0,6.0,3.0,2.0,17.85,53.86,0.0,
7.621,315.0,315.0,0.0,0.0,0.0,5.0,5.0,3.0,3.0,6.0,3.0,2.0,17.66,52.19,0.0,
7.634,315.0,315.0,0.0,0.0,0.0,5.0,5.0,3.0,3.0,6.0,3.0,2.0,17.46,48.17,0.0,
7.647,315.0,315.0,0.0,0.0,0.0,5.0,5.0,3.0,3.0,6.0,3.0,2.0,17.36,45.91,0.0,
7.66,315.0,315.0,0.0,0.0,0.0,5.0,5.0,3.0,3.0,6.0,3.0,2.0,17.36,43.75,0.0,
7.673,315.0,315.0,0.0,0.0,0.0,5.0,5.0,3.0,3.0,6.0,3.0,2.0,17.46,41.4,0.0,
7.686,315.0,315.0,0.0,0.0,0.0,4.0,5.0,3.0,3.0,6.0,3.0,2.0,17.36,39.34,0.0,
7.699,315.0,315.0,0.0,0.0,0.0,5.0,5.0,3.0,3.0,6.0,3.0,2.0,17.36,37.47,0.0,
7.711,315.0,315.0,0.0,0.0,0.0,4.0,5.0,3.0,3.0,6.0,4.0,2.0,17.27,34.04,0.0,
7.725,315.0,315.0,0.0,0.0,0.0,4.0,5.0,3.0,3.0,6.0,4.0,2.0,17.36,32.27,0.0,
7.738,315.0,315.0,0.0,0.0,0.0,4.0,5.0,3.0,3.0,6.0,4.0,2.0,17.36,30.41,0.0,
7.75,315.0,315.0,0.0,0.0,0.0,4.0,5.0,3.0,3.0,6.0,4.0,2.0,17.56,28.74,0.0,
7.763,315.0,315.0,0.0,0.0,0.0,4.0,5.0,3.0,3.0,6.0,4.0,2.0,17.76,27.17,0.0,
7.776,315.0,315.0,0.0,0.0,0.0,4.0,5.0,3.0,3.0,6.0,4.0,2.0,17.95,25.6,0.0,
7.789,315.0,315.0,0.0,0.0,0.0,4.0,5.0,3.0,3.0,6.0,4.0,2.0,18.25,24.03,0.0,
7.802,315.0,315.0,0.0,0.0,0.0,4.0,5.0,3.0,3.0,6.0,4.0,2.0,18.44,20.9,0.0,
7.815,315.0,315.0,0.0,0.0,0.0,4.0,5.0,3.0,3.0,5.0,4.0,2.0,18.74,19.52,0.0,
7.828,315.0,315.0,0.0,0.0,0.0,4.0,5.0,3.0,3.0,5.0,4.0,2.0,19.23,18.34,0.0,
7.841,315.0,315.0,0.0,0.0,0.0,4.0,5.0,3.0,3.0,5.0,4.0,2.0,19.82,17.07,0.0,
7.854,315.0,315.0,0.0,0.0,0.0,4.0,5.0,3.0,3.0,5.0,4.0,2.0,20.11,15.99,0.0,
7.867,315.0,315.0,0.0,0.0,0.0,4.0,5.0,3.0,3.0,5.0,4.0,2.0,20.4,15.01,0.0,
7.879,315.0,315.0,0.0,0.0,0.0,4.0,5.0,3.0,3.0,5.0,4.0,2.0,20.6,13.54,0.0,
7.892,315.0,315.0,0.0,0.0,0.0,4.0,5.0,3.0,3.0,5.0,4.0,2.0,20.7,12.95,0.0,
7.906,315.0,315.0,0.0,0.0,0.0,4.0,5.0,3.0,3.0,5.0,4.0,2.0,20.9,12.46,0.0,
7.918,315.0,315.0,0.0,0.0,0.0,4.0,5.0,3.0,3.0,5.0,4.0,2.0,21.09,12.07,0.0,
7.931,315.0,315.0,0.0,0.0,0.0,4.0,5.0,3.0,3.0,5.0,4.0,2.0,21.09,11.87,0.0,
7.944,315.0,315.0,0.0,0.0,0.0,4.0,5.0,3.0,3.0,5.0,4.0,2.0,21.09,11.77,0.0,
7.957,315.0,315.0,0.0,0.0,0.0,4.0,5.0,3.0,3.0,5.0,4.0,2.0,20.9,11.58,0.0,
7.97,315.0,315.0,0.0,0.0,0.0,4.0,5.0,3.0,3.0,5.0,4.0,2.0,20.8,11.58,0.0,
7.983,315.0,315.0,0.0,0.0,0.0,4.0,4.0,3.0,3.0,5.0,4.0,2.0,20.6,11.58,0.0,
7.996,315.0,315.0,0.0,0.0,0.0,4.0,4.0,3.0,3.0,5.0,4.0,2.0,20.4,11.58,0.0,
8.009,315.0,315.0,0.0,0.0,0.0,4.0,4.0,3.0,3.0,5.0,4.0,2.0,20.31,11.58,0.0,
8.022,315.0,315.0,0.0,0.0,0.0,4.0,4.0,3.0,3.0,5.0,4.0,2.0,19.91,11.48,0.0,
8.035,315.0,315.0,0.0,0.0,0.0,4.0,4.0,3.0,3.0,5.0,4.0,2.0,19.72,11.18,0.0,
8.047,315.0,315.0,0.0,0.0,0.0,3.0,4.0,3.0,3.0,5.0,4.0,2.0,19.52,10.99,0.0,
8.06,315.0,315.0,0.0,0.0,0.0,3.0,4.0,3.0,3.0,5.0,4.0,2.0,19.33,10.79,0.0,
8.074,315.0,315.0,0.0,0.0,0.0,3.0,4.0,3.0,3.0,5.0,4.0,2.0,19.13,10.59,0.0,
8.086,315.0,315.0,0.0,0.0,0.0,3.0,4.0,3.0,3.0,5.0,4.0,2.0,18.93,10.3,0.0,
8.099,315.0,315.0,0.0,0.0,0.0,3.0,4.0,3.0,3.0,5.0,4.0,2.0,18.74,10.1,0.0,
8.112,315.0,315.0,0.0,0.0,0.0,3.0,4.0,3.0,3.0,5.0,4.0,2.0,18.44,9.61,0.0,
8.125,315.0,315.0,0.0,0.0,0.0,3.0,4.0,3.0,3.0,5.0,4.0,2.0,18.25,9.32,0.0,
8.138,315.0,315.0,0.0,0.0,0.0,3.0,4.0,3.0,3.0,5.0,4.0,2.0,18.05,9.22,0.0,
8.151,315.0,315.0,0.0,0.0,0.0,3.0,4.0,3.0,3.0,5.0,4.0,2.0,17.95,9.12,0.0,
8.164,315.0,315.0,0.0,0.0,0.0,3.0,4.0,3.0,3.0,5.0,4.0,2.0,17.85,9.12,0.0,
8.176,315.0,315.0,0.0,0.0,0.0,3.0,4.0,3.0,3.0,5.0,4.0,2.0,17.76,9.12,0.0,
8.189,315.0,315.0,0.0,0.0,0.0,3.0,4.0,3.0,3.0,5.0,4.0,2.0,17.56,9.22,0.0,
8.202,315.0,315.0,0.0,0.0,0.0,3.0,4.0,3.0,3.0,5.0,4.0,2.0,17.66,9.22,0.0,
8.215,315.0,315.0,0.0,0.0,0.0,3.0,4.0,3.0,3.0,5.0,4.0,2.0,17.66,9.22,0.0,
8.227,315.0,315.0,0.0,0.0,0.0,3.0,4.0,3.0,3.0,5.0,4.0,2.0,17.66,9.22,0.0,
8.241,315.0,315.0,0.0,0.0,0.0,3.0,4.0,3.0,3.0,5.0,4.0,2.0,17.66,9.22,0.0,
8.253,315.0,315.0,0.0,0.0,0.0,3.0,4.0,3.0,3.0,5.0,4.0,2.0,17.66,9.12,0.0,
8.266,315.0,315.0,0.0,0.0,0.0,3.0,4.0,3.0,3.0,5.0,4.0,2.0,17.66,9.12,0.0,
8.279,315.0,315.0,0.0,0.0,0.0,3.0,4.0,3.0,3.0,5.0,4.0,2.0,17.66,9.32,0.0,
8.292,315.0,315.0,0.0,0.0,0.0,3.0,4.0,3.0,3.0,5.0,4.0,2.0,17.56,9.42,0.0,
8.305,315.0,315.0,0.0,0.0,0.0,3.0,4.0,3.0,3.0,5.0,4.0,2.0,17.56,9.42,0.0,
8.317,315.0,315.0,0.0,0.0,0.0,3.0,4.0,3.0,3.0,5.0,4.0,2.0,17.56,9.42,0.0,
8.331,315.0,315.0,0.0,0.0,0.0,3.0,4.0,3.0,3.0,5.0,4.0,2.0,17.46,9.32,0.0,
8.343,315.0,315.0,0.0,0.0,0.0,3.0,4.0,3.0,3.0,5.0,4.0,2.0,17.46,9.42,0.0,
8.356,315.0,315.0,0.0,0.0,0.0,3.0,4.0,3.0,3.0,5.0,4.0,2.0,17.36,9.52,0.0,
8.369,315.0,315.0,0.0,0.0,0.0,3.0,4.0,3.0,3.0,5.0,4.0,2.0,17.27,9.61,0.0,
8.382,315.0,315.0,0.0,0.0,0.0,3.0,4.0,3.0,3.0,5.0,4.0,2.0,17.27,9.81,0.0,
8.394,315.0,315.0,0.0,0.0,0.0,3.0,4.0,3.0,3.0,5.0,4.0,2.0,17.17,10.1,0.0,
8.408,315.0,315.0,0.0,0.0,0.0,3.0,4.0,3.0,3.0,5.0,4.0,2.0,17.07,10.4,0.0,
8.42,315.0,315.0,0.0,0.0,0.0,3.0,4.0,3.0,3.0,5.0,4.0,2.0,17.07,10.79,0.0,
8.433,315.0,315.0,0.0,0.0,0.0,3.0,4.0,3.0,3.0,5.0,4.0,2.0,17.07,11.67,0.0,
8.446,315.0,315.0,0.0,0.0,0.0,3.0,4.0,3.0,3.0,5.0,4.0,2.0,16.97,12.07,0.0,
8.459,315.0,315.0,0.0,0.0,0.0,3.0,4.0,3.0,3.0,5.0,4.0,2.0,16.97,12.36,0.0,
8.472,315.0,315.0,0.0,0.0,0.0,3.0,4.0,3.0,3.0,5.0,4.0,2.0,16.78,12.65,0.0,
8.485,315.0,315.0,0.0,0.0,0.0,3.0,4.0,3.0,3.0,5.0,4.0,2.0,16.68,13.05,0.0,
8.498,315.0,315.0,0.0,0.0,0.0,3.0,4.0,3.0,3.0,5.0,4.0,2.0,16.58,13.44,0.0,
8.511,315.0,315.0,0.0,0.0,0.0,3.0,4.0,3.0,3.0,5.0,4.0,2.0,16.58,14.32,0.0,
8.523,315.0,315.0,0.0,0.0,0.0,3.0,4.0,3.0,3.0,5.0,4.0,2.0,16.48,14.81,0.0,
8.537,315.0,315.0,0.0,0.0,0.0,3.0,4.0,3.0,3.0,5.0,4.0,2.0,16.38,15.21,0.0,
8.55,315.0,315.0,0.0,0.0,0.0,3.0,4.0,3.0,3.0,5.0,4.0,2.0,16.19,15.79,0.0,
8.562,315.0,315.0,0.0,0.0,0.0,3.0,4.0,3.0,3.0,5.0,4.0,2.0,15.99,16.28,0.0,
8.576,315.0,315.0,0.0,0.0,0.0,3.0,4.0,3.0,3.0,5.0,4.0,2.0,15.89,16.78,0.0,
8.589,315.0,315.0,0.0,0.0,0.0,3.0,4.0,3.0,3.0,5.0,4.0,2.0,15.89,17.85,0.0,
8.601,315.0,315.0,0.0,0.0,0.0,4.0,4.0,3.0,3.0,5.0,4.0,2.0,15.89,18.34,0.0,
8.614,315.0,315.0,0.0,0.0,0.0,4.0,4.0,3.0,3.0,5.0,4.0,2.0,15.89,18.93,0.0,
8.627,315.0,315.0,0.0,0.0,0.0,4.0,4.0,3.0,3.0,5.0,4.0,2.0,15.79,19.52,0.0,
8.64,315.0,315.0,0.0,0.0,0.0,4.0,4.0,3.0,3.0,5.0,4.0,2.0,15.7,20.21,0.0,
8.653,315.0,315.0,0.0,0.0,0.0,4.0,4.0,3.0,3.0,5.0,4.0,2.0,15.3,20.9,0.0,
8.666,315.0,315.0,0.0,0.0,0.0,4.0,4.0,3.0,3.0,5.0,4.0,2.0,15.11,22.76,0.0,
8.679,315.0,315.0,0.0,0.0,0.0,4.0,4.0,3.0,3.0,5.0,3.0,2.0,14.91,24.03,0.0,
8.691,315.0,315.0,0.0,0.0,0.0,4.0,4.0,3.0,3.0,5.0,3.0,2.0,14.62,25.31,0.0,
8.705,315.0,315.0,0.0,0.0,0.0,4.0,4.0,3.0,3.0,4.0,3.0,2.0,14.32,26.88,0.0,
8.718,315.0,315.0,0.0,0.0,0.0,4.0,4.0,3.0,3.0,4.0,3.0,2.0,14.03,28.55,0.0,
8.73,315.0,315.0,0.0,0.0,0.0,4.0,4.0,3.0,3.0,4.0,3.0,2.0,13.73,30.02,0.0,
8.743,315.0,315.0,0.0,0.0,0.0,4.0,4.0,3.0,3.0,4.0,3.0,2.0,13.44,31.59,0.0,
8.757,315.0,315.0,0.0,0.0,0.0,4.0,4.0,3.0,3.0,4.0,3.0,2.0,13.34,31.88,0.0,
8.769,315.0,315.0,0.0,0.0,0.0,4.0,4.0,3.0,3.0,4.0,3.0,2.0,13.15,32.18,0.0,
8.782,315.0,315.0,0.0,0.0,0.0,4.0,4.0,3.0,3.0,4.0,3.0,2.0,13.05,32.37,0.0,
8.795,315.0,315.0,0.0,0.0,0.0,4.0,4.0,3.0,3.0,4.0,3.0,2.0,12.95,32.77,0.0,
8.808,315.0,315.0,0.0,0.0,0.0,4.0,4.0,3.0,3.0,4.0,3.0,2.0,12.85,33.16,0.0,
8.821,315.0,315.0,0.0,0.0,0.0,4.0,4.0,3.0,3.0,4.0,3.0,1.0,12.65,33.55,0.0,
8.834,315.0,315.0,0.0,0.0,0.0,4.0,4.0,3.0,3.0,4.0,3.0,1.0,12.46,33.65,0.0,
8.847,315.0,315.0,0.0,0.0,0.0,4.0,4.0,3.0,3.0,4.0,3.0,1.0,12.46,33.55,0.0,
8.859,315.0,315.0,0.0,0.0,0.0,4.0,4.0,3.0,3.0,4.0,3.0,1.0,12.36,33.16,0.0,
8.872,315.0,315.0,0.0,0.0,0.0,3.0,4.0,3.0,3.0,4.0,3.0,1.0,12.36,32.96,0.0,
8.886,315.0,315.0,0.0,0.0,0.0,4.0,4.0,3.0,3.0,4.0,3.0,1.0,12.36,32.57,0.0,
8.898,315.0,315.0,0.0,0.0,0.0,4.0,4.0,3.0,3.0,4.0,3.0,1.0,12.36,32.18,0.0,
8.911,315.0,315.0,0.0,0.0,0.0,4.0,4.0,3.0,3.0,4.0,3.0,1.0,12.56,31.39,0.0,
8.925,315.0,315.0,0.0,0.0,0.0,4.0,4.0,3.0,3.0,4.0,3.0,2.0,12.65,31.0,0.0,
8.937,315.0,315.0,0.0,0.0,0.0,4.0,4.0,3.0,3.0,4.0,3.0,2.0,12.65,30.51,0.0,
8.95,315.0,315.0,0.0,0.0,0.0,3.0,4.0,3.0,3.0,4.0,3.0,2.0,12.65,29.92,0.0,
8.963,315.0,315.0,0.0,0.0,0.0,3.0,4.0,3.0,3.0,4.0,3.0,2.0,12.75,29.33,0.0,
8.976,315.0,315.0,0.0,0.0,0.0,4.0,4.0,3.0,3.0,4.0,3.0,2.0,12.75,28.74,0.0,
8.989,315.0,315.0,0.0,0.0,0.0,4.0,4.0,3.0,3.0,4.0,3.0,2.0,12.85,27.57,0.0,
9.001,315.0,315.0,0.0,0.0,0.0,3.0,4.0,3.0,3.0,4.0,3.0,2.0,13.05,26.88,0.0,
9.015,315.0,315.0,0.0,0.0,0.0,4.0,4.0,3.0,3.0,4.0,3.0,2.0,13.15,26.29,0.0,
9.027,315.0,315.0,0.0,0.0,0.0,3.0,4.0,3.0,3.0,4.0,3.0,2.0,13.15,25.7,0.0,
9.04,315.0,315.0,0.0,0.0,0.0,3.0,4.0,3.0,3.0,4.0,3.0,2.0,13.24,25.21,0.0,
9.054,315.0,315.0,0.0,0.0,0.0,3.0,4.0,3.0,3.0,4.0,3.0,2.0,13.24,24.82,0.0,
9.066,315.0,315.0,0.0,0.0,0.0,4.0,4.0,3.0,3.0,4.0,3.0,2.0,13.24,24.23,0.0,
9.079,315.0,315.0,0.0,0.0,0.0,4.0,4.0,3.0,3.0,4.0,3.0,2.0,13.24,23.94,0.0,
9.093,315.0,315.0,0.0,0.0,0.0,3.0,4.0,3.0,3.0,4.0,3.0,2.0,13.24,23.74,0.0,
9.105,315.0,315.0,0.0,0.0,0.0,4.0,4.0,3.0,3.0,4.0,3.0,2.0,13.15,23.54,0.0,
9.118,315.0,315.0,0.0,0.0,0.0,4.0,4.0,3.0,3.0,4.0,3.0,2.0,13.24,23.35,0.0,
9.131,315.0,315.0,0.0,0.0,0.0,4.0,4.0,3.0,3.0,4.0,3.0,2.0,13.34,23.25,0.0,
9.144,315.0,315.0,0.0,0.0,0.0,4.0,4.0,3.0,3.0,4.0,3.0,2.0,13.34,22.96,0.0,
9.157,315.0,315.0,0.0,0.0,0.0,4.0,4.0,3.0,3.0,4.0,3.0,2.0,13.34,22.86,0.0,
9.169,315.0,315.0,0.0,0.0,0.0,4.0,4.0,3.0,3.0,4.0,3.0,2.0,13.34,22.76,0.0,
9.183,315.0,315.0,0.0,0.0,0.0,4.0,4.0,3.0,3.0,4.0,3.0,2.0,13.54,22.56,0.0,
9.196,315.0,315.0,0.0,0.0,0.0,4.0,4.0,3.0,3.0,4.0,3.0,2.0,13.64,22.46,0.0,
9.208,315.0,315.0,0.0,0.0,0.0,4.0,4.0,3.0,3.0,4.0,3.0,2.0,13.73,22.37,0.0,
9.222,315.0,315.0,0.0,0.0,0.0,4.0,4.0,3.0,3.0,4.0,3.0,2.0,13.93,22.07,0.0,
9.234,315.0,315.0,0.0,0.0,0.0,4.0,4.0,3.0,3.0,5.0,3.0,2.0,14.03,21.97,0.0,
9.247,315.0,315.0,0.0,0.0,0.0,4.0,4.0,3.0,3.0,5.0,3.0,2.0,14.13,21.88,0.0,
9.261,315.0,315.0,0.0,0.0,0.0,4.0,4.0,3.0,3.0,5.0,3.0,2.0,14.32,21.68,0.0,
9.273,315.0,315.0,0.0,0.0,0.0,4.0,4.0,3.0,3.0,5.0,3.0,2.0,14.42,21.48,0.0,
9.286,315.0,315.0,0.0,0.0,0.0,4.0,4.0,3.0,3.0,5.0,3.0,2.0,14.62,21.48,0.0,
9.298,315.0,315.0,0.0,0.0,0.0,4.0,4.0,3.0,3.0,5.0,3.0,2.0,14.62,21.48,0.0,
9.312,315.0,315.0,0.0,0.0,0.0,4.0,4.0,3.0,3.0,5.0,3.0,2.0,14.72,21.48,0.0,
9.325,315.0,315.0,0.0,0.0,0.0,4.0,4.0,3.0,3.0,5.0,4.0,2.0,14.81,21.68,0.0,
9.337,315.0,315.0,0.0,0.0,0.0,4.0,4.0,3.0,3.0,5.0,4.0,2.0,14.91,21.58,0.0,
9.351,315.0,315.0,0.0,0.0,0.0,4.0,4.0,3.0,3.0,5.0,4.0,2.0,14.91,21.58,0.0,
9.364,315.0,315.0,0.0,0.0,0.0,4.0,4.0,3.0,3.0,5.0,4.0,2.0,15.11,21.48,0.0,
9.376,315.0,315.0,0.0,0.0,0.0,4.0,4.0,3.0,3.0,5.0,4.0,2.0,15.21,21.48,0.0,
9.39,315.0,315.0,0.0,0.0,0.0,4.0,4.0,3.0,3.0,5.0,4.0,2.0,15.21,21.48,0.0,
9.402,315.0,315.0,0.0,0.0,0.0,4.0,4.0,3.0,3.0,5.0,4.0,2.0,15.21,21.39,0.0,
9.415,315.0,315.0,0.0,0.0,0.0,4.0,4.0,3.0,3.0,5.0,4.0,2.0,15.11,21.29,0.0,
9.428,315.0,315.0,0.0,0.0,0.0,4.0,4.0,3.0,3.0,5.0,4.0,2.0,15.01,21.29,0.0,
9.441,315.0,315.0,0.0,0.0,0.0,4.0,4.0,3.0,3.0,5.0,4.0,2.0,14.91,21.29,0.0,
9.454,315.0,315.0,0.0,0.0,0.0,4.0,4.0,3.0,3.0,5.0,4.0,2.0,14.81,21.29,0.0,
9.466,315.0,315.0,0.0,0.0,0.0,4.0,4.0,3.0,3.0,5.0,4.0,2.0,14.81,21.19,0.0,
9.48,315.0,315.0,0.0,0.0,0.0,4.0,4.0,3.0,3.0,5.0,4.0,2.0,14.81,21.19,0.0,
9.493,315.0,315.0,0.0,0.0,0.0,4.0,4.0,3.0,3.0,5.0,4.0,2.0,14.81,21.09,0.0,
9.505,315.0,315.0,0.0,0.0,0.0,4.0,4.0,3.0,3.0,5.0,4.0,2.0,14.81,20.99,0.0,
9.519,315.0,315.0,0.0,0.0,0.0,4.0,4.0,3.0,3.0,5.0,4.0,2.0,14.91,20.99,0.0,
9.532,315.0,315.0,0.0,0.0,0.0,4.0,4.0,3.0,3.0,5.0,4.0,2.0,14.72,21.09,0.0,
9.544,315.0,315.0,0.0,0.0,0.0,4.0,4.0,3.0,3.0,5.0,4.0,2.0,14.72,21.19,0.0,
9.558,315.0,315.0,0.0,0.0,0.0,4.0,4.0,3.0,3.0,5.0,4.0,2.0,14.72,21.19,0.0,
9.57,315.0,315.0,0.0,0.0,0.0,4.0,4.0,3.0,3.0,5.0,4.0,2.0,14.81,21.29,0.0,
9.583,315.0,315.0,0.0,0.0,0.0,4.0,4.0,3.0,3.0,5.0,4.0,2.0,14.81,21.29,0.0,
9.596,315.0,315.0,0.0,0.0,0.0,4.0,4.0,3.0,3.0,5.0,4.0,2.0,14.81,21.29,0.0,
9.609,315.0,315.0,0.0,0.0,0.0,4.0,4.0,3.0,3.0,5.0,4.0,2.0,14.81,21.39,0.0,
9.622,315.0,315.0,0.0,0.0,0.0,4.0,4.0,3.0,3.0,5.0,4.0,2.0,14.91,21.48,0.0,
9.634,315.0,315.0,0.0,0.0,0.0,4.0,4.0,3.0,3.0,5.0,4.0,2.0,15.01,21.48,0.0,
9.648,315.0,315.0,0.0,0.0,0.0,4.0,4.0,3.0,3.0,5.0,4.0,2.0,15.11,21.48,0.0,
9.661,315.0,315.0,0.0,0.0,0.0,4.0,4.0,3.0,3.0,5.0,4.0,2.0,15.21,21.39,0.0,
9.673,315.0,315.0,0.0,0.0,0.0,4.0,4.0,3.0,3.0,5.0,4.0,2.0,15.21,21.39,0.0,
9.687,315.0,315.0,0.0,0.0,0.0,4.0,4.0,3.0,3.0,5.0,4.0,2.0,15.3,20.99,0.0,
9.7,315.0,315.0,0.0,0.0,0.0,4.0,4.0,3.0,3.0,5.0,4.0,2.0,15.4,20.7,0.0,
9.712,315.0,315.0,0.0,0.0,0.0,4.0,4.0,3.0,3.0,5.0,4.0,2.0,15.6,20.4,0.0,
9.725,315.0,315.0,0.0,0.0,0.0,4.0,4.0,3.0,3.0,5.0,4.0,2.0,15.7,20.01,0.0,
9.738,315.0,315.0,0.0,0.0,0.0,4.0,4.0,3.0,3.0,5.0,4.0,2.0,15.7,19.72,0.0,
9.751,315.0,315.0,0.0,0.0,0.0,4.0,4.0,3.0,3.0,5.0,4.0,2.0,15.79,19.33,0.0,
9.764,315.0,315.0,0.0,0.0,0.0,4.0,4.0,3.0,3.0,5.0,4.0,2.0,15.79,18.64,0.0,
9.777,315.0,315.0,0.0,0.0,0.0,4.0,4.0,3.0,3.0,5.0,4.0,2.0,15.7,18.25,0.0,
9.79,315.0,315.0,0.0,0.0,0.0,4.0,4.0,3.0,3.0,5.0,4.0,2.0,15.7,17.95,0.0,
9.803,315.0,315.0,0.0,0.0,0.0,4.0,4.0,3.0,3.0,5.0,4.0,2.0,15.7,17.66,0.0,
9.816,315.0,315.0,0.0,0.0,0.0,4.0,4.0,3.0,3.0,5.0,4.0,2.0,15.79,17.17,0.0,
9.829,315.0,315.0,0.0,0.0,0.0,4.0,4.0,3.0,3.0,5.0,4.0,2.0,15.89,16.68,0.0,
9.841,315.0,315.0,0.0,0.0,0.0,4.0,4.0,3.0,3.0,5.0,4.0,2.0,15.99,15.79,0.0,
9.854,315.0,315.0,0.0,0.0,0.0,4.0,4.0,3.0,3.0,5.0,4.0,2.0,16.09,15.4,0.0,
9.868,315.0,315.0,0.0,0.0,0.0,4.0,4.0,3.0,3.0,5.0,4.0,2.0,16.19,15.11,0.0,
9.88,315.0,315.0,0.0,0.0,0.0,4.0,4.0,3.0,3.0,5.0,4.0,2.0,16.28,14.72,0.0,
9.893,315.0,315.0,0.0,0.0,0.0,4.0,4.0,3.0,3.0,5.0,4.0,2.0,16.48,14.42,0.0,
9.906,315.0,315.0,0.0,0.0,0.0,4.0,4.0,3.0,3.0,5.0,4.0,2.0,16.58,14.22,0.0,
9.919,315.0,315.0,0.0,0.0,0.0,4.0,4.0,3.0,3.0,5.0,4.0,2.0,16.68,13.83,0.0,
9.932,315.0,315.0,0.0,0.0,0.0,4.0,4.0,3.0,3.0,5.0,4.0,2.0,16.78,13.64,0.0,
9.945,315.0,315.0,0.0,0.0,0.0,4.0,4.0,3.0,3.0,5.0,4.0,2.0,17.07,13.54,0.0,
9.958,315.0,315.0,0.0,0.0,0.0,4.0,4.0,3.0,3.0,5.0,4.0,2.0,17.36,13.34,0.0,
9.971,315.0,315.0,0.0,0.0,0.0,4.0,4.0,3.0,3.0,5.0,4.0,2.0,17.76,13.15,0.0,
9.984,315.0,315.0,0.0,0.0,0.0,4.0,4.0,3.0,3.0,5.0,4.0,2.0,17.95,13.15,0.0,
9.997,315.0,315.0,0.0,0.0,0.0,4.0,4.0,3.0,3.0,5.0,4.0,2.0,18.15,13.05,0.0,
10.009,315.0,315.0,0.0,0.0,0.0,4.0,4.0,3.0,3.0,5.0,4.0,2.0,18.44,13.05,0.0,
10.022,315.0,315.0,0.0,0.0,0.0,4.0,4.0,3.0,3.0,5.0,4.0,2.0,18.64,13.15,0.0,
10.036,315.0,315.0,0.0,0.0,0.0,4.0,4.0,3.0,3.0,5.0,4.0,2.0,18.84,13.05,0.0,
10.048,315.0,315.0,0.0,0.0,0.0,4.0,4.0,3.0,3.0,5.0,4.0,2.0,19.13,13.05,0.0,
10.061,315.0,315.0,0.0,0.0,0.0,4.0,4.0,3.0,3.0,5.0,4.0,2.0,19.42,13.05,0.0,
10.075,315.0,315.0,0.0,0.0,0.0,4.0,4.0,3.0,3.0,5.0,4.0,2.0,19.52,12.75,0.0,
10.088,315.0,315.0,0.0,0.0,0.0,4.0,4.0,3.0,3.0,5.0,4.0,2.0,19.62,12.75,0.0,
10.1,315.0,315.0,0.0,0.0,0.0,4.0,4.0,3.0,3.0,5.0,4.0,2.0,19.72,12.75,0.0,
10.114,315.0,315.0,0.0,0.0,0.0,4.0,4.0,3.0,3.0,5.0,4.0,2.0,19.72,12.65,0.0,
10.127,315.0,315.0,0.0,0.0,0.0,4.0,4.0,3.0,3.0,5.0,4.0,2.0,19.82,12.65,0.0,
10.139,315.0,315.0,0.0,0.0,0.0,4.0,4.0,3.0,3.0,5.0,4.0,2.0,19.72,12.56,0.0,
10.152,315.0,315.0,0.0,0.0,0.0,4.0,4.0,3.0,3.0,5.0,4.0,2.0,19.82,12.56,0.0,
10.166,315.0,315.0,0.0,0.0,0.0,4.0,4.0,3.0,3.0,5.0,4.0,2.0,19.82,12.46,0.0,
10.179,315.0,315.0,0.0,0.0,0.0,4.0,4.0,3.0,3.0,5.0,4.0,2.0,19.72,12.46,0.0,
10.191,315.0,315.0,0.0,0.0,0.0,4.0,4.0,3.0,3.0,5.0,4.0,2.0,19.82,12.46,0.0,
10.205,315.0,315.0,0.0,0.0,0.0,4.0,4.0,3.0,3.0,5.0,4.0,2.0,19.82,12.36,0.0,
10.218,315.0,315.0,0.0,0.0,0.0,4.0,4.0,3.0,3.0,5.0,4.0,2.0,19.72,12.26,0.0,
10.23,315.0,315.0,0.0,0.0,0.0,4.0,4.0,3.0,3.0,5.0,4.0,2.0,19.91,12.36,0.0,
10.244,315.0,315.0,0.0,0.0,0.0,4.0,5.0,3.0,3.0,5.0,4.0,3.0,20.11,12.26,0.0,
10.257,315.0,315.0,0.0,0.0,0.0,4.0,5.0,3.0,3.0,5.0,4.0,3.0,20.21,12.26,0.0,
10.269,315.0,315.0,0.0,0.0,0.0,4.0,5.0,3.0,3.0,5.0,4.0,3.0,20.4,12.26,0.0,
10.283,315.0,315.0,0.0,0.0,0.0,4.0,5.0,3.0,3.0,5.0,4.0,3.0,20.7,12.16,0.0,
10.296,315.0,315.0,0.0,0.0,0.0,4.0,5.0,3.0,3.0,5.0,4.0,3.0,20.9,12.07,0.0,
10.309,315.0,315.0,0.0,0.0,0.0,4.0,5.0,3.0,3.0,5.0,4.0,3.0,20.9,11.97,0.0,
10.321,315.0,315.0,0.0,0.0,0.0,4.0,5.0,3.0,4.0,6.0,4.0,3.0,21.19,11.97,0.0,
10.335,315.0,315.0,0.0,0.0,0.0,4.0,5.0,3.0,4.0,5.0,5.0,3.0,21.19,11.97,0.0,
10.348,315.0,315.0,0.0,0.0,0.0,4.0,5.0,3.0,4.0,5.0,4.0,3.0,21.29,12.07,0.0,
10.36,315.0,315.0,0.0,0.0,0.0,4.0,5.0,3.0,4.0,5.0,4.0,3.0,21.19,12.26,0.0,
10.374,315.0,315.0,0.0,0.0,0.0,4.0,5.0,3.0,4.0,5.0,4.0,3.0,20.99,12.46,0.0,
10.387,315.0,315.0,0.0,0.0,0.0,4.0,5.0,3.0,4.0,5.0,4.0,2.0,20.6,13.15,0.0,
10.399,315.0,315.0,0.0,0.0,0.0,4.0,5.0,3.0,4.0,5.0,4.0,2.0,19.91,13.44,0.0,
10.413,315.0,315.0,0.0,0.0,0.0,4.0,5.0,3.0,4.0,5.0,4.0,2.0,19.72,13.54,0.0,
10.426,315.0,315.0,0.0,0.0,0.0,4.0,4.0,3.0,3.0,5.0,4.0,2.0,19.42,13.54,0.0,
10.438,315.0,315.0,0.0,0.0,0.0,4.0,4.0,3.0,3.0,5.0,4.0,2.0,19.23,13.64,0.0,
10.451,315.0,315.0,0.0,0.0,0.0,4.0,4.0,3.0,3.0,5.0,4.0,2.0,18.74,14.42,0.0,
10.465,315.0,315.0,0.0,0.0,0.0,4.0,4.0,3.0,3.0,5.0,4.0,2.0,18.15,15.4,0.0,
10.478,315.0,315.0,0.0,0.0,0.0,3.0,4.0,3.0,3.0,4.0,4.0,2.0,17.17,17.07,0.0,
10.49,315.0,315.0,0.0,0.0,0.0,3.0,4.0,3.0,3.0,4.0,4.0,2.0,14.32,19.13,0.0,
10.504,315.0,315.0,0.0,0.0,0.0,4.0,4.0,3.0,3.0,4.0,3.0,2.0,13.54,20.99,0.0,
10.517,315.0,315.0,0.0,0.0,0.0,3.0,4.0,3.0,3.0,4.0,3.0,2.0,13.24,21.97,0.0,
10.529,315.0,315.0,0.0,0.0,0.0,3.0,4.0,3.0,3.0,4.0,3.0,2.0,13.24,21.88,0.0,
10.543,315.0,315.0,0.0,0.0,0.0,3.0,4.0,3.0,3.0,4.0,3.0,2.0,13.15,21.68,0.0,
10.556,315.0,315.0,0.0,0.0,0.0,3.0,4.0,3.0,3.0,4.0,3.0,2.0,13.05,21.68,0.0,
10.568,315.0,315.0,0.0,0.0,0.0,3.0,4.0,2.0,3.0,4.0,3.0,1.0,12.56,21.97,0.0,
10.582,315.0,315.0,0.0,0.0,0.0,3.0,3.0,2.0,3.0,4.0,3.0,1.0,12.07,22.66,0.0,
10.595,315.0,315.0,0.0,0.0,0.0,3.0,3.0,2.0,3.0,3.0,3.0,1.0,11.48,23.84,0.0,
10.608,315.0,315.0,0.0,0.0,0.0,3.0,3.0,2.0,3.0,3.0,3.0,1.0,10.59,26.98,0.0,
10.62,315.0,315.0,0.0,0.0,0.0,3.0,3.0,2.0,2.0,2.0,2.0,1.0,9.52,29.04,0.0,
10.634,315.0,315.0,0.0,0.0,0.0,3.0,3.0,2.0,2.0,2.0,2.0,1.0,8.53,31.59,0.0,
10.647,315.0,315.0,0.0,0.0,0.0,2.0,3.0,2.0,2.0,2.0,2.0,1.0,7.75,34.14,0.0,
10.659,315.0,315.0,0.0,0.0,0.0,2.0,3.0,2.0,2.0,1.0,2.0,1.0,6.67,36.49,0.0,
10.673,315.0,315.0,0.0,0.0,0.0,2.0,2.0,2.0,2.0,1.0,2.0,0.0,6.28,38.75,0.0,
10.685,315.0,315.0,0.0,0.0,0.0,2.0,2.0,2.0,2.0,1.0,2.0,0.0,6.08,43.16,0.0,
10.698,315.0,315.0,0.0,0.0,0.0,2.0,2.0,2.0,2.0,1.0,2.0,0.0,5.89,45.42,0.0,
10.712,315.0,315.0,0.0,0.0,0.0,2.0,2.0,2.0,2.0,1.0,2.0,0.0,5.69,47.68,0.0,
10.724,315.0,315.0,0.0,0.0,0.0,2.0,2.0,1.0,2.0,0.0,1.0,0.0,5.59,50.42,0.0,
10.737,315.0,315.0,0.0,0.0,0.0,2.0,2.0,1.0,2.0,0.0,1.0,0.0,5.4,53.86,0.0,
10.749,315.0,315.0,0.0,0.0,0.0,2.0,2.0,1.0,2.0,0.0,1.0,0.0,5.0,58.37,0.0,
10.763,315.0,315.0,0.0,0.0,0.0,2.0,2.0,1.0,2.0,0.0,1.0,0.0,4.81,70.53,0.0,
10.775,315.0,315.0,0.0,0.0,0.0,2.0,2.0,1.0,2.0,0.0,1.0,0.0,4.41,78.68,0.0,
10.788,315.0,315.0,0.0,0.0,0.0,2.0,2.0,1.0,2.0,0.0,1.0,0.0,4.32,87.9,0.0,
10.802,315.0,315.0,0.0,0.0,0.0,2.0,2.0,1.0,2.0,0.0,1.0,0.0,4.32,97.12,0.0,
10.814,315.0,315.0,0.0,0.0,0.0,1.0,2.0,1.0,2.0,0.0,1.0,0.0,4.12,107.81,0.0,
10.827,315.0,315.0,0.0,0.0,0.0,1.0,2.0,1.0,1.0,0.0,1.0,0.0,3.92,120.76,0.0,
10.841,315.0,315.0,0.0,0.0,0.0,1.0,1.0,1.0,1.0,0.0,1.0,0.0,3.34,150.58,0.0,
10.853,315.0,315.0,0.0,0.0,0.0,1.0,1.0,0.0,1.0,0.0,1.0,0.0,3.14,165.59,0.0,
10.866,315.0,315.0,0.0,0.0,0.0,1.0,1.0,0.0,1.0,0.0,0.0,0.0,2.75,178.84,0.0,
10.88,315.0,315.0,0.0,0.0,0.0,0.0,1.0,0.0,1.0,0.0,0.0,0.0,2.35,189.73,0.0,
10.893,315.0,315.0,0.0,0.0,0.0,0.0,1.0,0.0,0.0,0.0,0.0,0.0,2.06,198.55,0.0,
10.905,315.0,315.0,0.0,0.0,0.0,0.0,1.0,0.0,0.0,0.0,0.0,0.0,1.77,205.81,0.0,
10.918,315.0,315.0,0.0,0.0,0.0,0.0,1.0,0.0,0.0,0.0,0.0,0.0,1.28,215.13,0.0,
10.932,315.0,315.0,0.0,0.0,0.0,0.0,1.0,0.0,0.0,0.0,0.0,0.0,1.18,217.98,0.0,
10.944,315.0,315.0,0.0,0.0,0.0,0.0,1.0,0.0,0.0,0.0,0.0,0.0,0.98,220.14,0.0,
10.957,315.0,315.0,0.0,0.0,0.0,0.0,1.0,0.0,0.0,0.0,0.0,0.0,0.78,221.41,0.0,
10.971,315.0,315.0,0.0,0.0,0.0,0.0,1.0,0.0,0.0,0.0,0.0,0.0,0.69,221.51,0.0,
10.983,315.0,315.0,0.0,0.0,0.0,0.0,1.0,0.0,0.0,0.0,0.0,0.0,0.49,220.33,0.0,
10.996,315.0,315.0,0.0,0.0,0.0,0.0,1.0,0.0,0.0,0.0,0.0,0.0,0.49,214.54,0.0,
11.01,315.0,315.0,0.0,0.0,0.0,0.0,1.0,0.0,0.0,0.0,0.0,0.0,0.39,210.52,0.0,
11.022,315.0,315.0,0.0,0.0,0.0,0.0,1.0,0.0,0.0,0.0,0.0,0.0,0.49,206.11,0.0,
11.035,315.0,315.0,0.0,0.0,0.0,0.0,1.0,0.0,0.0,0.0,0.0,0.0,0.49,201.2,0.0,
11.048,315.0,315.0,0.0,0.0,0.0,0.0,1.0,0.0,0.0,0.0,0.0,0.0,0.49,196.4,0.0,
11.062,315.0,315.0,0.0,0.0,0.0,0.0,1.0,0.0,0.0,0.0,0.0,0.0,0.59,191.59,0.0,
11.074,315.0,315.0,0.0,0.0,0.0,0.0,1.0,0.0,0.0,0.0,0.0,0.0,0.88,183.25,0.0,
11.087,315.0,315.0,0.0,0.0,0.0,1.0,2.0,0.0,0.0,0.0,0.0,0.0,1.18,179.92,0.0,
11.101,315.0,315.0,0.0,0.0,0.0,1.0,2.0,1.0,0.0,0.0,0.0,0.0,1.28,176.68,0.0,
11.113,315.0,315.0,0.0,0.0,0.0,1.0,2.0,1.0,0.0,0.0,0.0,0.0,1.37,173.34,0.0,
11.126,315.0,315.0,0.0,0.0,0.0,1.0,2.0,1.0,0.0,0.0,0.0,0.0,1.67,169.91,0.0,
11.14,315.0,315.0,0.0,0.0,0.0,2.0,2.0,1.0,0.0,0.0,0.0,0.0,1.96,162.55,0.0,
11.153,315.0,315.0,0.0,0.0,0.0,2.0,3.0,2.0,0.0,0.0,0.0,0.0,2.26,158.43,0.0,
11.165,315.0,315.0,0.0,0.0,0.0,3.0,3.0,2.0,1.0,0.0,1.0,0.0,2.65,154.21,0.0,
11.179,315.0,315.0,0.0,0.0,0.0,3.0,4.0,2.0,1.0,0.0,1.0,0.0,4.32,149.21,0.0,
11.192,315.0,315.0,0.0,0.0,0.0,3.0,4.0,2.0,1.0,0.0,1.0,0.0,5.49,142.64,0.0,
11.205,315.0,315.0,0.0,0.0,0.0,4.0,4.0,3.0,2.0,0.0,2.0,0.0,6.97,134.89,0.0,
11.217,315.0,315.0,0.0,0.0,0.0,4.0,5.0,3.0,2.0,0.0,2.0,0.0,8.73,115.37,0.0,
11.231,315.0,315.0,0.0,0.0,0.0,5.0,5.0,3.0,2.0,1.0,3.0,1.0,10.69,103.3,0.0,
11.244,315.0,315.0,0.0,0.0,0.0,5.0,6.0,4.0,3.0,2.0,4.0,1.0,13.15,90.15,0.0,
11.256,315.0,315.0,0.0,0.0,0.0,6.0,6.0,4.0,3.0,3.0,5.0,2.0,19.33,76.22,0.0,
11.27,315.0,315.0,0.0,0.0,0.0,6.0,7.0,4.0,4.0,5.0,5.0,2.0,24.03,62.2,0.0,
11.283,315.0,315.0,0.0,0.0,0.0,6.0,7.0,4.0,4.0,6.0,6.0,2.0,29.72,48.66,0.29,
11.296,315.0,315.0,0.0,0.0,0.0,6.0,8.0,4.0,4.0,7.0,6.0,3.0,35.81,24.82,1.37,
11.309,315.0,315.0,0.0,0.0,0.0,5.0,8.0,4.0,5.0,8.0,7.0,3.0,42.08,15.79,3.24,
11.322,315.0,315.0,0.0,0.0,0.0,5.0,8.0,4.0,5.0,9.0,8.0,4.0,48.36,8.83,3.92,
11.335,315.0,315.0,0.0,0.0,0.0,4.0,8.0,4.0,5.0,10.0,8.0,4.0,59.84,3.92,4.51,
11.347,315.0,315.0,0.0,0.0,0.0,3.0,8.0,4.0,6.0,11.0,9.0,5.0,64.45,1.08,4.81,
11.361,315.0,315.0,0.0,0.0,0.0,1.0,7.0,3.0,6.0,11.0,9.0,5.0,68.57,0.0,5.0,
11.374,315.0,315.0,0.0,0.0,0.0,1.0,6.0,2.0,6.0,0.0,9.0,6.0,72.1,0.0,5.59,
11.386,315.0,315.0,0.0,0.0,0.0,1.0,5.0,0.0,7.0,2.0,10.0,6.0,74.85,0.0,7.16,
11.4,315.0,315.0,0.0,0.0,0.0,1.0,4.0,0.0,7.0,3.0,11.0,6.0,76.62,0.0,7.26,
11.412,315.0,315.0,0.0,0.0,0.0,1.0,2.0,0.0,7.0,4.0,11.0,7.0,77.4,0.0,7.16,
11.425,315.0,315.0,0.0,0.0,0.0,1.0,1.0,0.0,7.0,4.0,11.0,7.0,75.93,0.0,6.87,
11.439,315.0,315.0,0.0,0.0,0.0,1.0,0.0,0.0,7.0,4.0,11.0,7.0,73.97,0.0,5.79,
11.452,315.0,315.0,0.0,0.0,0.0,1.0,0.0,0.0,7.0,3.0,11.0,7.0,71.51,0.0,4.12,
11.464,315.0,315.0,0.0,0.0,0.0,1.0,0.0,0.0,7.0,0.0,10.0,4.0,68.47,0.0,2.45,
11.478,315.0,315.0,0.0,0.0,0.0,1.0,0.0,0.0,7.0,11.0,9.0,6.0,65.04,0.0,2.45,
11.491,315.0,315.0,0.0,0.0,0.0,1.0,0.0,0.0,6.0,10.0,7.0,6.0,60.33,0.0,2.55,
11.503,315.0,315.0,0.0,0.0,0.0,1.0,0.0,0.0,4.0,8.0,4.0,5.0,54.35,0.0,2.65,
11.516,315.0,315.0,0.0,0.0,0.0,1.0,0.0,0.0,1.0,7.0,3.0,4.0,31.59,0.0,2.75,
11.53,315.0,315.0,0.0,0.0,0.0,1.0,0.0,0.0,0.0,7.0,3.0,2.0,19.82,0.0,2.35,
11.542,315.0,315.0,0.0,0.0,0.0,1.0,0.0,0.0,0.0,0.0,2.0,0.0,10.69,0.0,1.28,
11.554,315.0,315.0,0.0,0.0,0.0,1.0,0.0,0.0,0.0,0.0,2.0,0.0,4.32,0.0,1.18,
11.568,315.0,315.0,0.0,0.0,0.0,1.0,0.0,0.0,0.0,0.0,1.0,0.0,1.37,0.0,1.28,
11.581,315.0,315.0,0.0,0.0,0.0,1.0,0.0,0.0,0.0,0.0,1.0,0.0,0.2,0.0,1.28,
11.593,315.0,315.0,0.0,0.0,0.0,1.0,0.0,0.0,0.0,0.0,1.0,0.0,0.0,0.0,1.57,
11.607,315.0,315.0,0.0,0.0,0.0,1.0,0.0,0.0,0.0,0.0,0.0,0.0,0.0,0.0,1.77,
11.619,315.0,315.0,0.0,0.0,0.0,1.0,0.0,0.0,0.0,0.0,0.0,0.0,0.0,0.0,1.57,
11.632,315.0,315.0,0.0,0.0,0.0,1.0,0.0,0.0,0.0,0.0,0.0,0.0,0.49,0.0,1.47,
11.644,315.0,315.0,0.0,0.0,0.0,1.0,0.0,0.0,0.0,0.0,0.0,0.0,0.69,0.0,1.28,
11.658,315.0,315.0,0.0,0.0,0.0,1.0,0.0,0.0,0.0,0.0,0.0,0.0,0.78,0.0,1.18,
11.67,315.0,315.0,0.0,0.0,0.0,1.0,0.0,0.0,0.0,0.0,0.0,0.0,0.98,0.0,1.08,
11.683,315.0,315.0,0.0,0.0,0.0,1.0,0.0,0.0,0.0,0.0,0.0,0.0,0.98,0.0,0.98,
11.696,315.0,315.0,0.0,0.0,0.0,1.0,0.0,0.0,0.0,0.0,0.0,0.0,0.88,0.0,0.78,
11.709,315.0,315.0,0.0,0.0,0.0,1.0,0.0,0.0,0.0,0.0,0.0,0.0,0.98,0.0,0.78,
11.721,315.0,315.0,0.0,0.0,0.0,1.0,0.0,0.0,0.0,0.0,0.0,0.0,1.08,0.0,0.88,
11.735,315.0,315.0,0.0,0.0,0.0,1.0,0.0,0.0,0.0,0.0,0.0,0.0,1.08,0.0,0.78,
11.747,315.0,315.0,0.0,0.0,0.0,1.0,0.0,0.0,0.0,0.0,0.0,0.0,1.08,0.0,0.78,
11.76,315.0,315.0,0.0,0.0,0.0,1.0,0.0,0.0,0.0,0.0,0.0,0.0,1.08,0.0,0.78,
11.772,315.0,315.0,0.0,0.0,0.0,1.0,0.0,0.0,0.0,0.0,0.0,0.0,1.18,0.0,0.69,
11.786,315.0,315.0,0.0,0.0,0.0,1.0,0.0,0.0,0.0,0.0,0.0,0.0,1.18,0.0,0.59,
11.798,315.0,315.0,0.0,0.0,0.0,1.0,0.0,0.0,0.0,0.0,0.0,0.0,1.37,0.0,0.59,
11.811,315.0,315.0,0.0,0.0,0.0,1.0,0.0,0.0,0.0,0.0,0.0,0.0,1.47,0.0,0.59,
11.825,315.0,315.0,0.0,0.0,0.0,0.0,0.0,0.0,0.0,0.0,0.0,0.0,1.37,0.0,0.59,
11.837,315.0,315.0,0.0,0.0,0.0,0.0,0.0,0.0,0.0,0.0,0.0,0.0,1.37,0.0,0.49,
11.85,315.0,315.0,0.0,0.0,0.0,0.0,0.0,0.0,0.0,0.0,0.0,0.0,1.47,0.0,0.49,
11.863,315.0,315.0,0.0,0.0,0.0,0.0,0.0,0.0,0.0,0.0,0.0,0.0,1.57,0.0,0.49,
11.876,315.0,315.0,0.0,0.0,0.0,0.0,0.0,0.0,0.0,0.0,0.0,0.0,1.67,0.0,0.49,
11.888,315.0,315.0,0.0,0.0,0.0,0.0,0.0,0.0,0.0,0.0,0.0,0.0,1.86,0.0,0.39,
11.901,315.0,315.0,0.0,0.0,0.0,0.0,0.0,0.0,0.0,0.0,0.0,0.0,2.06,0.0,0.49,
11.914,315.0,315.0,0.0,0.0,0.0,0.0,0.0,0.0,0.0,0.0,0.0,0.0,2.35,0.0,0.49,
11.927,315.0,315.0,0.0,0.0,0.0,0.0,0.0,0.0,0.0,0.0,0.0,0.0,2.55,0.0,0.49,
11.939,315.0,315.0,0.0,0.0,0.0,0.0,0.0,0.0,0.0,0.0,0.0,0.0,2.65,0.0,0.49,
11.953,315.0,315.0,0.0,0.0,0.0,0.0,0.0,0.0,0.0,0.0,0.0,0.0,2.65,0.0,0.49,
11.965,315.0,315.0,0.0,0.0,0.0,0.0,0.0,0.0,0.0,0.0,0.0,0.0,2.45,0.0,0.49,
11.978,315.0,315.0,0.0,0.0,0.0,0.0,0.0,0.0,0.0,0.0,0.0,0.0,2.35,0.0,0.49,
11.991,315.0,315.0,0.0,0.0,0.0,0.0,0.0,0.0,0.0,0.0,0.0,0.0,2.16,0.0,0.39,
12.004,315.0,315.0,0.0,0.0,0.0,0.0,0.0,0.0,0.0,0.0,0.0,0.0,2.16,0.0,0.49,
12.017,315.0,315.0,0.0,0.0,0.0,0.0,0.0,0.0,0.0,0.0,0.0,0.0,2.06,0.0,0.49,
12.029,315.0,315.0,0.0,0.0,0.0,0.0,0.0,0.0,0.0,0.0,0.0,0.0,2.06,0.0,0.78,
12.043,315.0,315.0,0.0,0.0,0.0,0.0,0.0,0.0,0.0,0.0,0.0,0.0,2.16,0.0,0.88,
12.055,315.0,315.0,0.0,0.0,0.0,0.0,0.0,0.0,0.0,0.0,0.0,0.0,2.16,0.0,1.28,
12.068,315.0,315.0,0.0,0.0,0.0,0.0,0.0,0.0,0.0,0.0,0.0,0.0,1.18,0.29,1.47,
12.081,315.0,315.0,0.0,0.0,0.0,0.0,0.0,0.0,0.0,0.0,0.0,0.0,1.08,1.96,1.37,
12.094,315.0,315.0,0.0,0.0,0.0,0.0,0.0,0.0,0.0,0.0,0.0,0.0,1.47,37.96,1.28,
12.106,315.0,315.0,0.0,0.0,0.0,0.0,2.0,0.0,0.0,0.0,0.0,0.0,2.26,87.01,0.39,
12.12,315.0,315.0,0.0,0.0,0.0,0.0,2.0,0.0,0.0,0.0,0.0,0.0,2.35,116.54,0.0,
12.133,315.0,315.0,0.0,0.0,0.0,0.0,2.0,0.0,0.0,0.0,0.0,0.0,2.16,128.61,0.0,
12.146,315.0,315.0,0.0,0.0,0.0,1.0,2.0,0.0,1.0,0.0,0.0,0.0,3.83,142.15,0.0,
12.158,315.0,315.0,0.0,0.0,0.0,1.0,2.0,1.0,2.0,0.0,0.0,0.0,10.89,146.76,0.0,
12.172,315.0,315.0,0.0,0.0,0.0,2.0,2.0,1.0,3.0,0.0,0.0,0.0,12.65,143.52,0.0,
12.185,315.0,315.0,0.0,0.0,0.0,2.0,3.0,1.0,3.0,0.0,0.0,0.0,13.34,153.13,0.0,
12.198,315.0,315.0,0.0,0.0,0.0,3.0,3.0,2.0,4.0,1.0,0.0,0.0,14.72,173.93,0.0,
12.212,315.0,315.0,0.0,0.0,0.0,3.0,3.0,2.0,4.0,1.0,0.0,0.0,17.07,197.67,0.0,
12.225,315.0,315.0,0.0,0.0,0.0,4.0,3.0,2.0,4.0,1.0,1.0,0.0,19.23,216.11,0.59,
12.237,315.0,315.0,0.0,0.0,0.0,4.0,3.0,2.0,4.0,1.0,2.0,0.0,21.78,228.87,0.59,
12.251,315.0,315.0,0.0,0.0,0.0,4.0,3.0,2.0,4.0,1.0,2.0,0.0,23.05,227.89,0.0,
12.264,315.0,315.0,0.0,0.0,0.0,4.0,4.0,2.0,4.0,1.0,2.0,0.0,24.23,225.53,0.0,
12.277,315.0,315.0,0.0,0.0,0.0,4.0,4.0,2.0,4.0,2.0,3.0,0.0,25.31,222.29,0.0,
12.291,315.0,315.0,0.0,0.0,0.0,4.0,4.0,2.0,4.0,2.0,3.0,0.0,26.09,217.88,0.0,
12.303,315.0,315.0,0.0,0.0,0.0,4.0,4.0,2.0,4.0,2.0,3.0,0.0,26.49,211.99,0.0,
12.316,315.0,315.0,0.0,0.0,0.0,4.0,4.0,3.0,4.0,2.0,3.0,0.0,26.49,195.12,0.0,
12.329,315.0,315.0,0.0,0.0,0.0,4.0,4.0,3.0,4.0,3.0,3.0,0.0,26.59,184.53,0.0,
12.343,315.0,315.0,0.0,0.0,0.0,4.0,4.0,3.0,5.0,3.0,3.0,0.0,27.17,172.46,0.0,
12.356,315.0,315.0,0.0,0.0,0.0,5.0,5.0,3.0,5.0,4.0,3.0,0.0,28.55,159.51,0.0,
12.368,315.0,315.0,0.0,0.0,0.0,5.0,5.0,3.0,5.0,4.0,4.0,0.0,30.41,146.86,0.0,
12.382,315.0,315.0,0.0,0.0,0.0,5.0,5.0,3.0,5.0,5.0,4.0,1.0,32.67,121.94,0.0,
12.395,315.0,315.0,0.0,0.0,0.0,5.0,6.0,3.0,5.0,6.0,4.0,1.0,38.36,109.77,0.0,
12.408,315.0,315.0,0.0,0.0,0.0,5.0,6.0,3.0,5.0,7.0,4.0,2.0,42.18,97.71,0.0,
12.421,315.0,315.0,0.0,0.0,0.0,6.0,6.0,4.0,6.0,8.0,5.0,2.0,46.01,86.52,0.0,
12.434,315.0,315.0,0.0,0.0,0.0,6.0,7.0,4.0,6.0,9.0,5.0,2.0,49.83,76.22,0.0,
12.447,315.0,315.0,0.0,0.0,0.0,6.0,7.0,4.0,6.0,9.0,6.0,3.0,53.66,66.51,0.0,
12.461,315.0,315.0,0.0,0.0,0.0,6.0,7.0,4.0,7.0,10.0,6.0,3.0,57.29,49.54,0.0,
12.473,315.0,315.0,0.0,0.0,0.0,6.0,7.0,4.0,7.0,10.0,7.0,4.0,60.72,43.16,0.0,
12.486,315.0,315.0,0.0,0.0,0.0,6.0,7.0,4.0,7.0,10.0,8.0,4.0,66.71,38.26,0.1,
12.499,315.0,315.0,0.0,0.0,0.0,6.0,7.0,4.0,8.0,11.0,9.0,5.0,69.45,34.24,0.88,
12.513,315.0,315.0,0.0,0.0,0.0,5.0,8.0,4.0,8.0,11.0,9.0,5.0,72.3,30.41,1.86,
12.525,315.0,315.0,0.0,0.0,0.0,5.0,8.0,4.0,8.0,11.0,10.0,5.0,75.14,26.68,2.84,
12.538,315.0,315.0,0.0,0.0,0.0,5.0,8.0,4.0,9.0,12.0,10.0,6.0,77.79,19.03,4.51,
12.552,315.0,315.0,0.0,0.0,0.0,5.0,8.0,4.0,9.0,11.0,11.0,6.0,80.25,15.6,5.3,
12.565,315.0,315.0,0.0,0.0,0.0,5.0,8.0,4.0,9.0,12.0,11.0,6.0,84.56,12.16,6.08,
12.578,315.0,315.0,0.0,0.0,0.0,5.0,8.0,4.0,9.0,12.0,11.0,7.0,86.33,9.03,6.77,
12.592,315.0,315.0,0.0,0.0,0.0,5.0,8.0,4.0,9.0,12.0,12.0,7.0,87.8,6.67,7.16,
12.604,315.0,315.0,0.0,0.0,0.0,4.0,8.0,3.0,10.0,12.0,0.0,7.0,89.47,3.83,6.67,
12.617,315.0,315.0,0.0,0.0,0.0,3.0,8.0,3.0,10.0,12.0,0.0,7.0,91.43,2.84,6.08,
12.631,315.0,315.0,0.0,0.0,0.0,2.0,7.0,3.0,10.0,12.0,1.0,7.0,93.39,2.06,5.3,
12.644,315.0,315.0,0.0,0.0,0.0,1.0,7.0,3.0,10.0,12.0,1.0,7.0,97.51,1.37,4.71,
12.657,315.0,315.0,0.0,0.0,0.0,0.0,7.0,2.0,10.0,0.0,2.0,8.0,99.96,0.88,4.32,
12.669,315.0,315.0,0.0,0.0,0.0,0.0,7.0,2.0,10.0,0.0,2.0,8.0,102.61,0.1,4.02,
12.683,315.0,315.0,0.0,0.0,0.0,0.0,6.0,1.0,10.0,0.0,4.0,8.0,104.48,0.0,3.34,
12.696,315.0,315.0,0.0,0.0,0.0,0.0,5.0,1.0,10.0,1.0,4.0,8.0,104.87,0.0,3.04,
12.709,315.0,315.0,0.0,0.0,0.0,0.0,4.0,0.0,10.0,1.0,5.0,7.0,103.59,0.0,2.75,
12.722,315.0,315.0,0.0,0.0,0.0,0.0,3.0,0.0,10.0,1.0,4.0,7.0,97.41,0.0,2.55,
12.735,315.0,315.0,0.0,0.0,0.0,0.0,2.0,0.0,10.0,12.0,4.0,7.0,92.9,0.0,2.16,
12.748,315.0,315.0,0.0,0.0,0.0,0.0,1.0,0.0,10.0,11.0,2.0,6.0,87.11,0.0,1.67,
12.761,315.0,315.0,0.0,0.0,0.0,0.0,0.0,0.0,9.0,11.0,12.0,5.0,79.66,0.0,0.78,
12.774,315.0,315.0,0.0,0.0,0.0,0.0,0.0,0.0,8.0,11.0,11.0,4.0,70.53,0.0,0.49,
12.787,315.0,315.0,0.0,0.0,0.0,0.0,0.0,0.0,8.0,10.0,9.0,3.0,60.04,0.0,0.2,
12.801,315.0,315.0,0.0,0.0,0.0,0.0,0.0,0.0,7.0,9.0,8.0,2.0,40.22,0.0,0.0,
12.813,315.0,315.0,0.0,0.0,0.0,0.0,0.0,0.0,6.0,8.0,6.0,1.0,32.08,0.0,0.0,
12.826,315.0,315.0,0.0,0.0,0.0,0.0,0.0,0.0,5.0,6.0,5.0,0.0,24.03,0.0,0.0,
12.838,315.0,315.0,0.0,0.0,0.0,0.0,0.0,0.0,4.0,3.0,4.0,0.0,16.87,0.2,0.0,
12.852,315.0,315.0,0.0,0.0,0.0,0.0,0.0,0.0,3.0,0.0,4.0,0.0,11.58,0.2,0.0,
12.864,315.0,315.0,0.0,0.0,0.0,0.0,0.0,0.0,2.0,0.0,4.0,0.0,8.34,0.0,0.0,
12.877,315.0,315.0,0.0,0.0,0.0,0.0,0.0,0.0,1.0,0.0,4.0,0.0,5.98,0.0,0.0,
12.89,315.0,315.0,0.0,0.0,0.0,0.0,0.0,0.0,0.0,0.0,3.0,0.0,4.02,0.0,0.1,
12.903,315.0,315.0,0.0,0.0,0.0,0.0,0.0,0.0,0.0,0.0,3.0,0.0,1.18,0.0,0.2,
12.915,315.0,315.0,0.0,0.0,0.0,0.0,0.0,0.0,0.0,0.0,3.0,0.0,0.69,0.0,0.29,
12.929,315.0,315.0,0.0,0.0,0.0,0.0,0.0,0.0,0.0,0.0,3.0,0.0,0.59,0.0,0.29,
12.941,315.0,315.0,0.0,0.0,0.0,0.0,0.0,0.0,0.0,0.0,4.0,0.0,0.59,0.0,0.39,
12.954,315.0,315.0,0.0,0.0,0.0,0.0,0.0,0.0,0.0,0.0,4.0,0.0,0.69,0.0,0.49,
12.967,315.0,315.0,0.0,0.0,0.0,0.0,0.0,0.0,0.0,0.0,4.0,0.0,0.69,0.0,0.49,
12.98,315.0,315.0,0.0,0.0,0.0,0.0,0.0,0.0,0.0,0.0,4.0,0.0,0.78,0.0,0.49,
12.993,315.0,315.0,0.0,0.0,0.0,0.0,0.0,0.0,0.0,0.0,4.0,0.0,1.57,0.0,0.39,
13.005,315.0,315.0,0.0,0.0,0.0,0.0,0.0,0.0,0.0,0.0,4.0,0.0,2.84,0.0,0.59,
13.019,315.0,315.0,0.0,0.0,0.0,0.0,0.0,0.0,0.0,0.0,4.0,0.0,4.12,0.0,0.59,
13.031,315.0,315.0,0.0,0.0,0.0,0.0,0.0,0.0,0.0,0.0,4.0,0.0,5.2,0.0,0.59,
13.044,315.0,315.0,0.0,0.0,0.0,0.0,0.0,0.0,1.0,0.0,4.0,0.0,6.38,0.0,0.59,
13.058,315.0,315.0,0.0,0.0,0.0,0.0,0.0,0.0,1.0,0.0,4.0,0.0,7.95,0.0,0.69,
13.07,315.0,315.0,0.0,0.0,0.0,0.0,0.0,0.0,1.0,0.0,4.0,0.0,9.52,0.0,0.59,
13.083,315.0,315.0,0.0,0.0,0.0,0.0,0.0,0.0,1.0,0.0,4.0,0.0,11.48,0.0,0.59,
13.095,315.0,315.0,0.0,0.0,0.0,0.0,0.0,0.0,1.0,0.0,4.0,0.0,11.77,0.0,0.59,
13.109,315.0,315.0,0.0,0.0,0.0,0.0,0.0,0.0,1.0,0.0,4.0,0.0,12.26,0.0,0.59,
13.122,315.0,315.0,0.0,0.0,0.0,0.0,0.0,0.0,1.0,0.0,4.0,0.0,12.75,0.0,0.49,
13.134,315.0,315.0,0.0,0.0,0.0,0.0,0.0,0.0,1.0,0.0,4.0,0.0,13.05,0.0,0.39,
13.148,315.0,315.0,0.0,0.0,0.0,0.0,0.0,0.0,1.0,0.0,4.0,0.0,12.95,0.0,0.39,
13.16,315.0,315.0,0.0,0.0,0.0,0.0,0.0,0.0,2.0,0.0,4.0,0.0,12.46,0.0,0.39,
13.173,315.0,315.0,0.0,0.0,0.0,0.0,0.0,0.0,2.0,0.0,4.0,0.0,10.89,0.0,0.29,
13.187,315.0,315.0,0.0,0.0,0.0,0.0,0.0,0.0,1.0,0.0,4.0,0.0,10.4,0.0,0.29,
13.199,315.0,315.0,0.0,0.0,0.0,0.0,0.0,0.0,1.0,0.0,3.0,0.0,9.81,0.0,0.29,
13.212,315.0,315.0,0.0,0.0,0.0,0.0,0.0,0.0,0.0,0.0,3.0,0.0,9.03,0.0,0.29,
13.224,315.0,315.0,0.0,0.0,0.0,0.0,0.0,0.0,0.0,0.0,3.0,0.0,7.36,0.0,0.39,
13.238,315.0,315.0,0.0,0.0,0.0,0.0,0.0,0.0,0.0,0.0,2.0,0.0,5.0,0.0,0.49,
13.25,315.0,315.0,0.0,0.0,0.0,0.0,0.0,0.0,0.0,0.0,2.0,0.0,2.65,0.0,0.49,
13.263,315.0,315.0,0.0,0.0,0.0,0.0,0.0,0.0,0.0,0.0,2.0,0.0,0.59,0.0,0.39,
13.276,315.0,315.0,0.0,0.0,0.0,0.0,0.0,0.0,0.0,0.0,2.0,0.0,0.69,0.0,0.49,
13.289,315.0,315.0,0.0,0.0,0.0,0.0,0.0,0.0,0.0,0.0,2.0,0.0,0.69,0.0,0.49,
13.301,315.0,315.0,0.0,0.0,0.0,0.0,0.0,0.0,0.0,0.0,2.0,0.0,0.69,0.0,0.49,
13.315,315.0,315.0,0.0,0.0,0.0,0.0,0.0,0.0,0.0,0.0,2.0,0.0,0.98,0.0,0.59,
13.327,315.0,315.0,0.0,0.0,0.0,0.0,0.0,0.0,0.0,0.0,1.0,0.0,1.18,0.0,0.39,
13.34,315.0,315.0,0.0,0.0,0.0,0.0,0.0,0.0,0.0,0.0,1.0,0.0,1.28,0.0,0.39,
13.352,315.0,315.0,0.0,0.0,0.0,0.0,0.0,0.0,0.0,0.0,1.0,0.0,1.18,0.0,0.49,
13.366,315.0,315.0,0.0,0.0,0.0,0.0,0.0,0.0,0.0,0.0,1.0,0.0,1.08,0.0,0.49,
13.379,315.0,315.0,0.0,0.0,0.0,0.0,0.0,0.0,0.0,0.0,1.0,0.0,0.88,0.0,0.39,
13.391,315.0,315.0,0.0,0.0,0.0,0.0,0.0,0.0,0.0,0.0,1.0,0.0,0.69,0.0,0.39,
13.405,315.0,315.0,0.0,0.0,0.0,0.0,0.0,0.0,0.0,0.0,1.0,0.0,0.59,0.0,0.39,
13.417,315.0,315.0,0.0,0.0,0.0,0.0,0.0,0.0,0.0,0.0,1.0,0.0,0.69,0.0,0.39,
13.43,315.0,315.0,0.0,0.0,0.0,0.0,0.0,0.0,0.0,0.0,1.0,0.0,0.88,0.0,0.39,
13.443,315.0,315.0,0.0,0.0,0.0,0.0,0.0,0.0,0.0,0.0,1.0,0.0,1.96,0.0,0.39,
13.456,315.0,315.0,0.0,0.0,0.0,0.0,0.0,0.0,0.0,0.0,1.0,0.0,3.04,0.0,0.59,
13.468,315.0,315.0,0.0,0.0,0.0,0.0,0.0,0.0,1.0,0.0,1.0,0.0,4.91,0.0,0.59,
13.481,315.0,315.0,0.0,0.0,0.0,0.0,1.0,0.0,1.0,0.0,1.0,0.0,7.55,0.0,0.69,
13.495,315.0,315.0,0.0,0.0,0.0,0.0,1.0,0.0,1.0,0.0,1.0,0.0,10.2,0.0,0.49,
13.507,315.0,315.0,0.0,0.0,0.0,0.0,2.0,0.0,1.0,0.0,1.0,0.0,12.65,0.0,0.29,
13.52,315.0,315.0,0.0,0.0,0.0,0.0,2.0,0.0,2.0,1.0,2.0,0.0,15.4,0.0,0.2,
13.534,315.0,315.0,0.0,0.0,0.0,0.0,2.0,0.0,2.0,2.0,2.0,0.0,21.19,0.0,0.0,
13.546,315.0,315.0,0.0,0.0,0.0,0.0,3.0,1.0,2.0,2.0,2.0,0.0,24.13,0.2,0.0,
13.559,315.0,315.0,0.0,0.0,0.0,1.0,3.0,1.0,3.0,3.0,2.0,0.0,26.98,0.69,0.0,
13.573,315.0,315.0,0.0,0.0,0.0,1.0,3.0,1.0,3.0,3.0,2.0,0.0,29.43,1.47,0.0,
13.585,315.0,315.0,0.0,0.0,0.0,1.0,3.0,1.0,3.0,3.0,3.0,0.0,31.59,2.84,0.0,
13.598,315.0,315.0,0.0,0.0,0.0,2.0,4.0,1.0,3.0,4.0,3.0,0.0,33.16,4.41,0.0,
13.612,315.0,315.0,0.0,0.0,0.0,2.0,4.0,2.0,3.0,4.0,3.0,0.0,34.43,5.89,0.0,
13.624,315.0,315.0,0.0,0.0,0.0,2.0,4.0,2.0,4.0,4.0,4.0,0.0,36.59,8.83,0.0,
13.637,315.0,315.0,0.0,0.0,0.0,2.0,4.0,2.0,4.0,4.0,4.0,0.0,37.57,10.1,0.0,
13.649,315.0,315.0,0.0,0.0,0.0,2.0,4.0,2.0,4.0,4.0,4.0,1.0,38.46,11.48,0.0,
13.663,315.0,315.0,0.0,0.0,0.0,2.0,4.0,2.0,4.0,5.0,4.0,1.0,39.04,12.85,0.0,
13.676,315.0,315.0,0.0,0.0,0.0,3.0,4.0,2.0,4.0,5.0,4.0,1.0,39.53,14.52,0.0,
13.689,315.0,315.0,0.0,0.0,0.0,3.0,4.0,2.0,4.0,5.0,4.0,1.0,39.83,16.28,0.1,
13.702,315.0,315.0,0.0,0.0,0.0,3.0,4.0,2.0,4.0,5.0,5.0,1.0,40.02,20.9,0.39,
13.715,315.0,315.0,0.0,0.0,0.0,3.0,5.0,2.0,4.0,5.0,5.0,1.0,40.12,23.64,0.49,
13.728,315.0,315.0,0.0,0.0,0.0,3.0,5.0,2.0,4.0,5.0,5.0,1.0,40.12,26.39,0.59,
13.741,315.0,315.0,0.0,0.0,0.0,3.0,5.0,2.0,4.0,5.0,5.0,1.0,40.22,28.84,0.78,
13.754,315.0,315.0,0.0,0.0,0.0,3.0,5.0,2.0,4.0,5.0,5.0,1.0,40.42,30.8,0.98,
13.767,315.0,315.0,0.0,0.0,0.0,3.0,5.0,2.0,4.0,5.0,5.0,1.0,40.71,32.27,1.08,
13.779,315.0,315.0,0.0,0.0,0.0,3.0,5.0,2.0,4.0,5.0,5.0,1.0,40.91,34.63,1.37,
13.793,315.0,315.0,0.0,0.0,0.0,4.0,5.0,2.0,5.0,5.0,5.0,1.0,40.91,35.61,1.47,
13.806,315.0,315.0,0.0,0.0,0.0,4.0,5.0,2.0,5.0,5.0,5.0,1.0,40.81,36.59,1.47,
13.819,315.0,315.0,0.0,0.0,0.0,4.0,5.0,2.0,5.0,5.0,5.0,1.0,40.61,37.47,1.37,
13.832,315.0,315.0,0.0,0.0,0.0,4.0,5.0,2.0,5.0,5.0,5.0,1.0,40.42,38.55,1.18,
13.845,315.0,315.0,0.0,0.0,0.0,4.0,5.0,2.0,5.0,5.0,5.0,0.0,40.22,39.63,1.08,
13.858,315.0,315.0,0.0,0.0,0.0,4.0,5.0,2.0,5.0,5.0,5.0,0.0,39.93,42.28,0.69,
13.871,315.0,315.0,0.0,0.0,0.0,4.0,5.0,3.0,5.0,5.0,5.0,0.0,39.44,43.65,0.49,
13.884,315.0,315.0,0.0,0.0,0.0,4.0,5.0,3.0,5.0,4.0,5.0,0.0,38.55,45.03,0.39,
13.897,315.0,315.0,0.0,0.0,0.0,4.0,5.0,3.0,5.0,4.0,5.0,0.0,37.96,46.21,0.2,
13.91,315.0,315.0,0.0,0.0,0.0,4.0,5.0,3.0,5.0,4.0,5.0,0.0,37.38,47.38,0.0,
13.923,315.0,315.0,0.0,0.0,0.0,4.0,5.0,3.0,5.0,4.0,5.0,0.0,36.79,48.46,0.0,
13.936,315.0,315.0,0.0,0.0,0.0,4.0,5.0,3.0,5.0,4.0,5.0,0.0,36.3,50.42,0.0,
13.949,315.0,315.0,0.0,0.0,0.0,4.0,5.0,3.0,5.0,4.0,5.0,0.0,36.0,51.11,0.0,
13.962,315.0,315.0,0.0,0.0,0.0,4.0,5.0,3.0,5.0,4.0,5.0,0.0,35.61,51.7,0.0,
13.975,315.0,315.0,0.0,0.0,0.0,4.0,5.0,3.0,5.0,4.0,5.0,0.0,35.41,52.19,0.0,
13.988,315.0,315.0,0.0,0.0,0.0,4.0,5.0,3.0,5.0,4.0,5.0,0.0,35.22,52.48,0.0,
14.001,315.0,315.0,0.0,0.0,0.0,4.0,5.0,3.0,5.0,4.0,5.0,0.0,35.12,52.09,0.0,
14.014,315.0,315.0,0.0,0.0,0.0,4.0,5.0,3.0,4.0,4.0,5.0,0.0,35.02,51.31,0.0,
14.027,315.0,315.0,0.0,0.0,0.0,4.0,5.0,2.0,5.0,4.0,5.0,0.0,34.92,50.23,0.0,
14.04,315.0,315.0,0.0,0.0,0.0,4.0,5.0,2.0,5.0,4.0,5.0,0.0,34.92,49.15,0.0,
14.053,315.0,315.0,0.0,0.0,0.0,4.0,5.0,2.0,5.0,4.0,5.0,0.0,34.92,48.17,0.0,
14.066,315.0,315.0,0.0,0.0,0.0,4.0,5.0,2.0,5.0,4.0,5.0,0.0,35.02,47.38,0.0,
14.08,315.0,315.0,0.0,0.0,0.0,4.0,5.0,2.0,5.0,4.0,5.0,0.0,35.12,46.3,0.0,
14.092,315.0,315.0,0.0,0.0,0.0,4.0,5.0,3.0,5.0,4.0,5.0,0.0,35.22,45.71,0.0,
14.105,315.0,315.0,0.0,0.0,0.0,4.0,5.0,3.0,5.0,4.0,5.0,0.0,35.32,44.93,0.0,
14.118,315.0,315.0,0.0,0.0,0.0,4.0,5.0,3.0,5.0,4.0,5.0,0.0,35.41,44.05,0.0,
14.131,315.0,315.0,0.0,0.0,0.0,4.0,5.0,3.0,4.0,4.0,5.0,0.0,35.41,43.16,0.0,
14.144,315.0,315.0,0.0,0.0,0.0,4.0,5.0,3.0,4.0,4.0,5.0,0.0,35.41,42.18,0.0,
14.157,315.0,315.0,0.0,0.0,0.0,4.0,5.0,3.0,4.0,4.0,5.0,0.0,35.41,39.83,0.0,
14.17,315.0,315.0,0.0,0.0,0.0,4.0,5.0,3.0,4.0,4.0,5.0,0.0,35.41,38.65,0.0,
14.183,315.0,315.0,0.0,0.0,0.0,4.0,5.0,3.0,4.0,4.0,5.0,0.0,35.32,37.57,0.0,
14.196,315.0,315.0,0.0,0.0,0.0,4.0,5.0,3.0,4.0,4.0,5.0,0.0,35.22,36.59,0.0,
14.21,315.0,315.0,0.0,0.0,0.0,4.0,5.0,3.0,4.0,4.0,5.0,0.0,35.12,35.61,0.0,
14.222,315.0,315.0,0.0,0.0,0.0,4.0,5.0,3.0,4.0,4.0,5.0,0.0,35.02,34.73,0.0,
14.235,315.0,315.0,0.0,0.0,0.0,4.0,5.0,3.0,4.0,4.0,5.0,0.0,35.02,33.65,0.0,
14.248,315.0,315.0,0.0,0.0,0.0,4.0,5.0,3.0,4.0,4.0,5.0,0.0,35.02,33.35,0.0,
14.261,315.0,315.0,0.0,0.0,0.0,4.0,5.0,3.0,4.0,4.0,5.0,0.0,34.83,33.16,0.0,
14.274,315.0,315.0,0.0,0.0,0.0,4.0,5.0,3.0,4.0,4.0,5.0,0.0,34.92,33.06,0.0,
14.287,315.0,315.0,0.0,0.0,0.0,4.0,5.0,3.0,4.0,4.0,5.0,0.0,34.92,32.86,0.0,
14.3,315.0,315.0,0.0,0.0,0.0,4.0,5.0,3.0,4.0,4.0,5.0,0.0,34.83,32.77,0.0,
14.313,315.0,315.0,0.0,0.0,0.0,4.0,5.0,3.0,4.0,4.0,5.0,0.0,34.73,32.96,0.0,
14.326,315.0,315.0,0.0,0.0,0.0,4.0,5.0,3.0,4.0,4.0,5.0,0.0,34.63,33.26,0.0,
14.34,315.0,315.0,0.0,0.0,0.0,4.0,5.0,3.0,4.0,4.0,5.0,0.0,34.43,33.84,0.0,
14.352,315.0,315.0,0.0,0.0,0.0,4.0,5.0,3.0,4.0,4.0,5.0,0.0,34.24,34.43,0.0,
14.365,315.0,315.0,0.0,0.0,0.0,4.0,5.0,3.0,4.0,4.0,5.0,0.0,33.75,35.12,0.0,
14.379,315.0,315.0,0.0,0.0,0.0,4.0,5.0,3.0,4.0,4.0,5.0,0.0,33.35,36.4,0.0,
14.391,315.0,315.0,0.0,0.0,0.0,4.0,4.0,3.0,4.0,4.0,4.0,0.0,32.47,37.08,0.0,
14.404,315.0,315.0,0.0,0.0,0.0,4.0,4.0,3.0,4.0,4.0,4.0,0.0,32.08,37.87,0.0,
14.417,315.0,315.0,0.0,0.0,0.0,4.0,4.0,3.0,4.0,4.0,4.0,0.0,31.59,38.75,0.0,
14.43,315.0,315.0,0.0,0.0,0.0,4.0,4.0,3.0,4.0,4.0,4.0,0.0,31.2,39.34,0.0,
14.443,315.0,315.0,0.0,0.0,0.0,4.0,4.0,3.0,4.0,4.0,4.0,0.0,30.9,40.02,0.0,
14.456,315.0,315.0,0.0,0.0,0.0,4.0,4.0,3.0,4.0,4.0,4.0,0.0,30.61,41.2,0.0,
14.47,315.0,315.0,0.0,0.0,0.0,4.0,4.0,3.0,4.0,3.0,4.0,0.0,29.72,41.79,0.0,
14.482,315.0,315.0,0.0,0.0,0.0,4.0,4.0,3.0,4.0,3.0,4.0,0.0,29.53,42.28,0.0,
14.495,315.0,315.0,0.0,0.0,0.0,3.0,4.0,3.0,4.0,3.0,4.0,0.0,29.33,42.58,0.0,
14.509,315.0,315.0,0.0,0.0,0.0,3.0,4.0,3.0,4.0,3.0,4.0,0.0,29.33,42.67,0.0,
14.521,315.0,315.0,0.0,0.0,0.0,3.0,4.0,3.0,4.0,3.0,4.0,0.0,29.33,42.38,0.0,
14.534,315.0,315.0,0.0,0.0,0.0,4.0,4.0,3.0,4.0,3.0,4.0,0.0,29.43,41.69,0.0,
14.547,315.0,315.0,0.0,0.0,0.0,3.0,4.0,3.0,4.0,3.0,4.0,0.0,29.53,41.3,0.0,
14.56,315.0,315.0,0.0,0.0,0.0,3.0,4.0,3.0,4.0,3.0,4.0,0.0,29.72,40.91,0.0,
14.573,315.0,315.0,0.0,0.0,0.0,3.0,4.0,3.0,4.0,3.0,4.0,0.0,29.82,40.52,0.0,
14.586,315.0,315.0,0.0,0.0,0.0,3.0,4.0,3.0,4.0,3.0,4.0,0.0,29.92,40.22,0.0,
14.6,315.0,315.0,0.0,0.0,0.0,3.0,4.0,3.0,4.0,3.0,4.0,0.0,30.12,39.93,0.0,
14.612,315.0,315.0,0.0,0.0,0.0,3.0,4.0,3.0,4.0,3.0,4.0,0.0,30.41,39.63,0.0,
14.625,315.0,315.0,0.0,0.0,0.0,4.0,4.0,3.0,4.0,3.0,4.0,0.0,30.61,39.53,0.0,
14.639,315.0,315.0,0.0,0.0,0.0,4.0,4.0,3.0,4.0,3.0,4.0,0.0,30.9,39.34,0.0,
14.651,315.0,315.0,0.0,0.0,0.0,4.0,4.0,3.0,4.0,3.0,4.0,0.0,31.1,39.14,0.0,
14.664,315.0,315.0,0.0,0.0,0.0,3.0,4.0,3.0,4.0,3.0,4.0,0.0,31.29,38.95,0.0,
14.678,315.0,315.0,0.0,0.0,0.0,4.0,4.0,3.0,4.0,3.0,4.0,0.0,31.49,38.65,0.0,
14.69,315.0,315.0,0.0,0.0,0.0,4.0,4.0,3.0,4.0,3.0,4.0,0.0,31.78,37.77,0.0,
14.703,315.0,315.0,0.0,0.0,0.0,4.0,4.0,3.0,4.0,3.0,4.0,0.0,31.98,37.38,0.0,
14.716,315.0,315.0,0.0,0.0,0.0,3.0,4.0,3.0,4.0,3.0,4.0,0.0,32.08,36.89,0.0,
14.73,315.0,315.0,0.0,0.0,0.0,3.0,4.0,3.0,4.0,3.0,4.0,0.0,32.57,36.49,0.0,
14.742,315.0,315.0,0.0,0.0,0.0,3.0,4.0,3.0,4.0,3.0,4.0,0.0,32.77,36.2,0.0,
14.755,315.0,315.0,0.0,0.0,0.0,3.0,4.0,3.0,4.0,3.0,4.0,0.0,32.96,35.61,0.0,
14.769,315.0,315.0,0.0,0.0,0.0,3.0,4.0,3.0,4.0,3.0,4.0,0.0,33.26,35.32,0.0,
14.781,315.0,315.0,0.0,0.0,0.0,4.0,4.0,3.0,4.0,3.0,4.0,0.0,33.45,35.12,0.0,
14.794,315.0,315.0,0.0,0.0,0.0,4.0,5.0,3.0,4.0,3.0,4.0,0.0,33.65,34.92,0.0,
14.808,315.0,315.0,0.0,0.0,0.0,4.0,5.0,3.0,4.0,3.0,4.0,0.0,34.14,34.73,0.0,
14.82,315.0,315.0,0.0,0.0,0.0,4.0,5.0,3.0,4.0,3.0,4.0,0.0,34.34,34.53,0.0,
14.833,315.0,315.0,0.0,0.0,0.0,4.0,5.0,3.0,4.0,3.0,4.0,0.0,34.53,34.04,0.0,
14.846,315.0,315.0,0.0,0.0,0.0,4.0,5.0,3.0,4.0,3.0,4.0,0.0,34.73,33.84,0.0,
14.86,315.0,315.0,0.0,0.0,0.0,4.0,5.0,3.0,4.0,3.0,4.0,0.0,34.83,33.75,0.0,
14.872,315.0,315.0,0.0,0.0,0.0,4.0,5.0,3.0,4.0,3.0,4.0,0.0,35.02,33.65,0.0,
14.885,315.0,315.0,0.0,0.0,0.0,4.0,5.0,3.0,4.0,3.0,4.0,0.0,35.12,33.65,0.0,
14.899,315.0,315.0,0.0,0.0,0.0,4.0,5.0,3.0,4.0,3.0,4.0,0.0,35.41,33.65,0.0,
14.911,315.0,315.0,0.0,0.0,0.0,4.0,5.0,3.0,4.0,3.0,4.0,0.0,35.61,33.75,0.0,
14.924,315.0,315.0,0.0,0.0,0.0,4.0,5.0,3.0,4.0,4.0,4.0,0.0,35.81,33.65,0.0,
14.938,315.0,315.0,0.0,0.0,0.0,4.0,5.0,3.0,4.0,4.0,4.0,0.0,36.0,33.65,0.0,
14.95,315.0,315.0,0.0,0.0,0.0,4.0,5.0,3.0,4.0,4.0,4.0,0.0,36.3,33.55,0.0,
14.963,315.0,315.0,0.0,0.0,0.0,4.0,5.0,3.0,4.0,4.0,4.0,0.0,36.4,33.16,0.0,
14.977,315.0,315.0,0.0,0.0,0.0,4.0,5.0,3.0,4.0,4.0,4.0,0.0,36.69,32.86,0.0,
14.99,315.0,315.0,0.0,0.0,0.0,4.0,5.0,3.0,4.0,4.0,4.0,0.0,36.79,32.47,0.0,
15.002,315.0,315.0,0.0,0.0,0.0,4.0,5.0,3.0,4.0,4.0,4.0,0.0,36.89,32.37,0.0,
15.015,315.0,315.0,0.0,0.0,0.0,4.0,5.0,3.0,4.0,4.0,4.0,0.0,36.98,32.27,0.0,
15.029,315.0,315.0,0.0,0.0,0.0,4.0,5.0,3.0,4.0,4.0,4.0,0.0,37.08,32.18,0.0,
15.041,315.0,315.0,0.0,0.0,0.0,4.0,5.0,3.0,4.0,4.0,4.0,0.0,37.08,32.27,0.0,
15.054,315.0,315.0,0.0,0.0,0.0,4.0,5.0,3.0,4.0,4.0,4.0,0.0,37.18,32.18,0.0,
15.068,315.0,315.0,0.0,0.0,0.0,4.0,5.0,3.0,4.0,4.0,4.0,0.0,37.47,32.08,0.0,
15.08,315.0,315.0,0.0,0.0,0.0,4.0,5.0,3.0,4.0,4.0,4.0,0.0,37.67,31.88,0.0,
15.093,315.0,315.0,0.0,0.0,0.0,4.0,5.0,3.0,4.0,4.0,4.0,0.0,37.77,31.49,0.0,
15.107,315.0,315.0,0.0,0.0,0.0,4.0,5.0,3.0,4.0,4.0,4.0,0.0,37.87,31.1,0.0,
15.12,315.0,315.0,0.0,0.0,0.0,4.0,5.0,3.0,4.0,4.0,4.0,0.0,38.06,30.51,0.0,
15.132,315.0,315.0,0.0,0.0,0.0,4.0,5.0,3.0,4.0,4.0,4.0,0.0,38.16,29.43,0.0,
15.145,315.0,315.0,0.0,0.0,0.0,4.0,5.0,3.0,4.0,4.0,4.0,0.0,38.36,28.84,0.0,
15.159,315.0,315.0,0.0,0.0,0.0,4.0,5.0,3.0,4.0,4.0,4.0,0.0,38.55,28.35,0.0,
15.171,315.0,315.0,0.0,0.0,0.0,4.0,5.0,3.0,4.0,4.0,4.0,0.0,38.65,28.15,0.0,
15.184,315.0,315.0,0.0,0.0,0.0,4.0,5.0,3.0,4.0,4.0,4.0,0.0,38.75,27.96,0.0,
15.198,315.0,315.0,0.0,0.0,0.0,4.0,5.0,3.0,4.0,4.0,4.0,0.0,38.85,27.86,0.0,
15.21,315.0,315.0,0.0,0.0,0.0,4.0,5.0,3.0,4.0,4.0,4.0,0.0,38.95,27.76,0.0,
15.223,315.0,315.0,0.0,0.0,0.0,4.0,5.0,3.0,4.0,4.0,4.0,0.0,39.14,27.57,0.0,
15.237,315.0,315.0,0.0,0.0,0.0,4.0,5.0,3.0,4.0,4.0,4.0,0.0,39.44,27.47,0.0,
15.25,315.0,315.0,0.0,0.0,0.0,4.0,5.0,3.0,4.0,4.0,4.0,0.0,39.53,27.27,0.0,
15.262,315.0,315.0,0.0,0.0,0.0,4.0,5.0,3.0,4.0,4.0,4.0,0.0,39.53,27.08,0.0,
15.276,315.0,315.0,0.0,0.0,0.0,4.0,5.0,3.0,4.0,4.0,4.0,0.0,39.63,26.98,0.0,
15.289,315.0,315.0,0.0,0.0,0.0,4.0,5.0,3.0,4.0,4.0,4.0,0.0,39.73,26.68,0.0,
15.301,315.0,315.0,0.0,0.0,0.0,4.0,5.0,3.0,4.0,4.0,4.0,0.0,39.83,26.49,0.0,
15.314,315.0,315.0,0.0,0.0,0.0,4.0,5.0,3.0,4.0,4.0,4.0,0.0,40.02,26.49,0.0,
15.328,315.0,315.0,0.0,0.0,0.0,4.0,5.0,3.0,4.0,4.0,5.0,0.0,40.22,26.49,0.0,
15.34,315.0,315.0,0.0,0.0,0.0,4.0,5.0,3.0,4.0,4.0,5.0,0.0,40.32,26.49,0.0,
15.353,315.0,315.0,0.0,0.0,0.0,4.0,5.0,3.0,4.0,4.0,5.0,0.0,40.32,26.59,0.0,
15.367,315.0,315.0,0.0,0.0,0.0,4.0,5.0,3.0,4.0,4.0,5.0,0.0,40.42,26.59,0.0,
15.38,315.0,315.0,0.0,0.0,0.0,4.0,5.0,3.0,4.0,4.0,5.0,0.0,40.42,26.68,0.0,
15.392,315.0,315.0,0.0,0.0,0.0,4.0,5.0,3.0,4.0,4.0,5.0,0.0,40.52,26.88,0.0,
15.406,315.0,315.0,0.0,0.0,0.0,4.0,5.0,3.0,4.0,4.0,5.0,0.0,40.52,26.98,0.0,
15.419,315.0,315.0,0.0,0.0,0.0,4.0,5.0,3.0,4.0,4.0,5.0,0.0,40.61,26.98,0.0,
15.431,315.0,315.0,0.0,0.0,0.0,4.0,5.0,3.0,4.0,4.0,5.0,0.0,40.71,27.08,0.0,
15.444,315.0,315.0,0.0,0.0,0.0,4.0,5.0,3.0,4.0,4.0,5.0,0.0,40.81,26.98,0.0,
15.458,315.0,315.0,0.0,0.0,0.0,4.0,5.0,3.0,4.0,4.0,5.0,0.0,40.81,26.78,0.0,
15.47,315.0,315.0,0.0,0.0,0.0,4.0,5.0,3.0,4.0,4.0,5.0,0.0,40.91,26.78,0.0,
15.483,315.0,315.0,0.0,0.0,0.0,4.0,5.0,3.0,4.0,4.0,5.0,0.0,41.01,26.88,0.0,
15.497,315.0,315.0,0.0,0.0,0.0,4.0,5.0,3.0,4.0,4.0,5.0,0.0,41.1,26.88,0.0,
15.51,315.0,315.0,0.0,0.0,0.0,4.0,5.0,3.0,4.0,4.0,5.0,0.0,41.2,27.08,0.0,
15.522,315.0,315.0,0.0,0.0,0.0,4.0,5.0,3.0,4.0,4.0,5.0,0.0,41.2,27.17,0.0,
15.536,315.0,315.0,0.0,0.0,0.0,4.0,5.0,3.0,4.0,4.0,5.0,0.0,41.3,27.37,0.0,
15.549,315.0,315.0,0.0,0.0,0.0,4.0,5.0,3.0,4.0,4.0,5.0,0.0,41.4,27.47,0.0,
15.561,315.0,315.0,0.0,0.0,0.0,4.0,5.0,3.0,4.0,4.0,5.0,0.0,41.5,27.47,0.0,
15.575,315.0,315.0,0.0,0.0,0.0,4.0,5.0,3.0,4.0,4.0,5.0,0.0,41.5,27.47,0.0,
15.588,315.0,315.0,0.0,0.0,0.0,4.0,5.0,3.0,4.0,4.0,5.0,0.0,41.5,27.57,0.0,
15.6,315.0,315.0,0.0,0.0,0.0,4.0,5.0,3.0,4.0,4.0,5.0,0.0,41.5,27.66,0.0,
15.613,315.0,315.0,0.0,0.0,0.0,4.0,5.0,3.0,4.0,4.0,5.0,0.0,41.4,27.86,0.0,
15.627,315.0,315.0,0.0,0.0,0.0,4.0,5.0,3.0,4.0,4.0,5.0,0.0,41.5,28.06,0.0,
15.64,315.0,315.0,0.0,0.0,0.0,4.0,5.0,3.0,4.0,4.0,5.0,0.0,41.5,28.25,0.0,
15.652,315.0,315.0,0.0,0.0,0.0,4.0,5.0,3.0,4.0,4.0,5.0,0.0,41.5,28.15,0.0,
15.666,315.0,315.0,0.0,0.0,0.0,4.0,5.0,3.0,4.0,4.0,5.0,0.0,41.5,27.96,0.0,
15.679,315.0,315.0,0.0,0.0,0.0,4.0,5.0,3.0,4.0,4.0,5.0,0.0,41.5,27.86,0.0,
15.691,315.0,315.0,0.0,0.0,0.0,4.0,5.0,3.0,4.0,4.0,5.0,0.0,41.5,27.76,0.0,
15.705,315.0,315.0,0.0,0.0,0.0,4.0,5.0,3.0,4.0,4.0,5.0,0.0,41.5,27.76,0.0,
15.718,315.0,315.0,0.0,0.0,0.0,4.0,5.0,3.0,4.0,4.0,5.0,0.0,41.5,27.66,0.0,
15.73,315.0,315.0,0.0,0.0,0.0,4.0,5.0,3.0,4.0,4.0,5.0,0.0,41.5,27.76,0.0,
15.744,315.0,315.0,0.0,0.0,0.0,4.0,5.0,3.0,4.0,4.0,5.0,0.0,41.59,27.66,0.0,
15.757,315.0,315.0,0.0,0.0,0.0,4.0,5.0,3.0,4.0,4.0,5.0,0.0,41.59,27.66,0.0,
15.77,315.0,315.0,0.0,0.0,0.0,4.0,5.0,3.0,4.0,4.0,5.0,0.0,41.59,27.57,0.0,
15.782,315.0,315.0,0.0,0.0,0.0,4.0,5.0,3.0,4.0,4.0,5.0,0.0,41.69,27.27,0.0,
15.796,315.0,315.0,0.0,0.0,0.0,4.0,5.0,3.0,4.0,4.0,5.0,0.0,41.79,26.98,0.0,
15.809,315.0,315.0,0.0,0.0,0.0,4.0,5.0,3.0,4.0,4.0,5.0,0.0,41.89,26.68,0.0,
15.821,315.0,315.0,0.0,0.0,0.0,4.0,5.0,3.0,4.0,4.0,5.0,0.0,41.99,26.09,0.0,
15.835,315.0,315.0,0.0,0.0,0.0,4.0,5.0,3.0,4.0,4.0,5.0,0.0,42.08,25.8,0.0,
15.848,315.0,315.0,0.0,0.0,0.0,4.0,5.0,3.0,4.0,4.0,5.0,0.0,42.18,25.51,0.0,
15.86,315.0,315.0,0.0,0.0,0.0,4.0,5.0,3.0,4.0,4.0,5.0,0.0,42.28,25.11,0.0,
15.874,315.0,315.0,0.0,0.0,0.0,4.0,5.0,3.0,4.0,4.0,5.0,0.0,42.48,24.82,0.0,
15.887,315.0,315.0,0.0,0.0,0.0,4.0,5.0,3.0,4.0,4.0,5.0,0.0,42.67,24.13,0.0,
15.9,315.0,315.0,0.0,0.0,0.0,4.0,5.0,3.0,4.0,4.0,5.0,0.0,42.77,23.94,0.0,
15.912,315.0,315.0,0.0,0.0,0.0,4.0,5.0,3.0,4.0,4.0,5.0,0.0,43.07,23.64,0.0,
15.926,315.0,315.0,0.0,0.0,0.0,4.0,5.0,3.0,4.0,4.0,5.0,0.0,43.26,23.35,0.0,
15.939,315.0,315.0,0.0,0.0,0.0,4.0,5.0,3.0,4.0,4.0,5.0,0.0,43.36,23.15,0.0,
15.951,315.0,315.0,0.0,0.0,0.0,4.0,5.0,3.0,4.0,4.0,5.0,0.0,43.56,22.76,0.0,
15.965,315.0,315.0,0.0,0.0,0.0,4.0,5.0,3.0,4.0,5.0,5.0,0.0,43.75,22.07,0.0,
15.978,315.0,315.0,0.0,0.0,0.0,4.0,5.0,3.0,4.0,5.0,5.0,0.0,43.85,21.68,0.0,
15.99,315.0,315.0,0.0,0.0,0.0,4.0,5.0,3.0,4.0,5.0,5.0,0.0,44.15,21.39,0.0,
16.004,315.0,315.0,0.0,0.0,0.0,4.0,5.0,3.0,4.0,5.0,5.0,0.0,44.34,21.09,0.0,
16.017,315.0,315.0,0.0,0.0,0.0,4.0,5.0,3.0,4.0,5.0,5.0,0.0,44.34,20.9,0.0,
16.03,315.0,315.0,0.0,0.0,0.0,4.0,5.0,3.0,4.0,5.0,5.0,0.0,44.44,20.7,0.0,
16.043,315.0,315.0,0.0,0.0,0.0,4.0,5.0,3.0,4.0,5.0,5.0,0.0,44.54,20.21,0.0,
16.056,315.0,315.0,0.0,0.0,0.0,4.0,5.0,3.0,4.0,5.0,5.0,0.0,44.64,20.01,0.0,
16.069,315.0,315.0,0.0,0.0,0.0,4.0,5.0,3.0,4.0,5.0,5.0,0.0,44.73,19.91,0.0,
16.081,315.0,315.0,0.0,0.0,0.0,4.0,5.0,3.0,4.0,5.0,5.0,0.0,44.73,19.82,0.0,
16.095,315.0,315.0,0.0,0.0,0.0,4.0,5.0,3.0,4.0,5.0,5.0,0.0,44.83,19.62,0.0,
16.108,315.0,315.0,0.0,0.0,0.0,4.0,5.0,3.0,4.0,5.0,5.0,0.0,44.83,19.52,0.0,
16.121,315.0,315.0,0.0,0.0,0.0,4.0,5.0,3.0,4.0,5.0,5.0,0.0,44.83,19.42,0.0,
16.134,315.0,315.0,0.0,0.0,0.0,4.0,5.0,3.0,4.0,5.0,5.0,0.0,44.93,19.33,0.0,
16.147,315.0,315.0,0.0,0.0,0.0,4.0,5.0,3.0,4.0,5.0,5.0,0.0,44.93,19.23,0.0,
16.16,315.0,315.0,0.0,0.0,0.0,4.0,5.0,3.0,4.0,5.0,5.0,0.0,45.03,19.13,0.0,
16.173,315.0,315.0,0.0,0.0,0.0,4.0,5.0,3.0,4.0,5.0,5.0,0.0,45.13,19.03,0.0,
16.186,315.0,315.0,0.0,0.0,0.0,4.0,5.0,3.0,4.0,5.0,5.0,0.0,45.22,18.84,0.0,
16.199,315.0,315.0,0.0,0.0,0.0,4.0,5.0,3.0,4.0,5.0,5.0,0.0,45.22,18.74,0.0,
16.211,315.0,315.0,0.0,0.0,0.0,4.0,5.0,3.0,4.0,5.0,5.0,0.0,45.32,18.54,0.0,
16.225,315.0,315.0,0.0,0.0,0.0,4.0,5.0,3.0,4.0,5.0,5.0,0.0,45.42,18.34,0.0,
16.238,315.0,315.0,0.0,0.0,0.0,4.0,5.0,3.0,4.0,5.0,5.0,0.0,45.42,18.34,0.0,
16.25,315.0,315.0,0.0,0.0,0.0,4.0,5.0,3.0,4.0,5.0,5.0,0.0,45.42,18.25,0.0,
16.264,315.0,315.0,0.0,0.0,0.0,4.0,5.0,3.0,4.0,5.0,5.0,0.0,45.32,18.15,0.0,
16.277,315.0,315.0,0.0,0.0,0.0,4.0,5.0,3.0,4.0,5.0,5.0,0.0,45.42,18.15,0.0,
16.29,315.0,315.0,0.0,0.0,0.0,4.0,5.0,3.0,4.0,5.0,5.0,0.0,45.42,18.05,0.0,
16.303,315.0,315.0,0.0,0.0,0.0,4.0,5.0,3.0,4.0,5.0,5.0,0.0,45.42,18.05,0.0,
16.316,315.0,315.0,0.0,0.0,0.0,4.0,5.0,3.0,4.0,5.0,5.0,0.0,45.42,18.05,0.0,
16.329,315.0,315.0,0.0,0.0,0.0,4.0,5.0,3.0,4.0,5.0,5.0,0.0,45.42,18.15,0.0,
16.342,315.0,315.0,0.0,0.0,0.0,4.0,5.0,3.0,4.0,5.0,6.0,0.0,45.42,18.15,0.0,
16.355,315.0,315.0,0.0,0.0,0.0,4.0,5.0,3.0,4.0,5.0,6.0,0.0,45.42,18.15,0.0,
16.368,315.0,315.0,0.0,0.0,0.0,4.0,5.0,3.0,4.0,5.0,5.0,0.0,45.52,17.95,0.0,
16.38,315.0,315.0,0.0,0.0,0.0,4.0,5.0,3.0,4.0,5.0,6.0,0.0,45.62,17.95,0.0,
16.394,315.0,315.0,0.0,0.0,0.0,4.0,5.0,3.0,4.0,5.0,6.0,0.0,45.62,17.95,0.0,
16.407,315.0,315.0,0.0,0.0,0.0,4.0,5.0,3.0,4.0,5.0,6.0,0.0,45.62,17.85,0.0,
16.42,315.0,315.0,0.0,0.0,0.0,4.0,5.0,3.0,4.0,5.0,6.0,0.0,45.52,17.95,0.0,
16.433,315.0,315.0,0.0,0.0,0.0,4.0,5.0,3.0,4.0,5.0,6.0,0.0,45.52,17.95,0.0,
16.446,315.0,315.0,0.0,0.0,0.0,4.0,5.0,3.0,4.0,5.0,6.0,0.0,45.52,18.05,0.0,
16.459,315.0,315.0,0.0,0.0,0.0,4.0,5.0,3.0,4.0,5.0,6.0,0.0,45.52,18.15,0.0,
16.472,315.0,315.0,0.0,0.0,0.0,4.0,5.0,3.0,4.0,5.0,6.0,0.0,45.42,18.15,0.0,
16.485,315.0,315.0,0.0,0.0,0.0,4.0,5.0,3.0,4.0,5.0,6.0,0.0,45.52,18.15,0.0,
16.498,315.0,315.0,0.0,0.0,0.0,4.0,5.0,3.0,4.0,5.0,6.0,0.0,45.52,18.15,0.0,
16.51,315.0,315.0,0.0,0.0,0.0,4.0,5.0,3.0,4.0,5.0,6.0,0.0,45.62,18.15,0.0,
16.524,315.0,315.0,0.0,0.0,0.0,4.0,5.0,3.0,4.0,5.0,6.0,0.0,45.52,18.15,0.0,
16.537,315.0,315.0,0.0,0.0,0.0,4.0,5.0,3.0,4.0,5.0,6.0,0.0,45.42,18.05,0.0,
16.55,315.0,315.0,0.0,0.0,0.0,4.0,5.0,3.0,4.0,5.0,6.0,0.0,45.42,18.05,0.0,
16.563,315.0,315.0,0.0,0.0,0.0,4.0,5.0,3.0,4.0,5.0,6.0,0.0,45.42,18.05,0.0,
16.576,315.0,315.0,0.0,0.0,0.0,4.0,5.0,3.0,4.0,5.0,6.0,0.0,45.32,18.05,0.0,
16.589,315.0,315.0,0.0,0.0,0.0,4.0,5.0,3.0,4.0,5.0,6.0,0.0,45.32,17.95,0.0,
16.602,315.0,315.0,0.0,0.0,0.0,4.0,5.0,3.0,4.0,5.0,6.0,0.0,45.13,17.85,0.0,
16.615,315.0,315.0,0.0,0.0,0.0,4.0,5.0,3.0,4.0,5.0,6.0,0.0,45.13,17.85,0.0,
16.628,315.0,315.0,0.0,0.0,0.0,4.0,5.0,3.0,4.0,5.0,6.0,0.0,45.22,17.76,0.0,
16.642,315.0,315.0,0.0,0.0,0.0,4.0,5.0,3.0,4.0,5.0,6.0,0.0,45.22,17.76,0.0,
16.654,315.0,315.0,0.0,0.0,0.0,4.0,5.0,3.0,4.0,5.0,6.0,0.0,45.13,17.66,0.0,
16.667,315.0,315.0,0.0,0.0,0.0,4.0,5.0,3.0,4.0,5.0,6.0,0.0,45.13,17.66,0.0,
16.68,315.0,315.0,0.0,0.0,0.0,4.0,5.0,3.0,4.0,5.0,6.0,0.0,45.13,17.66,0.0,
16.693,315.0,315.0,0.0,0.0,0.0,4.0,5.0,3.0,4.0,5.0,6.0,0.0,45.13,17.46,0.0,
16.706,315.0,315.0,0.0,0.0,0.0,4.0,5.0,3.0,4.0,5.0,6.0,0.0,45.03,17.46,0.0,
16.719,315.0,315.0,0.0,0.0,0.0,4.0,5.0,3.0,4.0,5.0,6.0,0.0,45.13,17.17,0.0,
16.732,315.0,315.0,0.0,0.0,0.0,4.0,5.0,3.0,4.0,5.0,6.0,0.0,45.03,17.17,0.0,
16.745,315.0,315.0,0.0,0.0,0.0,4.0,5.0,3.0,4.0,5.0,6.0,0.0,45.03,17.07,0.0,
16.758,315.0,315.0,0.0,0.0,0.0,4.0,5.0,3.0,4.0,5.0,6.0,0.0,45.13,16.97,0.0,
16.772,315.0,315.0,0.0,0.0,0.0,4.0,5.0,3.0,4.0,5.0,6.0,0.0,45.22,16.87,0.0,
16.784,315.0,315.0,0.0,0.0,0.0,4.0,5.0,3.0,4.0,5.0,6.0,0.0,45.22,16.78,0.0,
16.797,315.0,315.0,0.0,0.0,0.0,4.0,5.0,3.0,4.0,5.0,6.0,0.0,45.22,16.28,0.0,
16.811,315.0,315.0,0.0,0.0,0.0,4.0,5.0,3.0,4.0,5.0,6.0,0.0,45.22,16.09,0.0,
16.823,315.0,315.0,0.0,0.0,0.0,4.0,5.0,3.0,4.0,5.0,6.0,0.0,45.32,15.79,0.0,
16.836,315.0,315.0,0.0,0.0,0.0,4.0,5.0,3.0,4.0,5.0,6.0,0.0,45.32,15.5,0.0,
16.849,315.0,315.0,0.0,0.0,0.0,4.0,5.0,3.0,4.0,5.0,6.0,0.0,45.42,15.3,0.0,
16.862,315.0,315.0,0.0,0.0,0.0,4.0,5.0,3.0,4.0,5.0,6.0,0.0,45.42,15.11,0.0,
16.875,315.0,315.0,0.0,0.0,0.0,4.0,5.0,3.0,4.0,5.0,6.0,0.0,45.52,15.01,0.0,
16.888,315.0,315.0,0.0,0.0,0.0,4.0,5.0,3.0,4.0,5.0,6.0,0.0,45.52,15.01,0.0,
16.902,315.0,315.0,0.0,0.0,0.0,4.0,5.0,3.0,4.0,5.0,6.0,0.0,45.52,14.91,0.0,
16.914,315.0,315.0,0.0,0.0,0.0,4.0,5.0,3.0,4.0,5.0,6.0,0.0,45.52,14.81,0.0,
16.927,315.0,315.0,0.0,0.0,0.0,4.0,5.0,3.0,4.0,5.0,6.0,0.0,45.71,14.81,0.0,
16.941,315.0,315.0,0.0,0.0,0.0,4.0,5.0,3.0,4.0,5.0,6.0,0.0,45.81,14.52,0.0,
16.953,315.0,315.0,0.0,0.0,0.0,4.0,5.0,3.0,4.0,5.0,6.0,0.0,45.91,14.42,0.0,
16.966,315.0,315.0,0.0,0.0,0.0,4.0,5.0,3.0,4.0,5.0,6.0,0.0,45.91,14.22,0.0,
16.979,315.0,315.0,0.0,0.0,0.0,4.0,5.0,3.0,4.0,5.0,6.0,0.0,45.81,14.13,0.0,
16.992,315.0,315.0,0.0,0.0,0.0,4.0,5.0,3.0,4.0,5.0,6.0,0.0,45.91,14.03,0.0,
17.005,315.0,315.0,0.0,0.0,0.0,4.0,5.0,3.0,4.0,5.0,6.0,0.0,46.01,13.83,0.0,
17.018,315.0,315.0,0.0,0.0,0.0,4.0,5.0,3.0,4.0,5.0,6.0,0.0,46.11,13.73,0.0,
17.032,315.0,315.0,0.0,0.0,0.0,4.0,5.0,3.0,4.0,5.0,6.0,0.0,46.01,13.73,0.0,
17.044,315.0,315.0,0.0,0.0,0.0,4.0,5.0,3.0,4.0,5.0,6.0,0.0,46.01,13.64,0.0,
17.057,315.0,315.0,0.0,0.0,0.0,4.0,5.0,3.0,4.0,5.0,6.0,0.0,46.11,13.64,0.0,
17.071,315.0,315.0,0.0,0.0,0.0,4.0,5.0,3.0,4.0,5.0,6.0,0.0,46.01,13.54,0.0,
17.083,315.0,315.0,0.0,0.0,0.0,4.0,5.0,3.0,4.0,5.0,6.0,0.0,46.11,13.64,0.0,
17.096,315.0,315.0,0.0,0.0,0.0,4.0,5.0,3.0,4.0,5.0,6.0,0.0,46.01,13.73,0.0,
17.11,315.0,315.0,0.0,0.0,0.0,4.0,5.0,3.0,4.0,5.0,6.0,0.0,46.01,13.83,0.0,
17.122,315.0,315.0,0.0,0.0,0.0,4.0,5.0,3.0,4.0,5.0,6.0,0.0,46.01,13.83,0.0,
17.135,315.0,315.0,0.0,0.0,0.0,4.0,5.0,3.0,4.0,5.0,6.0,0.0,46.01,13.73,0.0,
17.148,315.0,315.0,0.0,0.0,0.0,4.0,5.0,3.0,4.0,5.0,6.0,0.0,46.01,13.73,0.0,
17.162,315.0,315.0,0.0,0.0,0.0,4.0,5.0,3.0,4.0,5.0,6.0,0.0,45.91,13.73,0.0,
17.174,315.0,315.0,0.0,0.0,0.0,4.0,5.0,3.0,4.0,5.0,6.0,0.0,45.91,13.83,0.0,
17.187,315.0,315.0,0.0,0.0,0.0,4.0,5.0,3.0,4.0,5.0,6.0,0.0,45.91,13.93,0.0,
17.201,315.0,315.0,0.0,0.0,0.0,4.0,5.0,3.0,4.0,5.0,6.0,0.0,45.91,13.93,0.0,
17.213,315.0,315.0,0.0,0.0,0.0,4.0,5.0,3.0,4.0,5.0,6.0,0.0,45.91,13.93,0.0,
17.226,315.0,315.0,0.0,0.0,0.0,4.0,5.0,3.0,4.0,5.0,6.0,0.0,45.81,14.13,0.0,
17.24,315.0,315.0,0.0,0.0,0.0,4.0,5.0,3.0,4.0,5.0,6.0,0.0,45.71,14.22,0.0,
17.252,315.0,315.0,0.0,0.0,0.0,4.0,5.0,3.0,4.0,5.0,6.0,0.0,45.62,14.32,0.0,
17.265,315.0,315.0,0.0,0.0,0.0,4.0,5.0,3.0,4.0,5.0,6.0,0.0,45.62,14.42,0.0,
17.278,315.0,315.0,0.0,0.0,0.0,4.0,5.0,3.0,4.0,5.0,6.0,0.0,45.52,14.52,0.0,
17.292,315.0,315.0,0.0,0.0,0.0,4.0,5.0,3.0,4.0,5.0,6.0,0.0,45.52,14.52,0.0,
17.304,315.0,315.0,0.0,0.0,0.0,4.0,5.0,3.0,4.0,5.0,6.0,0.0,45.42,14.62,0.0,
17.317,315.0,315.0,0.0,0.0,0.0,4.0,5.0,3.0,4.0,5.0,6.0,0.0,45.32,14.72,0.0,
17.331,315.0,315.0,0.0,0.0,0.0,4.0,5.0,3.0,4.0,5.0,6.0,0.0,45.42,14.81,0.0,
17.343,315.0,315.0,0.0,0.0,0.0,4.0,5.0,3.0,4.0,5.0,6.0,0.0,45.42,14.81,0.0,
17.356,315.0,315.0,0.0,0.0,0.0,4.0,5.0,3.0,4.0,5.0,6.0,0.0,45.32,14.91,0.0,
17.37,315.0,315.0,0.0,0.0,0.0,4.0,5.0,3.0,4.0,5.0,6.0,0.0,45.32,15.01,0.0,
17.382,315.0,315.0,0.0,0.0,0.0,4.0,5.0,3.0,4.0,5.0,6.0,0.0,45.42,15.01,0.0,
17.395,315.0,315.0,0.0,0.0,0.0,4.0,5.0,3.0,4.0,5.0,6.0,0.0,45.42,14.91,0.0,
17.409,315.0,315.0,0.0,0.0,0.0,4.0,5.0,3.0,4.0,5.0,6.0,0.0,45.42,14.91,0.0,
17.422,315.0,315.0,0.0,0.0,0.0,4.0,5.0,3.0,4.0,5.0,6.0,0.0,45.32,14.72,0.0,
17.434,315.0,315.0,0.0,0.0,0.0,4.0,5.0,3.0,4.0,5.0,6.0,0.0,45.32,14.72,0.0,
17.447,315.0,315.0,0.0,0.0,0.0,4.0,5.0,3.0,4.0,5.0,6.0,0.0,45.22,14.72,0.0,
17.461,315.0,315.0,0.0,0.0,0.0,4.0,5.0,3.0,4.0,5.0,6.0,0.0,45.13,14.72,0.0,
17.473,315.0,315.0,0.0,0.0,0.0,4.0,5.0,3.0,4.0,5.0,6.0,0.0,45.13,15.01,0.0,
17.486,315.0,315.0,0.0,0.0,0.0,4.0,5.0,3.0,4.0,5.0,6.0,0.0,45.13,15.3,0.0,
17.5,315.0,315.0,0.0,0.0,0.0,4.0,5.0,3.0,4.0,5.0,6.0,0.0,45.03,15.4,0.0,
17.512,315.0,315.0,0.0,0.0,0.0,4.0,5.0,3.0,4.0,5.0,6.0,0.0,968.54,15.4,0.0,
17.534,315.0,315.0,0.0,0.0,0.0,4.0,5.0,3.0,4.0,5.0,6.0,0.0,44.73,15.6,0.0,
17.548,315.0,315.0,0.0,0.0,0.0,4.0,5.0,3.0,4.0,5.0,6.0,0.0,44.73,15.6,0.0,
17.561,315.0,315.0,0.0,0.0,0.0,4.0,5.0,3.0,4.0,5.0,6.0,0.0,44.64,15.5,0.0,
17.573,315.0,315.0,0.0,0.0,0.0,4.0,5.0,3.0,4.0,5.0,6.0,0.0,44.64,15.5,0.0,
17.587,315.0,315.0,0.0,0.0,0.0,4.0,5.0,3.0,4.0,5.0,6.0,0.0,44.54,15.6,0.0,
17.6,315.0,315.0,0.0,0.0,0.0,4.0,5.0,3.0,4.0,5.0,6.0,0.0,44.54,15.6,0.0,
17.612,315.0,315.0,0.0,0.0,0.0,4.0,5.0,3.0,4.0,5.0,6.0,0.0,44.44,15.6,0.0,
17.626,315.0,315.0,0.0,0.0,0.0,4.0,5.0,3.0,4.0,5.0,6.0,0.0,44.44,15.7,0.0,
17.639,315.0,315.0,0.0,0.0,0.0,4.0,5.0,3.0,4.0,5.0,6.0,0.0,44.44,15.7,0.0,
17.652,315.0,315.0,0.0,0.0,0.0,4.0,5.0,3.0,4.0,5.0,6.0,0.0,44.44,15.6,0.0,
17.665,315.0,315.0,0.0,0.0,0.0,4.0,5.0,3.0,4.0,5.0,6.0,0.0,44.44,15.5,0.0,
17.678,315.0,315.0,0.0,0.0,0.0,4.0,5.0,3.0,4.0,5.0,6.0,0.0,44.34,15.4,0.0,
17.691,315.0,315.0,0.0,0.0,0.0,4.0,5.0,3.0,4.0,5.0,6.0,0.0,44.44,15.21,0.0,
17.703,315.0,315.0,0.0,0.0,0.0,4.0,5.0,3.0,4.0,5.0,6.0,0.0,44.44,15.21,0.0,
17.717,315.0,315.0,0.0,0.0,0.0,4.0,5.0,3.0,4.0,5.0,6.0,0.0,44.54,15.01,0.0,
17.73,315.0,315.0,0.0,0.0,0.0,4.0,5.0,3.0,4.0,5.0,6.0,0.0,44.54,15.01,0.0,
17.742,315.0,315.0,0.0,0.0,0.0,4.0,5.0,3.0,4.0,5.0,6.0,0.0,44.54,14.91,0.0,
17.756,315.0,315.0,0.0,0.0,0.0,4.0,5.0,3.0,4.0,5.0,6.0,0.0,44.54,14.81,0.0,
17.769,315.0,315.0,0.0,0.0,0.0,4.0,5.0,3.0,4.0,5.0,6.0,0.0,44.64,14.72,0.0,
17.781,315.0,315.0,0.0,0.0,0.0,4.0,5.0,3.0,4.0,5.0,6.0,0.0,44.64,14.52,0.0,
17.795,315.0,315.0,0.0,0.0,0.0,4.0,5.0,3.0,4.0,5.0,6.0,0.0,44.93,14.22,0.0,
17.808,315.0,315.0,0.0,0.0,0.0,4.0,5.0,3.0,4.0,5.0,6.0,0.0,45.03,14.13,0.0,
17.821,315.0,315.0,0.0,0.0,0.0,4.0,5.0,3.0,4.0,5.0,6.0,0.0,45.03,14.03,0.0,
17.833,315.0,315.0,0.0,0.0,0.0,4.0,5.0,3.0,4.0,5.0,6.0,0.0,45.13,13.83,0.0,
17.847,315.0,315.0,0.0,0.0,0.0,4.0,5.0,3.0,4.0,5.0,6.0,0.0,45.13,13.83,0.0,
17.86,315.0,315.0,0.0,0.0,0.0,4.0,5.0,3.0,4.0,5.0,6.0,0.0,45.22,13.83,0.0,
17.872,315.0,315.0,0.0,0.0,0.0,4.0,5.0,3.0,4.0,5.0,6.0,0.0,45.22,13.54,0.0,
17.886,315.0,315.0,0.0,0.0,0.0,4.0,5.0,3.0,4.0,5.0,6.0,0.0,45.32,13.44,0.0,
17.899,315.0,315.0,0.0,0.0,0.0,4.0,5.0,3.0,4.0,5.0,6.0,0.0,45.32,13.44,0.0,
17.911,315.0,315.0,0.0,0.0,0.0,4.0,5.0,3.0,4.0,5.0,6.0,0.0,45.32,13.44,0.0,
17.925,315.0,315.0,0.0,0.0,0.0,4.0,5.0,3.0,4.0,5.0,6.0,0.0,45.22,13.54,0.0,
17.938,315.0,315.0,0.0,0.0,0.0,4.0,5.0,3.0,4.0,5.0,6.0,0.0,45.22,13.54,0.0,
17.951,315.0,315.0,0.0,0.0,0.0,4.0,5.0,3.0,4.0,5.0,6.0,0.0,45.22,13.24,0.0,
17.964,315.0,315.0,0.0,0.0,0.0,4.0,5.0,3.0,4.0,5.0,6.0,0.0,45.13,13.15,0.0,
17.977,315.0,315.0,0.0,0.0,0.0,4.0,5.0,3.0,4.0,5.0,6.0,0.0,45.13,13.05,0.0,
17.99,315.0,315.0,0.0,0.0,0.0,4.0,5.0,3.0,4.0,5.0,6.0,0.0,45.03,13.05,0.0,
18.002,315.0,315.0,0.0,0.0,0.0,4.0,5.0,3.0,4.0,5.0,6.0,0.0,44.93,12.95,0.0,
18.016,315.0,315.0,0.0,0.0,0.0,4.0,5.0,3.0,4.0,5.0,6.0,0.0,44.73,12.85,0.0,
18.029,315.0,315.0,0.0,0.0,0.0,4.0,5.0,3.0,4.0,5.0,6.0,0.0,44.73,12.65,0.0,
18.042,315.0,315.0,0.0,0.0,0.0,4.0,5.0,3.0,4.0,5.0,6.0,0.0,44.73,12.56,0.0,
18.055,315.0,315.0,0.0,0.0,0.0,4.0,5.0,3.0,4.0,5.0,6.0,0.0,44.83,12.65,0.0,
18.068,315.0,315.0,0.0,0.0,0.0,4.0,5.0,3.0,4.0,5.0,6.0,0.0,44.83,12.56,0.0,
18.081,315.0,315.0,0.0,0.0,0.0,4.0,5.0,3.0,4.0,5.0,6.0,0.0,44.83,12.46,0.0,
18.094,315.0,315.0,0.0,0.0,0.0,4.0,5.0,3.0,4.0,5.0,6.0,0.0,44.83,12.16,0.0,
18.107,315.0,315.0,0.0,0.0,0.0,4.0,5.0,3.0,4.0,5.0,6.0,0.0,44.93,11.97,0.0,
18.12,315.0,315.0,0.0,0.0,0.0,4.0,5.0,3.0,4.0,5.0,6.0,0.0,44.93,11.97,0.0,
18.132,315.0,315.0,0.0,0.0,0.0,4.0,5.0,3.0,5.0,5.0,6.0,0.0,45.03,11.87,0.0,
18.146,315.0,315.0,0.0,0.0,0.0,4.0,5.0,3.0,5.0,5.0,6.0,0.0,44.93,11.77,0.0,
18.159,315.0,315.0,0.0,0.0,0.0,4.0,5.0,3.0,5.0,5.0,6.0,0.0,44.93,11.77,0.0,
18.172,315.0,315.0,0.0,0.0,0.0,4.0,5.0,3.0,5.0,5.0,6.0,0.0,44.93,11.97,0.0,
18.185,315.0,315.0,0.0,0.0,0.0,4.0,5.0,3.0,5.0,5.0,6.0,0.0,44.93,11.87,0.0,
18.198,315.0,315.0,0.0,0.0,0.0,4.0,5.0,3.0,5.0,5.0,6.0,0.0,44.83,11.97,0.0,
18.211,315.0,315.0,0.0,0.0,0.0,4.0,5.0,3.0,5.0,5.0,6.0,0.0,44.73,12.07,0.0,
18.224,315.0,315.0,0.0,0.0,0.0,4.0,5.0,3.0,5.0,5.0,6.0,0.0,44.73,12.16,0.0,
18.237,315.0,315.0,0.0,0.0,0.0,4.0,5.0,3.0,5.0,5.0,6.0,0.0,44.64,12.36,0.0,
18.25,315.0,315.0,0.0,0.0,0.0,4.0,5.0,3.0,5.0,5.0,6.0,0.0,44.54,12.56,0.0,
18.263,315.0,315.0,0.0,0.0,0.0,4.0,5.0,3.0,5.0,5.0,6.0,0.0,44.44,12.75,0.0,
18.276,315.0,315.0,0.0,0.0,0.0,4.0,5.0,3.0,5.0,5.0,6.0,0.0,44.34,12.75,0.0,
18.289,315.0,315.0,0.0,0.0,0.0,4.0,5.0,3.0,5.0,5.0,6.0,0.0,44.24,12.75,0.0,
18.302,315.0,315.0,0.0,0.0,0.0,4.0,5.0,3.0,5.0,5.0,6.0,0.0,44.15,12.85,0.0,
18.315,315.0,315.0,0.0,0.0,0.0,4.0,5.0,3.0,5.0,5.0,6.0,1.0,44.05,12.85,0.0,
18.328,315.0,315.0,0.0,0.0,0.0,4.0,5.0,3.0,5.0,5.0,6.0,1.0,44.05,12.85,0.0,
18.341,315.0,315.0,0.0,0.0,0.0,4.0,5.0,3.0,5.0,5.0,6.0,1.0,44.05,12.75,0.0,
18.354,315.0,315.0,0.0,0.0,0.0,4.0,5.0,3.0,5.0,5.0,6.0,1.0,43.95,12.85,0.0,
18.367,315.0,315.0,0.0,0.0,0.0,4.0,5.0,3.0,5.0,5.0,6.0,1.0,43.95,12.85,0.0,
18.38,315.0,315.0,0.0,0.0,0.0,4.0,5.0,3.0,5.0,5.0,6.0,1.0,43.85,12.85,0.0,
18.393,315.0,315.0,0.0,0.0,0.0,4.0,5.0,3.0,5.0,5.0,6.0,1.0,43.65,12.85,0.0,
18.406,315.0,315.0,0.0,0.0,0.0,4.0,5.0,3.0,5.0,5.0,6.0,1.0,43.65,13.05,0.0,
18.419,315.0,315.0,0.0,0.0,0.0,4.0,5.0,3.0,5.0,5.0,6.0,1.0,43.56,13.15,0.0,
18.433,315.0,315.0,0.0,0.0,0.0,4.0,5.0,3.0,5.0,5.0,6.0,1.0,43.46,13.24,0.0,
18.445,315.0,315.0,0.0,0.0,0.0,4.0,5.0,3.0,5.0,5.0,6.0,1.0,43.36,13.34,0.0,
18.458,315.0,315.0,0.0,0.0,0.0,4.0,5.0,3.0,5.0,5.0,6.0,1.0,43.36,13.34,0.0,
18.471,315.0,315.0,0.0,0.0,0.0,4.0,5.0,3.0,5.0,5.0,6.0,1.0,43.16,13.44,0.0,
18.484,315.0,315.0,0.0,0.0,0.0,4.0,5.0,3.0,5.0,5.0,6.0,1.0,43.07,13.44,0.0,
18.497,315.0,315.0,0.0,0.0,0.0,4.0,5.0,3.0,5.0,5.0,6.0,1.0,43.07,13.44,0.0,
18.51,315.0,315.0,0.0,0.0,0.0,4.0,5.0,3.0,5.0,5.0,6.0,1.0,43.07,13.34,0.0,
18.523,315.0,315.0,0.0,0.0,0.0,4.0,5.0,3.0,5.0,5.0,6.0,1.0,42.97,13.24,0.0,
18.536,315.0,315.0,0.0,0.0,0.0,4.0,5.0,3.0,5.0,5.0,6.0,1.0,42.87,13.05,0.0,
18.549,315.0,315.0,0.0,0.0,0.0,4.0,5.0,3.0,5.0,5.0,6.0,1.0,42.87,12.75,0.0,
18.563,315.0,315.0,0.0,0.0,0.0,4.0,5.0,3.0,5.0,5.0,6.0,1.0,42.67,12.65,0.0,
18.575,315.0,315.0,0.0,0.0,0.0,4.0,5.0,3.0,5.0,5.0,6.0,1.0,42.58,12.56,0.0,
18.588,315.0,315.0,0.0,0.0,0.0,4.0,5.0,3.0,5.0,5.0,6.0,1.0,42.58,12.56,0.0,
18.601,315.0,315.0,0.0,0.0,0.0,4.0,5.0,3.0,5.0,5.0,6.0,1.0,42.48,12.65,0.0,
18.614,315.0,315.0,0.0,0.0,0.0,4.0,5.0,3.0,5.0,5.0,6.0,1.0,42.38,12.85,0.0,
18.627,315.0,315.0,0.0,0.0,0.0,4.0,5.0,3.0,5.0,5.0,6.0,1.0,42.38,13.24,0.0,
18.64,315.0,315.0,0.0,0.0,0.0,4.0,5.0,3.0,5.0,5.0,6.0,1.0,42.18,13.44,0.0,
18.653,315.0,315.0,0.0,0.0,0.0,4.0,5.0,3.0,5.0,5.0,6.0,1.0,42.08,13.64,0.0,
18.666,315.0,315.0,0.0,0.0,0.0,4.0,5.0,3.0,5.0,5.0,6.0,1.0,41.99,13.73,0.0,
18.679,315.0,315.0,0.0,0.0,0.0,4.0,5.0,3.0,5.0,5.0,6.0,1.0,41.89,13.93,0.0,
18.693,315.0,315.0,0.0,0.0,0.0,4.0,5.0,3.0,5.0,5.0,6.0,1.0,41.79,13.93,0.0,
18.705,315.0,315.0,0.0,0.0,0.0,4.0,5.0,3.0,5.0,5.0,6.0,1.0,41.69,14.42,0.0,
18.718,315.0,315.0,0.0,0.0,0.0,4.0,5.0,3.0,5.0,5.0,6.0,1.0,41.5,14.72,0.0,
18.732,315.0,315.0,0.0,0.0,0.0,4.0,5.0,3.0,5.0,5.0,6.0,0.0,41.2,15.01,0.0,
18.744,315.0,315.0,0.0,0.0,0.0,4.0,5.0,3.0,5.0,5.0,6.0,0.0,41.01,15.4,0.0,
18.757,315.0,315.0,0.0,0.0,0.0,4.0,5.0,3.0,5.0,5.0,6.0,0.0,40.71,15.79,0.0,
18.77,315.0,315.0,0.0,0.0,0.0,4.0,5.0,3.0,5.0,5.0,6.0,0.0,40.42,16.09,0.0,
18.783,315.0,315.0,0.0,0.0,0.0,4.0,5.0,3.0,5.0,5.0,6.0,0.0,40.12,16.68,0.0,
18.796,315.0,315.0,0.0,0.0,0.0,4.0,5.0,3.0,5.0,5.0,6.0,0.0,39.93,16.87,0.0,
18.809,315.0,315.0,0.0,0.0,0.0,4.0,5.0,3.0,5.0,5.0,6.0,0.0,39.63,17.17,0.0,
18.823,315.0,315.0,0.0,0.0,0.0,4.0,5.0,3.0,5.0,5.0,6.0,0.0,39.44,17.36,0.0,
18.835,315.0,315.0,0.0,0.0,0.0,4.0,5.0,3.0,5.0,5.0,6.0,0.0,39.24,17.56,0.0,
18.848,315.0,315.0,0.0,0.0,0.0,4.0,5.0,3.0,5.0,5.0,6.0,0.0,39.04,17.76,0.0,
18.862,315.0,315.0,0.0,0.0,0.0,4.0,5.0,3.0,5.0,5.0,6.0,0.0,39.04,17.76,0.0,
18.874,315.0,315.0,0.0,0.0,0.0,4.0,5.0,3.0,5.0,5.0,6.0,0.0,38.95,17.66,0.0,
18.887,315.0,315.0,0.0,0.0,0.0,4.0,5.0,3.0,5.0,5.0,6.0,0.0,38.85,17.56,0.0,
18.9,315.0,315.0,0.0,0.0,0.0,4.0,5.0,3.0,5.0,5.0,6.0,0.0,38.75,17.56,0.0,
18.913,315.0,315.0,0.0,0.0,0.0,4.0,5.0,3.0,5.0,5.0,6.0,0.0,38.65,17.46,0.0,
18.926,315.0,315.0,0.0,0.0,0.0,4.0,5.0,3.0,5.0,5.0,6.0,0.0,38.65,17.27,0.0,
18.939,315.0,315.0,0.0,0.0,0.0,4.0,5.0,3.0,4.0,5.0,6.0,0.0,38.75,17.07,0.0,
18.953,315.0,315.0,0.0,0.0,0.0,4.0,5.0,3.0,5.0,5.0,6.0,0.0,38.85,16.87,0.0,
18.965,315.0,315.0,0.0,0.0,0.0,4.0,5.0,3.0,5.0,5.0,6.0,1.0,38.85,16.48,0.0,
18.978,315.0,315.0,0.0,0.0,0.0,4.0,5.0,3.0,5.0,5.0,6.0,1.0,38.75,16.28,0.0,
18.992,315.0,315.0,0.0,0.0,0.0,4.0,5.0,3.0,5.0,5.0,6.0,1.0,38.65,16.09,0.0,
19.004,315.0,315.0,0.0,0.0,0.0,4.0,5.0,3.0,5.0,5.0,6.0,1.0,38.65,15.89,0.0,
19.017,315.0,315.0,0.0,0.0,0.0,4.0,5.0,3.0,5.0,5.0,6.0,1.0,38.65,15.79,0.0,
19.031,315.0,315.0,0.0,0.0,0.0,4.0,5.0,3.0,5.0,5.0,6.0,1.0,38.55,15.79,0.0,
19.043,315.0,315.0,0.0,0.0,0.0,4.0,5.0,3.0,5.0,5.0,6.0,1.0,38.55,15.79,0.0,
19.056,315.0,315.0,0.0,0.0,0.0,4.0,5.0,3.0,5.0,5.0,6.0,1.0,38.55,15.79,0.0,
19.069,315.0,315.0,0.0,0.0,0.0,4.0,5.0,3.0,5.0,5.0,6.0,1.0,38.36,15.89,0.0,
19.083,315.0,315.0,0.0,0.0,0.0,4.0,5.0,3.0,5.0,5.0,6.0,1.0,38.36,15.99,0.0,
19.095,315.0,315.0,0.0,0.0,0.0,4.0,5.0,3.0,5.0,5.0,6.0,1.0,38.26,16.09,0.0,
19.108,315.0,315.0,0.0,0.0,0.0,4.0,5.0,3.0,5.0,5.0,6.0,1.0,38.26,16.09,0.0,
19.122,315.0,315.0,0.0,0.0,0.0,4.0,5.0,3.0,5.0,5.0,6.0,1.0,38.06,16.09,0.0,
19.134,315.0,315.0,0.0,0.0,0.0,4.0,5.0,3.0,5.0,5.0,6.0,1.0,38.06,16.09,0.0,
19.147,315.0,315.0,0.0,0.0,0.0,4.0,5.0,3.0,5.0,5.0,6.0,1.0,37.87,15.99,0.0,
19.161,315.0,315.0,0.0,0.0,0.0,4.0,5.0,3.0,5.0,5.0,6.0,1.0,37.77,15.89,0.0,
19.173,315.0,315.0,0.0,0.0,0.0,4.0,5.0,3.0,5.0,5.0,6.0,1.0,37.67,15.79,0.0,
19.186,315.0,315.0,0.0,0.0,0.0,4.0,5.0,3.0,5.0,5.0,6.0,1.0,37.67,15.79,0.0,
19.2,315.0,315.0,0.0,0.0,0.0,4.0,5.0,3.0,5.0,5.0,6.0,1.0,37.57,15.79,0.0,
19.213,315.0,315.0,0.0,0.0,0.0,4.0,5.0,3.0,5.0,5.0,6.0,1.0,37.57,15.79,0.0,
19.225,315.0,315.0,0.0,0.0,0.0,4.0,5.0,3.0,5.0,5.0,6.0,1.0,37.57,15.99,0.0,
19.238,315.0,315.0,0.0,0.0,0.0,4.0,5.0,3.0,5.0,5.0,6.0,1.0,37.38,16.09,0.0,
19.252,315.0,315.0,0.0,0.0,0.0,4.0,5.0,3.0,5.0,5.0,6.0,1.0,37.28,16.28,0.0,
19.264,315.0,315.0,0.0,0.0,0.0,4.0,5.0,3.0,5.0,5.0,6.0,1.0,37.18,16.28,0.0,
19.277,315.0,315.0,0.0,0.0,0.0,4.0,5.0,3.0,5.0,5.0,6.0,1.0,37.18,16.38,0.0,
19.291,315.0,315.0,0.0,0.0,0.0,4.0,5.0,3.0,5.0,5.0,6.0,1.0,37.08,16.48,0.0,
19.303,315.0,315.0,0.0,0.0,0.0,4.0,5.0,3.0,5.0,5.0,6.0,1.0,37.08,16.68,0.0,
19.316,315.0,315.0,0.0,0.0,0.0,4.0,5.0,3.0,5.0,5.0,6.0,1.0,36.89,16.87,0.0,
19.33,315.0,315.0,0.0,0.0,0.0,4.0,5.0,3.0,5.0,5.0,6.0,1.0,36.79,16.97,0.0,
19.343,315.0,315.0,0.0,0.0,0.0,4.0,5.0,3.0,5.0,5.0,6.0,1.0,36.79,17.17,0.0,
19.355,315.0,315.0,0.0,0.0,0.0,4.0,5.0,3.0,5.0,5.0,6.0,1.0,36.79,17.36,0.0,
19.368,315.0,315.0,0.0,0.0,0.0,4.0,5.0,3.0,5.0,5.0,6.0,1.0,36.69,17.56,0.0,
19.382,315.0,315.0,0.0,0.0,0.0,4.0,5.0,3.0,5.0,5.0,6.0,1.0,36.59,17.85,0.0,
19.394,315.0,315.0,0.0,0.0,0.0,4.0,5.0,3.0,5.0,5.0,6.0,1.0,36.59,18.05,0.0,
19.407,315.0,315.0,0.0,0.0,0.0,4.0,5.0,3.0,5.0,5.0,6.0,0.0,36.49,18.25,0.0,
19.421,315.0,315.0,0.0,0.0,0.0,4.0,5.0,3.0,5.0,5.0,6.0,0.0,36.4,18.44,0.0,
19.433,315.0,315.0,0.0,0.0,0.0,4.0,5.0,3.0,5.0,5.0,6.0,0.0,36.4,18.84,0.0,
19.446,315.0,315.0,0.0,0.0,0.0,4.0,5.0,3.0,5.0,5.0,6.0,0.0,36.2,19.33,0.0,
19.46,315.0,315.0,0.0,0.0,0.0,4.0,5.0,3.0,5.0,5.0,6.0,0.0,36.2,19.91,0.0,
19.473,315.0,315.0,0.0,0.0,0.0,4.0,5.0,3.0,5.0,5.0,6.0,0.0,36.2,20.31,0.0,
19.485,315.0,315.0,0.0,0.0,0.0,4.0,5.0,3.0,5.0,5.0,6.0,0.0,36.0,20.7,0.0,
19.499,315.0,315.0,0.0,0.0,0.0,4.0,5.0,3.0,4.0,5.0,5.0,0.0,36.0,21.09,0.0,
19.512,315.0,315.0,0.0,0.0,0.0,4.0,5.0,3.0,4.0,5.0,5.0,0.0,35.9,21.39,0.0,
19.524,315.0,315.0,0.0,0.0,0.0,4.0,5.0,3.0,4.0,5.0,5.0,0.0,35.81,21.68,0.0,
19.537,315.0,315.0,0.0,0.0,0.0,4.0,5.0,3.0,4.0,5.0,5.0,0.0,35.71,22.37,0.0,
19.551,315.0,315.0,0.0,0.0,0.0,4.0,5.0,3.0,4.0,5.0,5.0,0.0,35.51,22.56,0.0,
19.563,315.0,315.0,0.0,0.0,0.0,4.0,5.0,3.0,4.0,5.0,5.0,0.0,35.51,22.76,0.0,
19.576,315.0,315.0,0.0,0.0,0.0,4.0,5.0,3.0,4.0,5.0,5.0,0.0,35.32,22.96,0.0,
19.59,315.0,315.0,0.0,0.0,0.0,4.0,5.0,3.0,4.0,5.0,5.0,0.0,35.32,23.05,0.0,
19.603,315.0,315.0,0.0,0.0,0.0,4.0,5.0,3.0,4.0,5.0,5.0,0.0,35.22,23.45,0.0,
19.615,315.0,315.0,0.0,0.0,0.0,4.0,5.0,3.0,4.0,5.0,5.0,0.0,35.12,23.45,0.0,
19.629,315.0,315.0,0.0,0.0,0.0,4.0,5.0,3.0,4.0,5.0,5.0,0.0,35.02,23.54,0.0,
19.642,315.0,315.0,0.0,0.0,0.0,4.0,5.0,3.0,4.0,5.0,5.0,0.0,35.02,23.64,0.0,
19.654,315.0,315.0,0.0,0.0,0.0,4.0,5.0,3.0,4.0,5.0,5.0,0.0,34.83,23.84,0.0,
19.667,315.0,315.0,0.0,0.0,0.0,4.0,5.0,3.0,4.0,5.0,5.0,0.0,34.83,23.94,0.0,
19.681,315.0,315.0,0.0,0.0,0.0,4.0,5.0,3.0,4.0,5.0,5.0,0.0,34.83,24.23,0.0,
19.693,315.0,315.0,0.0,0.0,0.0,4.0,5.0,3.0,4.0,5.0,5.0,0.0,34.73,24.33,0.0,
19.706,315.0,315.0,0.0,0.0,0.0,4.0,5.0,3.0,4.0,5.0,5.0,0.0,34.73,24.33,0.0,
19.72,315.0,315.0,0.0,0.0,0.0,4.0,5.0,3.0,4.0,5.0,5.0,0.0,34.73,24.43,0.0,
19.733,315.0,315.0,0.0,0.0,0.0,4.0,5.0,3.0,4.0,5.0,5.0,0.0,34.73,24.43,0.0,
19.745,315.0,315.0,0.0,0.0,0.0,4.0,5.0,3.0,4.0,5.0,5.0,0.0,34.63,24.52,0.0,
19.759,315.0,315.0,0.0,0.0,0.0,4.0,5.0,3.0,4.0,5.0,5.0,0.0,34.53,24.33,0.0,
19.772,315.0,315.0,0.0,0.0,0.0,4.0,5.0,3.0,4.0,5.0,5.0,0.0,34.53,24.43,0.0,
19.784,315.0,315.0,0.0,0.0,0.0,4.0,5.0,3.0,4.0,5.0,5.0,0.0,34.43,24.43,0.0,
19.798,315.0,315.0,0.0,0.0,0.0,4.0,5.0,3.0,4.0,5.0,5.0,0.0,34.34,24.62,0.0,
19.811,315.0,315.0,0.0,0.0,0.0,4.0,5.0,3.0,4.0,5.0,5.0,0.0,34.24,24.92,0.0,
19.823,315.0,315.0,0.0,0.0,0.0,4.0,4.0,3.0,4.0,5.0,5.0,0.0,33.94,25.31,0.0,
19.836,315.0,315.0,0.0,0.0,0.0,4.0,4.0,3.0,4.0,5.0,5.0,0.0,33.84,25.9,0.0,
19.85,315.0,315.0,0.0,0.0,0.0,4.0,4.0,3.0,4.0,5.0,5.0,0.0,33.75,26.19,0.0,
19.863,315.0,315.0,0.0,0.0,0.0,4.0,4.0,3.0,4.0,5.0,5.0,0.0,33.55,26.59,0.0,
19.875,315.0,315.0,0.0,0.0,0.0,4.0,4.0,3.0,4.0,5.0,5.0,0.0,33.45,26.88,0.0,
19.889,315.0,315.0,0.0,0.0,0.0,4.0,4.0,3.0,4.0,5.0,5.0,0.0,33.35,27.08,0.0,
19.902,315.0,315.0,0.0,0.0,0.0,4.0,4.0,3.0,4.0,5.0,5.0,0.0,33.16,27.47,0.0,
19.914,315.0,315.0,0.0,0.0,0.0,4.0,4.0,3.0,4.0,5.0,5.0,0.0,32.96,27.86,0.0,
19.928,315.0,315.0,0.0,0.0,0.0,4.0,4.0,3.0,4.0,5.0,5.0,0.0,32.86,27.96,0.0,
19.941,315.0,315.0,0.0,0.0,0.0,4.0,4.0,3.0,4.0,5.0,5.0,0.0,32.77,28.15,0.0,
19.953,315.0,315.0,0.0,0.0,0.0,4.0,4.0,3.0,4.0,5.0,5.0,0.0,32.67,28.25,0.0,
19.966,315.0,315.0,0.0,0.0,0.0,4.0,4.0,3.0,4.0,5.0,5.0,0.0,32.57,28.35,0.0,
19.98,315.0,315.0,0.0,0.0,0.0,4.0,4.0,3.0,4.0,5.0,5.0,0.0,32.47,28.74,0.0,
19.993,315.0,315.0,0.0,0.0,0.0,4.0,4.0,3.0,4.0,5.0,5.0,0.0,32.37,28.94,0.0,
20.005,315.0,315.0,0.0,0.0,0.0,4.0,4.0,3.0,4.0,5.0,5.0,0.0,32.08,29.23,0.0,
20.019,315.0,315.0,0.0,0.0,0.0,4.0,4.0,3.0,4.0,5.0,5.0,0.0,31.98,29.43,0.0,
20.032,315.0,315.0,0.0,0.0,0.0,4.0,4.0,3.0,4.0,5.0,5.0,0.0,31.88,29.72,0.0,
20.044,315.0,315.0,0.0,0.0,0.0,4.0,4.0,3.0,4.0,5.0,5.0,0.0,31.69,30.02,0.0,
20.058,315.0,315.0,0.0,0.0,0.0,4.0,4.0,3.0,4.0,5.0,5.0,0.0,31.59,30.51,0.0,
20.071,315.0,315.0,0.0,0.0,0.0,4.0,4.0,3.0,4.0,4.0,5.0,0.0,31.59,30.9,0.0,
20.083,315.0,315.0,0.0,0.0,0.0,4.0,4.0,3.0,4.0,4.0,5.0,0.0,31.2,31.2,0.0,
20.097,315.0,315.0,0.0,0.0,0.0,4.0,4.0,3.0,4.0,4.0,5.0,0.0,31.1,31.49,0.0,
20.11,315.0,315.0,0.0,0.0,0.0,4.0,4.0,3.0,4.0,4.0,5.0,0.0,31.1,31.78,0.0,
20.123,315.0,315.0,0.0,0.0,0.0,4.0,4.0,3.0,4.0,4.0,5.0,0.0,31.0,31.98,0.0,
20.135,315.0,315.0,0.0,0.0,0.0,4.0,4.0,3.0,4.0,4.0,5.0,0.0,31.0,32.27,0.0,
20.149,315.0,315.0,0.0,0.0,0.0,4.0,4.0,3.0,4.0,4.0,5.0,0.0,30.9,32.27,0.0,
20.162,315.0,315.0,0.0,0.0,0.0,4.0,4.0,3.0,4.0,4.0,5.0,0.0,30.9,32.27,0.0,
20.174,315.0,315.0,0.0,0.0,0.0,4.0,4.0,3.0,4.0,4.0,5.0,0.0,30.9,32.27,0.0,
20.188,315.0,315.0,0.0,0.0,0.0,4.0,4.0,3.0,4.0,4.0,5.0,0.0,30.8,32.27,0.0,
20.201,315.0,315.0,0.0,0.0,0.0,4.0,4.0,3.0,4.0,4.0,5.0,0.0,30.8,32.27,0.0,
20.213,315.0,315.0,0.0,0.0,0.0,4.0,4.0,3.0,4.0,4.0,5.0,0.0,30.8,32.27,0.0,
20.227,315.0,315.0,0.0,0.0,0.0,4.0,4.0,3.0,4.0,4.0,5.0,0.0,30.9,32.18,0.0,
20.24,315.0,315.0,0.0,0.0,0.0,4.0,4.0,3.0,4.0,4.0,5.0,0.0,30.8,31.98,0.0,
20.253,315.0,315.0,0.0,0.0,0.0,4.0,4.0,3.0,4.0,4.0,5.0,0.0,30.9,31.88,0.0,
20.265,315.0,315.0,0.0,0.0,0.0,4.0,4.0,3.0,4.0,4.0,5.0,0.0,30.9,31.69,0.0,
20.279,315.0,315.0,0.0,0.0,0.0,4.0,4.0,3.0,4.0,4.0,5.0,0.0,30.9,31.49,0.0,
20.292,315.0,315.0,0.0,0.0,0.0,4.0,4.0,3.0,4.0,4.0,5.0,0.0,31.0,31.39,0.0,
20.304,315.0,315.0,0.0,0.0,0.0,4.0,4.0,3.0,4.0,4.0,5.0,0.0,31.1,31.29,0.0,
20.318,315.0,315.0,0.0,0.0,0.0,4.0,4.0,3.0,4.0,4.0,5.0,0.0,31.1,31.1,0.0,
20.331,315.0,315.0,0.0,0.0,0.0,4.0,4.0,3.0,4.0,4.0,5.0,0.0,31.29,31.0,0.0,
20.343,315.0,315.0,0.0,0.0,0.0,4.0,4.0,3.0,4.0,4.0,5.0,0.0,31.2,30.8,0.0,
20.357,315.0,315.0,0.0,0.0,0.0,4.0,4.0,3.0,4.0,4.0,5.0,0.0,31.29,30.41,0.0,
20.37,315.0,315.0,0.0,0.0,0.0,4.0,4.0,3.0,4.0,4.0,5.0,0.0,31.39,30.31,0.0,
20.383,315.0,315.0,0.0,0.0,0.0,4.0,4.0,3.0,4.0,4.0,5.0,0.0,31.49,30.21,0.0,
20.396,315.0,315.0,0.0,0.0,0.0,4.0,4.0,3.0,4.0,4.0,5.0,0.0,31.49,30.12,0.0,
20.409,315.0,315.0,0.0,0.0,0.0,4.0,4.0,3.0,4.0,4.0,5.0,0.0,31.39,30.02,0.0,
20.422,315.0,315.0,0.0,0.0,0.0,4.0,4.0,3.0,4.0,4.0,5.0,0.0,31.39,30.12,0.0,
20.434,315.0,315.0,0.0,0.0,0.0,4.0,4.0,3.0,4.0,4.0,5.0,0.0,31.39,30.51,0.0,
20.448,315.0,315.0,0.0,0.0,0.0,4.0,4.0,3.0,4.0,4.0,5.0,0.0,31.39,30.71,0.0,
20.461,315.0,315.0,0.0,0.0,0.0,4.0,4.0,3.0,4.0,4.0,5.0,0.0,31.49,30.8,0.0,
20.473,315.0,315.0,0.0,0.0,0.0,4.0,4.0,3.0,4.0,4.0,5.0,0.0,31.49,30.9,0.0,
20.487,315.0,315.0,0.0,0.0,0.0,4.0,4.0,3.0,4.0,4.0,5.0,0.0,31.49,30.8,0.0,
20.5,315.0,315.0,0.0,0.0,0.0,4.0,4.0,3.0,4.0,4.0,5.0,0.0,31.39,30.71,0.0,
20.513,315.0,315.0,0.0,0.0,0.0,4.0,4.0,3.0,4.0,4.0,5.0,0.0,31.49,30.71,0.0,
20.526,315.0,315.0,0.0,0.0,0.0,4.0,4.0,3.0,4.0,4.0,5.0,0.0,31.39,30.61,0.0,
20.539,315.0,315.0,0.0,0.0,0.0,4.0,4.0,3.0,4.0,4.0,5.0,0.0,31.39,30.61,0.0,
20.552,315.0,315.0,0.0,0.0,0.0,4.0,4.0,3.0,4.0,4.0,5.0,0.0,31.49,30.8,0.0,
20.564,315.0,315.0,0.0,0.0,0.0,4.0,4.0,3.0,4.0,4.0,5.0,0.0,31.49,31.0,0.0,
20.578,315.0,315.0,0.0,0.0,0.0,4.0,4.0,3.0,4.0,4.0,5.0,0.0,31.49,31.1,0.0,
20.591,315.0,315.0,0.0,0.0,0.0,4.0,4.0,3.0,4.0,4.0,5.0,0.0,31.49,31.2,0.0,
20.603,315.0,315.0,0.0,0.0,0.0,4.0,4.0,3.0,4.0,4.0,5.0,0.0,31.59,31.29,0.0,
20.617,315.0,315.0,0.0,0.0,0.0,4.0,4.0,3.0,4.0,4.0,5.0,0.0,31.59,31.29,0.0,
20.63,315.0,315.0,0.0,0.0,0.0,4.0,4.0,3.0,4.0,4.0,5.0,0.0,31.59,31.29,0.0,
20.643,315.0,315.0,0.0,0.0,0.0,4.0,4.0,3.0,4.0,4.0,5.0,0.0,31.69,31.29,0.0,
20.656,315.0,315.0,0.0,0.0,0.0,4.0,4.0,3.0,4.0,4.0,5.0,0.0,31.69,31.39,0.0,
20.669,315.0,315.0,0.0,0.0,0.0,4.0,4.0,3.0,4.0,4.0,5.0,0.0,31.69,31.39,0.0,
20.682,315.0,315.0,0.0,0.0,0.0,4.0,4.0,3.0,4.0,4.0,5.0,0.0,31.78,31.49,0.0,
20.695,315.0,315.0,0.0,0.0,0.0,4.0,4.0,3.0,4.0,4.0,5.0,0.0,31.78,31.49,0.0,
20.708,315.0,315.0,0.0,0.0,0.0,4.0,4.0,3.0,4.0,4.0,5.0,0.0,31.78,31.49,0.0,
20.721,315.0,315.0,0.0,0.0,0.0,4.0,4.0,3.0,4.0,4.0,5.0,0.0,31.78,31.49,0.0,
20.733,315.0,315.0,0.0,0.0,0.0,4.0,4.0,3.0,4.0,4.0,5.0,0.0,31.78,31.49,0.0,
20.747,315.0,315.0,0.0,0.0,0.0,4.0,4.0,3.0,4.0,4.0,5.0,0.0,31.88,31.49,0.0,
20.76,315.0,315.0,0.0,0.0,0.0,4.0,4.0,3.0,4.0,4.0,5.0,0.0,31.98,31.49,0.0,
20.773,315.0,315.0,0.0,0.0,0.0,4.0,4.0,3.0,4.0,4.0,5.0,0.0,32.08,31.29,0.0,
20.786,315.0,315.0,0.0,0.0,0.0,4.0,4.0,3.0,4.0,4.0,5.0,0.0,32.18,31.2,0.0,
20.799,315.0,315.0,0.0,0.0,0.0,4.0,4.0,3.0,4.0,4.0,5.0,0.0,32.18,31.0,0.0,
20.812,315.0,315.0,0.0,0.0,0.0,4.0,4.0,3.0,4.0,4.0,5.0,0.0,32.27,30.71,0.0,
20.825,315.0,315.0,0.0,0.0,0.0,4.0,4.0,3.0,4.0,4.0,5.0,0.0,32.37,30.41,0.0,
20.838,315.0,315.0,0.0,0.0,0.0,4.0,4.0,3.0,4.0,4.0,5.0,0.0,32.37,30.21,0.0,
20.851,315.0,315.0,0.0,0.0,0.0,4.0,4.0,3.0,4.0,4.0,5.0,0.0,32.57,30.21,0.0,
20.864,315.0,315.0,0.0,0.0,0.0,4.0,4.0,3.0,4.0,4.0,5.0,0.0,32.67,30.21,0.0,
20.877,315.0,315.0,0.0,0.0,0.0,4.0,4.0,3.0,4.0,4.0,5.0,0.0,32.67,30.12,0.0,
20.89,315.0,315.0,0.0,0.0,0.0,4.0,4.0,3.0,4.0,4.0,5.0,0.0,32.67,29.92,0.0,
