time,pitch,roll,gyrx,gyry,gyrz,f1,f2,f3,f4,f5,f6,f7,g1,g2,g3
0.369,54.38,34.85,-5.0,1.0,1.0,0.0,0.0,0.0,0.0,0.0,0.0,0.0,0.1,0.0,0.0,
0.382,60.176,38.594,-6.0,2.0,1.0,0.0,0.0,0.0,0.0,0.0,0.0,0.0,0.1,0.0,0.0,
0.396,65.7236,42.208400000000005,-6.0,2.0,1.0,0.0,0.0,0.0,0.0,0.0,0.0,0.0,0.1,0.0,0.0,
0.409,70.58036000000001,45.332840000000004,-5.0,1.0,1.0,0.0,0.0,0.0,0.0,0.0,0.0,0.0,0.1,0.0,0.0,
0.422,74.621036,48.057284,-5.0,2.0,0.0,0.0,0.0,0.0,0.0,0.0,0.0,0.0,0.1,0.0,0.1,
0.435,78.09410360000001,50.3817284,-5.0,3.0,0.0,0.0,0.0,0.0,0.0,0.0,0.0,0.0,0.1,0.0,0.0,
0.448,81.03341036,52.39617284,-5.0,2.0,1.0,0.0,0.0,0.0,0.0,0.0,0.0,0.0,0.1,0.0,0.0,
0.461,83.523341036,54.136617283999996,-5.0,2.0,1.0,0.0,0.0,0.0,0.0,0.0,0.0,0.0,0.2,0.0,0.0,
0.475,85.6353341036,55.4896617284,-5.0,2.0,1.0,0.0,0.0,0.0,0.0,0.0,0.0,0.0,0.2,0.1,0.0,
0.488,87.46653341036,56.686966172839995,-4.0,2.0,1.0,0.0,0.0,0.0,0.0,0.0,0.0,0.0,0.2,0.1,0.0,
0.501,89.071653341036,57.688696617283995,-4.0,2.0,0.0,0.0,0.0,0.0,0.0,0.0,0.0,0.0,0.2,0.0,0.0,
0.515,90.3121653341036,58.5178696617284,-3.0,3.0,0.0,0.0,0.0,0.0,0.0,0.0,0.0,0.0,0.2,0.1,0.0,
0.527,91.32721653341036,59.23978696617284,-3.0,3.0,0.0,0.0,0.0,0.0,0.0,0.0,0.0,0.0,0.2,0.1,0.0,
0.54,92.18472165334104,59.86097869661728,-3.0,3.0,0.0,0.0,0.0,0.0,0.0,0.0,0.0,0.0,0.1,0.1,0.0,
0.553,92.88247216533411,60.40009786966173,-2.0,1.0,1.0,0.0,0.0,0.0,0.0,0.0,0.0,0.0,0.1,0.1,0.0,
0.567,93.6362472165334,60.75100978696617,-2.0,1.0,1.0,0.0,0.0,0.0,0.0,0.0,0.0,0.0,0.1,0.0,0.0,
0.58,94.24262472165334,61.12810097869662,-1.0,0.0,1.0,0.0,0.0,0.0,0.0,0.0,0.0,0.0,0.1,0.1,0.0,
0.593,94.69026247216533,61.43581009786966,-1.0,0.0,0.0,0.0,0.0,0.0,0.0,0.0,0.0,0.0,0.1,0.1,0.1,
0.607,95.12202624721654,61.664581009786964,-1.0,1.0,0.0,0.0,0.0,0.0,0.0,0.0,0.0,0.0,0.1,0.1,0.0,
0.619,95.43520262472165,61.9664581009787,-2.0,0.0,0.0,0.0,0.0,0.0,0.0,0.0,0.0,0.0,0.1,0.0,0.0,
0.632,95.66452026247217,62.28464581009787,-2.0,0.0,0.0,0.0,0.0,0.0,0.0,0.0,0.0,0.0,0.1,0.1,0.0,
0.646,95.86745202624722,62.50546458100979,-2.0,1.0,0.0,0.0,0.0,0.0,0.0,0.0,0.0,0.0,0.1,0.1,0.0,
0.659,96.12174520262474,62.635546458100976,-2.0,0.0,0.0,0.0,0.0,0.0,0.0,0.0,0.0,0.0,0.2,0.0,0.0,
0.672,96.30017452026247,62.62155464581009,-2.0,0.0,-1.0,0.0,0.0,0.0,0.0,0.0,0.0,0.0,0.1,0.0,0.0,
0.686,96.39001745202626,62.73715546458101,-2.0,0.0,-1.0,0.0,0.0,0.0,0.0,0.0,0.0,0.0,0.1,0.1,0.1,
0.699,96.49800174520263,62.9467155464581,-1.0,-1.0,0.0,0.0,0.0,0.0,0.0,0.0,0.0,0.0,0.2,0.0,0.0,
0.712,96.72480017452027,63.219671554645814,0.0,0.0,-1.0,0.0,0.0,0.0,0.0,0.0,0.0,0.0,0.2,0.1,0.0,
0.724,96.97248001745203,63.39996715546458,0.0,0.0,-1.0,0.0,0.0,0.0,0.0,0.0,0.0,0.0,0.2,0.1,0.0,
0.738,97.16824800174521,63.534996715546455,0.0,0.0,-2.0,0.0,0.0,0.0,0.0,0.0,0.0,0.0,0.2,0.1,0.0,
0.751,97.29582480017453,63.60249967155465,0.0,0.0,-3.0,0.0,0.0,0.0,0.0,0.0,0.0,0.0,0.1,0.1,0.0,
0.764,97.25458248001746,63.70824996715546,0.0,1.0,-3.0,0.0,0.0,0.0,0.0,0.0,0.0,0.0,0.1,0.1,0.1,
0.778,97.26845824800174,63.94382499671555,0.0,2.0,-3.0,0.0,0.0,0.0,0.0,0.0,0.0,0.0,0.1,0.1,0.0,
0.791,97.14384582480017,64.04838249967156,0.0,2.0,-1.0,0.0,0.0,0.0,0.0,0.0,0.0,0.0,0.1,0.0,0.0,
0.803,97.12238458248001,64.09483824996715,0.0,1.0,1.0,0.0,0.0,0.0,0.0,0.0,0.0,0.0,0.2,0.0,0.0,
0.817,97.102238458248,64.00948382499672,0.0,0.0,2.0,0.0,0.0,0.0,0.0,0.0,0.0,0.0,0.1,0.1,0.0,
0.83,97.1812238458248,63.91094838249967,0.0,0.0,2.0,0.0,0.0,0.0,0.0,0.0,0.0,0.0,0.1,0.2,0.0,
0.843,97.28812238458246,63.72109483824997,0.0,-1.0,2.0,0.0,0.0,0.0,0.0,0.0,0.0,0.0,0.1,0.1,0.0,
0.856,97.46081223845825,63.57610948382499,0.0,-1.0,1.0,0.0,0.0,0.0,0.0,0.0,0.0,0.0,0.1,0.1,0.0,
0.869,97.61308122384582,63.462610948382505,-1.0,0.0,0.0,0.0,0.0,0.0,0.0,0.0,0.0,0.0,0.1,0.1,0.0,
0.882,97.61030812238458,63.43326109483825,-2.0,0.0,0.0,0.0,0.0,0.0,0.0,0.0,0.0,0.0,0.2,0.1,0.1,
0.896,97.61003081223846,63.38532610948383,-2.0,1.0,0.0,0.0,0.0,0.0,0.0,0.0,0.0,0.0,0.2,0.0,0.1,
0.909,97.52900308122385,63.398532610948386,-2.0,1.0,0.0,0.0,0.0,0.0,0.0,0.0,0.0,0.0,0.1,0.0,0.0,
0.922,97.44890030812238,63.35485326109484,-1.0,0.0,1.0,0.0,0.0,0.0,0.0,0.0,0.0,0.0,0.1,0.1,0.0,
0.934,97.42289003081223,63.30548532610948,-1.0,1.0,0.0,0.0,0.0,0.0,0.0,0.0,0.0,0.0,0.1,0.1,0.0,
0.948,97.41128900308122,63.309548532610954,-1.0,1.0,0.0,0.0,0.0,0.0,0.0,0.0,0.0,0.0,0.0,0.1,0.0,
0.961,97.42812890030814,63.2289548532611,-1.0,2.0,0.0,0.0,0.0,0.0,0.0,0.0,0.0,0.0,0.1,0.1,0.1,
0.974,97.42981289003083,63.112895485326106,-1.0,0.0,0.0,0.0,0.0,0.0,0.0,0.0,0.0,0.0,0.2,0.1,0.1,
0.988,97.51098128900308,62.95728954853261,-1.0,0.0,0.0,0.0,0.0,0.0,0.0,0.0,0.0,0.0,0.1,0.1,0.0,
1.001,97.57309812890031,62.78872895485326,-2.0,0.0,-1.0,0.0,0.0,0.0,0.0,0.0,0.0,0.0,0.1,0.1,0.0,
1.014,97.53430981289003,62.84387289548533,-2.0,0.0,-1.0,0.0,0.0,0.0,0.0,0.0,0.0,0.0,0.1,0.2,0.0,
1.028,97.512430981289,62.89438728954853,-3.0,0.0,-2.0,0.0,0.0,0.0,0.0,0.0,0.0,0.0,0.2,0.1,0.0,
1.04,97.4472430981289,62.93543872895485,-3.0,0.0,-1.0,0.0,0.0,0.0,0.0,0.0,0.0,0.0,0.1,0.1,0.0,
1.053,97.35972430981289,63.02954387289548,-2.0,0.0,-1.0,0.0,0.0,0.0,0.0,0.0,0.0,0.0,0.1,0.1,0.1,
1.067,97.2339724309813,63.30895438728955,-2.0,0.0,-1.0,0.0,0.0,0.0,0.0,0.0,0.0,0.0,0.2,0.1,0.1,
1.08,97.18539724309812,63.579895438728954,-2.0,0.0,-1.0,0.0,0.0,0.0,0.0,0.0,0.0,0.0,0.1,0.1,0.0,
1.093,97.11753972430981,63.8319895438729,-2.0,0.0,0.0,0.0,0.0,0.0,0.0,0.0,0.0,0.0,0.1,0.1,0.0,
1.106,97.15575397243099,63.9921989543873,-1.0,-2.0,0.0,0.0,0.0,0.0,0.0,0.0,0.0,0.0,0.1,0.1,0.0,
1.12,97.1775753972431,64.11621989543873,0.0,-1.0,-1.0,0.0,0.0,0.0,0.0,0.0,0.0,0.0,0.2,0.1,0.0,
1.133,97.1887575397243,64.21862198954388,0.0,-1.0,-2.0,0.0,0.0,0.0,0.0,0.0,0.0,0.0,0.2,0.0,0.0,
1.146,97.21687575397243,64.37286219895438,0.0,0.0,-2.0,0.0,0.0,0.0,0.0,0.0,0.0,0.0,0.1,0.1,0.0,
1.16,97.19268757539724,64.46028621989544,0.0,-2.0,-2.0,0.0,0.0,0.0,0.0,0.0,0.0,0.0,0.1,0.1,0.0,
1.173,97.20826875753971,64.51402862198954,0.0,-1.0,-3.0,0.0,0.0,0.0,0.0,0.0,0.0,0.0,0.1,0.1,0.0,
1.185,97.13782687575397,64.61840286219895,0.0,-2.0,-3.0,0.0,0.0,0.0,0.0,0.0,0.0,0.0,0.2,0.1,0.0,
1.199,97.1037826875754,64.7188402862199,0.0,-1.0,-3.0,0.0,0.0,0.0,0.0,0.0,0.0,0.0,0.2,0.1,0.0,
1.212,97.05537826875754,64.77388402862199,0.0,-2.0,-2.0,0.0,0.0,0.0,0.0,0.0,0.0,0.0,0.1,0.1,0.0,
1.225,96.91553782687576,64.76138840286221,0.0,-2.0,-2.0,0.0,0.0,0.0,0.0,0.0,0.0,0.0,0.2,0.1,0.0,
1.239,96.86555378268758,64.70613884028623,0.0,-2.0,-1.0,0.0,0.0,0.0,0.0,0.0,0.0,0.0,0.2,0.1,0.0,
1.252,96.81555537826875,64.62861388402862,1.0,-3.0,-1.0,0.0,0.0,0.0,0.0,0.0,0.0,0.0,0.29,0.0,0.0,
1.265,96.76555553782688,64.58486138840286,0.0,-4.0,-1.0,0.0,0.0,0.0,0.0,0.0,0.0,0.0,0.2,0.1,0.0,
1.278,96.7245555537827,64.52648613884028,1.0,-4.0,0.0,0.0,0.0,0.0,0.0,0.0,0.0,0.0,0.2,0.1,0.0,
1.292,96.91845555537826,64.18764861388404,0.0,-5.0,1.0,0.0,0.0,0.0,0.0,0.0,0.0,0.0,0.2,0.1,0.0,
1.305,96.86584555553783,64.03676486138839,0.0,-6.0,0.0,0.0,0.0,0.0,0.0,0.0,0.0,0.0,0.1,0.2,0.0,
1.318,96.95058455555377,63.89567648613884,0.0,-2.0,0.0,0.0,0.0,0.0,0.0,0.0,0.0,0.0,0.2,0.1,0.0,
1.331,96.81505845555537,63.94456764861389,0.0,-4.0,1.0,0.0,0.0,0.0,0.0,0.0,0.0,0.0,0.2,0.1,0.0,
1.344,96.77450584555554,63.922456764861394,0.0,-3.0,1.0,0.0,0.0,0.0,0.0,0.0,0.0,0.0,0.2,0.0,0.0,
1.357,96.86945058455555,63.839245676486144,0.0,-2.0,0.0,0.0,0.0,0.0,0.0,0.0,0.0,0.0,0.1,0.1,0.0,
1.371,96.91494505845556,63.72292456764861,-1.0,-2.0,0.0,0.0,0.0,0.0,0.0,0.0,0.0,0.0,0.1,0.1,0.1,
1.384,97.04549450584555,63.56729245676486,-1.0,-3.0,0.0,0.0,0.0,0.0,0.0,0.0,0.0,0.0,0.1,0.1,0.0,
1.397,97.24754945058454,63.47972924567648,-1.0,-3.0,-1.0,0.0,0.0,0.0,0.0,0.0,0.0,0.0,0.2,0.1,0.0,
1.411,97.43875494505845,63.43497292456765,-1.0,-3.0,-2.0,0.0,0.0,0.0,0.0,0.0,0.0,0.0,0.2,0.1,0.0,
1.424,97.58387549450585,63.38549729245676,-1.0,-3.0,-2.0,0.0,0.0,0.0,0.0,0.0,0.0,0.0,0.1,0.1,0.0,
1.437,97.67938754945058,63.47954972924568,-2.0,-3.0,-2.0,0.0,0.0,0.0,0.0,0.0,0.0,0.0,0.1,0.1,0.0,
1.451,97.66193875494506,63.56095497292457,-2.0,0.0,-2.0,0.0,0.0,0.0,0.0,0.0,0.0,0.0,0.2,0.1,0.0,
1.464,97.7051938754945,63.641095497292454,-3.0,0.0,-2.0,0.0,0.0,0.0,0.0,0.0,0.0,0.0,0.2,0.1,0.0,
1.477,97.61951938754945,63.793109549729245,-3.0,0.0,-2.0,0.0,0.0,0.0,0.0,0.0,0.0,0.0,0.1,0.1,0.0,
1.49,97.60195193875495,63.979310954972924,-2.0,0.0,-1.0,0.0,0.0,0.0,0.0,0.0,0.0,0.0,0.2,0.0,0.0,
1.503,97.56419519387549,64.19593109549729,-3.0,0.0,-1.0,0.0,0.0,0.0,0.0,0.0,0.0,0.0,0.2,0.0,0.0,
1.516,97.57841951938755,64.34359310954973,-2.0,1.0,0.0,0.0,0.0,0.0,0.0,0.0,0.0,0.0,0.2,0.1,0.0,
1.529,97.59784195193876,64.41235931095497,-2.0,0.0,0.0,0.0,0.0,0.0,0.0,0.0,0.0,0.0,0.2,0.1,0.0,
1.543,97.62678419519388,64.4372359310955,-1.0,0.0,-1.0,0.0,0.0,0.0,0.0,0.0,0.0,0.0,0.2,0.1,0.0,
1.556,97.72867841951938,64.34972359310956,-1.0,0.0,-1.0,0.0,0.0,0.0,0.0,0.0,0.0,0.0,0.1,0.1,0.0,
1.569,97.83786784195193,64.27797235931095,0.0,0.0,-3.0,0.0,0.0,0.0,0.0,0.0,0.0,0.0,0.1,0.1,0.0,
1.583,97.7947867841952,64.31579723593109,-1.0,0.0,-3.0,0.0,0.0,0.0,0.0,0.0,0.0,0.0,0.1,0.1,0.0,
1.596,97.69147867841953,64.40057972359311,-1.0,0.0,-1.0,0.0,0.0,0.0,0.0,0.0,0.0,0.0,0.1,0.1,0.0,
1.609,97.57314786784195,64.49005797235931,-2.0,2.0,0.0,0.0,0.0,0.0,0.0,0.0,0.0,0.0,0.2,0.1,0.0,
1.623,97.39931478678419,64.60700579723594,-2.0,2.0,0.0,0.0,0.0,0.0,0.0,0.0,0.0,0.0,0.2,0.1,0.0,
1.635,97.2559314786784,64.73570057972358,-1.0,0.0,1.0,0.0,0.0,0.0,0.0,0.0,0.0,0.0,0.1,0.1,0.1,
1.648,97.16059314786784,64.80257005797236,-1.0,1.0,2.0,0.0,0.0,0.0,0.0,0.0,0.0,0.0,0.2,0.1,0.0,
1.661,97.08805931478679,64.83625700579724,-1.0,0.0,2.0,0.0,0.0,0.0,0.0,0.0,0.0,0.0,0.2,0.1,0.0,
1.675,97.13480593147868,64.83062570057973,-1.0,0.0,2.0,0.0,0.0,0.0,0.0,0.0,0.0,0.0,0.2,0.1,0.0,
1.688,97.21148059314787,64.77606257005797,-1.0,1.0,1.0,0.0,0.0,0.0,0.0,0.0,0.0,0.0,0.2,0.0,0.0,
1.701,97.29114805931478,64.7796062570058,-1.0,0.0,1.0,0.0,0.0,0.0,0.0,0.0,0.0,0.0,0.1,0.0,0.0,
1.714,97.38911480593148,64.76196062570058,0.0,0.0,0.0,0.0,0.0,0.0,0.0,0.0,0.0,0.0,0.1,0.1,0.0,
1.727,97.52491148059315,64.67019606257006,0.0,0.0,0.0,0.0,0.0,0.0,0.0,0.0,0.0,0.0,0.2,0.1,0.0,
1.74,97.47549114805932,64.65201960625701,0.0,0.0,0.0,0.0,0.0,0.0,0.0,0.0,0.0,0.0,0.2,0.1,0.0,
1.754,97.46154911480593,64.6322019606257,-1.0,0.0,0.0,0.0,0.0,0.0,0.0,0.0,0.0,0.0,0.1,0.1,0.0,
1.766,97.4331549114806,64.63022019606257,-1.0,0.0,0.0,0.0,0.0,0.0,0.0,0.0,0.0,0.0,0.1,0.1,0.0,
1.779,97.53831549114805,64.56702201960626,-1.0,0.0,0.0,0.0,0.0,0.0,0.0,0.0,0.0,0.0,0.1,0.1,0.1,
1.793,97.58483154911481,64.57870220196062,0.0,0.0,0.0,0.0,0.0,0.0,0.0,0.0,0.0,0.0,0.1,0.1,0.0,
1.806,97.59848315491148,64.59787022019606,0.0,0.0,0.0,0.0,0.0,0.0,0.0,0.0,0.0,0.0,0.2,0.1,0.0,
1.819,97.56384831549114,64.61778702201961,0.0,0.0,0.0,0.0,0.0,0.0,0.0,0.0,0.0,0.0,0.2,0.1,0.0,
1.831,97.58738483154912,64.64677870220197,1.0,1.0,0.0,0.0,0.0,0.0,0.0,0.0,0.0,0.0,0.2,0.1,0.0,
1.845,97.51773848315491,64.75767787022019,1.0,1.0,0.0,0.0,0.0,0.0,0.0,0.0,0.0,0.0,0.2,0.1,0.0,
1.858,97.4837738483155,64.87676778702202,2.0,1.0,0.0,0.0,0.0,0.0,0.0,0.0,0.0,0.0,0.2,0.1,0.0,
1.871,97.42637738483154,64.99667677870221,3.0,1.0,1.0,0.0,0.0,0.0,0.0,0.0,0.0,0.0,0.2,0.0,0.0,
1.884,97.13263773848315,65.13466767787023,5.0,0.0,1.0,0.0,0.0,0.0,0.0,0.0,0.0,0.0,0.2,0.0,0.0,
1.897,97.02226377384832,65.20246676778702,6.0,0.0,2.0,0.0,0.0,0.0,0.0,0.0,0.0,0.0,0.2,0.1,0.0,
1.91,96.87622637738484,65.2722466767787,8.0,-1.0,2.0,0.0,0.0,0.0,0.0,0.0,0.0,0.0,0.2,0.1,0.0,
1.924,96.70862263773849,65.31522466767787,10.0,-3.0,2.0,0.0,0.0,0.0,0.0,0.0,0.0,0.0,0.1,0.1,0.0,
1.937,96.58386226377384,65.3375224667678,14.0,-5.0,2.0,0.0,0.0,0.0,0.0,0.0,0.0,0.0,0.2,0.1,0.0,
1.95,96.41838622637738,65.40275224667678,17.0,-6.0,0.0,0.0,0.0,0.0,0.0,0.0,0.0,0.0,0.2,0.1,0.0,
1.963,96.19483862263773,65.54427522466769,19.0,-5.0,-1.0,0.0,0.0,0.0,0.0,0.0,0.0,0.0,0.2,0.1,0.0,
1.976,96.06448386226376,65.85542752246677,21.0,-6.0,-2.0,0.0,0.0,0.0,0.0,0.0,0.0,0.0,0.2,0.0,0.0,
1.989,95.97944838622638,66.25554275224668,23.0,-3.0,-4.0,0.0,0.0,0.0,0.0,0.0,0.0,0.0,0.2,0.0,0.0,
2.003,96.02494483862264,66.65555427522467,24.0,-1.0,-3.0,0.0,0.0,0.0,0.0,0.0,0.0,0.0,0.2,0.0,0.0,
2.017,96.01149448386226,67.20855542752247,26.0,-9.0,-2.0,0.0,0.0,0.0,0.0,0.0,0.0,0.0,0.1,0.0,0.0,
2.03,95.60514944838623,67.90285554275225,29.0,-8.0,-4.0,0.0,0.0,0.0,0.0,0.0,0.0,0.0,0.1,0.0,0.0,
2.043,95.43851494483862,68.63828555427523,31.0,-7.0,-4.0,0.0,0.0,0.0,0.0,0.0,0.0,0.0,0.2,0.0,0.0,
2.057,95.26885149448387,69.40482855542751,29.0,-14.0,-7.0,0.0,0.0,0.0,0.0,0.0,0.0,0.0,0.2,0.0,0.0,
2.07,94.79288514944838,70.34548285554276,35.0,-7.0,-6.0,0.0,0.0,0.0,0.0,0.0,0.0,0.0,0.2,0.0,0.0,
2.083,94.27728851494484,71.18654828555428,36.0,-7.0,-5.0,0.0,0.0,0.0,0.0,0.0,0.0,0.0,0.2,0.0,0.0,
2.097,93.69472885149447,72.12565482855543,37.0,-3.0,-6.0,0.0,0.0,0.0,0.0,0.0,0.0,0.0,0.1,0.0,0.0,
2.11,93.07847288514945,73.20056548285554,35.0,-1.0,-5.0,0.0,0.0,0.0,0.0,0.0,0.0,0.0,0.1,0.0,0.0,
2.123,92.82784728851493,74.20805654828554,30.0,0.0,-2.0,0.0,0.0,0.0,0.0,0.0,0.0,0.0,0.2,0.0,0.0,
2.137,92.77578472885149,75.02880565482856,27.0,-9.0,2.0,0.0,0.0,0.0,0.0,0.0,0.0,0.0,0.1,0.0,0.0,
2.15,92.69857847288515,75.54288056548285,25.0,-11.0,3.0,0.0,0.0,0.0,0.0,0.0,0.0,0.0,0.1,0.0,0.0,
2.163,93.09585784728853,75.69328805654828,25.0,-16.0,3.0,0.0,0.0,0.0,0.0,0.0,0.0,0.0,0.2,0.0,0.0,
2.177,93.13558578472886,75.67232880565484,27.0,-19.0,2.0,0.0,0.0,0.0,0.0,0.0,0.0,0.0,0.2,0.1,0.0,
2.19,93.22055857847289,75.51723288056549,31.0,-27.0,2.0,0.0,0.0,0.0,0.0,0.0,0.0,0.0,0.2,0.0,0.0,
2.203,93.2830558578473,75.45672328805655,34.0,-28.0,0.0,0.0,0.0,0.0,0.0,0.0,0.0,0.0,0.2,0.0,0.0,
2.216,93.11830558578473,75.64867232880566,37.0,-26.0,-2.0,0.0,0.0,0.0,0.0,0.0,0.0,0.0,0.2,0.0,0.0,
2.23,92.84983055857847,75.99186723288057,40.0,-24.0,-3.0,0.0,0.0,0.0,0.0,0.0,0.0,0.0,0.29,0.0,0.0,
2.243,92.77798305585785,76.46718672328805,40.0,-26.0,-4.0,0.0,0.0,0.0,0.0,0.0,0.0,0.0,0.29,0.0,0.0,
2.256,92.6087983055858,76.8387186723288,38.0,-24.0,-5.0,0.0,0.0,0.0,0.0,0.0,0.0,0.0,0.2,0.0,0.0,
2.27,92.59187983055858,77.11887186723288,34.0,-19.0,-4.0,0.0,0.0,0.0,0.0,0.0,0.0,0.0,0.2,0.0,0.0,
2.283,92.66218798305586,77.35388718672328,29.0,-15.0,-3.0,0.0,0.0,0.0,0.0,0.0,0.0,0.0,0.2,0.0,0.0,
2.296,92.73221879830558,77.60238871867233,24.0,-13.0,-1.0,0.0,0.0,0.0,0.0,0.0,0.0,0.0,0.2,0.1,0.0,
2.31,92.46022187983057,77.79823887186723,22.0,-13.0,3.0,0.0,0.0,0.0,0.0,0.0,0.0,0.0,0.29,0.1,0.0,
2.323,92.41502218798306,77.86282388718674,21.0,-16.0,7.0,0.0,0.0,0.0,0.0,0.0,0.0,0.0,0.2,0.0,0.0,
2.336,92.0415022187983,77.84228238871869,21.0,-19.0,8.0,0.0,0.0,0.0,0.0,0.0,0.0,0.0,0.2,0.1,0.0,
2.35,91.84215022187982,77.82222823887186,20.0,-15.0,12.0,0.0,0.0,0.0,0.0,0.0,0.0,0.0,0.1,0.1,0.0,
2.363,91.74121502218799,77.98222282388718,17.0,-15.0,14.0,0.0,0.0,0.0,0.0,0.0,0.0,0.0,0.2,0.0,0.0,
2.376,92.0461215022188,78.25022228238872,12.0,-13.0,16.0,0.0,0.0,0.0,0.0,0.0,0.0,0.0,0.29,0.0,0.0,
2.391,92.52661215022188,78.40302222823887,6.0,-14.0,19.0,0.0,0.0,0.0,0.0,0.0,0.0,0.0,0.2,0.0,0.0,
2.404,92.99766121502219,78.49930222282389,1.0,-13.0,22.0,0.0,0.0,0.0,0.0,0.0,0.0,0.0,0.2,0.1,0.0,
2.417,93.15276612150222,78.47293022228239,-1.0,-8.0,25.0,0.0,0.0,0.0,0.0,0.0,0.0,0.0,0.2,0.1,0.0,
2.43,93.29427661215021,78.62329302222824,-4.0,-9.0,30.0,0.0,0.0,0.0,0.0,0.0,0.0,0.0,0.2,0.0,0.0,
2.444,93.02042766121502,79.02532930222281,-5.0,-8.0,33.0,0.0,0.0,0.0,0.0,0.0,0.0,0.0,0.2,0.0,0.0,
2.457,92.6060427661215,79.40753293022229,-4.0,-6.0,37.0,0.0,0.0,0.0,0.0,0.0,0.0,0.0,0.2,0.0,0.0,
2.47,91.97960427661215,79.74275329302223,-1.0,-11.0,39.0,0.0,0.0,0.0,0.0,0.0,0.0,0.0,0.2,0.0,0.0,
2.484,91.13396042766122,80.04627532930222,1.0,-7.0,38.0,0.0,0.0,0.0,0.0,0.0,0.0,0.0,0.2,0.0,0.0,
2.497,90.59939604276613,80.25662753293022,4.0,-4.0,36.0,0.0,0.0,0.0,0.0,0.0,0.0,0.0,0.2,0.0,0.0,
2.51,89.91593960427662,80.77266275329302,7.0,-8.0,33.0,0.0,0.0,0.0,0.0,0.0,0.0,0.0,0.2,0.0,0.0,
2.523,89.23559396042766,81.4902662753293,10.0,-5.0,28.0,0.0,0.0,0.0,0.0,0.0,0.0,0.0,0.2,0.0,0.0,
2.536,87.79955939604277,83.47902662753293,13.0,-7.0,27.0,0.0,0.0,0.0,0.0,0.0,0.0,0.0,0.2,0.0,0.0,
2.549,87.02595593960427,84.73990266275328,21.0,-3.0,23.0,0.0,0.0,0.0,0.0,0.0,0.0,0.0,0.2,0.0,0.0,
2.563,86.16559559396042,85.65799026627533,27.0,-20.0,34.0,0.0,0.0,0.0,0.0,0.0,0.0,0.0,0.1,0.0,0.0,
2.577,86.25955955939604,86.95579902662753,38.0,-47.0,31.0,0.0,0.0,0.0,0.0,0.0,0.0,0.0,0.2,0.0,0.0,
2.59,85.1259559559396,87.22957990266276,48.0,-57.0,40.0,0.0,0.0,0.0,0.0,0.0,0.0,0.0,0.2,0.0,0.0,
2.604,84.80559559559396,89.12895799026629,62.0,-54.0,33.0,0.0,0.0,0.0,0.0,0.0,0.0,0.0,0.2,0.0,0.0,
2.617,85.0525595595594,90.80389579902662,71.0,-59.0,22.0,0.0,0.0,0.0,0.0,0.0,0.0,0.0,0.2,0.0,0.0,
2.63,86.05825595595593,95.19238957990267,75.0,-113.0,8.0,0.0,0.0,0.0,0.0,0.0,0.0,0.0,0.29,0.0,0.0,
2.643,84.95282559559558,96.40523895799028,9.0,-168.0,97.0,0.0,1.0,0.0,0.0,0.0,0.0,0.0,0.2,0.0,0.2,
2.657,84.75228255955956,95.19452389579902,-102.0,-117.0,100.0,0.0,1.0,0.0,0.0,0.0,0.0,0.0,0.0,0.0,1.37,
2.671,84.60622825595595,88.8454523895799,-82.0,-121.0,47.0,0.0,0.0,0.0,0.0,0.0,0.0,0.0,0.1,0.0,2.06,
2.684,82.4316228255956,83.97154523895799,-127.0,24.0,24.0,0.0,1.0,0.0,0.0,0.0,0.0,0.0,0.59,0.0,2.06,
2.698,83.06016228255955,80.6581545238958,-70.0,96.0,-37.0,0.0,1.0,0.0,0.0,0.0,0.0,0.0,0.69,0.0,1.18,
2.711,84.05901622825596,77.51881545238959,-51.0,-43.0,-5.0,0.0,1.0,0.0,0.0,0.0,0.0,0.0,0.78,1.67,0.0,
2.725,81.89090162282561,77.56488154523896,-30.0,-47.0,-37.0,0.0,1.0,0.0,0.0,0.0,0.0,0.0,0.69,6.08,0.0,
2.739,78.22709016228255,76.2914881545239,0.0,-23.0,-24.0,0.0,1.0,0.0,0.0,0.0,0.0,0.0,0.69,17.07,0.0,
2.753,76.57370901622826,76.81214881545239,25.0,-7.0,-15.0,0.0,1.0,0.0,0.0,0.0,0.0,0.0,0.69,20.4,0.0,
2.766,76.27337090162283,78.11521488154526,18.0,19.0,-11.0,0.0,1.0,0.0,0.0,0.0,0.0,0.0,0.69,18.74,0.0,
2.78,76.97233709016228,79.99152148815453,5.0,9.0,-1.0,0.0,1.0,0.0,0.0,0.0,0.0,0.0,0.59,14.52,0.0,
2.793,78.05023370901624,81.34915214881546,-7.0,14.0,4.0,0.0,1.0,0.0,0.0,0.0,0.0,0.0,0.49,11.58,0.0,
2.807,78.91402337090163,81.39491521488155,-16.0,4.0,5.0,0.0,1.0,0.0,0.0,0.0,0.0,0.0,0.59,10.3,0.0,
2.821,79.25240233709016,81.34549152148816,-18.0,-3.0,2.0,0.0,1.0,0.0,0.0,0.0,0.0,0.0,0.49,11.58,0.0,
2.834,79.18724023370903,81.15154915214882,-18.0,-3.0,-2.0,0.0,1.0,0.0,0.0,0.0,0.0,0.0,0.49,14.13,0.0,
2.848,78.5057240233709,80.88015491521489,-11.0,-11.0,0.0,0.0,1.0,0.0,0.0,0.0,0.0,0.0,0.59,17.17,0.0,
2.862,77.9335724023371,80.6640154915215,-6.0,-10.0,4.0,0.0,1.0,0.0,0.0,0.0,0.0,0.0,0.69,22.27,0.0,
2.875,77.4983572402337,80.21040154915215,2.0,-7.0,1.0,0.0,1.0,0.0,0.0,0.0,0.0,0.0,0.69,23.64,0.0,
2.888,77.16683572402337,80.24604015491522,5.0,-10.0,1.0,0.0,1.0,0.0,0.0,0.0,0.0,0.0,0.78,24.23,0.0,
2.903,76.90868357240232,80.62760401549153,5.0,-10.0,1.0,0.0,2.0,0.0,0.0,0.0,0.0,0.0,0.78,23.94,0.0,
2.916,76.62186835724025,80.91776040154916,3.0,-6.0,1.0,0.0,2.0,0.0,0.0,0.0,0.0,0.0,0.78,23.25,0.0,
2.929,76.45818683572404,81.10877604015491,2.0,-4.0,1.0,0.0,2.0,0.0,0.0,0.0,0.0,0.0,0.88,21.58,0.0,
2.942,76.44181868357241,81.29887760401549,0.0,-2.0,1.0,0.0,2.0,0.0,0.0,0.0,0.0,0.0,0.88,20.99,0.0,
2.957,76.40418186835724,81.45288776040155,0.0,-3.0,0.0,0.0,2.0,0.0,0.0,0.0,0.0,0.0,0.98,20.6,0.0,
2.97,76.31041818683572,81.33328877604015,2.0,-1.0,0.0,0.0,2.0,0.0,0.0,0.0,0.0,0.0,1.08,20.31,0.0,
2.983,76.37304181868357,81.36632887760402,4.0,-3.0,1.0,0.0,2.0,0.0,0.0,0.0,0.0,0.0,1.08,20.11,0.0,
2.997,76.30730418186836,81.5046328877604,5.0,-5.0,1.0,0.0,2.0,0.0,0.0,0.0,0.0,0.0,1.18,19.82,0.0,
3.01,76.24673041818683,81.82446328877604,4.0,-4.0,2.0,0.0,2.0,0.0,0.0,0.0,0.0,0.0,1.18,19.33,0.0,
3.024,76.12367304181868,82.0364463288776,1.0,-1.0,3.0,0.0,2.0,0.0,0.0,0.0,0.0,0.0,1.28,18.84,0.0,
3.038,76.19236730418186,82.14764463288776,0.0,-2.0,2.0,0.0,2.0,0.0,0.0,0.0,0.0,0.0,1.28,18.44,0.0,
3.051,75.85723673041818,82.16776446328878,0.0,-2.0,3.0,0.0,2.0,0.0,0.0,0.0,0.0,0.0,1.37,17.95,0.2,
3.065,75.84172367304181,82.25977644632887,-1.0,2.0,3.0,0.0,2.0,0.0,0.0,0.0,0.0,0.0,1.47,17.85,0.39,
3.079,75.82217236730418,82.31397764463289,-1.0,1.0,3.0,0.0,2.0,0.0,0.0,0.0,0.0,0.0,1.57,17.76,0.39,
3.092,76.0002172367304,82.4183977644633,-1.0,0.0,2.0,0.0,2.0,0.0,0.0,0.0,0.0,0.0,1.67,17.66,0.39,
3.106,75.93702172367304,82.48283977644633,-2.0,0.0,2.0,0.0,3.0,0.0,0.0,0.0,0.0,0.0,1.57,17.46,0.39,
3.12,75.9217021723673,82.46228397764463,-3.0,-1.0,2.0,0.0,3.0,1.0,0.0,0.0,0.0,0.0,1.67,17.76,0.29,
3.134,75.95617021723672,82.39722839776445,-3.0,-1.0,2.0,0.0,3.0,1.0,0.0,0.0,0.0,0.0,1.67,18.05,0.2,
3.147,75.97761702172367,82.37272283977646,-1.0,0.0,2.0,0.0,3.0,1.0,0.0,0.0,0.0,0.0,1.77,18.25,0.2,
3.162,75.82676170217236,82.46027228397764,-1.0,-2.0,2.0,0.0,3.0,1.0,0.0,0.0,0.0,0.0,1.67,18.64,0.2,
3.175,75.79367617021725,82.49602722839776,-1.0,-1.0,2.0,0.0,3.0,1.0,0.0,0.0,0.0,0.0,1.67,18.64,0.1,
3.189,75.70936761702174,82.46360272283977,-2.0,-3.0,1.0,0.0,3.0,1.0,0.0,0.0,0.0,0.0,1.86,18.64,0.1,
3.203,75.70093676170218,82.45136027228398,-2.0,-1.0,1.0,0.0,3.0,1.0,0.0,0.0,0.0,0.0,1.86,18.54,0.0,
3.216,75.72709367617023,82.34213602722839,-3.0,-1.0,0.0,0.0,3.0,1.0,0.0,0.0,0.0,0.0,1.86,18.25,0.0,
3.23,75.72070936761702,82.29521360272284,-3.0,-1.0,0.0,0.0,3.0,1.0,0.0,0.0,0.0,0.0,1.86,18.25,442.82,
3.253,75.65707093676171,82.2905213602723,-2.0,0.0,0.0,0.0,3.0,1.0,0.0,0.0,0.0,0.0,1.96,18.25,0.0,
3.266,75.64170709367617,82.26305213602723,-2.0,0.0,-1.0,0.0,3.0,1.0,0.0,0.0,0.0,0.0,2.06,18.54,0.0,
3.28,75.59517070936762,82.23330521360273,-2.0,-1.0,-2.0,0.0,3.0,1.0,0.0,0.0,0.0,0.0,1.96,18.64,0.0,
3.294,75.59951707093676,82.18533052136027,-2.0,-1.0,-2.0,0.0,3.0,1.0,0.0,0.0,0.0,0.0,2.06,18.64,0.0,
3.308,75.56395170709368,82.10853305213602,-1.0,-2.0,-2.0,0.0,3.0,1.0,0.0,0.0,0.0,0.0,1.96,18.74,0.1,
3.321,75.54239517070937,82.1098533052136,0.0,-3.0,-3.0,0.0,3.0,1.0,0.0,0.0,0.0,0.0,1.96,18.84,0.1,
3.336,75.48623951707094,82.17298533052136,0.0,-3.0,-3.0,0.0,3.0,1.0,0.0,0.0,0.0,0.0,1.96,18.74,0.1,
3.349,75.48062395170709,82.21529853305213,0.0,-2.0,-3.0,0.0,3.0,1.0,0.0,0.0,0.0,0.0,1.86,18.54,0.2,
3.363,75.4530623951707,82.2375298533052,0.0,-2.0,-3.0,0.0,3.0,1.0,0.0,0.0,0.0,0.0,1.86,18.44,0.29,
3.377,75.45930623951708,82.21275298533051,0.0,-2.0,-4.0,0.0,3.0,1.0,0.0,0.0,0.0,0.0,1.86,18.34,0.29,
3.391,75.4149306239517,82.17427529853305,0.0,-1.0,-4.0,0.0,3.0,1.0,0.0,0.0,0.0,0.0,1.86,18.25,0.29,
3.404,75.45549306239516,82.2244275298533,-1.0,-1.0,-4.0,0.0,3.0,1.0,0.0,0.0,0.0,0.0,1.77,18.25,0.29,
3.419,75.43254930623954,82.26544275298532,-1.0,-2.0,-4.0,0.0,3.0,1.0,0.0,0.0,0.0,0.0,1.77,18.25,0.2,
3.432,75.40325493062397,82.35054427529853,-1.0,-2.0,-4.0,0.0,3.0,1.0,0.0,0.0,0.0,0.0,1.77,18.25,0.2,
3.446,75.40032549306241,82.45805442752985,-1.0,-2.0,-4.0,0.0,3.0,1.0,0.0,0.0,0.0,0.0,1.67,18.34,0.2,
3.46,75.44503254930623,82.49580544275298,-1.0,-3.0,-4.0,0.0,3.0,1.0,0.0,0.0,0.0,0.0,1.77,18.74,0.29,
3.474,75.39550325493062,82.5625805442753,-1.0,-3.0,-5.0,0.0,2.0,1.0,0.0,0.0,0.0,0.0,1.67,18.93,0.2,
3.487,75.39055032549305,82.66825805442754,-1.0,-2.0,-5.0,0.0,2.0,0.0,0.0,0.0,0.0,0.0,1.57,19.13,0.1,
3.502,75.3810550325493,82.67882580544276,-3.0,0.0,-6.0,0.0,2.0,0.0,0.0,0.0,0.0,0.0,1.57,19.23,0.0,
3.515,75.28110550325492,82.66188258054427,-3.0,0.0,-5.0,0.0,2.0,0.0,0.0,0.0,0.0,0.0,1.47,19.91,0.0,
3.529,75.31611055032549,82.66018825805443,-3.0,0.0,-7.0,0.0,2.0,0.0,0.0,0.0,0.0,0.0,1.47,20.31,0.0,
3.543,75.23861105503255,82.66001882580545,-4.0,0.0,-7.0,0.0,2.0,0.0,0.0,0.0,0.0,0.0,1.37,20.8,0.0,
3.557,75.14986110550326,82.65100188258054,-4.0,0.0,-6.0,0.0,2.0,0.0,0.0,0.0,0.0,0.0,1.37,21.29,0.0,
3.57,75.14998611055033,82.57810018825805,-4.0,1.0,-6.0,0.0,2.0,0.0,0.0,0.0,0.0,0.0,1.28,21.88,0.0,
3.584,75.14999861105504,82.4358100188258,-4.0,1.0,-6.0,0.0,2.0,0.0,0.0,0.0,0.0,0.0,1.28,22.96,0.0,
3.598,75.14999986110551,82.34958100188258,-4.0,1.0,-6.0,0.0,2.0,0.0,0.0,0.0,0.0,0.0,1.28,23.54,0.0,
3.611,75.18599998611056,82.24195810018826,-4.0,2.0,-6.0,0.0,2.0,0.0,0.0,0.0,0.0,0.0,1.28,24.23,0.0,
3.624,75.16259999861106,82.19519581001883,-4.0,2.0,-6.0,0.0,2.0,0.0,0.0,0.0,0.0,0.0,1.18,24.72,0.0,
3.639,75.17825999986111,82.11851958100188,-4.0,2.0,-5.0,0.0,2.0,0.0,0.0,0.0,0.0,0.0,1.08,25.6,0.0,
3.652,75.21582599998612,82.08385195810018,-3.0,3.0,-5.0,0.0,2.0,0.0,0.0,0.0,0.0,0.0,0.88,25.9,0.0,
3.666,75.30058259999862,81.96338519581002,-4.0,1.0,-4.0,0.0,2.0,0.0,0.0,0.0,0.0,0.0,0.88,26.19,0.0,
3.68,75.33605825999987,81.861338519581,-4.0,2.0,-5.0,0.0,2.0,0.0,0.0,0.0,0.0,0.0,0.88,26.49,0.0,
3.693,75.420605826,81.81513385195811,-4.0,2.0,-4.0,0.0,2.0,0.0,0.0,0.0,0.0,0.0,0.88,27.08,0.0,
3.707,75.4560605826,81.77451338519582,-4.0,2.0,-4.0,0.0,2.0,0.0,0.0,0.0,0.0,0.0,0.88,27.37,0.0,
3.721,75.47760605826,81.80645133851958,-4.0,2.0,-4.0,0.0,2.0,0.0,0.0,0.0,0.0,0.0,0.88,27.66,0.0,
3.735,75.515760605826,81.83664513385196,-3.0,3.0,-4.0,0.0,2.0,0.0,0.0,0.0,0.0,0.0,0.78,27.86,0.0,
3.748,75.57357606058261,81.8306645133852,-4.0,2.0,-4.0,0.0,2.0,0.0,0.0,0.0,0.0,0.0,0.78,28.15,0.0,
3.762,75.63335760605827,81.82106645133851,-3.0,2.0,-4.0,0.0,2.0,0.0,0.0,0.0,0.0,0.0,0.78,28.25,0.0,
3.776,75.72933576060582,81.88310664513386,-3.0,2.0,-4.0,0.0,2.0,0.0,0.0,0.0,0.0,0.0,0.78,28.35,0.0,
3.789,75.80193357606058,81.87131066451339,-3.0,1.0,-4.0,0.0,2.0,0.0,0.0,0.0,0.0,0.0,0.69,28.45,0.0,
3.803,75.76419335760608,81.80713106645135,-3.0,2.0,-4.0,0.0,2.0,0.0,0.0,0.0,0.0,0.0,0.69,28.55,0.0,
3.817,75.7964193357606,81.80071310664513,-3.0,3.0,-3.0,0.0,2.0,0.0,0.0,0.0,0.0,0.0,0.69,28.55,0.0,
3.83,75.84464193357606,81.72807131066452,-3.0,1.0,-3.0,0.0,1.0,0.0,0.0,0.0,0.0,0.0,0.59,28.55,0.0,
3.844,75.9034641933576,81.63980713106645,-2.0,4.0,-4.0,0.0,1.0,0.0,0.0,0.0,0.0,0.0,0.59,28.55,0.0,
3.858,75.97234641933576,81.54998071310665,-3.0,1.0,-2.0,0.0,1.0,0.0,0.0,0.0,0.0,0.0,0.59,28.55,0.0,
3.871,76.11423464193356,81.58599807131067,-2.0,2.0,-3.0,0.0,2.0,0.0,0.0,0.0,0.0,0.0,0.59,28.35,0.0,
3.886,76.11942346419336,81.56259980713108,-2.0,2.0,-3.0,0.0,2.0,0.0,0.0,0.0,0.0,0.0,0.59,28.25,0.0,
3.899,76.18294234641934,81.56025998071311,-3.0,1.0,-3.0,0.0,1.0,0.0,0.0,0.0,0.0,0.0,0.59,28.25,0.0,
3.912,76.19829423464193,81.54202599807132,-2.0,2.0,-3.0,0.0,1.0,0.0,0.0,0.0,0.0,0.0,0.69,28.15,0.0,
3.927,76.2808294234642,81.51320259980714,-2.0,1.0,-3.0,0.0,1.0,0.0,0.0,0.0,0.0,0.0,0.59,28.06,0.0,
3.94,76.32508294234643,81.50132025998072,-2.0,0.0,-3.0,0.0,1.0,0.0,0.0,0.0,0.0,0.0,0.59,27.96,0.0,
3.953,76.41050829423465,81.47313202599808,-2.0,0.0,-2.0,0.0,1.0,0.0,0.0,0.0,0.0,0.0,0.59,27.86,0.0,
3.968,76.43705082942347,81.42531320259981,-2.0,0.0,-2.0,0.0,1.0,0.0,0.0,0.0,0.0,0.0,0.49,27.86,0.0,
3.981,76.44870508294235,81.32153132025998,-2.0,0.0,-2.0,0.0,1.0,0.0,0.0,0.0,0.0,0.0,0.59,27.76,0.0,
3.994,76.46787050829424,81.28415313202599,-3.0,-1.0,-3.0,0.0,1.0,0.0,0.0,0.0,0.0,0.0,0.59,27.86,0.0,
4.008,76.47878705082942,81.2804153132026,-1.0,0.0,-2.0,0.0,1.0,0.0,0.0,0.0,0.0,0.0,0.59,27.76,0.0,
4.022,76.44387870508295,81.30704153132027,-1.0,0.0,-2.0,0.0,1.0,0.0,0.0,0.0,0.0,0.0,0.69,27.66,0.0,
4.035,76.5033878705083,81.38170415313203,-1.0,2.0,-3.0,0.0,1.0,0.0,0.0,0.0,0.0,0.0,0.59,27.57,0.0,
4.049,76.51833878705082,81.3891704153132,-1.0,1.0,-3.0,0.0,1.0,0.0,0.0,0.0,0.0,0.0,0.59,27.37,0.0,
4.063,76.60083387870507,81.37191704153132,-2.0,1.0,-3.0,0.0,1.0,0.0,0.0,0.0,0.0,0.0,0.59,27.37,0.0,
4.077,76.5280833878705,81.36119170415313,-2.0,0.0,-2.0,0.0,1.0,0.0,0.0,0.0,0.0,0.0,0.59,27.37,0.0,
4.09,76.60180833878705,81.37811917041532,-2.0,0.0,-3.0,0.0,1.0,0.0,0.0,0.0,0.0,0.0,0.59,27.27,0.0,
4.104,76.5821808338787,81.37981191704154,-1.0,1.0,-2.0,0.0,1.0,0.0,0.0,0.0,0.0,0.0,0.59,27.27,0.0,
4.118,76.65221808338787,81.37098119170416,-1.0,0.0,-2.0,0.0,1.0,0.0,0.0,0.0,0.0,0.0,0.59,27.17,0.0,
4.131,76.6232218083388,81.37009811917042,-1.0,1.0,-2.0,0.0,1.0,0.0,0.0,0.0,0.0,0.0,0.59,27.08,0.0,
4.145,76.71032218083388,81.43300981191705,-1.0,1.0,-2.0,0.0,1.0,0.0,0.0,0.0,0.0,0.0,0.49,27.08,0.0,
4.159,76.77303221808339,81.46630098119171,-2.0,1.0,-2.0,0.0,1.0,0.0,0.0,0.0,0.0,0.0,0.49,26.98,0.0,
4.172,76.80630322180835,81.47863009811918,-2.0,1.0,-2.0,0.0,1.0,0.0,0.0,0.0,0.0,0.0,0.59,26.98,0.0,
4.186,76.80963032218084,81.50686300981192,-2.0,1.0,-1.0,0.0,1.0,0.0,0.0,0.0,0.0,0.0,0.49,26.98,0.0,
4.2,76.8549630322181,81.4826863009812,-2.0,1.0,-2.0,0.0,1.0,0.0,0.0,0.0,0.0,0.0,0.49,26.88,0.0,
4.213,76.85949630322182,81.44426863009812,-2.0,0.0,-1.0,0.0,1.0,0.0,0.0,0.0,0.0,0.0,0.39,26.98,0.0,
4.227,76.90494963032218,81.4584268630098,-2.0,0.0,-1.0,0.0,1.0,0.0,0.0,0.0,0.0,0.0,0.49,26.88,0.0,
4.24,76.96349496303222,81.45084268630099,-2.0,0.0,-1.0,0.0,1.0,0.0,0.0,0.0,0.0,0.0,0.49,26.78,0.0,
4.253,76.95134949630324,81.3870842686301,-2.0,0.0,-1.0,0.0,1.0,0.0,0.0,0.0,0.0,0.0,0.49,26.78,0.0,
4.268,76.94113494963031,81.37170842686301,-2.0,0.0,-1.0,0.0,1.0,0.0,0.0,0.0,0.0,0.0,0.49,26.78,0.0,
4.281,76.94011349496303,81.3881708426863,-2.0,0.0,-1.0,0.0,1.0,0.0,0.0,0.0,0.0,0.0,0.39,26.78,0.0,
4.294,77.0210113494963,81.38081708426863,-2.0,0.0,0.0,0.0,1.0,0.0,0.0,0.0,0.0,0.0,0.39,26.88,0.0,
4.307,77.05610113494963,81.36208170842687,-2.0,0.0,0.0,0.0,1.0,0.0,0.0,0.0,0.0,0.0,0.39,26.98,0.0,
4.321,77.05061011349495,81.35120817084268,-2.0,0.0,0.0,0.0,1.0,0.0,0.0,0.0,0.0,0.0,0.39,26.98,0.0,
4.335,77.0500610113495,81.38612081708428,-2.0,0.0,0.0,0.0,1.0,0.0,0.0,0.0,0.0,0.0,0.39,26.98,0.0,
4.348,76.98700610113497,81.44361208170844,-2.0,0.0,0.0,0.0,1.0,0.0,0.0,0.0,0.0,0.0,0.39,27.08,0.0,
4.362,76.94470061011349,81.43136120817084,-2.0,0.0,0.0,0.0,1.0,0.0,0.0,0.0,0.0,0.0,0.39,27.17,0.0,
4.375,76.96747006101134,81.41213612081708,-2.0,0.0,0.0,0.0,1.0,0.0,0.0,0.0,0.0,0.0,0.39,27.08,0.0,
4.388,76.96974700610113,81.3832136120817,-2.0,0.0,0.0,0.0,1.0,0.0,0.0,0.0,0.0,0.0,0.39,27.08,0.0,
4.402,76.99697470061011,81.39832136120818,-2.0,0.0,0.0,0.0,1.0,0.0,0.0,0.0,0.0,0.0,0.29,27.08,0.0,
4.416,76.99969747006101,81.39983213612082,-2.0,0.0,0.0,0.0,1.0,0.0,0.0,0.0,0.0,0.0,0.29,27.08,0.0,
4.429,76.9819697470061,81.40898321361209,-2.0,0.0,0.0,0.0,1.0,0.0,0.0,0.0,0.0,0.0,0.29,27.17,0.0,
4.443,76.9711969747006,81.40089832136121,-2.0,0.0,0.0,0.0,1.0,0.0,0.0,0.0,0.0,0.0,0.29,27.17,0.0,
4.456,77.00611969747007,81.37308983213612,-2.0,0.0,0.0,0.0,1.0,0.0,0.0,0.0,0.0,0.0,0.29,27.17,0.0,
4.469,77.000611969747,81.37030898321362,-2.0,0.0,0.0,0.0,1.0,0.0,0.0,0.0,0.0,0.0,0.29,27.27,0.0,
4.483,76.98206119697471,81.35203089832136,-2.0,0.0,0.0,0.0,1.0,0.0,0.0,0.0,0.0,0.0,0.39,27.37,0.0,
4.497,76.98020611969748,81.35020308983214,-2.0,0.0,0.0,0.0,1.0,0.0,0.0,0.0,0.0,0.0,0.29,27.27,0.0,
4.51,76.97102061196975,81.26002030898321,-2.0,0.0,0.0,0.0,1.0,0.0,0.0,0.0,0.0,0.0,0.39,27.27,0.0,
4.524,76.97910206119698,81.26000203089832,-2.0,0.0,-1.0,0.0,2.0,0.0,0.0,0.0,0.0,0.0,0.39,27.37,0.0,
4.538,76.9979102061197,81.32300020308983,-2.0,0.0,-1.0,0.0,2.0,0.0,0.0,0.0,0.0,0.0,0.39,27.37,0.0,
4.551,77.01779102061197,81.32030002030899,-2.0,0.0,0.0,0.0,2.0,0.0,0.0,0.0,0.0,0.0,0.29,27.37,0.0,
4.564,76.99277910206119,81.3110300020309,-2.0,0.0,-1.0,0.0,2.0,0.0,0.0,0.0,0.0,0.0,0.39,27.37,0.0,
4.578,76.99027791020612,81.35510300020309,-2.0,0.0,0.0,0.0,2.0,0.0,0.0,0.0,0.0,0.0,0.29,27.37,0.0,
4.592,77.04402779102061,81.3595103000203,-2.0,0.0,-1.0,0.0,2.0,0.0,0.0,0.0,0.0,0.0,0.29,27.37,0.0,
4.605,77.03140277910205,81.35995103000204,-2.0,0.0,-1.0,0.0,2.0,0.0,0.0,0.0,0.0,0.0,0.29,27.37,0.0,
4.62,77.0031402779102,81.3509951030002,-2.0,0.0,-1.0,0.0,2.0,0.0,0.0,0.0,0.0,0.0,0.29,27.37,0.0,
4.633,77.01831402779102,81.25109951030002,-2.0,0.0,0.0,0.0,2.0,0.0,0.0,0.0,0.0,0.0,0.29,27.37,0.0,
4.646,76.9658314027791,81.24110995103,-2.0,0.0,-1.0,0.0,2.0,0.0,0.0,0.0,0.0,0.0,0.29,27.27,0.0,
4.66,76.92458314027792,81.249110995103,-2.0,0.0,0.0,0.0,2.0,0.0,0.0,0.0,0.0,0.0,0.39,27.37,0.0,
4.674,76.9744583140278,81.2589110995103,-2.0,0.0,0.0,0.0,2.0,0.0,0.0,0.0,0.0,0.0,0.39,27.27,0.0,
4.687,76.93444583140278,81.26889110995103,-3.0,1.0,0.0,0.0,2.0,0.0,0.0,0.0,0.0,0.0,0.39,27.27,0.0,
4.701,76.94844458314029,81.28788911099511,-3.0,3.0,0.0,0.0,2.0,0.0,0.0,0.0,0.0,0.0,0.39,27.27,0.0,
4.714,76.87784445831403,81.41578891109951,-4.0,3.0,1.0,0.0,2.0,0.0,0.0,0.0,0.0,0.0,0.39,27.27,0.0,
4.727,76.9787844458314,81.55457889110994,-3.0,2.0,0.0,0.0,2.0,0.0,0.0,0.0,0.0,0.0,0.39,27.27,0.0,
4.742,77.08787844458314,81.55045788911099,-4.0,1.0,0.0,0.0,2.0,0.0,0.0,0.0,0.0,0.0,0.29,27.37,0.0,
4.755,77.01778784445833,81.4780457889111,-3.0,0.0,0.0,0.0,2.0,0.0,0.0,0.0,0.0,0.0,0.29,27.57,0.0,
4.768,77.06477878444583,81.40780457889112,-3.0,0.0,0.0,0.0,2.0,0.0,0.0,0.0,0.0,0.0,0.2,27.66,0.0,
4.782,77.00647787844458,81.39178045788911,-2.0,0.0,0.0,0.0,2.0,0.0,0.0,0.0,0.0,0.0,0.2,27.66,0.0,
4.795,77.05464778784446,81.39017804578891,-2.0,-1.0,-1.0,0.0,2.0,0.0,0.0,0.0,0.0,0.0,0.29,27.66,0.0,
4.808,77.06846477878445,81.35401780457889,-2.0,0.0,-1.0,0.0,2.0,0.0,0.0,0.0,0.0,0.0,0.29,27.66,0.0,
4.823,77.06984647787844,81.29640178045788,-2.0,0.0,-1.0,0.0,2.0,0.0,0.0,0.0,0.0,0.0,0.29,27.66,0.0,
4.836,77.09698464778785,81.26364017804579,-2.0,0.0,-1.0,0.0,2.0,0.0,0.0,0.0,0.0,0.0,0.29,27.57,0.0,
4.849,77.08169846477878,81.26036401780458,-2.0,0.0,-1.0,0.0,2.0,0.0,0.0,0.0,0.0,0.0,0.29,27.57,0.0,
4.862,77.10716984647787,81.27803640178045,-2.0,0.0,-1.0,0.0,2.0,0.0,0.0,0.0,0.0,0.0,0.29,27.57,0.0,
4.877,77.12771698464779,81.29780364017805,-2.0,0.0,-1.0,0.0,2.0,0.0,0.0,0.0,0.0,0.0,0.29,27.57,0.0,
4.89,77.10277169846478,81.2547803640178,-2.0,-1.0,-1.0,0.0,2.0,0.0,0.0,0.0,0.0,0.0,0.29,27.47,0.0,
4.903,77.12727716984648,81.20547803640177,-2.0,-2.0,0.0,0.0,2.0,0.0,0.0,0.0,0.0,0.0,0.29,27.47,0.0,
4.918,77.14772771698465,81.21854780364018,-2.0,0.0,-1.0,0.0,2.0,0.0,0.0,0.0,0.0,0.0,0.29,27.47,0.0,
4.931,77.20377277169845,81.21985478036402,-2.0,0.0,-1.0,0.0,2.0,0.0,0.0,0.0,0.0,0.0,0.39,27.47,0.0,
4.944,77.15537727716985,81.1569854780364,-2.0,-1.0,0.0,0.0,1.0,0.0,0.0,0.0,0.0,0.0,0.39,27.57,0.0,
4.959,77.06953772771698,81.23169854780363,-2.0,-1.0,0.0,0.0,2.0,0.0,0.0,0.0,0.0,0.0,0.39,27.57,0.0,
4.972,77.0609537727717,81.31116985478036,-2.0,0.0,-1.0,0.0,2.0,0.0,0.0,0.0,0.0,0.0,0.39,27.66,0.0,
4.985,77.05109537727716,81.31011698547803,-2.0,-1.0,0.0,0.0,2.0,0.0,0.0,0.0,0.0,0.0,0.29,27.57,0.0,
5.0,77.02310953772772,81.29201169854781,-2.0,0.0,-1.0,0.0,2.0,0.0,0.0,0.0,0.0,0.0,0.39,27.66,0.0,
5.013,77.06531095377277,81.32620116985478,-2.0,0.0,0.0,0.0,2.0,0.0,0.0,0.0,0.0,0.0,0.39,27.57,0.0,
5.026,77.04253109537729,81.38362011698548,-2.0,0.0,0.0,0.0,2.0,0.0,0.0,0.0,0.0,0.0,0.39,27.57,0.0,
5.04,76.98625310953774,81.39836201169855,-2.0,0.0,0.0,0.0,2.0,0.0,0.0,0.0,0.0,0.0,0.39,27.57,0.0,
5.054,77.00762531095378,81.39083620116986,-2.0,0.0,0.0,0.0,2.0,0.0,0.0,0.0,0.0,0.0,0.39,27.57,0.0,
5.067,77.00976253109539,81.34508362011698,-2.0,0.0,0.0,0.0,2.0,0.0,0.0,0.0,0.0,0.0,0.39,27.66,0.0,
5.081,77.02797625310953,81.3675083620117,-2.0,0.0,0.0,0.0,2.0,0.0,0.0,0.0,0.0,0.0,0.29,27.57,0.0,
5.094,77.02079762531095,81.36975083620118,-2.0,0.0,0.0,0.0,2.0,0.0,0.0,0.0,0.0,0.0,0.29,27.66,0.0,
5.108,77.0200797625311,81.28897508362012,-2.0,0.0,0.0,0.0,2.0,0.0,0.0,0.0,0.0,0.0,0.39,27.66,0.0,
5.122,77.03800797625313,81.28989750836202,-2.0,0.0,0.0,0.0,2.0,0.0,0.0,0.0,0.0,0.0,0.39,27.57,0.0,
5.135,77.0758007976253,81.2539897508362,-2.0,0.0,0.0,0.0,2.0,0.0,0.0,0.0,0.0,0.0,0.39,27.66,0.0,
5.148,77.08858007976252,81.25039897508361,-2.0,0.0,0.0,0.0,2.0,0.0,0.0,0.0,0.0,0.0,0.29,27.57,0.0,
5.163,77.07185800797625,81.25903989750836,-2.0,0.0,-1.0,0.0,2.0,0.0,0.0,0.0,0.0,0.0,0.29,27.57,0.0,
5.176,77.04318580079763,81.25990398975084,-2.0,0.0,-1.0,0.0,2.0,0.0,0.0,0.0,0.0,0.0,0.29,27.57,0.0,
5.189,77.04031858007977,81.22399039897508,-2.0,0.0,-1.0,0.0,2.0,0.0,0.0,0.0,0.0,0.0,0.39,27.57,0.0,
5.203,77.03103185800798,81.2113990398975,-2.0,0.0,-1.0,0.0,1.0,0.0,0.0,0.0,0.0,0.0,0.39,27.47,0.0,
5.217,77.03910318580081,81.27313990398974,-2.0,0.0,-1.0,0.0,1.0,0.0,0.0,0.0,0.0,0.0,0.29,27.47,0.0,
5.23,77.0399103185801,81.31531399039898,-2.0,0.0,0.0,0.0,1.0,0.0,0.0,0.0,0.0,0.0,0.29,27.47,0.0,
5.244,77.03999103185802,81.3105313990399,-2.0,0.0,0.0,0.0,1.0,0.0,0.0,0.0,0.0,0.0,0.39,27.47,0.0,
5.258,77.12999910318581,81.23805313990398,-2.0,0.0,-1.0,0.0,1.0,0.0,0.0,0.0,0.0,0.0,0.39,27.47,0.0,
5.271,77.0489999103186,81.2488053139904,-2.0,0.0,-1.0,0.0,1.0,0.0,0.0,0.0,0.0,0.0,0.39,27.57,0.0,
5.285,77.04989999103185,81.24988053139904,-2.0,0.0,0.0,0.0,1.0,0.0,0.0,0.0,0.0,0.0,0.39,27.47,0.0,
5.299,77.04998999910319,81.3039880531399,-2.0,0.0,-1.0,0.0,1.0,0.0,0.0,0.0,0.0,0.0,0.39,27.47,0.0,
5.312,77.04099899991033,81.33639880531399,-2.0,0.0,0.0,0.0,1.0,0.0,0.0,0.0,0.0,0.0,0.39,27.47,0.0,
5.325,77.03109989999103,81.33063988053141,-2.0,0.0,0.0,0.0,1.0,0.0,0.0,0.0,0.0,0.0,0.39,27.47,0.0,
5.34,77.0211099899991,81.32106398805314,-2.0,0.0,0.0,0.0,1.0,0.0,0.0,0.0,0.0,0.0,0.49,27.47,0.0,
5.353,77.02011099899991,81.34710639880532,-2.0,0.0,0.0,0.0,1.0,0.0,0.0,0.0,0.0,0.0,0.49,27.47,0.0,
5.366,77.02901109989999,81.34971063988053,-2.0,0.0,0.0,0.0,1.0,0.0,0.0,0.0,0.0,0.0,0.49,27.47,0.0,
5.38,77.00290110998999,81.39497106398805,-2.0,0.0,0.0,0.0,1.0,0.0,0.0,0.0,0.0,0.0,0.39,27.47,0.0,
5.394,76.982290110999,81.35449710639881,-2.0,-1.0,0.0,0.0,1.0,0.0,0.0,0.0,0.0,0.0,0.39,27.47,0.0,
5.407,76.8722290110999,81.32344971063988,-2.0,-1.0,0.0,0.0,1.0,0.0,0.0,0.0,0.0,0.0,0.39,27.57,0.0,
5.421,76.90622290110998,81.32934497106399,-2.0,-1.0,0.0,0.0,1.0,0.0,0.0,0.0,0.0,0.0,0.49,27.57,0.0,
5.435,76.900622290111,81.2849344971064,-2.0,-1.0,0.0,0.0,1.0,0.0,0.0,0.0,0.0,0.0,0.49,27.66,0.0,
5.448,76.86406222901111,81.28949344971065,-2.0,0.0,0.0,0.0,1.0,0.0,0.0,0.0,0.0,0.0,0.49,27.57,0.0,
5.462,76.89640622290112,81.26294934497106,-2.0,0.0,0.0,0.0,1.0,0.0,0.0,0.0,0.0,0.0,0.49,27.57,0.0,
5.475,76.83664062229012,81.23329493449711,-2.0,0.0,0.0,0.0,1.0,0.0,0.0,0.0,0.0,0.0,0.59,27.57,0.0,
5.488,76.821664062229,81.2573294934497,-2.0,-1.0,0.0,0.0,1.0,0.0,0.0,0.0,0.0,0.0,0.59,27.66,0.0,
5.502,76.8471664062229,81.21473294934496,-2.0,0.0,0.0,0.0,1.0,0.0,0.0,0.0,0.0,0.0,0.49,27.57,0.0,
5.516,76.88571664062229,81.20147329493449,-2.0,-1.0,0.0,0.0,1.0,0.0,0.0,0.0,0.0,0.0,0.59,27.57,0.0,
5.529,76.90757166406222,81.20014732949345,-2.0,0.0,0.0,0.0,1.0,0.0,0.0,0.0,0.0,0.0,0.59,27.66,0.0,
5.542,76.8557571664062,81.23601473294934,-2.0,-1.0,0.0,0.0,1.0,0.0,0.0,0.0,0.0,0.0,0.59,27.66,0.0,
5.556,76.84157571664062,81.23960147329493,-2.0,0.0,0.0,0.0,1.0,0.0,0.0,0.0,0.0,0.0,0.59,27.76,0.0,
5.569,76.82215757166405,81.23096014732948,-2.0,0.0,-1.0,0.0,1.0,0.0,0.0,0.0,0.0,0.0,0.59,27.66,0.0,
5.583,76.81121575716641,81.24809601473295,-2.0,0.0,0.0,0.0,1.0,0.0,0.0,0.0,0.0,0.0,0.49,27.57,0.0,
5.597,76.81912157571664,81.31280960147329,-2.0,0.0,0.0,0.0,1.0,0.0,0.0,0.0,0.0,0.0,0.59,27.57,0.0,
5.61,76.79291215757166,81.29228096014732,-2.0,0.0,0.0,0.0,1.0,0.0,0.0,0.0,0.0,0.0,0.59,27.57,0.0,
5.623,76.79929121575717,81.29922809601473,-2.0,0.0,0.0,0.0,1.0,0.0,0.0,0.0,0.0,0.0,0.59,27.66,0.0,
5.637,76.85392912157572,81.29092280960147,-2.0,0.0,0.0,0.0,1.0,0.0,0.0,0.0,0.0,0.0,0.59,27.66,0.0,
5.651,76.86839291215757,81.30809228096015,-2.0,-1.0,0.0,0.0,1.0,0.0,0.0,0.0,0.0,0.0,0.59,27.66,0.0,
5.664,76.79783929121577,81.30980922809601,-2.0,-1.0,0.0,0.0,1.0,0.0,0.0,0.0,0.0,0.0,0.59,27.66,0.0,
5.678,76.77278392912157,81.3369809228096,-2.0,-1.0,0.0,0.0,1.0,0.0,0.0,0.0,0.0,0.0,0.59,27.76,0.0,
5.691,76.76127839291216,81.35769809228097,-2.0,-1.0,0.0,0.0,1.0,0.0,0.0,0.0,0.0,0.0,0.69,27.66,0.0,
5.705,76.75112783929121,81.3417698092281,-2.0,0.0,0.0,0.0,1.0,0.0,0.0,0.0,0.0,0.0,0.59,27.76,0.0,
5.719,76.72311278392912,81.3041769809228,-2.0,0.0,0.0,0.0,1.0,0.0,0.0,0.0,0.0,0.0,0.59,27.76,0.0,
5.732,76.74731127839291,81.30041769809228,-2.0,0.0,0.0,0.0,1.0,0.0,0.0,0.0,0.0,0.0,0.59,27.76,0.0,
5.745,76.7497311278393,81.30904176980923,-2.0,0.0,0.0,0.0,1.0,0.0,0.0,0.0,0.0,0.0,0.59,27.76,0.0,
5.758,76.70497311278393,81.31890417698092,-2.0,0.0,0.0,0.0,1.0,0.0,0.0,0.0,0.0,0.0,0.59,27.76,0.0,
5.772,76.6914973112784,81.32889041769809,-2.0,0.0,0.0,0.0,1.0,0.0,0.0,0.0,0.0,0.0,0.59,27.76,0.0,
5.785,76.69014973112783,81.28488904176982,-2.0,0.0,0.0,0.0,1.0,0.0,0.0,0.0,0.0,0.0,0.49,27.86,0.0,
5.799,76.67201497311278,81.23548890417698,-2.0,-1.0,-1.0,0.0,1.0,0.0,0.0,0.0,0.0,0.0,0.49,27.86,0.0,
5.813,76.68820149731128,81.2305488904177,-2.0,0.0,0.0,0.0,1.0,0.0,0.0,0.0,0.0,0.0,0.59,27.86,0.0,
5.826,76.65382014973115,81.26605488904177,-2.0,0.0,0.0,0.0,1.0,0.0,0.0,0.0,0.0,0.0,0.59,27.96,0.0,
5.839,76.65938201497312,81.31460548890418,-2.0,0.0,0.0,0.0,1.0,0.0,0.0,0.0,0.0,0.0,0.59,27.96,0.0,
5.853,76.66893820149731,81.31046054889042,-2.0,0.0,0.0,0.0,1.0,0.0,0.0,0.0,0.0,0.0,0.59,27.96,0.0,
5.867,76.66089382014972,81.28304605488904,-2.0,0.0,0.0,0.0,1.0,0.0,0.0,0.0,0.0,0.0,0.59,28.06,0.0,
5.88,76.63308938201497,81.28030460548891,-2.0,0.0,0.0,0.0,1.0,0.0,0.0,0.0,0.0,0.0,0.59,27.96,0.0,
5.894,76.6573089382015,81.32503046054889,-2.0,0.0,-1.0,0.0,1.0,0.0,0.0,0.0,0.0,0.0,0.59,27.96,0.0,
5.907,76.65973089382015,81.3835030460549,-2.0,0.0,-1.0,0.0,1.0,0.0,0.0,0.0,0.0,0.0,0.59,27.96,0.0,
5.92,76.65997308938202,81.3893503046055,-2.0,0.0,-1.0,0.0,1.0,0.0,0.0,0.0,0.0,0.0,0.59,27.86,0.0,
5.935,76.67799730893822,81.40793503046055,-2.0,0.0,-1.0,0.0,1.0,0.0,0.0,0.0,0.0,0.0,0.59,27.86,0.0,
5.948,76.67079973089382,81.38279350304606,-2.0,0.0,-1.0,0.0,1.0,0.0,0.0,0.0,0.0,0.0,0.59,27.86,0.0,
5.961,76.68807997308939,81.3532793503046,-2.0,0.0,-1.0,0.0,1.0,0.0,0.0,0.0,0.0,0.0,0.49,27.76,0.0,
5.975,76.70780799730893,81.32332793503046,-2.0,0.0,-1.0,0.0,1.0,0.0,0.0,0.0,0.0,0.0,0.49,27.76,0.0,
5.988,76.7367807997309,81.32033279350304,-2.0,0.0,-1.0,0.0,1.0,0.0,0.0,0.0,0.0,0.0,0.59,27.76,0.0,
6.002,76.76667807997309,81.29303327935031,-2.0,0.0,-1.0,0.0,1.0,0.0,0.0,0.0,0.0,0.0,0.59,27.76,0.0,
6.016,76.74266780799731,81.29930332793504,-2.0,0.0,-1.0,0.0,1.0,0.0,0.0,0.0,0.0,0.0,0.59,27.86,0.0,
6.029,76.73126678079973,81.37193033279351,-2.0,0.0,-1.0,0.0,1.0,0.0,0.0,0.0,0.0,0.0,0.69,27.76,0.0,
6.042,76.77512667807997,81.38819303327935,-2.0,0.0,-1.0,0.0,1.0,0.0,0.0,0.0,0.0,0.0,0.59,27.66,0.0,
6.056,76.842512667808,81.40781930332794,-2.0,0.0,-1.0,0.0,1.0,0.0,0.0,0.0,0.0,0.0,0.59,27.76,0.0,
6.07,76.7862512667808,81.3827819303328,-2.0,0.0,0.0,0.0,1.0,0.0,0.0,0.0,0.0,0.0,0.69,27.76,0.0,
6.083,76.78962512667809,81.39827819303328,-2.0,0.0,-1.0,0.0,1.0,0.0,0.0,0.0,0.0,0.0,0.69,27.76,0.0,
6.096,76.80796251266781,81.40882781930333,-2.0,0.0,-1.0,0.0,1.0,0.0,0.0,0.0,0.0,0.0,0.59,27.66,0.0,
6.11,76.81879625126678,81.38288278193033,-2.0,0.0,0.0,0.0,1.0,0.0,0.0,0.0,0.0,0.0,0.59,27.66,0.0,
6.124,76.80187962512667,81.37128827819303,-2.0,0.0,-1.0,0.0,1.0,0.0,0.0,0.0,0.0,0.0,0.59,27.66,0.0,
6.137,76.76418796251266,81.3071288278193,-2.0,0.0,0.0,0.0,1.0,0.0,0.0,0.0,0.0,0.0,0.59,27.66,0.0,
6.151,76.80541879625127,81.30971288278192,-2.0,0.0,0.0,0.0,1.0,0.0,0.0,0.0,0.0,0.0,0.59,27.66,0.0,
6.164,76.81854187962512,81.30997128827819,-2.0,0.0,0.0,0.0,1.0,0.0,0.0,0.0,0.0,0.0,0.59,27.66,0.0,
6.177,76.81085418796252,81.25599712882781,-2.0,0.0,0.0,0.0,1.0,0.0,0.0,0.0,0.0,0.0,0.69,27.76,0.0,
6.191,76.80108541879625,81.25959971288277,-2.0,0.0,0.0,0.0,1.0,0.0,0.0,0.0,0.0,0.0,0.59,27.66,0.0,
6.204,76.80010854187962,81.26895997128828,-2.0,0.0,0.0,0.0,1.0,0.0,0.0,0.0,0.0,0.0,0.69,27.66,0.0,
6.218,76.77301085418796,81.27889599712883,-2.0,0.0,0.0,0.0,1.0,0.0,0.0,0.0,0.0,0.0,0.69,27.57,0.0,
6.232,76.6893010854188,81.31588959971289,-2.0,0.0,0.0,0.0,1.0,0.0,0.0,0.0,0.0,0.0,0.59,27.66,0.0,
6.245,76.65393010854189,81.36458895997129,-2.0,0.0,0.0,0.0,1.0,0.0,0.0,0.0,0.0,0.0,0.59,27.76,0.0,
6.258,76.63239301085419,81.31545889599712,-2.0,0.0,0.0,0.0,1.0,0.0,0.0,0.0,0.0,0.0,0.59,27.76,0.0,
6.272,76.63023930108541,81.33754588959971,-2.0,0.0,0.0,0.0,1.0,0.0,0.0,0.0,0.0,0.0,0.69,27.76,0.0,
6.285,76.69302393010854,81.30375458895998,-2.0,0.0,0.0,0.0,1.0,0.0,0.0,0.0,0.0,0.0,0.59,27.76,0.0,
6.298,76.65430239301087,81.345375458896,-2.0,0.0,0.0,0.0,1.0,0.0,0.0,0.0,0.0,0.0,0.59,27.66,0.0,
6.312,76.63243023930109,81.3585375458896,-2.0,0.0,0.0,0.0,1.0,0.0,0.0,0.0,0.0,0.0,0.59,27.66,0.0,
6.326,76.6032430239301,81.36885375458897,-2.0,0.0,0.0,0.0,1.0,0.0,0.0,0.0,0.0,0.0,0.59,27.66,0.0,
6.339,76.61832430239302,81.3788853754589,-2.0,-1.0,0.0,0.0,1.0,0.0,0.0,0.0,0.0,0.0,0.59,27.66,0.0,
6.352,76.6018324302393,81.3978885375459,-2.0,0.0,0.0,0.0,1.0,0.0,0.0,0.0,0.0,0.0,0.59,27.76,0.0,
6.366,76.60918324302392,81.4267888537546,-2.0,0.0,0.0,0.0,1.0,0.0,0.0,0.0,0.0,0.0,0.59,27.66,0.0,
6.38,76.52891832430238,81.38467888537546,-2.0,-1.0,0.0,0.0,1.0,0.0,0.0,0.0,0.0,0.0,0.59,27.47,0.0,
6.393,76.51189183243025,81.41646788853755,-2.0,-1.0,0.0,0.0,1.0,0.0,0.0,0.0,0.0,0.0,0.59,27.08,0.0,
6.407,76.53718918324303,81.39264678885375,-2.0,0.0,0.0,0.0,1.0,0.0,0.0,0.0,0.0,0.0,0.59,26.49,0.0,
6.42,76.53971891832431,81.39026467888537,-2.0,0.0,0.0,0.0,1.0,0.0,0.0,0.0,0.0,0.0,0.59,25.8,0.0,
6.433,76.52197189183242,81.43502646788855,-3.0,0.0,0.0,0.0,1.0,0.0,0.0,0.0,0.0,0.0,0.49,24.52,0.0,
6.448,76.52019718918324,81.46650264678885,-5.0,1.0,0.0,0.0,1.0,0.0,0.0,0.0,0.0,0.0,0.49,24.23,0.0,
6.461,76.59201971891832,81.46965026467889,-5.0,2.0,0.0,0.0,1.0,0.0,0.0,0.0,0.0,0.0,0.49,23.94,0.0,
6.474,76.59920197189183,81.42496502646789,-5.0,1.0,0.0,0.0,1.0,0.0,0.0,0.0,0.0,0.0,0.59,23.84,0.0,
6.488,76.58192019718918,81.3934965026468,-5.0,2.0,1.0,0.0,1.0,0.0,0.0,0.0,0.0,0.0,0.59,23.94,0.0,
6.501,76.60719201971891,81.39934965026468,-6.0,2.0,0.0,0.0,1.0,0.0,0.0,0.0,0.0,0.0,0.59,23.94,0.0,
6.514,76.58271920197188,81.35493496502647,-7.0,3.0,0.0,0.0,1.0,0.0,0.0,0.0,0.0,0.0,0.59,23.84,0.0,
6.529,76.61627192019719,81.32349349650265,-9.0,5.0,0.0,0.0,1.0,0.0,0.0,0.0,0.0,0.0,0.59,23.64,0.0,
6.542,76.72762719201972,81.42834934965028,-11.0,7.0,0.0,0.0,1.0,0.0,0.0,0.0,0.0,0.0,0.59,23.45,0.0,
6.555,76.79276271920197,81.38483493496503,-12.0,6.0,0.0,0.0,1.0,0.0,0.0,0.0,0.0,0.0,0.49,22.96,0.0,
6.568,76.8982762719202,81.19148349349649,-12.0,4.0,0.0,0.0,0.0,0.0,0.0,0.0,0.0,0.0,0.49,23.25,0.0,
6.582,76.84582762719202,80.87514834934964,-10.0,2.0,-1.0,0.0,0.0,0.0,0.0,0.0,0.0,0.0,0.49,23.64,0.0,
6.595,76.86758276271921,80.80751483493496,-10.0,4.0,0.0,0.0,0.0,0.0,0.0,0.0,0.0,0.0,0.49,24.03,0.0,
6.608,76.85175827627191,80.7197514834935,-9.0,2.0,-1.0,0.0,0.0,0.0,0.0,0.0,0.0,0.0,0.49,24.13,0.0,
6.623,76.9131758276272,80.58497514834934,-9.0,6.0,-2.0,0.0,0.0,0.0,0.0,0.0,0.0,0.0,0.49,24.23,0.0,
6.636,76.90131758276273,80.37349751483492,-9.0,7.0,-1.0,0.0,0.0,0.0,0.0,0.0,0.0,0.0,0.49,24.43,0.0,
6.649,77.10713175827627,80.28034975148348,-9.0,8.0,-2.0,0.0,0.0,0.0,0.0,0.0,0.0,0.0,0.59,24.72,0.0,
6.663,77.17271317582762,80.11803497514835,-9.0,9.0,-3.0,0.0,0.0,0.0,0.0,0.0,0.0,0.0,0.69,25.41,0.0,
6.676,77.20627131758275,80.02980349751483,-8.0,9.0,-2.0,0.0,0.0,0.0,0.0,0.0,0.0,0.0,0.78,26.49,0.0,
6.689,77.41662713175828,79.97598034975148,-7.0,11.0,-2.0,0.0,0.0,0.0,0.0,0.0,0.0,0.0,0.78,28.84,0.0,
6.703,77.63566271317583,79.79059803497513,-5.0,8.0,-3.0,0.0,0.0,0.0,0.0,0.0,0.0,0.0,0.69,29.82,0.0,
6.716,77.86456627131759,79.67305980349751,-5.0,7.0,-3.0,0.0,0.0,0.0,0.0,0.0,0.0,0.0,0.69,30.61,0.0,
6.73,78.04045662713176,79.64330598034975,-5.0,6.0,-3.0,0.0,0.0,0.0,0.0,0.0,0.0,0.0,0.59,31.39,0.0,
6.744,78.20204566271318,79.70333059803497,-6.0,7.0,-2.0,0.0,0.0,0.0,0.0,0.0,0.0,0.0,0.59,33.45,0.0,
6.757,78.33520456627132,79.6913330598035,-7.0,6.0,-2.0,0.0,0.0,0.0,0.0,0.0,0.0,0.0,0.69,34.63,0.0,
6.77,78.58252045662712,79.56413330598035,-7.0,5.0,-2.0,0.0,0.0,0.0,0.0,0.0,0.0,0.0,0.69,35.9,0.0,
6.784,78.6612520456627,79.74041333059805,-11.0,3.0,-5.0,0.0,0.0,0.0,0.0,0.0,0.0,0.0,0.49,37.57,0.0,
6.797,78.62412520456628,79.74904133305981,-14.0,7.0,-7.0,0.0,0.0,0.0,0.0,0.0,0.0,0.0,0.49,39.63,0.0,
6.81,78.62041252045664,79.65990413330599,-18.0,5.0,-6.0,0.0,0.0,0.0,0.0,0.0,0.0,0.0,0.49,45.91,0.0,
6.823,78.61104125204565,79.4079904133306,-18.0,4.0,-8.0,0.0,0.0,0.0,0.0,0.0,0.0,0.0,0.49,49.54,0.0,
6.837,78.69110412520456,78.81579904133307,-14.0,0.0,-2.0,0.0,0.0,0.0,0.0,0.0,0.0,0.0,0.49,53.46,0.0,
6.851,78.65411041252047,78.2705799041333,-10.0,-9.0,2.0,0.0,0.0,0.0,0.0,0.0,0.0,0.0,0.49,57.39,0.0,
6.864,78.74041104125205,78.08105799041333,-8.0,-4.0,0.0,0.0,0.0,0.0,0.0,0.0,0.0,0.0,0.39,61.31,0.0,
6.878,79.5050411041252,77.42310579904132,-5.0,-17.0,8.0,0.0,0.0,0.0,0.0,0.0,0.0,0.0,0.39,69.55,0.0,
6.891,79.26650411041253,76.79931057990413,-3.0,-20.0,7.0,0.0,0.0,0.0,0.0,0.0,0.0,0.0,0.39,74.26,0.0,
6.904,79.17065041104125,76.70993105799042,-1.0,-16.0,5.0,0.0,0.0,0.0,0.0,0.0,0.0,0.0,0.29,80.44,0.0,
6.918,78.71106504110412,76.92599310579905,-3.0,-21.0,11.0,0.0,0.0,0.0,0.0,0.0,0.0,0.0,0.29,87.8,0.0,
6.931,78.15210650411042,77.06459931057991,1.0,-17.0,9.0,0.0,0.0,0.0,0.0,0.0,0.0,0.0,0.29,95.65,0.0,
6.944,78.15921065041104,77.258459931058,2.0,-18.0,9.0,0.0,0.0,0.0,0.0,0.0,0.0,0.0,0.29,108.6,0.0,
6.958,78.0969210650411,76.9538459931058,5.0,-16.0,5.0,0.0,0.0,0.0,0.0,0.0,0.0,0.0,0.29,113.89,0.0,
6.971,77.94669210650412,76.68938459931059,3.0,-16.0,7.0,0.0,0.0,0.0,0.0,0.0,0.0,0.0,0.2,118.7,0.0,
6.984,77.4096692106504,77.09493845993106,5.0,-17.0,8.0,0.0,0.0,0.0,0.0,0.0,0.0,0.0,0.2,123.61,0.0,
6.999,77.60796692106504,77.81949384599312,8.0,-13.0,8.0,0.0,0.0,0.0,0.0,0.0,0.0,0.0,0.2,133.81,0.0,
7.012,77.02479669210649,78.59394938459933,7.0,-12.0,13.0,0.0,0.0,0.0,0.0,0.0,0.0,0.0,0.2,138.91,0.0,
7.025,77.38947966921066,79.35539493845992,8.0,-11.0,10.0,0.0,0.0,0.0,0.0,0.0,0.0,0.0,0.29,143.91,0.0,
7.04,77.67794796692105,79.620539493846,12.0,-4.0,17.0,0.0,1.0,0.0,0.0,0.0,0.0,0.0,0.29,148.82,0.0,
7.053,76.75279479669211,80.1060539493846,12.0,-7.0,11.0,1.0,1.0,0.0,0.0,0.0,0.0,0.0,0.2,153.23,0.1,
7.067,76.99327947966921,80.73960539493845,7.0,-13.0,8.0,1.0,1.0,0.0,0.0,0.0,0.0,0.0,0.2,160.49,0.69,
7.08,76.53132794796693,81.00996053949385,0.0,-7.0,8.0,1.0,2.0,1.0,0.0,0.0,0.0,0.0,0.29,162.85,0.98,
7.094,76.33213279479669,81.20799605394939,1.0,-5.0,8.0,2.0,2.0,1.0,0.0,0.0,0.0,0.0,0.29,164.32,1.18,
7.107,76.06921327947967,81.12879960539495,2.0,1.0,8.0,2.0,2.0,1.0,0.0,0.0,0.0,0.0,0.29,165.49,1.37,
7.121,76.11492132794797,80.83287996053949,6.0,-5.0,10.0,2.0,2.0,1.0,0.0,0.0,0.0,0.0,0.2,166.18,1.77,
7.135,75.8494921327948,80.64128799605396,6.0,5.0,9.0,2.0,2.0,1.0,0.0,0.0,0.0,0.0,0.2,165.4,1.96,
7.148,75.66994921327948,80.4601287996054,8.0,2.0,15.0,3.0,3.0,2.0,0.0,0.0,0.0,0.0,0.39,164.51,2.26,
7.161,75.91299492132795,80.61301287996054,14.0,2.0,15.0,3.0,3.0,2.0,0.0,0.0,0.0,0.0,0.49,163.14,2.65,
7.176,75.79329949213279,80.88930128799606,20.0,-7.0,7.0,4.0,4.0,2.0,0.0,0.0,0.0,0.0,1.18,156.27,3.73,
7.189,75.07932994921327,81.33093012879961,11.0,-4.0,2.0,4.0,4.0,2.0,0.0,0.0,0.0,0.0,3.34,150.58,4.32,
7.203,74.60293299492133,81.78009301287996,4.0,-2.0,3.0,4.0,4.0,2.0,0.0,0.0,0.0,0.0,4.32,144.99,4.81,
7.217,74.50129329949213,81.483009301288,5.0,0.0,1.0,4.0,4.0,2.0,0.0,0.0,1.0,0.0,5.2,140.77,5.0,
7.231,74.5001293299492,81.4083009301288,5.0,2.0,0.0,4.0,4.0,2.0,0.0,0.0,1.0,0.0,5.79,137.63,5.0,
7.244,74.58101293299492,81.40983009301289,7.0,2.0,2.0,4.0,4.0,2.0,0.0,0.0,1.0,0.0,6.77,130.18,5.0,
7.259,74.7691012932995,81.53598300930128,7.0,0.0,1.0,4.0,4.0,2.0,0.0,0.0,1.0,0.0,7.16,124.98,5.2,
7.272,74.85991012932996,81.70159830093013,9.0,0.0,1.0,4.0,4.0,2.0,0.0,0.0,1.0,0.0,7.65,118.6,5.4,
7.286,74.967991012933,82.00615983009303,8.0,-1.0,0.0,4.0,4.0,2.0,0.0,0.0,1.0,0.0,8.04,111.44,5.89,
7.3,75.02379910129329,81.7486159830093,6.0,0.0,-5.0,4.0,4.0,2.0,0.0,0.0,2.0,0.0,8.53,96.14,6.28,
7.314,74.95737991012933,81.89386159830093,6.0,-1.0,-5.0,4.0,4.0,2.0,0.0,0.0,2.0,0.0,9.52,89.27,6.67,
7.327,74.87873799101294,82.0883861598301,6.0,-3.0,-1.0,4.0,4.0,2.0,0.0,0.0,2.0,0.0,9.71,82.89,6.97,
7.342,74.93387379910129,82.53983861598302,6.0,-2.0,-5.0,4.0,4.0,2.0,0.0,0.0,2.0,0.0,9.81,76.62,7.26,
7.355,74.81338737991013,82.73798386159831,6.0,-3.0,-6.0,3.0,4.0,2.0,0.0,0.0,2.0,0.0,9.91,64.45,7.55,
7.369,75.17933873799102,82.89279838615982,7.0,-14.0,-5.0,3.0,4.0,2.0,0.0,0.0,2.0,0.0,10.1,58.57,7.85,
7.384,74.88293387379909,82.80027983861599,12.0,-20.0,-3.0,3.0,4.0,2.0,0.0,0.0,2.0,0.0,10.1,52.58,8.04,
7.398,74.61029338737991,83.0160279838616,14.0,-22.0,-2.0,3.0,4.0,2.0,0.0,0.0,2.0,0.0,10.2,38.85,8.73,
7.411,74.27702933873799,83.35260279838616,17.0,-21.0,-7.0,3.0,4.0,2.0,0.0,0.0,2.0,0.0,10.4,32.27,9.03,
7.426,74.00970293387381,84.42126027983863,10.0,-41.0,-4.0,2.0,4.0,2.0,0.0,0.0,2.0,0.0,10.69,27.08,9.32,
7.44,73.80297029338738,84.15912602798386,14.0,-6.0,-8.0,1.0,3.0,2.0,0.0,0.0,2.0,0.0,10.69,23.05,9.91,
7.454,73.64729702933873,84.25891260279839,12.0,-12.0,-5.0,1.0,3.0,1.0,0.0,0.0,2.0,0.0,10.4,16.97,10.01,
7.469,73.64972970293388,84.89889126027984,2.0,-8.0,-5.0,1.0,3.0,1.0,0.0,0.0,2.0,0.0,9.91,14.81,10.01,
7.483,73.28097297029339,85.44888912602798,0.0,-8.0,-9.0,0.0,3.0,1.0,0.0,0.0,2.0,0.0,9.12,13.34,9.91,
7.496,73.52309729702932,85.8638889126028,-1.0,0.0,-10.0,0.0,3.0,1.0,0.0,0.0,1.0,0.0,8.53,12.07,9.71,
7.511,73.69130972970294,86.24738889126029,-8.0,-5.0,-9.0,0.0,3.0,1.0,0.0,0.0,1.0,0.0,8.04,10.2,9.61,
7.524,73.3571309729703,86.25873888912602,-16.0,0.0,-9.0,0.0,3.0,1.0,0.0,0.0,1.0,0.0,7.65,10.4,9.22,
7.538,73.04471309729703,85.8008738889126,-20.0,11.0,-11.0,0.0,3.0,1.0,0.0,0.0,1.0,0.0,7.06,11.38,8.93,
7.553,72.8694713097297,85.48508738889126,-24.0,30.0,-12.0,1.0,3.0,1.0,0.0,0.0,1.0,0.0,6.97,15.89,8.44,
7.567,73.80594713097298,84.85050873888913,-23.0,18.0,-11.0,1.0,3.0,1.0,0.0,0.0,1.0,0.0,6.57,19.23,8.44,
7.581,74.1245947130973,84.27405087388891,-20.0,11.0,-13.0,1.0,3.0,1.0,0.0,0.0,1.0,0.0,6.38,23.54,8.53,
7.595,73.78745947130973,83.9464050873889,-17.0,17.0,-10.0,1.0,3.0,1.0,0.0,0.0,1.0,0.0,6.28,29.43,8.73,
7.609,73.86174594713097,83.5266405087389,-13.0,16.0,-9.0,2.0,3.0,1.0,0.0,0.0,1.0,0.0,6.28,44.44,9.52,
7.623,73.5451745947131,83.42166405087389,-11.0,22.0,-6.0,2.0,3.0,1.0,0.0,0.0,1.0,0.0,6.28,51.6,10.1,
7.638,73.65751745947131,83.41116640508739,-10.0,31.0,-4.0,1.0,3.0,1.0,0.0,0.0,1.0,0.0,6.38,57.88,10.69,
7.652,74.17275174594712,83.15811664050872,-9.0,31.0,-2.0,2.0,3.0,1.0,0.0,0.0,1.0,0.0,6.38,62.69,11.97,
7.665,75.04327517459471,82.96181166405087,-8.0,27.0,2.0,2.0,3.0,1.0,0.0,0.0,1.0,0.0,6.38,67.79,12.56,
7.68,75.91332751745948,82.6001811664051,-7.0,23.0,6.0,2.0,3.0,1.0,0.0,0.0,1.0,0.0,6.47,68.87,13.24,
7.694,76.94533275174595,82.20401811664051,-5.0,6.0,11.0,2.0,3.0,2.0,0.0,0.0,1.0,0.0,6.67,69.45,13.73,
7.707,77.6515332751746,81.63340181166404,1.0,-13.0,10.0,2.0,4.0,2.0,0.0,0.0,2.0,0.0,7.26,68.38,14.22,
7.721,77.84815332751747,81.3333401811664,9.0,-34.0,7.0,2.0,4.0,2.0,0.0,0.0,2.0,1.0,7.75,65.73,14.32,
7.736,77.68781533275175,81.15933401811664,16.0,-49.0,3.0,2.0,4.0,2.0,0.0,0.0,2.0,1.0,8.34,60.82,14.42,
7.75,77.06878153327517,81.22293340181166,21.0,-54.0,-3.0,2.0,4.0,2.0,0.0,0.0,2.0,1.0,9.12,53.46,14.42,
7.764,76.16087815332753,81.70629334018116,23.0,-57.0,-5.0,2.0,4.0,2.0,0.0,0.0,2.0,1.0,10.69,36.49,14.03,
7.778,75.04408781533274,82.07862933401812,27.0,-54.0,-9.0,2.0,4.0,2.0,0.0,0.0,2.0,1.0,11.58,30.12,13.83,
7.792,74.03240878153328,82.62886293340182,25.0,-47.0,-5.0,2.0,5.0,2.0,0.0,1.0,2.0,1.0,12.46,25.6,13.64,
7.806,74.06624087815332,81.49588629334019,26.0,-19.0,-15.0,2.0,5.0,2.0,0.0,1.0,2.0,1.0,13.15,22.07,13.64,
7.821,72.70162408781533,81.77858862933402,22.0,-30.0,-12.0,2.0,5.0,2.0,0.0,1.0,2.0,2.0,14.72,16.78,13.83,
7.835,72.59216240878153,82.86885886293341,19.0,-19.0,-8.0,2.0,4.0,2.0,0.0,1.0,3.0,2.0,15.4,14.72,13.93,
7.849,71.78921624087815,83.83288588629334,18.0,-13.0,-12.0,2.0,4.0,2.0,0.0,1.0,3.0,2.0,15.99,13.05,14.03,
7.864,71.13292162408781,84.91028858862933,13.0,-7.0,-7.0,2.0,5.0,2.0,0.0,2.0,3.0,2.0,965.11,10.69,14.42,
7.878,70.38329216240878,85.89102885886294,8.0,-4.0,-2.0,2.0,5.0,2.0,0.0,2.0,3.0,2.0,1867.24,9.91,14.62,
7.892,70.11932921624089,86.4481028858863,3.0,0.0,0.0,2.0,5.0,2.0,0.0,2.0,3.0,2.0,18.15,9.32,15.01,
7.906,70.0209329216241,86.76481028858863,0.0,1.0,1.0,2.0,5.0,2.0,0.0,2.0,3.0,2.0,18.64,8.73,15.4,
7.92,69.85809329216241,86.91348102885887,-4.0,2.0,-1.0,2.0,5.0,2.0,0.0,2.0,3.0,2.0,19.13,8.14,15.4,
7.934,69.93180932921624,86.93734810288588,-6.0,8.0,-3.0,2.0,5.0,2.0,0.0,2.0,3.0,2.0,19.42,8.14,15.5,
7.948,70.22718093292163,86.7957348102886,-8.0,7.0,-6.0,2.0,5.0,2.0,0.0,1.0,3.0,2.0,19.03,8.44,15.5,
7.962,70.42771809329216,86.56557348102886,-10.0,6.0,-8.0,2.0,5.0,2.0,0.0,1.0,3.0,2.0,18.44,8.73,15.21,
7.976,70.83477180932921,86.09255734810289,-8.0,0.0,-8.0,2.0,5.0,2.0,0.0,1.0,2.0,2.0,17.56,10.01,15.01,
7.99,71.28047718093292,85.6672557348103,-1.0,-12.0,-7.0,2.0,5.0,2.0,0.0,1.0,2.0,2.0,15.5,10.89,14.62,
8.004,71.22604771809328,85.38172557348102,5.0,-19.0,-7.0,2.0,5.0,2.0,0.0,1.0,2.0,2.0,14.72,11.77,14.42,
8.018,70.83360477180933,85.3801725573481,10.0,-22.0,-4.0,2.0,5.0,2.0,0.0,1.0,2.0,2.0,14.52,12.07,13.83,
8.033,71.28036047718093,85.18201725573482,10.0,-8.0,-1.0,2.0,5.0,2.0,0.0,1.0,2.0,2.0,14.42,11.28,13.64,
8.047,71.6940360477181,84.71220172557348,18.0,7.0,-13.0,1.0,5.0,2.0,0.0,1.0,2.0,2.0,14.72,9.91,13.54,
8.061,71.49240360477182,84.95322017255735,20.0,2.0,-9.0,1.0,5.0,2.0,0.0,1.0,2.0,2.0,14.81,8.53,13.44,
8.075,71.54424036047718,85.32832201725574,20.0,-3.0,-6.0,1.0,5.0,1.0,0.0,1.0,2.0,2.0,15.01,5.69,13.44,
8.089,71.40542403604772,85.74383220172558,20.0,-2.0,-8.0,1.0,5.0,1.0,0.0,1.0,2.0,2.0,15.21,4.51,13.34,
8.103,71.23854240360477,86.40638322017256,19.0,-5.0,-6.0,1.0,5.0,1.0,0.0,1.0,3.0,2.0,15.99,3.73,13.34,
8.117,70.87985424036049,86.78763832201726,16.0,-2.0,-7.0,1.0,4.0,1.0,0.0,1.0,3.0,2.0,16.68,3.14,13.34,
8.131,70.28598542403604,87.36576383220174,14.0,-6.0,-8.0,1.0,4.0,1.0,0.0,1.0,3.0,2.0,17.36,2.84,13.34,
8.145,69.2545985424036,88.06257638322018,8.0,-1.0,-6.0,1.0,4.0,1.0,0.0,1.0,3.0,2.0,18.05,2.75,13.34,
8.16,68.86345985424035,88.70825763832201,2.0,1.0,-2.0,1.0,4.0,1.0,0.0,1.0,3.0,2.0,18.74,2.75,13.34,
8.173,68.85134598542403,89.0338257638322,-6.0,7.0,0.0,1.0,4.0,1.0,0.0,1.0,3.0,2.0,18.84,2.75,13.05,
8.187,69.0841345985424,89.15638257638322,-12.0,6.0,1.0,1.0,4.0,1.0,0.0,1.0,2.0,2.0,18.44,2.84,12.85,
8.202,69.46741345985424,89.50163825763833,-20.0,6.0,-1.0,1.0,4.0,1.0,0.0,1.0,2.0,2.0,17.85,2.94,12.65,
8.215,69.98274134598543,88.74416382576382,-30.0,-3.0,-1.0,1.0,4.0,1.0,0.0,1.0,2.0,2.0,16.58,3.14,12.46,
8.229,70.52927413459855,87.57941638257638,-25.0,19.0,0.0,2.0,4.0,2.0,0.0,1.0,2.0,2.0,15.21,5.1,10.99,
8.244,70.88092741345986,87.31894163825764,-19.0,4.0,-4.0,2.0,4.0,2.0,0.0,1.0,2.0,2.0,13.93,7.65,10.3,
8.258,71.00609274134598,86.68989416382577,-17.0,0.0,-2.0,2.0,4.0,2.0,0.0,1.0,2.0,2.0,13.64,10.69,10.3,
8.271,70.32560927413459,86.31198941638257,-11.0,-3.0,-1.0,2.0,4.0,2.0,0.0,1.0,2.0,2.0,15.21,13.93,10.89,
8.286,70.17656092741346,86.72419894163826,-9.0,8.0,2.0,3.0,4.0,2.0,0.0,1.0,2.0,2.0,15.99,19.42,11.09,
8.3,70.16165609274134,86.71141989416383,-7.0,15.0,0.0,3.0,4.0,2.0,0.0,1.0,2.0,2.0,16.28,20.9,11.18,
8.314,70.41216560927413,86.53914198941638,-6.0,13.0,0.0,3.0,4.0,2.0,0.0,1.0,2.0,2.0,16.28,21.58,11.18,
8.328,70.88721656092741,86.27891419894164,-6.0,11.0,-1.0,3.0,4.0,2.0,0.0,1.0,2.0,2.0,15.3,21.78,11.18,
8.342,71.25872165609275,86.09089141989415,-5.0,3.0,-2.0,2.0,4.0,2.0,0.0,1.0,2.0,2.0,14.81,21.97,11.09,
8.356,71.39487216560929,85.99108914198942,-4.0,1.0,-2.0,2.0,4.0,2.0,0.0,1.0,2.0,2.0,14.32,22.07,10.89,
8.371,71.66048721656092,85.87310891419894,-2.0,-1.0,-3.0,2.0,4.0,2.0,0.0,1.0,2.0,1.0,13.93,22.27,10.69,
8.385,71.67804872165611,85.6363108914199,0.0,-9.0,-3.0,2.0,4.0,2.0,0.0,1.0,2.0,1.0,13.15,22.27,10.1,
8.398,71.6438048721656,85.513631089142,4.0,-9.0,-2.0,2.0,4.0,2.0,0.0,1.0,2.0,1.0,12.75,21.78,9.81,
8.413,71.79338048721657,85.4203631089142,9.0,-21.0,-5.0,2.0,4.0,2.0,0.0,1.0,2.0,1.0,12.56,20.8,9.52,
8.427,71.66433804872167,85.44703631089142,14.0,-25.0,-5.0,2.0,4.0,2.0,0.0,1.0,2.0,1.0,12.46,19.23,9.32,
8.441,71.40843380487217,85.61170363108913,16.0,-23.0,-6.0,2.0,4.0,2.0,0.0,1.0,2.0,2.0,12.95,15.79,9.22,
8.455,71.31084338048721,85.66417036310892,17.0,-17.0,-5.0,2.0,4.0,1.0,0.0,1.0,2.0,2.0,13.34,13.93,9.12,
8.469,71.94908433804872,85.0934170363109,14.0,3.0,-8.0,2.0,4.0,1.0,0.0,1.0,2.0,2.0,13.93,12.16,9.22,
8.483,72.46290843380487,84.6313417036311,12.0,5.0,-14.0,1.0,4.0,1.0,0.0,1.0,2.0,2.0,14.42,10.3,9.32,
8.498,73.44129084338047,84.77413417036311,12.0,4.0,-22.0,1.0,4.0,1.0,0.0,1.0,2.0,2.0,15.11,7.46,9.22,
8.511,74.12412908433805,84.73441341703631,11.0,1.0,-28.0,1.0,3.0,1.0,0.0,1.0,2.0,2.0,15.3,6.47,9.12,
8.525,74.29141290843381,84.51444134170363,10.0,-3.0,-37.0,1.0,3.0,1.0,0.0,1.0,2.0,2.0,15.4,5.59,8.93,
8.54,74.05614129084339,84.91544413417036,8.0,-4.0,-43.0,1.0,3.0,1.0,0.0,1.0,2.0,2.0,15.5,5.2,8.24,
8.553,72.99761412908434,86.18854441341703,6.0,-13.0,-45.0,1.0,3.0,1.0,0.0,1.0,2.0,2.0,15.89,5.59,8.04,
8.567,70.19176141290843,88.39485444134169,0.0,-10.0,-36.0,2.0,4.0,1.0,0.0,1.0,2.0,2.0,16.19,6.28,7.95,
8.582,65.57317614129084,92.24248544413418,-14.0,-18.0,-15.0,2.0,4.0,2.0,0.0,1.0,2.0,2.0,16.48,7.65,7.85,
8.596,65.00331761412909,92.12324854441341,-33.0,68.0,9.0,3.0,4.0,2.0,0.0,1.0,2.0,2.0,16.97,12.65,7.65,
8.61,65.1443317614129,91.10332485444133,-47.0,54.0,6.0,3.0,4.0,2.0,0.0,1.0,2.0,2.0,17.46,16.28,7.65,
8.624,66.5624331761413,90.53333248544413,-66.0,104.0,13.0,3.0,4.0,2.0,0.0,1.0,2.0,1.0,17.56,21.09,8.04,
8.638,68.81024331761414,88.94633324854442,-67.0,89.0,12.0,4.0,5.0,2.0,0.0,1.0,2.0,1.0,17.36,29.04,9.03,
8.652,71.00602433176141,87.23963332485444,-58.0,58.0,6.0,4.0,5.0,2.0,0.0,0.0,2.0,1.0,16.97,57.0,9.61,
8.667,72.12560243317614,86.11496333248543,-46.0,50.0,0.0,4.0,5.0,2.0,0.0,0.0,2.0,1.0,15.5,76.62,9.91,
8.68,73.26356024331761,84.76949633324854,-37.0,45.0,3.0,4.0,5.0,2.0,0.0,0.0,2.0,0.0,14.42,98.59,9.71,
8.694,74.26835602433175,83.78894963332486,-27.0,34.0,-2.0,4.0,5.0,3.0,0.0,0.0,2.0,0.0,13.24,119.98,8.63,
8.709,75.22383560243317,82.79089496333249,-24.0,25.0,1.0,4.0,5.0,3.0,0.0,0.0,2.0,0.0,12.26,153.82,8.44,
8.723,75.95838356024332,82.21408949633324,-19.0,21.0,1.0,4.0,5.0,3.0,0.0,0.0,2.0,0.0,11.38,165.2,8.44,
8.737,76.51783835602433,81.77840894963333,-14.0,14.0,1.0,4.0,5.0,3.0,0.0,0.0,2.0,0.0,11.48,174.62,8.83,
8.752,77.06878383560243,81.52784089496333,-11.0,12.0,2.0,5.0,5.0,3.0,0.0,0.0,2.0,0.0,11.67,188.55,9.12,
8.766,77.49287838356024,81.21478408949635,-8.0,6.0,0.0,5.0,5.0,3.0,0.0,0.0,2.0,0.0,11.87,192.96,9.32,
8.779,77.76928783835602,81.03047840894963,-6.0,5.0,0.0,5.0,5.0,3.0,0.0,0.0,2.0,0.0,11.87,195.71,9.52,
8.794,78.0039287838356,80.94004784089496,-5.0,1.0,0.0,5.0,5.0,3.0,0.0,0.0,2.0,0.0,11.87,197.18,9.32,
8.808,78.12639287838357,80.9220047840895,-5.0,1.0,0.0,4.0,5.0,3.0,0.0,0.0,2.0,0.0,11.87,197.77,9.12,
8.821,78.09363928783836,80.82120047840894,-5.0,0.0,0.0,5.0,5.0,3.0,0.0,0.0,2.0,0.0,11.67,197.97,8.83,
8.836,78.06336392878384,80.7661200478409,-5.0,4.0,-2.0,4.0,5.0,3.0,0.0,0.0,2.0,0.0,11.18,197.97,8.63,
8.85,78.07833639287838,80.84161200478408,-5.0,7.0,-4.0,4.0,4.0,2.0,0.0,0.0,2.0,0.0,10.89,198.36,8.14,
8.863,78.33183363928784,80.8491612004784,-7.0,8.0,-1.0,4.0,4.0,2.0,0.0,0.0,2.0,0.0,10.5,199.83,7.75,
8.878,78.31218336392878,80.67891612004783,-8.0,1.0,0.0,4.0,4.0,2.0,0.0,0.0,2.0,0.0,9.91,201.01,7.46,
8.892,78.56221833639289,80.54489161200479,-7.0,1.0,1.0,4.0,4.0,2.0,0.0,0.0,2.0,0.0,9.12,202.87,6.67,
8.905,78.60522183363928,80.47748916120048,-5.0,-4.0,1.0,4.0,4.0,2.0,0.0,0.0,2.0,0.0,8.83,203.66,6.28,
8.92,78.80752218336393,80.35374891612005,-4.0,-11.0,3.0,4.0,4.0,2.0,0.0,0.0,2.0,0.0,8.63,200.32,5.79,
8.934,78.69275221833641,80.38637489161201,-2.0,-13.0,3.0,3.0,3.0,2.0,0.0,0.0,2.0,0.0,8.34,194.04,5.2,
8.948,78.65427522183364,80.20063748916121,-1.0,-17.0,3.0,3.0,3.0,2.0,0.0,0.0,1.0,0.0,7.65,184.82,3.53,
8.962,78.45242752218337,80.16406374891612,0.0,-20.0,3.0,3.0,3.0,2.0,0.0,0.0,1.0,0.0,7.06,160.0,2.65,
8.976,78.03624275221834,80.12440637489162,1.0,-19.0,2.0,2.0,3.0,2.0,0.0,0.0,1.0,0.0,6.57,145.97,1.96,
8.989,77.74262427522183,80.00344063748916,5.0,-18.0,3.0,2.0,3.0,1.0,0.0,0.0,1.0,0.0,5.89,132.24,1.37,
9.004,77.47026242752219,80.30634406374892,5.0,-18.0,-1.0,2.0,2.0,1.0,0.0,0.0,1.0,0.0,4.41,118.9,0.49,
9.017,77.2630262427522,80.65163440637488,3.0,-15.0,-5.0,1.0,2.0,1.0,0.0,0.0,0.0,0.0,3.83,92.02,0.2,
9.031,77.14330262427522,80.76716344063749,-1.0,-23.0,-7.0,0.0,2.0,1.0,0.0,0.0,0.0,0.0,3.24,78.58,0.0,
9.044,76.96933026242753,80.80571634406374,0.0,-33.0,-12.0,0.0,1.0,0.0,0.0,0.0,0.0,0.0,2.55,65.43,0.0,
9.059,76.61893302624274,80.65657163440638,-1.0,-41.0,-15.0,0.0,1.0,0.0,0.0,0.0,0.0,0.0,1.96,52.78,0.0,
9.072,76.56589330262429,80.13765716344064,0.0,-55.0,-18.0,0.0,1.0,0.0,0.0,0.0,0.0,0.0,1.18,31.1,0.0,
9.085,76.47958933026243,80.17576571634407,4.0,-66.0,-23.0,0.0,0.0,0.0,0.0,0.0,0.0,0.0,0.98,22.56,0.0,
9.1,75.69695893302625,80.50357657163441,7.0,-65.0,-24.0,0.0,0.0,0.0,0.0,0.0,0.0,0.0,0.88,15.79,0.0,
9.113,74.74569589330262,80.62635765716345,11.0,-55.0,-17.0,0.0,0.0,0.0,0.0,0.0,0.0,0.0,0.78,10.89,0.49,
9.126,73.96656958933026,79.91863576571635,24.0,-30.0,3.0,0.0,0.0,0.0,0.0,0.0,0.0,0.0,0.78,7.85,0.59,
9.14,74.24865695893303,78.96586357657164,34.0,-1.0,-4.0,0.0,0.0,0.0,0.0,0.0,0.0,0.0,0.69,4.51,0.69,
9.153,73.92586569589331,78.10558635765716,30.0,0.0,-10.0,0.0,0.0,0.0,0.0,0.0,0.0,0.0,0.69,3.73,0.59,
9.166,72.44458656958933,79.49555863576572,28.0,3.0,-22.0,0.0,0.0,0.0,0.0,0.0,0.0,0.0,0.88,3.73,0.59,
9.18,68.92145865695893,84.85455586357656,24.0,7.0,-10.0,0.0,1.0,0.0,0.0,0.0,0.0,0.0,0.98,4.51,0.88,
9.194,68.5781458656959,85.20145558635765,1.0,59.0,24.0,0.0,1.0,0.0,0.0,0.0,0.0,0.0,1.08,6.08,0.88,
9.207,70.4428145865696,85.47014555863576,-17.0,54.0,43.0,0.0,2.0,0.0,0.0,0.0,0.0,0.0,1.28,11.67,0.78,
9.222,71.19628145865696,85.73101455586358,-18.0,37.0,31.0,1.0,2.0,1.0,0.0,0.0,0.0,0.0,1.67,17.17,0.59,
9.235,72.29762814586569,85.01010145558637,-27.0,16.0,33.0,2.0,3.0,1.0,0.0,0.0,1.0,0.0,2.55,26.49,0.29,
9.249,72.98376281458657,83.75001014555863,-11.0,11.0,18.0,3.0,3.0,1.0,0.0,0.0,1.0,0.0,3.73,39.04,0.39,
9.263,72.62037628145866,83.04800101455587,3.0,0.0,9.0,3.0,4.0,2.0,0.0,0.0,2.0,0.0,7.95,64.94,0.78,
9.277,72.57503762814586,82.8338001014556,9.0,8.0,-1.0,3.0,4.0,2.0,0.0,0.0,2.0,0.0,10.4,70.73,1.47,
9.29,72.74150376281459,82.86638001014558,10.0,18.0,-6.0,3.0,4.0,2.0,0.0,0.0,2.0,0.0,12.26,70.73,3.14,
9.305,72.68615037628146,82.48263800101455,9.0,-2.0,-10.0,3.0,4.0,2.0,0.0,0.0,2.0,0.0,13.54,67.2,3.92,
9.319,73.06761503762814,82.59726380010146,5.0,0.0,-9.0,3.0,4.0,2.0,0.0,0.0,2.0,0.0,14.52,56.9,4.61,
9.332,73.43876150376282,82.68072638001016,4.0,-8.0,-11.0,3.0,4.0,2.0,0.0,0.0,2.0,0.0,14.52,51.89,5.4,
9.347,73.64687615037627,82.75207263800102,2.0,-5.0,-9.0,3.0,4.0,2.0,0.0,0.0,2.0,0.0,14.42,47.68,6.57,
9.361,73.68568761503762,82.9842072638001,1.0,-5.0,-11.0,3.0,4.0,2.0,0.0,0.0,2.0,0.0,14.42,42.08,7.26,
9.375,73.59956876150378,83.15142072638002,1.0,-2.0,-10.0,3.0,4.0,2.0,0.0,0.0,2.0,0.0,14.32,40.81,7.85,
9.389,73.52795687615037,83.27614207263801,0.0,6.0,-6.0,3.0,4.0,2.0,0.0,1.0,2.0,0.0,14.32,40.22,8.53,
9.403,73.52979568761504,83.29761420726379,0.0,10.0,-2.0,3.0,4.0,2.0,0.0,1.0,3.0,0.0,14.42,40.32,10.01,
9.417,73.7459795687615,83.29976142072638,0.0,10.0,1.0,3.0,4.0,2.0,0.0,1.0,3.0,0.0,14.52,41.79,10.89,
9.431,74.01959795687614,83.24597614207264,1.0,11.0,3.0,3.0,4.0,2.0,0.0,1.0,3.0,0.0,15.7,42.38,11.97,
9.445,74.39795979568761,83.31259761420726,1.0,6.0,3.0,3.0,5.0,2.0,0.0,1.0,3.0,0.0,16.58,42.38,13.05,
9.459,74.84079597956875,83.18425976142073,2.0,0.0,2.0,4.0,5.0,2.0,0.0,1.0,3.0,0.0,17.46,41.69,14.91,
9.473,75.15507959795688,83.19842597614208,2.0,-6.0,1.0,4.0,5.0,2.0,0.0,1.0,4.0,1.0,18.34,39.14,15.7,
9.487,75.15050795979569,83.18184259761422,4.0,-13.0,0.0,4.0,5.0,2.0,0.0,2.0,4.0,1.0,19.23,37.57,16.28,
9.501,74.89805079597957,83.27018425976142,5.0,-13.0,-1.0,4.0,5.0,2.0,0.0,2.0,4.0,1.0,20.99,36.0,17.17,
9.515,74.53080507959795,83.53101842597614,7.0,-10.0,-1.0,4.0,5.0,2.0,0.0,2.0,4.0,1.0,21.88,34.24,17.56,
9.529,74.1970805079598,83.72810184259761,7.0,-5.0,0.0,4.0,5.0,2.0,0.0,2.0,4.0,1.0,22.76,29.92,17.95,
9.543,74.11870805079597,83.88281018425977,7.0,-2.0,1.0,4.0,5.0,2.0,0.0,2.0,4.0,1.0,23.54,27.27,18.44,
9.558,74.1108708050796,84.01528101842598,7.0,-1.0,1.0,4.0,5.0,2.0,0.0,2.0,4.0,1.0,24.92,24.82,19.72,
9.571,74.20008708050796,84.08252810184261,5.0,-5.0,2.0,4.0,5.0,2.0,0.0,3.0,4.0,1.0,25.6,20.21,20.21,
9.585,74.26300870805079,84.30525281018427,6.0,-5.0,1.0,4.0,5.0,2.0,0.0,3.0,4.0,1.0,26.19,18.15,20.8,
9.6,74.32330087080508,84.45352528101841,6.0,-5.0,0.0,4.0,5.0,2.0,0.0,3.0,4.0,1.0,26.88,16.28,21.48,
9.613,74.2573300870805,84.63035252810184,5.0,-4.0,-1.0,4.0,5.0,2.0,0.0,3.0,5.0,1.0,28.15,14.81,22.56,
9.627,74.19673300870805,84.78303525281018,5.0,-2.0,-3.0,4.0,5.0,2.0,0.0,3.0,5.0,1.0,28.84,13.05,22.96,
9.641,74.0826733008708,84.98730352528102,3.0,0.0,-2.0,4.0,5.0,2.0,0.0,3.0,5.0,1.0,29.43,12.65,23.45,
9.655,74.02626733008708,85.1067303525281,2.0,0.0,-3.0,4.0,5.0,2.0,0.0,3.0,5.0,2.0,29.82,12.65,23.84,
9.669,74.03862673300871,85.2806730352528,0.0,1.0,-3.0,4.0,5.0,2.0,0.0,3.0,5.0,2.0,30.31,12.65,24.33,
9.683,73.96786267330086,85.43306730352528,-3.0,2.0,-4.0,3.0,5.0,2.0,0.0,3.0,5.0,2.0,30.41,12.85,24.43,
9.697,74.01478626733008,85.55630673035252,-9.0,3.0,-5.0,3.0,5.0,2.0,0.0,3.0,5.0,1.0,30.21,13.34,24.52,
9.711,74.21747862673301,85.39763067303525,-11.0,5.0,-5.0,4.0,5.0,2.0,0.0,3.0,5.0,1.0,29.63,14.32,23.54,
9.725,74.2827478626733,85.05776306730353,-9.0,1.0,-2.0,4.0,5.0,2.0,0.0,3.0,5.0,1.0,27.57,16.19,22.86,
9.74,74.23527478626733,84.89777630673035,-4.0,-3.0,0.0,4.0,5.0,2.0,0.0,3.0,5.0,1.0,26.88,21.58,22.17,
9.754,74.07752747862673,84.90877763067303,-2.0,-2.0,0.0,4.0,5.0,2.0,0.0,3.0,5.0,1.0,26.68,23.74,21.58,
9.767,73.89975274786268,84.8918777630673,-1.0,-2.0,1.0,4.0,5.0,2.0,0.0,3.0,5.0,1.0,26.88,24.62,20.9,
9.782,73.91797527478627,84.97118777630672,-2.0,0.0,0.0,4.0,5.0,2.0,0.0,3.0,5.0,1.0,26.98,23.84,20.7,
9.796,74.01879752747864,85.06011877763068,-4.0,0.0,0.0,4.0,5.0,2.0,0.0,3.0,4.0,1.0,26.88,23.15,20.5,
9.809,74.05587975274787,85.13201187776308,-6.0,0.0,-1.0,4.0,5.0,2.0,0.0,3.0,4.0,1.0,26.68,22.86,20.21,
9.824,74.13158797527478,85.0942011877763,-8.0,1.0,0.0,4.0,5.0,2.0,0.0,3.0,4.0,1.0,26.39,23.15,19.62,
9.838,74.14815879752749,84.94642011877764,-5.0,-1.0,-1.0,4.0,5.0,2.0,0.0,3.0,4.0,1.0,25.41,25.8,19.13,
9.852,74.17681587975277,84.87764201187777,-5.0,0.0,0.0,4.0,5.0,2.0,0.0,3.0,4.0,1.0,25.02,27.57,18.74,
9.866,74.03568158797528,84.84376420118778,-5.0,0.0,0.0,4.0,5.0,2.0,0.0,3.0,4.0,1.0,24.92,29.14,18.44,
9.88,73.97656815879753,84.82237642011877,-6.0,1.0,0.0,4.0,5.0,2.0,0.0,3.0,4.0,1.0,24.72,30.41,17.95,
9.894,73.97965681587976,84.77523764201187,-6.0,1.0,0.0,4.0,5.0,2.0,0.0,2.0,4.0,1.0,24.23,32.67,17.76,
9.908,73.99796568158798,84.73452376420119,-7.0,3.0,0.0,4.0,5.0,2.0,0.0,2.0,4.0,1.0,23.84,33.84,17.46,
9.922,74.09879656815879,84.67645237642012,-7.0,3.0,0.0,4.0,5.0,2.0,0.0,2.0,4.0,1.0,23.35,35.12,16.78,
9.936,74.20787965681588,84.54464523764202,-7.0,1.0,0.0,4.0,5.0,2.0,0.0,2.0,4.0,1.0,22.96,36.49,16.38,
9.95,74.20078796568158,84.4234645237642,-6.0,0.0,0.0,4.0,5.0,2.0,0.0,2.0,4.0,1.0,21.97,39.44,15.99,
9.964,74.18207879656818,84.3303464523764,-5.0,0.0,0.0,4.0,5.0,2.0,0.0,2.0,4.0,1.0,21.58,40.81,15.7,
9.978,74.14420787965682,84.25803464523764,-4.0,0.0,0.0,4.0,5.0,2.0,0.0,2.0,4.0,1.0,21.29,41.79,15.11,
9.992,74.11342078796568,84.16980346452377,-4.0,0.0,0.0,4.0,5.0,2.0,0.0,2.0,4.0,1.0,21.09,42.58,14.91,
10.006,74.11034207879656,84.13398034645238,-3.0,-1.0,0.0,4.0,5.0,2.0,0.0,2.0,4.0,1.0,20.7,43.36,14.81,
10.02,74.11903420787966,84.10339803464524,-3.0,0.0,0.0,4.0,5.0,2.0,0.0,2.0,4.0,1.0,20.6,43.36,14.62,
10.034,74.12890342078796,84.06433980346453,-3.0,0.0,0.0,4.0,5.0,2.0,0.0,2.0,4.0,1.0,20.4,43.46,14.32,
10.048,74.1928903420788,84.04243398034646,-3.0,-1.0,0.0,4.0,5.0,2.0,0.0,2.0,4.0,1.0,20.31,43.65,14.22,
10.062,74.21728903420788,84.02224339803465,-3.0,0.0,0.0,4.0,5.0,2.0,0.0,2.0,4.0,1.0,20.11,43.85,14.13,
10.077,74.20172890342079,84.02022433980346,-3.0,0.0,0.0,4.0,5.0,2.0,0.0,2.0,4.0,1.0,20.01,44.15,14.03,
10.091,74.15517289034209,84.02002243398034,-3.0,0.0,0.0,4.0,5.0,2.0,0.0,2.0,4.0,1.0,19.91,44.64,13.64,
10.104,74.11451728903421,84.06500224339803,-3.0,0.0,0.0,4.0,5.0,2.0,0.0,2.0,4.0,1.0,19.91,45.52,13.54,
10.119,74.21845172890342,84.0515002243398,-3.0,1.0,0.0,4.0,5.0,2.0,0.0,2.0,4.0,1.0,19.82,45.91,13.44,
10.133,74.26484517289035,84.086150022434,-4.0,1.0,0.0,4.0,5.0,2.0,0.0,2.0,4.0,1.0,19.72,46.21,13.15,
10.147,74.26948451728904,84.07161500224339,-4.0,1.0,-1.0,4.0,5.0,2.0,0.0,2.0,4.0,1.0,19.52,46.6,13.05,
10.161,74.30594845172891,84.03416150022434,-5.0,1.0,-1.0,4.0,5.0,2.0,0.0,1.0,3.0,1.0,19.33,47.87,12.95,
10.175,74.2735948451729,83.93141615002244,-5.0,0.0,-1.0,4.0,5.0,2.0,0.0,1.0,3.0,1.0,18.74,48.76,12.65,
10.189,74.35135948451729,83.76814161500224,-4.0,0.0,0.0,4.0,5.0,2.0,0.0,1.0,3.0,1.0,18.44,49.93,12.16,
10.204,74.34113594845174,83.76081416150022,-2.0,-2.0,0.0,4.0,5.0,2.0,0.0,1.0,3.0,1.0,18.05,51.89,11.97,
10.218,74.30411359484518,83.78708141615002,-2.0,-1.0,0.0,4.0,5.0,2.0,0.0,1.0,3.0,1.0,17.95,52.19,11.67,
10.231,74.17441135948451,83.81670814161501,-2.0,0.0,0.0,4.0,5.0,2.0,0.0,1.0,3.0,1.0,17.95,51.89,11.58,
10.246,74.17044113594845,83.7926708141615,-2.0,0.0,0.0,4.0,5.0,2.0,0.0,1.0,3.0,1.0,18.05,51.6,11.48,
10.26,74.20604411359484,83.83526708141615,-2.0,0.0,0.0,4.0,5.0,2.0,0.0,1.0,3.0,1.0,17.95,50.72,11.38,
10.274,74.23660441135948,83.84852670814162,-3.0,0.0,0.0,4.0,5.0,2.0,0.0,1.0,3.0,1.0,18.05,50.23,11.38,
10.288,74.25766044113595,83.83185267081416,-2.0,0.0,0.0,4.0,5.0,2.0,0.0,1.0,3.0,1.0,17.85,50.03,11.18,
10.302,74.16076604411361,83.86618526708142,-2.0,0.0,-1.0,4.0,5.0,2.0,0.0,1.0,3.0,1.0,17.85,50.13,11.09,
10.316,74.20507660441136,83.88761852670814,-3.0,0.0,-1.0,4.0,5.0,2.0,0.0,1.0,3.0,1.0,17.85,50.13,10.99,
10.331,74.22750766044113,83.82676185267081,-3.0,1.0,-1.0,4.0,5.0,2.0,0.0,1.0,3.0,1.0,17.56,50.42,10.99,
10.345,74.18475076604413,83.86567618526709,-3.0,1.0,-1.0,4.0,5.0,2.0,0.0,1.0,3.0,0.0,17.17,50.72,10.89,
10.359,74.19847507660441,83.87856761852672,-4.0,1.0,-1.0,4.0,5.0,2.0,0.0,1.0,3.0,0.0,16.87,51.6,10.79,
10.373,74.27184750766044,83.88885676185268,-4.0,1.0,-1.0,4.0,5.0,2.0,0.0,1.0,3.0,0.0,16.48,52.19,10.59,
10.387,74.24318475076605,83.87188567618527,-5.0,1.0,-1.0,4.0,4.0,2.0,0.0,1.0,3.0,0.0,16.09,53.07,10.1,
10.401,74.15931847507662,83.84318856761853,-6.0,2.0,-2.0,4.0,4.0,2.0,0.0,1.0,3.0,0.0,15.3,54.05,9.81,
10.416,74.10593184750766,83.85831885676185,-7.0,6.0,-5.0,3.0,4.0,2.0,0.0,1.0,3.0,0.0,14.81,56.31,9.42,
10.43,73.91159318475077,84.10283188567618,-11.0,16.0,-5.0,3.0,4.0,2.0,0.0,0.0,2.0,0.0,14.03,57.78,8.93,
10.444,74.34215931847508,84.01028318856763,-14.0,16.0,-6.0,2.0,3.0,1.0,0.0,0.0,2.0,0.0,12.65,59.74,7.36,
10.458,74.7722159318475,83.41602831885676,-15.0,10.0,-4.0,2.0,3.0,1.0,0.0,0.0,1.0,0.0,8.53,62.78,6.47,
10.472,75.28322159318476,82.36660283188569,-4.0,-6.0,4.0,2.0,3.0,1.0,0.0,0.0,1.0,0.0,6.67,70.24,5.49,
10.486,75.67632215931847,82.40566028318857,2.0,-14.0,-1.0,2.0,3.0,1.0,0.0,0.0,1.0,0.0,5.4,72.1,4.71,
10.501,75.14863221593185,82.36456602831885,4.0,-17.0,2.0,2.0,3.0,1.0,0.0,0.0,1.0,0.0,4.91,70.73,4.22,
10.514,75.04186322159319,82.51345660283188,6.0,-22.0,1.0,2.0,3.0,1.0,0.0,0.0,1.0,0.0,5.69,62.78,4.22,
10.528,74.53618632215932,82.6993456602832,5.0,-8.0,-1.0,3.0,3.0,2.0,0.0,0.0,1.0,0.0,6.38,57.88,4.32,
10.543,74.05361863221594,82.82593456602834,7.0,-7.0,-1.0,3.0,4.0,2.0,0.0,0.0,1.0,0.0,7.16,53.46,4.61,
10.556,73.7983618632216,82.82059345660284,13.0,0.0,-1.0,3.0,4.0,2.0,0.0,1.0,2.0,0.0,7.95,49.74,4.81,
10.57,73.52983618632217,83.2430593456603,12.0,2.0,0.0,3.0,4.0,2.0,0.0,2.0,2.0,0.0,10.59,43.07,5.3,
10.585,73.44898361863221,83.73530593456603,11.0,1.0,2.0,3.0,4.0,2.0,0.0,3.0,2.0,1.0,12.56,39.34,5.89,
10.598,73.35989836186322,84.22553059345661,7.0,5.0,2.0,4.0,5.0,2.0,0.0,3.0,3.0,1.0,14.81,35.51,7.46,
10.612,73.46798983618632,84.57155305934566,3.0,6.0,1.0,4.0,5.0,2.0,0.0,4.0,3.0,1.0,16.87,32.37,8.24,
10.627,73.59579898361862,84.75915530593457,0.0,10.0,1.0,4.0,5.0,2.0,0.0,4.0,3.0,1.0,20.5,28.35,8.93,
10.64,73.82457989836186,84.87691553059345,-4.0,12.0,-1.0,4.0,5.0,3.0,0.0,4.0,3.0,1.0,21.78,27.76,9.71,
10.654,74.13545798983618,84.88869155305935,-7.0,13.0,0.0,4.0,5.0,3.0,0.0,4.0,3.0,1.0,22.66,28.15,10.69,
10.669,74.50854579898362,84.84486915530594,-10.0,11.0,0.0,4.0,5.0,3.0,0.0,4.0,3.0,1.0,22.86,29.53,10.99,
10.683,74.67185457989837,84.6604869155306,-11.0,8.0,0.0,4.0,5.0,3.0,0.0,4.0,3.0,1.0,22.27,34.83,11.18,
10.697,74.95818545798983,84.43504869155305,-10.0,6.0,-1.0,4.0,5.0,3.0,0.0,3.0,3.0,1.0,21.78,38.46,11.48,
10.712,75.09481854579899,84.30450486915531,-9.0,4.0,-1.0,4.0,5.0,3.0,0.0,3.0,3.0,1.0,21.29,42.38,11.58,
10.725,75.21648185457991,84.17445048691553,-8.0,3.0,-1.0,4.0,5.0,3.0,0.0,3.0,3.0,1.0,20.8,49.34,11.67,
10.739,75.29164818545799,84.08944504869154,-8.0,4.0,-1.0,4.0,5.0,3.0,0.0,3.0,3.0,1.0,19.82,52.48,11.58,
10.754,75.32616481854579,84.01794450486916,-8.0,0.0,0.0,4.0,5.0,3.0,0.0,3.0,3.0,1.0,19.13,55.43,11.18,
10.768,75.32061648185457,83.96579445048691,-8.0,2.0,0.0,4.0,5.0,3.0,0.0,2.0,3.0,0.0,18.34,58.47,10.89,
10.782,75.36506164818547,83.90657944504869,-9.0,1.0,0.0,4.0,5.0,2.0,0.0,2.0,3.0,0.0,17.66,64.35,10.69,
10.796,75.43250616481855,83.77465794450487,-8.0,2.0,0.0,4.0,5.0,2.0,0.0,2.0,3.0,0.0,16.48,67.0,10.3,
10.81,75.37625061648187,83.39246579445049,-5.0,-2.0,1.0,4.0,5.0,2.0,0.0,2.0,3.0,0.0,15.89,69.65,9.32,
10.824,75.40662506164819,83.16524657944505,-2.0,-4.0,2.0,4.0,5.0,2.0,0.0,2.0,3.0,0.0,15.4,72.01,8.93,
10.839,75.35566250616482,83.16052465794449,-1.0,0.0,1.0,4.0,5.0,3.0,0.0,2.0,3.0,0.0,15.4,73.58,8.73,
10.852,75.13456625061649,83.25005246579445,-1.0,0.0,0.0,4.0,5.0,3.0,0.0,2.0,3.0,0.0,16.19,72.3,8.63,
10.866,75.31945662506166,83.44800524657944,-2.0,3.0,0.0,4.0,5.0,3.0,0.0,2.0,3.0,0.0,16.58,70.34,8.34,
10.881,75.39194566250617,83.42280052465794,-3.0,4.0,0.0,4.0,5.0,3.0,0.0,2.0,3.0,0.0,16.68,67.39,8.44,
10.894,75.56119456625062,83.4292800524658,-3.0,1.0,-1.0,4.0,5.0,2.0,0.0,2.0,3.0,0.0,16.48,66.71,8.34,
10.908,75.67711945662505,83.43892800524658,-3.0,3.0,-1.0,4.0,5.0,2.0,0.0,2.0,3.0,0.0,15.99,66.41,8.04,
10.923,75.65271194566252,83.23289280052465,-1.0,0.0,0.0,4.0,5.0,2.0,0.0,2.0,3.0,0.0,15.79,66.51,7.85,
10.936,75.69527119456626,83.15828928005247,0.0,-2.0,0.0,4.0,5.0,2.0,0.0,2.0,3.0,0.0,15.7,66.51,7.75,
10.95,75.58252711945661,83.06982892800525,1.0,2.0,1.0,4.0,5.0,3.0,0.0,3.0,3.0,0.0,15.99,65.53,7.95,
10.964,75.49925271194566,83.24098289280053,4.0,-1.0,0.0,4.0,5.0,3.0,0.0,3.0,3.0,0.0,17.66,63.47,8.44,
10.978,75.64392527119456,83.42909828928006,2.0,5.0,0.0,4.0,6.0,3.0,0.0,3.0,3.0,0.0,18.84,60.53,8.93,
10.992,75.71239252711945,83.60090982892801,0.0,3.0,-2.0,4.0,6.0,3.0,0.0,3.0,3.0,1.0,19.82,54.94,9.32,
11.006,75.87223925271195,83.8340909828928,-3.0,6.0,-4.0,4.0,6.0,3.0,0.0,3.0,3.0,1.0,20.31,53.07,9.52,
11.02,75.9962239252712,83.79440909828928,-6.0,7.0,-2.0,4.0,6.0,3.0,0.0,3.0,3.0,0.0,19.62,52.58,9.91,
11.034,76.25162239252712,83.70944090982893,-5.0,2.0,-1.0,4.0,6.0,3.0,0.0,3.0,3.0,0.0,18.64,53.56,9.91,
11.048,76.16016223925273,83.80894409098289,-5.0,2.0,-1.0,4.0,6.0,3.0,0.0,2.0,3.0,0.0,17.85,58.47,9.91,
11.063,76.03401622392526,83.72889440909829,-7.0,2.0,-2.0,4.0,6.0,3.0,0.0,2.0,3.0,0.0,17.27,60.72,9.91,
11.076,76.02140162239252,83.87388944090984,-9.0,10.0,-5.0,4.0,5.0,3.0,0.0,2.0,3.0,0.0,16.09,62.98,9.42,
11.09,76.10114016223925,83.86138894409099,-12.0,14.0,-4.0,4.0,5.0,2.0,0.0,1.0,3.0,0.0,15.21,69.95,8.93,
11.105,76.37011401622392,83.7071388944091,-14.0,17.0,-3.0,3.0,5.0,2.0,0.0,1.0,2.0,0.0,13.93,75.24,8.14,
11.119,76.38801140162239,83.49371388944091,-15.0,17.0,-2.0,3.0,4.0,2.0,0.0,0.0,2.0,0.0,12.46,81.52,6.38,
11.133,76.64180114016224,82.97737138894409,-17.0,17.0,-2.0,3.0,4.0,2.0,0.0,0.0,2.0,0.0,9.32,88.58,5.4,
11.148,76.81118011401622,83.12373713889441,-18.0,16.0,-4.0,3.0,3.0,2.0,0.0,0.0,1.0,0.0,7.95,102.81,4.51,
11.161,77.00811801140162,83.01237371388945,-22.0,18.0,-3.0,2.0,3.0,2.0,0.0,0.0,1.0,0.0,6.47,109.97,3.73,
11.175,77.54981180114017,82.81223737138896,-29.0,14.0,0.0,2.0,2.0,1.0,0.0,0.0,1.0,0.0,5.0,116.84,2.26,
11.19,77.70298118011402,82.69322373713891,-35.0,10.0,3.0,2.0,2.0,1.0,0.0,0.0,0.0,0.0,1.86,123.9,1.57,
11.203,77.70929811801139,82.5913223737139,-34.0,23.0,8.0,2.0,2.0,1.0,0.0,0.0,0.0,0.0,1.18,141.66,1.18,
11.217,77.95292981180114,82.17613223737139,-39.0,24.0,5.0,3.0,2.0,2.0,0.0,0.0,0.0,0.0,1.08,154.51,0.98,
11.231,77.99529298118011,81.43261322373714,-34.0,30.0,15.0,3.0,3.0,2.0,0.0,0.0,1.0,0.0,1.28,170.99,1.18,
11.245,78.890529298118,80.11626132237372,-22.0,21.0,11.0,4.0,3.0,2.0,0.0,0.0,1.0,0.0,1.37,190.71,1.57,
11.259,78.8090529298118,79.69662613223737,-13.0,20.0,7.0,5.0,4.0,2.0,0.0,0.0,1.0,0.0,2.55,232.01,2.06,
11.273,79.61090529298119,79.44766261322374,-11.0,15.0,1.0,5.0,4.0,3.0,0.0,0.0,1.0,0.0,3.43,247.8,2.75,
11.287,80.02409052929812,79.39576626132238,-10.0,5.0,2.0,5.0,4.0,3.0,0.0,0.0,1.0,0.0,4.32,258.89,4.12,
11.301,80.44340905292981,79.34557662613224,-7.0,-3.0,-1.0,5.0,4.0,3.0,0.0,0.0,1.0,0.0,4.81,265.75,4.61,
11.315,80.56634090529299,79.34955766261322,-8.0,-7.0,-5.0,5.0,4.0,3.0,0.0,0.0,0.0,0.0,4.71,268.79,4.81,
11.329,80.3806340905293,79.19695576626134,-6.0,-11.0,-5.0,4.0,4.0,2.0,0.0,0.0,0.0,0.0,4.22,266.54,4.61,
11.342,80.15506340905293,78.98369557662613,-5.0,-9.0,-6.0,4.0,4.0,2.0,0.0,0.0,0.0,0.0,3.73,262.71,4.51,
11.357,79.86250634090528,78.7823695576626,-2.0,-8.0,-5.0,4.0,4.0,2.0,0.0,0.0,0.0,0.0,3.24,257.12,4.51,
11.371,79.91425063409052,78.82523695576626,-2.0,-8.0,-6.0,4.0,3.0,2.0,0.0,0.0,0.0,0.0,2.35,241.52,4.22,
11.384,80.00042506340905,78.78452369557662,-3.0,-11.0,-4.0,3.0,3.0,2.0,0.0,0.0,0.0,0.0,1.96,232.99,3.83,
11.399,79.9730425063409,78.76245236955766,-2.0,-15.0,-3.0,3.0,3.0,2.0,0.0,0.0,0.0,0.0,1.57,225.34,3.73,
11.413,79.87130425063408,78.80524523695577,-2.0,-16.0,-4.0,3.0,3.0,2.0,0.0,0.0,0.0,0.0,1.28,214.25,3.73,
11.426,79.42013042506342,78.77352452369557,-2.0,-15.0,-4.0,3.0,3.0,2.0,0.0,0.0,0.0,0.0,0.98,210.82,3.83,
11.441,79.14101304250634,78.62635245236955,1.0,-13.0,-1.0,4.0,3.0,2.0,0.0,0.0,0.0,0.0,0.88,208.66,4.22,
11.455,78.88810130425064,78.55763524523695,5.0,-10.0,0.0,4.0,4.0,2.0,0.0,0.0,0.0,0.0,0.88,206.79,4.61,
11.468,78.85381013042506,78.52376352452369,8.0,-9.0,0.0,4.0,4.0,2.0,0.0,0.0,0.0,0.0,0.88,201.4,5.2,
11.483,78.7873810130425,78.44837635245237,13.0,-10.0,3.0,4.0,4.0,2.0,0.0,0.0,1.0,0.0,1.08,197.67,6.08,
11.496,79.07773810130425,78.39583763524524,20.0,-13.0,6.0,5.0,5.0,3.0,0.0,0.0,1.0,0.0,1.77,192.77,7.95,
11.51,79.08877381013043,78.66058376352453,26.0,-18.0,15.0,5.0,5.0,3.0,0.0,0.0,1.0,0.0,2.35,186.1,9.22,
11.525,78.90987738101305,79.28105837635245,35.0,-39.0,7.0,6.0,6.0,3.0,0.0,0.0,2.0,0.0,3.63,166.08,10.89,
11.538,78.3339877381013,79.76610583763524,38.0,-34.0,14.0,7.0,6.0,3.0,0.0,0.0,2.0,0.0,6.08,152.84,12.65,
11.552,77.22339877381013,80.27361058376351,40.0,-33.0,11.0,7.0,7.0,4.0,0.0,0.0,3.0,0.0,14.52,137.54,16.28,
11.567,76.91433987738101,80.25236105837635,43.0,-32.0,9.0,8.0,8.0,4.0,0.0,0.0,3.0,1.0,20.7,120.76,18.44,
11.581,76.16343398773809,80.72723610583763,45.0,-43.0,12.0,6.0,9.0,4.0,0.0,1.0,4.0,2.0,27.66,84.76,20.8,
11.595,75.34134339877382,81.22472361058377,55.0,-53.0,12.0,7.0,9.0,4.0,0.0,2.0,5.0,2.0,42.58,65.43,26.19,
11.61,74.23313433987738,81.84147236105836,65.0,-50.0,10.0,8.0,10.0,4.0,0.0,2.0,6.0,3.0,50.13,45.91,29.04,
11.624,73.41131343398774,82.42514723610583,76.0,-38.0,15.0,7.0,11.0,4.0,0.0,3.0,7.0,3.0,57.88,11.58,32.08,
11.639,72.38413134339876,82.60051472361059,84.0,-51.0,27.0,6.0,11.0,4.0,0.0,4.0,7.0,4.0,65.53,1.28,38.06,
11.654,72.42541313433989,83.46405147236106,97.0,-77.0,20.0,5.0,11.0,4.0,0.0,4.0,8.0,4.0,79.46,0.0,40.61,
11.668,71.862541313434,84.8734051472361,119.0,-44.0,-12.0,2.0,10.0,3.0,0.0,5.0,8.0,5.0,85.54,0.0,42.77,
11.682,70.6452541313434,86.06734051472361,133.0,-52.0,1.0,0.0,9.0,2.0,0.0,5.0,8.0,5.0,91.23,0.0,43.95,
11.697,69.30852541313433,87.50073405147236,153.0,-69.0,22.0,0.0,7.0,0.0,0.0,5.0,9.0,5.0,100.85,0.0,42.38,
11.711,68.46385254131344,89.88507340514724,138.0,-98.0,37.0,0.0,5.0,0.0,0.0,5.0,9.0,6.0,104.57,0.0,40.22,
11.725,67.81238525413134,91.42850734051473,173.0,-64.0,62.0,0.0,4.0,0.0,0.0,5.0,9.0,6.0,107.22,0.0,39.63,
11.74,67.31523852541314,91.72685073405148,200.0,-31.0,32.0,0.0,3.0,0.0,0.0,5.0,9.0,6.0,108.99,0.0,37.08,
11.754,66.45552385254132,91.50468507340516,231.0,-53.0,47.0,0.0,3.0,0.0,0.0,4.0,9.0,5.0,109.68,0.0,35.02,
11.768,65.74855238525413,90.94246850734052,250.0,-28.0,43.0,0.0,3.0,0.0,0.0,4.0,9.0,5.0,108.11,0.0,32.47,
11.782,66.01985523852541,90.63424685073404,250.0,-74.0,68.0,0.0,4.0,0.0,0.0,3.0,9.0,4.0,103.79,0.0,28.45,
11.796,67.41498552385254,90.57642468507339,250.0,-31.0,35.0,0.0,5.0,0.0,0.0,4.0,7.0,2.0,94.37,0.0,20.4,
11.81,69.54349855238524,95.09764246850733,250.0,11.0,19.0,0.0,4.0,0.0,0.0,5.0,5.0,2.0,56.9,0.0,16.78,
11.825,70.64734985523852,101.93976424685074,203.0,-15.0,38.0,0.0,3.0,0.0,0.0,4.0,3.0,1.0,31.1,0.0,12.56,
11.838,71.20773498552386,103.51497642468507,112.0,97.0,65.0,0.0,2.0,0.0,0.0,4.0,1.0,1.0,10.4,0.0,2.55,
11.852,72.01977349855238,96.9854976424685,31.0,250.0,4.0,0.0,1.0,0.0,0.0,4.0,0.0,1.0,1.67,0.0,0.0,
11.866,84.54797734985524,96.50354976424686,-24.0,23.0,11.0,0.0,1.0,0.0,0.0,4.0,0.0,1.0,0.0,0.0,0.0,
11.879,84.58579773498552,94.40335497642468,-30.0,87.0,5.0,0.0,1.0,0.0,0.0,4.0,0.0,1.0,0.29,0.0,0.0,
11.892,96.28957977349856,90.90833549764247,-29.0,0.0,19.0,0.0,1.0,0.0,0.0,4.0,0.0,1.0,0.39,0.0,0.0,
11.906,95.38095797734987,85.05983354976424,-39.0,-68.0,13.0,0.0,1.0,0.0,0.0,4.0,0.0,1.0,0.39,0.0,0.0,
11.919,94.09309579773499,77.94998335497642,-49.0,-52.0,17.0,0.0,1.0,0.0,0.0,4.0,0.0,1.0,0.59,0.0,0.0,
11.933,93.00130957977349,69.39999833549764,-53.0,-82.0,6.0,0.0,1.0,0.0,0.0,4.0,0.0,1.0,0.69,0.0,0.0,
11.947,87.41113095797735,62.38899983354976,-51.0,-99.0,-1.0,0.0,1.0,0.0,0.0,4.0,0.0,1.0,0.78,0.0,0.0,
11.96,80.07511309579773,57.412899983354976,-45.0,-73.0,-20.0,0.0,1.0,0.0,0.0,4.0,0.0,1.0,0.69,0.0,0.0,
11.973,74.62551130957976,54.080289998335495,-70.0,-28.0,-12.0,0.0,1.0,0.0,0.0,4.0,0.0,1.0,0.69,0.0,0.0,
11.987,70.75055113095797,51.830028999833544,-91.0,1.0,-13.0,0.0,1.0,0.0,0.0,4.0,0.0,1.0,0.69,0.0,0.0,
12.001,68.1040551130958,49.35500289998335,-106.0,35.0,-26.0,0.0,1.0,0.0,0.0,4.0,0.0,1.0,0.78,0.0,0.0,
12.014,65.68840551130958,46.86650028999834,-121.0,41.0,-31.0,0.0,1.0,0.0,0.0,4.0,0.0,1.0,0.69,0.0,0.0,
12.027,63.430840551130956,45.45665002899983,-133.0,27.0,-38.0,0.0,1.0,0.0,0.0,4.0,0.0,1.0,0.59,0.0,0.0,
12.042,61.0450840551131,45.84666500289998,-147.0,34.0,-41.0,0.0,1.0,0.0,0.0,4.0,0.0,1.0,0.59,0.0,0.0,
12.055,59.78050840551131,46.128666500289995,-161.0,33.0,-43.0,0.0,1.0,0.0,0.0,4.0,0.0,1.0,0.69,0.0,0.0,
12.068,58.55605084055113,47.920866650029,-169.0,3.0,-45.0,0.0,1.0,0.0,0.0,4.0,0.0,1.0,0.69,0.0,0.0,
12.083,57.857605084055116,50.251086665002894,-175.0,10.0,-48.0,0.0,1.0,0.0,0.0,4.0,0.0,1.0,0.69,0.0,0.0,
12.096,57.85976050840551,52.58110866650029,-180.0,3.0,-53.0,0.0,1.0,0.0,0.0,4.0,0.0,1.0,0.69,0.0,0.0,
12.109,58.183976050840556,55.244110866650026,-180.0,7.0,-58.0,0.0,1.0,0.0,0.0,4.0,0.0,1.0,0.69,0.0,0.0,
12.123,59.161397605084055,58.201411086665004,-184.0,17.0,-61.0,0.0,1.0,0.0,0.0,4.0,0.0,1.0,0.69,0.0,0.0,
12.137,60.5731397605084,60.7111411086665,-183.0,4.0,-66.0,0.0,1.0,0.0,0.0,4.0,0.0,1.0,0.69,0.0,0.0,
12.15,61.98331397605084,63.05011411086666,-185.0,11.0,-72.0,0.0,1.0,0.0,0.0,4.0,0.0,1.0,0.69,0.0,0.0,
12.164,63.59133139760508,65.01201141108668,-187.0,18.0,-75.0,0.0,1.0,0.0,0.0,4.0,0.0,1.0,0.69,0.0,0.0,
12.178,65.3361331397605,66.74720114110866,-181.0,17.0,-74.0,0.0,1.0,0.0,0.0,4.0,0.0,1.0,0.69,0.0,0.0,
12.191,66.99561331397607,69.19772011411087,-171.0,20.0,-66.0,0.0,1.0,0.0,0.0,4.0,0.0,1.0,0.59,0.0,0.0,
12.205,68.1965613313976,72.1067720114111,-160.0,8.0,-44.0,0.0,1.0,0.0,0.0,4.0,0.0,1.0,0.78,0.0,0.0,
12.219,68.73065613313977,75.51167720114111,-140.0,18.0,-23.0,0.0,2.0,0.0,0.0,4.0,0.0,1.0,0.69,0.0,0.0,
12.232,69.15306561331397,78.91216772011411,-132.0,22.0,-17.0,0.0,2.0,0.0,0.0,4.0,0.0,1.0,0.69,0.0,0.0,
12.246,68.5923065613314,82.9422167720114,-99.0,59.0,-5.0,0.0,2.0,0.0,0.0,4.0,0.0,1.0,0.69,0.0,0.0,
12.259,68.33823065613315,86.70222167720114,-93.0,88.0,13.0,0.0,2.0,0.0,0.0,4.0,0.0,1.0,0.59,0.0,0.0,
12.273,67.90782306561331,90.83122216772011,-74.0,102.0,23.0,0.0,2.0,0.0,0.0,4.0,0.0,1.0,0.59,0.0,0.0,
12.286,67.34278230656133,95.53712221677202,-58.0,109.0,16.0,0.0,1.0,0.0,0.0,4.0,0.0,1.0,0.59,0.0,0.0,
12.3,67.09727823065613,101.01171222167721,-74.0,131.0,10.0,0.0,2.0,0.0,0.0,4.0,0.0,1.0,0.49,0.0,0.0,
12.313,69.12472782306561,106.45517122216772,-118.0,95.0,28.0,0.0,2.0,0.0,0.0,4.0,0.0,1.0,0.49,0.0,0.0,
12.327,71.40647278230657,111.67051712221678,-122.0,44.0,27.0,0.0,2.0,0.0,0.0,4.0,0.0,1.0,0.39,0.0,0.0,
12.341,74.03764727823066,117.02505171222168,-108.0,0.0,6.0,0.0,2.0,0.0,0.0,4.0,0.0,1.0,0.39,0.0,0.0,
12.354,72.85176472782307,121.23250517122217,-83.0,-21.0,18.0,0.0,2.0,0.0,0.0,4.0,0.0,1.0,0.39,0.0,0.0,
12.368,71.78817647278231,125.1362505171222,-56.0,-122.0,24.0,0.0,1.0,0.0,0.0,4.0,0.0,1.0,0.49,0.0,0.0,
12.382,71.64581764727822,126.7326250517122,26.0,-29.0,21.0,0.0,1.0,0.0,0.0,4.0,0.0,1.0,0.49,0.0,0.0,
12.395,77.18458176472782,126.04626250517123,116.0,33.0,-40.0,0.0,1.0,0.0,0.0,4.0,0.0,1.0,0.39,0.0,0.0,
12.408,71.62745817647279,116.02362625051711,93.0,-86.0,119.0,0.0,2.0,0.0,0.0,4.0,0.0,1.0,0.29,3.34,0.0,
12.423,69.28074581764727,108.48736262505172,184.0,240.0,-60.0,0.0,2.0,0.0,0.0,4.0,0.0,1.0,0.39,47.97,0.0,
12.437,82.33007458176473,114.78073626250517,63.0,35.0,87.0,1.0,3.0,1.0,0.0,4.0,0.0,1.0,0.39,89.57,0.0,
12.45,80.79100745817648,111.07207362625051,13.0,57.0,21.0,2.0,3.0,2.0,0.0,4.0,0.0,1.0,0.49,125.08,0.0,
12.465,81.01510074581765,108.73020736262505,4.0,13.0,25.0,2.0,4.0,2.0,0.0,4.0,0.0,1.0,1.77,151.56,0.0,
12.478,78.99451007458177,103.67202073626251,8.0,0.0,58.0,2.0,4.0,2.0,0.0,4.0,0.0,1.0,2.94,172.95,1.57,
12.492,79.73745100745816,99.31420207362625,12.0,24.0,31.0,3.0,4.0,2.0,0.0,4.0,0.0,1.0,4.02,172.66,5.3,
12.506,81.04474510074581,95.54842020736262,8.0,13.0,23.0,4.0,4.0,2.0,0.0,4.0,0.0,1.0,4.71,173.64,7.55,
12.52,82.12047451007457,93.66884202073625,5.0,47.0,0.0,4.0,5.0,3.0,0.0,4.0,0.0,1.0,6.18,177.76,9.71,
12.533,81.67904745100745,92.31088420207362,0.0,-3.0,13.0,5.0,6.0,3.0,0.0,0.0,1.0,1.0,7.26,190.9,11.38,
12.548,81.21190474510074,90.16808842020737,1.0,-26.0,18.0,5.0,6.0,3.0,0.0,0.0,1.0,1.0,8.93,197.48,14.22,
12.562,80.72419047451008,88.15380884202075,3.0,-9.0,4.0,5.0,6.0,3.0,0.0,0.0,1.0,1.0,10.59,200.52,15.11,
12.575,79.80241904745101,86.40438088420207,7.0,0.0,0.0,6.0,7.0,3.0,0.0,0.0,1.0,1.0,13.93,199.24,15.89,
12.59,79.3772419047451,85.57243808842021,8.0,-4.0,4.0,6.0,7.0,3.0,0.0,0.0,2.0,1.0,15.4,188.45,16.48,
12.604,79.21772419047451,84.47224380884201,10.0,-4.0,3.0,6.0,7.0,4.0,0.0,0.0,2.0,1.0,16.78,179.33,17.95,
12.618,79.01277241904745,83.66022438088419,14.0,-6.0,-1.0,6.0,7.0,4.0,0.0,0.0,2.0,1.0,18.05,168.44,18.74,
12.633,78.83027724190475,83.20102243808843,14.0,-16.0,-1.0,6.0,7.0,4.0,0.0,0.0,2.0,1.0,21.09,156.27,19.42,
12.646,78.56002772419048,82.59710224380885,17.0,-23.0,-5.0,6.0,8.0,4.0,0.0,0.0,2.0,1.0,22.76,132.04,20.11,
12.66,78.30800277241904,82.22171022438089,18.0,-19.0,-7.0,6.0,8.0,4.0,0.0,1.0,3.0,1.0,24.62,121.55,21.39,
12.675,77.9498002772419,82.11217102243809,17.0,-19.0,-8.0,6.0,8.0,4.0,0.0,1.0,3.0,1.0,26.39,112.23,21.88,
12.689,77.5449800277242,82.14621710224381,15.0,-21.0,-3.0,6.0,8.0,4.0,0.0,1.0,3.0,1.0,29.92,97.12,22.46,
12.703,76.83849800277243,81.72662171022439,12.0,-12.0,-6.0,6.0,8.0,4.0,0.0,2.0,3.0,1.0,31.59,91.43,23.54,
12.718,76.80384980027725,81.15366217102245,10.0,-12.0,-6.0,6.0,9.0,4.0,0.0,2.0,3.0,1.0,32.96,87.01,23.94,
12.732,76.55738498002773,81.14136621710225,11.0,-16.0,-2.0,6.0,9.0,4.0,0.0,2.0,4.0,1.0,34.24,83.29,24.43,
12.746,76.28073849800278,81.08613662171021,12.0,-16.0,-3.0,6.0,9.0,4.0,0.0,2.0,4.0,1.0,36.98,76.62,24.92,
12.761,75.65007384980028,81.42261366217102,13.0,-10.0,-7.0,6.0,10.0,4.0,0.0,2.0,4.0,1.0,38.55,73.48,26.19,
12.775,75.24500738498003,81.7262613662171,8.0,-9.0,0.0,6.0,10.0,4.0,0.0,3.0,4.0,1.0,39.93,70.44,26.78,
12.789,74.69150073849801,81.7116261366217,8.0,2.0,-7.0,6.0,10.0,4.0,0.0,3.0,4.0,1.0,41.3,64.55,27.47,
12.803,74.52815007384982,81.95316261366219,2.0,-2.0,-3.0,6.0,10.0,5.0,0.0,3.0,5.0,1.0,43.36,62.0,28.45,
12.817,74.79981500738498,81.94131626136621,0.0,-8.0,-2.0,7.0,10.0,5.0,0.0,3.0,5.0,0.0,44.05,60.14,28.55,
12.831,74.7729815007385,81.85013162613663,0.0,-6.0,-5.0,7.0,10.0,5.0,0.0,3.0,5.0,0.0,44.24,59.45,28.65,
12.846,74.51829815007385,82.16501316261366,0.0,-5.0,-5.0,7.0,10.0,5.0,0.0,3.0,5.0,0.0,44.24,60.82,28.65,
12.86,74.33082981500739,82.04350131626137,-1.0,-5.0,-3.0,7.0,10.0,5.0,0.0,3.0,5.0,0.0,44.15,61.7,28.55,
12.874,73.90708298150074,81.38335013162614,-5.0,-2.0,-5.0,7.0,10.0,5.0,0.0,3.0,5.0,0.0,44.15,62.1,28.55,
12.889,74.05370829815007,81.60533501316262,-9.0,-2.0,-2.0,7.0,10.0,5.0,0.0,3.0,5.0,0.0,43.95,62.39,28.35,
12.903,74.419370829815,82.39253350131627,-21.0,5.0,-4.0,7.0,9.0,5.0,0.0,3.0,5.0,0.0,42.18,63.47,26.88,
12.917,74.7439370829815,82.18325335013162,-21.0,5.0,-4.0,7.0,9.0,5.0,0.0,2.0,4.0,0.0,39.83,66.32,25.51,
12.932,74.97439370829815,81.64032533501316,-12.0,4.0,-1.0,7.0,9.0,5.0,0.0,2.0,4.0,0.0,37.08,71.71,23.94,
12.946,75.24943937082982,81.28903253350131,-6.0,-8.0,4.0,7.0,9.0,4.0,0.0,2.0,4.0,0.0,34.53,80.93,22.27,
12.959,75.40294393708298,80.93890325335013,0.0,-18.0,4.0,6.0,8.0,4.0,0.0,2.0,4.0,0.0,30.41,79.85,19.52,
12.974,75.22929439370829,80.660890325335,7.0,-26.0,0.0,6.0,8.0,4.0,0.0,1.0,3.0,0.0,28.94,75.14,18.25,
12.988,74.80692943937083,80.7050890325335,10.0,-30.0,0.0,6.0,7.0,4.0,0.0,1.0,3.0,0.0,27.66,59.06,16.97,
13.002,74.34169294393709,80.89850890325334,9.0,-25.0,-1.0,5.0,7.0,4.0,0.0,1.0,3.0,0.0,26.49,50.42,14.03,
13.016,73.71016929439371,80.95385089032533,7.0,-14.0,-8.0,4.0,7.0,3.0,0.0,1.0,2.0,0.0,23.25,42.97,12.56,
13.03,73.27801692943937,81.16638508903253,0.0,-8.0,-10.0,4.0,6.0,3.0,0.0,0.0,2.0,0.0,20.99,36.98,10.79,
13.044,73.13580169294394,81.25063850890325,-5.0,-6.0,-10.0,3.0,6.0,3.0,0.0,0.0,2.0,0.0,18.54,30.71,9.22,
13.059,73.13058016929439,81.13306385089034,-5.0,-5.0,-8.0,3.0,5.0,2.0,0.0,0.0,1.0,0.0,15.99,29.82,6.28,
13.073,73.04905801692944,80.93230638508903,-5.0,-9.0,-3.0,2.0,5.0,2.0,0.0,0.0,1.0,0.0,11.87,29.82,5.3,
13.086,73.11290580169295,80.8132306385089,-3.0,-13.0,-2.0,2.0,5.0,2.0,0.0,0.0,1.0,0.0,10.69,30.12,4.51,
13.101,72.81329058016931,80.85532306385089,-4.0,-12.0,-1.0,2.0,5.0,2.0,0.0,0.0,1.0,0.0,10.1,30.41,4.12,
13.115,72.54932905801692,80.9585323063851,-8.0,-7.0,-2.0,2.0,5.0,2.0,0.0,0.0,1.0,0.0,9.81,30.41,3.34,
13.128,72.3609329058017,80.95085323063851,-11.0,1.0,-3.0,2.0,5.0,2.0,0.0,0.0,1.0,0.0,9.32,30.51,3.14,
13.143,72.44109329058017,81.18408532306385,-14.0,4.0,-4.0,2.0,5.0,2.0,0.0,0.0,1.0,0.0,9.03,32.47,2.84,
13.157,72.39510932905802,81.13540853230639,-17.0,10.0,-2.0,2.0,5.0,2.0,0.0,0.0,1.0,0.0,8.63,34.53,2.16,
13.171,72.30051093290581,80.56354085323063,-16.0,13.0,-4.0,2.0,4.0,2.0,0.0,0.0,1.0,0.0,8.04,37.18,1.96,
13.185,72.46205109329058,80.32635408532306,-13.0,17.0,1.0,2.0,4.0,2.0,0.0,0.0,1.0,0.0,6.87,40.22,1.77,
13.199,72.80220510932907,79.7896354085323,-6.0,7.0,2.0,2.0,4.0,2.0,0.0,0.0,1.0,0.0,6.38,45.13,1.47,
13.212,73.06122051093291,79.49296354085322,0.0,-2.0,1.0,2.0,4.0,2.0,0.0,0.0,1.0,0.0,6.08,45.42,1.28,
13.227,73.24912205109328,79.32829635408532,3.0,-9.0,1.0,2.0,4.0,2.0,0.0,0.0,1.0,0.0,5.98,43.85,1.08,
13.24,73.36691220510933,79.25782963540854,6.0,-19.0,1.0,2.0,4.0,2.0,0.0,0.0,1.0,0.0,5.79,40.71,0.88,
13.254,73.01869122051093,79.28678296354086,8.0,-25.0,1.0,2.0,4.0,2.0,0.0,0.0,1.0,0.0,5.89,31.78,0.69,
13.267,72.87586912205109,79.25367829635408,7.0,-26.0,0.0,2.0,4.0,2.0,0.0,0.0,1.0,0.0,5.89,27.57,0.29,
13.282,72.59158691220512,79.4663678296354,7.0,-26.0,0.0,1.0,4.0,2.0,0.0,0.0,1.0,0.0,5.89,24.13,0.1,
13.296,72.09515869122052,79.83863678296353,8.0,-23.0,-1.0,1.0,4.0,2.0,0.0,0.0,1.0,0.0,5.98,21.78,0.0,
13.309,71.63151586912204,80.11886367829635,6.0,-15.0,0.0,1.0,4.0,2.0,0.0,0.0,1.0,0.0,6.08,19.42,0.0,
13.324,71.1531515869122,80.46188636782963,4.0,-9.0,0.0,1.0,4.0,2.0,0.0,0.0,1.0,0.0,6.28,18.74,0.0,
13.337,70.84431515869123,80.95518863678296,0.0,-3.0,-1.0,1.0,4.0,2.0,0.0,0.0,1.0,0.0,6.47,18.25,0.0,
13.351,70.74143151586912,81.20251886367829,-2.0,1.0,-2.0,1.0,4.0,2.0,0.0,0.0,1.0,0.0,6.57,18.15,0.29,
13.365,70.82114315158691,81.25425188636783,-6.0,6.0,-2.0,2.0,4.0,2.0,0.0,0.0,1.0,0.0,6.77,18.84,0.59,
13.379,70.92811431515868,81.21442518863678,-7.0,4.0,-3.0,2.0,4.0,2.0,0.0,0.0,1.0,0.0,6.57,19.72,0.88,
13.392,71.05581143151586,81.14744251886367,-6.0,5.0,-4.0,2.0,4.0,2.0,0.0,0.0,1.0,0.0,6.47,20.5,0.98,
13.407,71.08658114315159,81.04174425188637,-5.0,4.0,-3.0,2.0,4.0,2.0,0.0,0.0,1.0,0.0,6.28,21.58,0.98,
13.421,71.12565811431516,80.82417442518863,-3.0,3.0,-4.0,1.0,4.0,2.0,0.0,0.0,1.0,0.0,6.08,23.15,0.88,
13.434,71.11156581143152,80.72141744251886,-3.0,4.0,-3.0,1.0,4.0,1.0,0.0,0.0,1.0,0.0,5.69,23.45,0.88,
13.448,71.15515658114315,80.68414174425189,-3.0,4.0,-2.0,1.0,4.0,1.0,0.0,0.0,1.0,0.0,5.49,23.54,0.88,
13.462,71.24951565811432,80.6804141744252,-2.0,6.0,-3.0,1.0,4.0,1.0,0.0,0.0,1.0,0.0,5.3,23.35,0.98,
13.475,71.40295156581143,80.61704141744252,-2.0,4.0,-3.0,1.0,4.0,1.0,0.0,0.0,1.0,0.0,5.2,22.96,0.98,
13.49,71.61629515658115,80.52070414174426,-2.0,1.0,-2.0,1.0,4.0,2.0,0.0,0.0,1.0,0.0,5.0,22.86,1.18,
13.503,71.7996295156581,80.36707041417442,0.0,-6.0,0.0,1.0,4.0,2.0,0.0,0.0,1.0,0.0,4.91,22.96,1.18,
13.516,71.73696295156581,80.37870704141744,0.0,-7.0,-1.0,2.0,4.0,2.0,0.0,0.0,1.0,0.0,4.91,23.05,1.28,
13.531,71.62269629515657,80.39787070414175,0.0,-7.0,0.0,2.0,4.0,2.0,0.0,0.0,1.0,0.0,5.0,23.15,1.47,
13.545,71.44026962951565,80.41778707041418,-1.0,-6.0,0.0,2.0,4.0,2.0,0.0,0.0,1.0,0.0,5.2,23.64,1.77,
13.558,71.29602696295157,80.55477870704141,-2.0,-1.0,0.0,2.0,4.0,2.0,0.0,0.0,1.0,0.0,5.59,23.84,1.86,
13.573,71.20060269629515,80.59547787070413,-2.0,2.0,1.0,2.0,4.0,2.0,0.0,0.0,1.0,0.0,5.79,24.13,1.96,
13.586,71.21806026962952,80.59054778707042,-2.0,4.0,2.0,2.0,4.0,2.0,0.0,0.0,1.0,0.0,5.98,24.62,2.26,
13.6,71.36380602696295,80.58105477870704,-2.0,4.0,2.0,2.0,4.0,2.0,0.0,0.0,1.0,0.0,6.28,25.51,2.84,
13.614,71.3873806026963,80.5801054778707,-3.0,3.0,1.0,3.0,4.0,2.0,0.0,0.0,1.0,0.0,6.87,26.0,3.14,
13.628,71.42573806026964,80.58901054778707,-3.0,3.0,1.0,3.0,4.0,2.0,0.0,0.0,1.0,0.0,7.16,26.49,3.53,
13.641,71.52857380602697,80.61690105477871,-3.0,2.0,1.0,3.0,5.0,2.0,0.0,0.0,1.0,0.0,7.55,26.98,3.83,
13.655,71.61085738060271,80.66469010547787,-3.0,2.0,0.0,3.0,5.0,2.0,0.0,0.0,1.0,0.0,8.04,28.35,4.22,
13.669,71.64608573806028,80.6424690105478,-2.0,0.0,0.0,3.0,5.0,2.0,0.0,0.0,1.0,0.0,8.34,29.04,4.71,
13.682,71.70360857380602,80.61324690105478,-1.0,0.0,0.0,3.0,5.0,2.0,0.0,0.0,2.0,0.0,8.93,29.63,5.0,
13.697,71.6463608573806,80.58332469010548,0.0,0.0,0.0,3.0,5.0,2.0,0.0,0.0,2.0,0.0,9.22,30.02,5.2,
13.71,71.67663608573807,80.53533246901056,0.0,0.0,0.0,3.0,5.0,2.0,0.0,0.0,2.0,0.0,9.52,30.31,5.59,
13.724,71.6166636085738,80.56653324690105,0.0,0.0,0.0,3.0,5.0,2.0,0.0,0.0,2.0,0.0,9.81,30.02,6.18,
13.737,71.55666636085738,80.65965332469011,0.0,0.0,0.0,3.0,5.0,2.0,0.0,0.0,2.0,0.0,10.5,29.82,6.47,
13.751,71.62266663608574,80.740965332469,-1.0,2.0,0.0,3.0,5.0,2.0,0.0,0.0,2.0,0.0,10.69,29.63,6.67,
13.765,71.68326666360858,80.75809653324691,-2.0,2.0,0.0,3.0,5.0,3.0,0.0,0.0,2.0,0.0,10.89,29.72,6.87,
13.779,71.70732666636086,80.7688096533247,-3.0,2.0,-1.0,3.0,5.0,3.0,0.0,0.0,2.0,0.0,11.09,30.12,7.16,
13.793,71.77273266663609,80.75188096533246,-4.0,3.0,-1.0,3.0,5.0,3.0,0.0,0.0,2.0,0.0,11.18,30.61,7.36,
13.807,71.82427326666361,80.75018809653324,-4.0,3.0,-1.0,3.0,5.0,3.0,0.0,0.0,2.0,0.0,11.28,31.39,7.55,
13.82,71.86542732666636,80.69601880965331,-4.0,3.0,0.0,3.0,5.0,3.0,0.0,0.0,2.0,0.0,11.28,32.96,7.55,
13.835,71.89654273266665,80.69060188096532,-3.0,2.0,0.0,3.0,5.0,3.0,0.0,0.0,2.0,0.0,11.38,33.75,7.85,
13.849,71.90865427326666,80.66306018809652,-3.0,2.0,0.0,3.0,5.0,3.0,0.0,0.0,2.0,0.0,11.38,34.43,7.85,
13.862,71.90986542732666,80.67830601880966,-3.0,2.0,0.0,3.0,5.0,3.0,0.0,0.0,2.0,0.0,11.67,34.92,7.95,
13.877,71.90998654273265,80.61683060188098,-2.0,1.0,0.0,4.0,5.0,3.0,0.0,0.0,2.0,0.0,11.77,35.61,8.14,
13.89,71.95499865427325,80.6286830601881,-2.0,0.0,0.0,4.0,5.0,3.0,0.0,0.0,2.0,0.0,11.97,35.81,8.44,
13.904,72.03149986542734,80.69286830601882,-2.0,1.0,0.0,4.0,6.0,3.0,0.0,0.0,2.0,0.0,12.16,36.0,8.44,
13.918,72.07514998654273,80.7262868306019,-2.0,2.0,0.0,4.0,6.0,3.0,0.0,0.0,2.0,0.0,12.65,36.2,8.63,
13.932,72.13351499865428,80.71162868306018,-2.0,3.0,0.0,4.0,6.0,3.0,0.0,0.0,2.0,0.0,12.75,36.0,8.73,
13.946,72.19335149986543,80.73716286830602,-3.0,2.0,0.0,4.0,6.0,3.0,0.0,0.0,2.0,0.0,12.95,35.9,8.73,
13.96,72.27133514998656,80.73071628683061,-3.0,3.0,0.0,4.0,6.0,3.0,0.0,0.0,2.0,0.0,13.05,36.0,8.73,
13.974,72.41413351499867,80.72107162868306,-4.0,2.0,0.0,4.0,6.0,3.0,0.0,0.0,2.0,0.0,13.24,36.1,8.83,
13.987,72.42841335149987,80.7111071628683,-4.0,2.0,0.0,4.0,6.0,3.0,0.0,0.0,2.0,0.0,13.44,36.69,8.83,
14.002,72.42084133514999,80.70111071628683,-4.0,2.0,0.0,4.0,6.0,3.0,0.0,0.0,2.0,0.0,13.54,37.08,8.93,
14.015,72.45608413351499,80.7001110716287,-4.0,3.0,0.0,4.0,6.0,3.0,0.0,0.0,2.0,0.0,13.73,37.47,9.03,
14.029,72.43260841335152,80.72701110716288,-4.0,4.0,1.0,4.0,6.0,3.0,0.0,0.0,2.0,0.0,13.83,37.87,9.12,
14.043,72.42126084133514,80.68470111071629,-5.0,4.0,0.0,4.0,6.0,3.0,0.0,0.0,2.0,0.0,14.03,38.95,9.12,
14.057,72.40212608413353,80.68047011107164,-5.0,5.0,0.0,4.0,6.0,3.0,0.0,0.0,2.0,0.0,14.03,39.53,9.12,
14.071,72.55321260841336,80.68004701110718,-5.0,6.0,1.0,4.0,6.0,3.0,0.0,0.0,2.0,0.0,14.22,40.12,9.12,
14.085,72.66732126084133,80.6620047011107,-5.0,5.0,1.0,4.0,6.0,3.0,0.0,0.0,2.0,0.0,14.22,40.71,9.12,
14.099,72.71473212608414,80.58820047011108,-6.0,7.0,1.0,4.0,6.0,3.0,0.0,0.0,2.0,0.0,14.42,42.08,9.22,
14.112,72.82747321260842,80.48182004701111,-6.0,8.0,0.0,4.0,6.0,3.0,0.0,0.0,2.0,0.0,14.62,42.87,9.22,
14.127,72.95574732126084,80.38118200470112,-6.0,6.0,1.0,4.0,6.0,3.0,0.0,0.0,2.0,0.0,14.72,43.65,9.22,
14.14,73.10357473212609,80.29911820047012,-6.0,6.0,0.0,4.0,6.0,3.0,0.0,0.0,2.0,0.0,14.72,44.54,9.32,
14.154,73.1993574732126,80.20991182004701,-5.0,3.0,0.0,4.0,6.0,3.0,0.0,0.0,2.0,0.0,14.81,46.11,9.42,
14.168,73.27193574732125,80.1379911820047,-4.0,2.0,0.0,4.0,6.0,3.0,0.0,0.0,2.0,0.0,14.91,46.7,9.42,
14.182,73.34219357473212,80.14879911820047,-4.0,1.0,0.0,4.0,6.0,3.0,0.0,0.0,2.0,0.0,14.91,47.19,9.32,
14.196,73.37621935747322,80.11387991182005,-3.0,0.0,0.0,5.0,6.0,3.0,0.0,0.0,2.0,0.0,15.01,47.48,9.42,
14.21,73.34362193574732,80.038387991182,-3.0,1.0,-1.0,4.0,6.0,3.0,0.0,0.0,2.0,0.0,15.01,47.87,9.32,
14.224,73.31336219357473,80.0668387991182,-3.0,0.0,0.0,4.0,6.0,3.0,0.0,0.0,2.0,0.0,15.11,48.07,9.32,
14.237,73.31033621935747,80.06968387991182,-3.0,1.0,0.0,5.0,6.0,3.0,0.0,0.0,2.0,0.0,15.01,48.27,9.22,
14.252,73.33703362193575,80.07896838799118,-3.0,1.0,0.0,5.0,6.0,3.0,0.0,0.0,2.0,0.0,15.01,48.46,9.32,
14.265,73.33970336219357,80.04389683879911,-4.0,1.0,0.0,5.0,6.0,3.0,0.0,0.0,2.0,0.0,15.01,49.15,9.32,
14.279,73.32197033621935,80.03138968387991,-3.0,1.0,0.0,5.0,6.0,3.0,0.0,0.0,2.0,0.0,15.01,49.44,9.32,
14.294,73.32019703362194,80.07513896838799,-3.0,1.0,0.0,5.0,6.0,3.0,0.0,0.0,2.0,0.0,15.01,49.83,9.22,
14.307,73.3920197033622,80.0435138968388,-3.0,1.0,0.0,5.0,6.0,3.0,0.0,0.0,2.0,0.0,15.01,50.23,9.22,
14.321,73.39020197033622,79.97735138968388,-4.0,0.0,0.0,5.0,6.0,3.0,0.0,0.0,2.0,0.0,14.91,50.82,9.22,
14.334,73.38102019703362,79.96173513896838,-3.0,0.0,0.0,5.0,6.0,3.0,0.0,0.0,2.0,0.0,14.91,51.11,9.22,
14.349,73.45210201970335,79.98717351389683,-3.0,0.0,0.0,5.0,6.0,3.0,0.0,0.0,2.0,0.0,15.01,51.4,9.22,
14.362,73.48621020197032,79.95371735138968,-3.0,0.0,0.0,5.0,6.0,3.0,0.0,0.0,2.0,0.0,15.01,51.4,9.22,
14.376,73.48962102019702,79.96837173513896,-2.0,0.0,0.0,5.0,6.0,3.0,0.0,0.0,2.0,0.0,15.11,51.5,9.12,
14.39,73.56196210201969,79.9698371735139,-2.0,0.0,0.0,5.0,6.0,3.0,0.0,0.0,2.0,0.0,964.91,51.4,9.12,
14.404,73.57819621020197,79.99698371735138,-2.0,0.0,0.0,5.0,6.0,3.0,0.0,0.0,2.0,0.0,0.0,51.4,9.22,
14.418,73.5888196210202,79.98169837173513,-2.0,0.0,0.0,5.0,6.0,3.0,0.0,0.0,2.0,0.0,15.11,51.31,9.22,
14.432,73.57188196210201,79.93516983717352,-2.0,0.0,-1.0,5.0,6.0,3.0,0.0,0.0,2.0,0.0,15.11,51.31,9.03,
14.446,73.56118819621021,79.93051698371737,-2.0,0.0,-1.0,5.0,6.0,3.0,0.0,0.0,2.0,0.0,15.11,51.31,9.12,
14.459,73.62311881962101,79.92105169837173,-2.0,0.0,-1.0,5.0,6.0,3.0,0.0,0.0,2.0,0.0,15.11,51.31,9.12,
14.474,73.6653118819621,79.91110516983717,-2.0,-1.0,-1.0,5.0,6.0,3.0,0.0,0.0,2.0,0.0,15.11,51.31,9.12,
14.488,73.6875311881962,79.92811051698372,-2.0,-1.0,-1.0,5.0,6.0,3.0,0.0,0.0,2.0,0.0,15.11,51.21,9.12,
14.501,73.70775311881962,79.91181105169836,-2.0,-2.0,-1.0,5.0,6.0,3.0,0.0,0.0,2.0,0.0,15.11,51.11,9.12,
14.516,73.75477531188196,79.91018110516983,-1.0,-1.0,-1.0,5.0,6.0,3.0,0.0,0.0,2.0,0.0,15.11,50.91,9.12,
14.53,73.7324775311882,79.91901811051697,-1.0,-1.0,-1.0,5.0,6.0,3.0,0.0,0.0,2.0,0.0,15.11,50.42,9.22,
14.544,73.64924775311881,79.96490181105169,-1.0,-1.0,-1.0,5.0,6.0,3.0,0.0,0.0,2.0,0.0,15.11,50.13,9.22,
14.558,73.65892477531187,79.97849018110517,-2.0,-1.0,-1.0,5.0,6.0,3.0,0.0,0.0,2.0,0.0,15.11,49.93,9.22,
14.572,73.66889247753119,79.96184901811051,-2.0,-1.0,-1.0,5.0,6.0,3.0,0.0,0.0,2.0,0.0,15.11,49.74,9.22,
14.586,73.61588924775312,80.02318490181105,-2.0,-2.0,0.0,5.0,6.0,3.0,0.0,0.0,2.0,0.0,15.01,49.54,9.22,
14.6,73.5295889247753,80.02931849018111,-2.0,0.0,0.0,5.0,6.0,3.0,0.0,0.0,2.0,0.0,15.01,49.44,9.12,
14.614,73.47595889247754,80.02993184901811,-1.0,0.0,0.0,5.0,6.0,3.0,0.0,0.0,2.0,0.0,14.91,49.44,9.22,
14.628,73.49759588924776,80.02999318490181,-1.0,0.0,0.0,5.0,6.0,3.0,0.0,0.0,2.0,0.0,15.11,49.44,9.22,
14.642,73.50875958892478,80.09299931849019,-1.0,0.0,0.0,5.0,6.0,3.0,0.0,0.0,2.0,0.0,15.21,48.85,9.22,
14.656,73.52787595889248,80.14429993184902,-1.0,0.0,0.0,5.0,6.0,3.0,0.0,0.0,2.0,0.0,15.21,48.46,9.22,
14.669,73.52978759588925,80.12242999318491,-2.0,0.0,0.0,5.0,6.0,3.0,0.0,0.0,2.0,0.0,15.21,48.17,9.22,
14.684,73.56597875958892,80.10224299931849,-1.0,0.0,-1.0,5.0,6.0,3.0,0.0,0.0,2.0,0.0,15.21,47.97,9.32,
14.697,73.4885978759589,80.04622429993185,-2.0,0.0,-1.0,5.0,6.0,3.0,0.0,0.0,2.0,0.0,15.3,47.97,9.42,
14.711,73.54385978759588,80.06762242999318,-2.0,0.0,-1.0,5.0,6.0,3.0,0.0,0.0,2.0,0.0,15.3,47.77,9.42,
14.726,73.51338597875959,80.01576224299932,-2.0,-1.0,-1.0,5.0,6.0,3.0,0.0,0.0,2.0,0.0,15.3,47.77,9.42,
14.739,73.48333859787596,80.04657622429993,-2.0,0.0,-1.0,5.0,6.0,3.0,0.0,0.0,2.0,0.0,15.21,47.77,9.42,
14.753,73.38133385978759,80.06765762242999,-2.0,0.0,0.0,5.0,6.0,3.0,0.0,0.0,2.0,0.0,15.21,47.87,9.42,
14.768,73.38913338597877,80.105765762243,-2.0,-1.0,-1.0,5.0,6.0,3.0,0.0,0.0,2.0,0.0,15.11,47.87,9.32,
14.781,73.43491333859788,80.0645765762243,-2.0,0.0,-1.0,5.0,6.0,3.0,0.0,0.0,2.0,0.0,15.11,47.87,9.42,
14.795,73.44849133385979,80.03345765762244,-2.0,0.0,-1.0,5.0,6.0,3.0,0.0,0.0,2.0,0.0,15.11,47.77,9.42,
14.81,73.40484913338598,80.05734576576225,-2.0,0.0,-1.0,5.0,6.0,3.0,0.0,0.0,2.0,0.0,15.01,47.68,9.32,
14.823,73.4004849133386,80.06873457657622,-3.0,0.0,0.0,5.0,6.0,3.0,0.0,0.0,2.0,0.0,15.01,47.77,9.32,
14.837,73.43604849133386,80.08787345765762,-2.0,0.0,-1.0,5.0,6.0,3.0,0.0,0.0,2.0,0.0,14.91,47.87,9.32,
14.851,73.39460484913339,80.10778734576576,-2.0,0.0,-1.0,5.0,6.0,3.0,0.0,0.0,2.0,0.0,14.91,48.17,9.32,
14.865,73.33646048491333,80.04677873457658,-2.0,-1.0,-1.0,5.0,6.0,3.0,0.0,0.0,2.0,0.0,14.81,48.07,9.12,
14.879,73.41164604849133,80.03167787345765,-2.0,0.0,-1.0,5.0,6.0,3.0,0.0,0.0,2.0,0.0,14.81,47.97,9.12,
14.893,73.36516460484913,79.99416778734576,-2.0,-1.0,-1.0,5.0,6.0,3.0,0.0,0.0,2.0,0.0,14.72,47.97,9.12,
14.907,73.38751646048492,79.96341677873457,-2.0,-1.0,-1.0,5.0,6.0,3.0,0.0,0.0,2.0,0.0,14.72,47.87,8.93,
14.921,73.4257516460485,79.93334167787347,-2.0,-1.0,-1.0,5.0,6.0,3.0,0.0,0.0,2.0,0.0,14.62,47.87,8.93,
14.936,73.39357516460485,79.94833416778735,-2.0,-1.0,0.0,5.0,6.0,3.0,0.0,0.0,2.0,0.0,14.62,47.77,8.83,
14.949,73.35435751646048,79.92283341677873,-2.0,-1.0,-1.0,5.0,6.0,3.0,0.0,0.0,2.0,0.0,14.62,47.68,8.83,
14.963,73.32343575164604,79.92028334167787,-2.0,-1.0,0.0,5.0,6.0,3.0,0.0,0.0,2.0,0.0,14.52,47.28,8.63,
14.978,73.3293435751646,79.95602833416778,-2.0,-1.0,-1.0,5.0,6.0,3.0,0.0,0.0,2.0,0.0,14.62,47.09,8.63,
14.991,73.30293435751646,79.97760283341678,-2.0,-1.0,-1.0,5.0,6.0,3.0,0.0,0.0,2.0,0.0,14.42,46.99,8.53,
15.005,73.25529343575164,80.01576028334168,-2.0,0.0,-1.0,5.0,6.0,3.0,0.0,0.0,2.0,0.0,14.32,46.79,8.53,
15.02,73.23252934357518,80.07357602833417,-2.0,-1.0,0.0,5.0,6.0,3.0,0.0,0.0,2.0,0.0,14.32,46.5,8.44,
15.033,73.25725293435752,80.09735760283343,-2.0,0.0,0.0,5.0,6.0,3.0,0.0,0.0,2.0,0.0,14.22,46.3,8.44,
15.047,73.20572529343576,80.12673576028334,-1.0,-1.0,-1.0,5.0,6.0,3.0,0.0,0.0,2.0,0.0,14.22,46.11,8.34,
15.062,73.18257252934359,80.16567357602834,-1.0,-1.0,-1.0,5.0,6.0,3.0,0.0,0.0,2.0,0.0,14.22,45.71,8.34,
15.075,73.19825725293437,80.17856735760284,-2.0,0.0,-1.0,5.0,6.0,3.0,0.0,0.0,2.0,0.0,14.22,45.13,8.34,
15.089,73.19982572529345,80.18885673576028,-2.0,0.0,0.0,5.0,6.0,3.0,0.0,0.0,2.0,0.0,14.13,44.83,8.24,
15.104,73.14598257252935,80.11788567357603,-2.0,-1.0,0.0,5.0,6.0,3.0,0.0,0.0,2.0,0.0,14.03,44.64,8.24,
15.117,73.12259825725295,80.0657885673576,-1.0,-1.0,-1.0,5.0,6.0,3.0,0.0,0.0,2.0,0.0,14.03,44.34,8.24,
15.131,73.1112598257253,80.08757885673576,-1.0,-1.0,0.0,5.0,6.0,3.0,0.0,0.0,2.0,0.0,14.03,44.15,8.24,
15.145,73.18212598257253,80.11675788567358,-1.0,-1.0,0.0,5.0,6.0,3.0,0.0,0.0,2.0,0.0,14.03,43.85,8.24,
15.159,73.18021259825726,80.19167578856737,-1.0,-1.0,0.0,5.0,6.0,3.0,0.0,0.0,2.0,0.0,13.93,43.56,8.24,
15.173,73.18902125982572,80.20816757885673,-2.0,0.0,0.0,5.0,6.0,3.0,0.0,0.0,2.0,0.0,14.03,42.97,8.24,
15.186,73.18090212598258,80.18281675788567,-2.0,-1.0,0.0,5.0,6.0,3.0,0.0,0.0,2.0,0.0,13.93,42.77,8.24,
15.201,73.18009021259826,80.13528167578858,-2.0,0.0,0.0,5.0,6.0,3.0,0.0,0.0,2.0,0.0,13.93,42.58,8.24,
15.215,73.18000902125983,80.14852816757886,-2.0,-1.0,0.0,5.0,6.0,3.0,0.0,0.0,2.0,0.0,14.03,42.48,8.34,
15.228,73.180000902126,80.14085281675789,-2.0,0.0,0.0,5.0,6.0,3.0,0.0,0.0,2.0,0.0,14.03,42.18,8.24,
15.243,73.21600009021259,80.08608528167579,-2.0,0.0,0.0,5.0,6.0,3.0,0.0,0.0,2.0,0.0,14.03,42.18,8.24,
15.256,73.18360000902126,80.02660852816757,-2.0,0.0,-1.0,5.0,6.0,3.0,0.0,0.0,2.0,0.0,14.03,42.18,8.24,
15.27,73.18936000090213,80.00266085281676,-2.0,-1.0,-1.0,5.0,6.0,3.0,0.0,0.0,2.0,0.0,14.03,42.18,8.24,
15.285,73.1899360000902,80.03626608528168,-1.0,0.0,-1.0,5.0,6.0,3.0,0.0,0.0,2.0,0.0,14.13,42.08,8.34,
15.298,73.13599360000902,80.07562660852817,-2.0,0.0,0.0,5.0,6.0,3.0,0.0,0.0,2.0,0.0,14.13,41.99,8.34,
15.312,73.12159936000091,80.13356266085282,-2.0,0.0,0.0,5.0,6.0,3.0,0.0,0.0,2.0,0.0,14.13,41.89,8.24,
15.327,73.1471599360001,80.13935626608529,-2.0,0.0,0.0,5.0,6.0,3.0,0.0,0.0,2.0,0.0,14.22,41.69,8.34,
15.34,73.16771599360001,80.17593562660853,-2.0,0.0,0.0,5.0,6.0,3.0,0.0,0.0,2.0,0.0,14.22,41.59,8.24,
15.354,73.14277159936,80.19759356266086,-2.0,0.0,-1.0,5.0,6.0,3.0,0.0,0.0,2.0,0.0,14.22,41.69,8.24,
15.368,73.149277159936,80.19975935626609,-2.0,0.0,0.0,5.0,6.0,3.0,0.0,0.0,2.0,0.0,14.22,41.79,8.24,
15.382,73.1589277159936,80.17297593562661,-2.0,0.0,0.0,5.0,6.0,3.0,0.0,0.0,2.0,0.0,14.22,41.89,8.24,
15.396,73.12389277159937,80.15229759356266,-2.0,0.0,0.0,5.0,6.0,3.0,0.0,0.0,2.0,0.0,14.22,41.89,8.24,
15.41,73.12938927715993,80.11422975935626,-2.0,0.0,0.0,5.0,6.0,3.0,0.0,0.0,2.0,0.0,14.32,41.69,8.14,
15.424,73.147938927716,80.14642297593564,-2.0,0.0,0.0,5.0,6.0,3.0,0.0,0.0,2.0,0.0,14.32,41.59,8.04,
15.437,73.14979389277161,80.15864229759357,-2.0,0.0,-1.0,5.0,6.0,3.0,0.0,0.0,2.0,0.0,14.32,41.5,8.14,
15.452,73.13197938927715,80.16886422975936,-2.0,0.0,-1.0,5.0,6.0,3.0,0.0,0.0,2.0,0.0,14.22,41.2,8.14,
15.465,73.08519793892772,80.10688642297593,-2.0,0.0,0.0,5.0,6.0,3.0,0.0,0.0,2.0,0.0,14.22,41.1,8.14,
15.479,73.07151979389276,80.1096886422976,-2.0,-1.0,0.0,5.0,6.0,3.0,0.0,0.0,2.0,0.0,14.13,40.91,8.04,
15.494,73.02515197938928,80.16396886422976,-2.0,-1.0,0.0,5.0,6.0,3.0,0.0,0.0,2.0,0.0,14.13,40.71,8.04,
15.507,73.04751519793894,80.23239688642298,-2.0,-1.0,0.0,5.0,6.0,3.0,0.0,0.0,2.0,0.0,14.22,40.52,8.14,
15.521,73.0317515197939,80.1762396886423,-1.0,-1.0,0.0,5.0,6.0,3.0,0.0,0.0,2.0,0.0,14.22,40.52,8.04,
15.536,73.06617515197938,80.19762396886424,-1.0,-1.0,0.0,5.0,6.0,3.0,0.0,0.0,2.0,0.0,14.22,40.42,8.04,
15.549,73.04261751519795,80.19076239688643,-1.0,-1.0,0.0,5.0,6.0,3.0,0.0,0.0,2.0,0.0,14.32,40.32,8.14,
15.563,73.0402617515198,80.22607623968865,-1.0,-1.0,-1.0,5.0,6.0,3.0,0.0,0.0,2.0,0.0,14.32,39.63,8.14,
15.578,73.01302617515198,80.26560762396886,-1.0,-1.0,0.0,5.0,6.0,3.0,0.0,0.0,2.0,0.0,14.32,39.24,8.14,
15.591,73.06430261751518,80.35056076239688,-2.0,-1.0,0.0,5.0,6.0,3.0,0.0,0.0,2.0,0.0,14.42,38.85,8.14,
15.605,73.05143026175152,80.3140560762397,-2.0,-1.0,0.0,5.0,6.0,3.0,0.0,0.0,2.0,0.0,14.52,38.46,8.24,
15.62,73.03214302617515,80.33740560762398,-1.0,-1.0,0.0,5.0,6.0,3.0,0.0,0.0,2.0,0.0,14.52,38.46,8.34,
15.633,73.02121430261752,80.3127405607624,-2.0,-1.0,0.0,5.0,6.0,3.0,0.0,0.0,2.0,0.0,14.62,38.36,8.34,
15.647,72.96612143026175,80.26527405607625,-2.0,-1.0,0.0,5.0,6.0,3.0,0.0,0.0,2.0,0.0,14.72,38.26,8.34,
15.661,72.87961214302618,80.32352740560762,-2.0,-1.0,-1.0,5.0,6.0,3.0,0.0,0.0,2.0,0.0,14.62,38.16,8.34,
15.675,72.87096121430262,80.28435274056076,-2.0,0.0,-1.0,5.0,6.0,3.0,0.0,0.0,2.0,0.0,14.62,38.26,8.34,
15.689,72.82509612143026,80.32543527405608,-2.0,0.0,-1.0,5.0,6.0,3.0,0.0,0.0,2.0,0.0,14.72,38.46,8.34,
15.703,72.82050961214303,80.3025435274056,-2.0,0.0,-1.0,5.0,6.0,3.0,0.0,0.0,2.0,0.0,14.72,38.75,8.34,
15.717,72.8830509612143,80.32725435274055,-2.0,0.0,-1.0,5.0,6.0,3.0,0.0,0.0,2.0,0.0,14.72,39.24,8.24,
15.731,72.82630509612143,80.33872543527407,-3.0,0.0,-1.0,5.0,6.0,3.0,0.0,0.0,2.0,0.0,14.62,39.34,8.24,
15.745,72.79363050961216,80.3308725435274,-3.0,0.0,-1.0,5.0,6.0,3.0,0.0,0.0,2.0,0.0,14.42,39.63,8.14,
15.759,72.79036305096122,80.33908725435275,-3.0,0.0,-1.0,5.0,6.0,3.0,0.0,0.0,2.0,0.0,14.32,39.83,8.14,
15.773,72.81703630509611,80.31290872543528,-3.0,0.0,-1.0,5.0,6.0,3.0,0.0,0.0,2.0,0.0,14.22,40.52,7.95,
15.787,72.78370363050962,80.25629087254353,-2.0,0.0,-1.0,5.0,6.0,3.0,0.0,0.0,2.0,0.0,14.03,41.01,7.95,
15.801,72.72637036305096,80.24162908725435,-2.0,0.0,-2.0,5.0,6.0,3.0,0.0,0.0,2.0,0.0,13.73,41.3,7.95,
15.814,72.6846370363051,80.21316290872542,-2.0,1.0,-2.0,4.0,6.0,3.0,0.0,0.0,2.0,0.0,13.64,41.59,7.85,
15.828,72.72546370363051,80.20131629087254,-3.0,1.0,-2.0,4.0,6.0,3.0,0.0,0.0,2.0,0.0,13.54,41.79,7.95,
15.843,72.81954637036304,80.19113162908727,-3.0,1.0,-2.0,4.0,6.0,3.0,0.0,0.0,2.0,0.0,13.44,41.99,7.85,
15.856,72.86495463703632,80.18111316290873,-3.0,1.0,-2.0,4.0,6.0,3.0,0.0,0.0,2.0,0.0,13.15,42.38,7.75,
15.87,72.91449546370363,80.24311131629088,-3.0,1.0,-2.0,4.0,6.0,3.0,0.0,0.0,2.0,0.0,12.95,42.77,7.75,
15.885,72.99144954637036,80.2313111316291,-3.0,0.0,-2.0,4.0,6.0,3.0,0.0,0.0,2.0,0.0,12.85,43.85,7.55,
15.898,73.00814495463703,80.2121311131629,-3.0,0.0,-2.0,4.0,6.0,3.0,0.0,0.0,2.0,0.0,12.65,44.44,7.55,
15.912,73.0278144954637,80.15621311131629,-3.0,0.0,-2.0,4.0,6.0,3.0,0.0,0.0,2.0,0.0,12.36,44.83,7.55,
15.927,73.12878144954638,80.11462131113163,-3.0,1.0,-2.0,4.0,6.0,3.0,0.0,0.0,2.0,0.0,12.16,45.22,7.36,
15.94,73.15687814495463,80.05646213111316,-3.0,0.0,-3.0,4.0,6.0,3.0,0.0,0.0,2.0,0.0,11.97,45.81,7.26,
15.954,73.15068781449547,80.09564621311132,-3.0,0.0,-2.0,4.0,6.0,3.0,0.0,0.0,2.0,0.0,11.77,46.01,7.16,
15.968,73.17706878144955,80.08156462131113,-3.0,0.0,-2.0,4.0,6.0,3.0,0.0,0.0,2.0,0.0,964.42,46.11,7.06,
15.982,73.17070687814495,80.05315646213111,-2.0,0.0,-2.0,4.0,6.0,3.0,0.0,0.0,2.0,0.0,0.0,46.5,6.87,
15.996,73.2240706878145,80.07731564621311,-2.0,0.0,-2.0,4.0,6.0,3.0,0.0,0.0,2.0,0.0,10.99,46.6,6.77,
16.01,73.24740706878144,80.03473156462131,-2.0,0.0,-2.0,4.0,6.0,3.0,0.0,0.0,2.0,0.0,10.89,46.6,6.67,
16.024,73.24074070687814,80.01247315646214,-2.0,0.0,-1.0,4.0,6.0,3.0,0.0,0.0,2.0,0.0,10.69,46.6,6.67,
16.038,73.33907407068781,80.16324731564622,-3.0,0.0,0.0,4.0,6.0,3.0,0.0,0.0,2.0,0.0,10.5,46.6,6.57,
16.052,73.40290740706878,80.09732473156463,-3.0,0.0,-1.0,4.0,6.0,3.0,0.0,0.0,2.0,0.0,10.4,46.7,6.47,
16.066,73.42729074070688,80.07273247315646,-3.0,0.0,-1.0,4.0,6.0,3.0,0.0,0.0,2.0,0.0,10.3,46.79,6.47,
16.079,73.38472907407069,80.07027324731564,-2.0,0.0,-1.0,4.0,6.0,3.0,0.0,0.0,2.0,0.0,10.2,46.89,6.38,
16.094,73.34447290740707,79.97102732473157,-2.0,0.0,-1.0,4.0,6.0,3.0,0.0,0.0,2.0,0.0,9.91,46.79,6.28,
16.108,73.3314472907407,79.94310273247315,-2.0,-1.0,-1.0,4.0,6.0,3.0,0.0,0.0,2.0,0.0,9.91,46.7,6.18,
16.121,73.34814472907406,79.9673102732473,-2.0,-1.0,0.0,4.0,6.0,3.0,0.0,0.0,2.0,0.0,9.91,46.5,6.08,
16.136,73.34081447290741,79.96973102732473,-2.0,-1.0,0.0,4.0,6.0,3.0,0.0,0.0,2.0,0.0,9.91,46.21,6.08,
16.15,73.30408144729074,79.96097310273247,-2.0,-1.0,0.0,4.0,6.0,3.0,0.0,0.0,2.0,0.0,9.91,45.81,5.98,
16.163,73.28240814472908,79.96909731027324,-2.0,0.0,0.0,4.0,6.0,3.0,0.0,0.0,2.0,0.0,9.81,45.71,5.79,
16.178,73.19024081447292,79.95190973102731,-2.0,0.0,0.0,4.0,6.0,3.0,0.0,0.0,2.0,0.0,9.81,45.62,5.69,
16.191,73.13602408144729,79.95019097310274,-2.0,0.0,0.0,4.0,6.0,3.0,0.0,0.0,2.0,0.0,9.81,45.62,5.69,
16.205,73.13060240814472,79.91401909731027,-2.0,-1.0,0.0,4.0,6.0,3.0,0.0,0.0,2.0,0.0,9.81,45.42,5.59,
16.219,73.13006024081446,79.90140190973104,-2.0,-1.0,0.0,4.0,6.0,3.0,0.0,0.0,2.0,0.0,9.81,45.32,5.49,
16.233,73.10300602408144,79.9541401909731,-2.0,-1.0,0.0,4.0,6.0,3.0,0.0,0.0,2.0,0.0,9.81,45.13,5.4,
16.246,73.09130060240815,79.92341401909731,-2.0,-1.0,0.0,4.0,6.0,3.0,0.0,0.0,2.0,0.0,9.81,44.93,5.4,
16.261,73.10813006024082,79.86634140190972,-2.0,-1.0,0.0,4.0,6.0,3.0,0.0,0.0,2.0,0.0,9.81,44.93,5.3,
16.274,73.10081300602407,79.86063414019097,-2.0,-1.0,0.0,4.0,5.0,3.0,0.0,0.0,2.0,0.0,9.71,44.93,5.2,
16.288,73.05508130060241,79.8510634140191,-3.0,0.0,-1.0,4.0,5.0,3.0,0.0,0.0,2.0,0.0,9.71,44.93,5.2,
16.302,73.01450813006025,79.8771063414019,-3.0,0.0,-1.0,4.0,5.0,3.0,0.0,0.0,2.0,0.0,9.61,44.93,5.1,
16.316,73.01945081300603,79.88871063414018,-3.0,0.0,-1.0,4.0,5.0,3.0,0.0,0.0,2.0,0.0,9.52,45.22,4.91,
16.33,73.0559450813006,79.835871063414,-3.0,1.0,-1.0,4.0,5.0,3.0,0.0,0.0,2.0,0.0,9.42,45.62,4.91,
16.344,73.13159450813006,79.81258710634141,-3.0,1.0,-1.0,4.0,5.0,3.0,0.0,0.0,2.0,0.0,9.22,46.11,4.81,
16.358,73.09415945081301,79.73825871063414,-3.0,1.0,-1.0,4.0,5.0,3.0,0.0,0.0,2.0,0.0,9.12,46.5,4.61,
16.371,73.09941594508129,79.72182587106342,-3.0,0.0,-1.0,4.0,5.0,3.0,0.0,0.0,2.0,0.0,9.03,47.38,4.51,
16.386,73.12694159450812,79.69318258710635,-3.0,0.0,-1.0,4.0,5.0,3.0,0.0,0.0,2.0,0.0,8.73,47.77,4.41,
16.399,73.16569415945082,79.66331825871063,-3.0,0.0,-1.0,4.0,5.0,3.0,0.0,0.0,2.0,0.0,8.73,48.07,4.41,
16.413,73.19656941594509,79.66933182587107,-3.0,0.0,-1.0,4.0,5.0,3.0,0.0,0.0,2.0,0.0,8.63,48.36,4.32,
16.427,73.14565694159451,79.6339331825871,-3.0,0.0,-1.0,4.0,5.0,3.0,0.0,0.0,2.0,0.0,8.63,48.85,4.12,
16.441,73.11356569415946,79.62139331825871,-3.0,0.0,-1.0,3.0,5.0,3.0,0.0,0.0,2.0,0.0,8.53,49.05,3.92,
16.455,73.15535656941594,79.67413933182587,-3.0,0.0,-1.0,3.0,5.0,3.0,0.0,0.0,2.0,0.0,8.34,49.15,3.92,
16.468,73.0965356569416,79.64341393318259,-3.0,0.0,-1.0,3.0,5.0,3.0,0.0,0.0,1.0,0.0,8.24,49.44,3.92,
16.483,73.10865356569417,79.59534139331825,-3.0,0.0,-1.0,3.0,5.0,3.0,0.0,0.0,2.0,0.0,8.04,49.83,3.73,
16.496,73.1278653565694,79.53653413933182,-3.0,0.0,-1.0,3.0,5.0,3.0,0.0,0.0,1.0,0.0,7.95,50.13,3.63,
16.51,73.16578653565695,79.56665341393318,-3.0,0.0,-1.0,3.0,5.0,2.0,0.0,0.0,1.0,0.0,7.85,50.52,3.63,
16.524,73.1875786535657,79.53366534139332,-3.0,0.0,-1.0,3.0,5.0,3.0,0.0,0.0,2.0,0.0,7.85,50.91,3.63,
16.538,73.19875786535658,79.53036653413933,-3.0,0.0,-1.0,3.0,5.0,3.0,0.0,0.0,1.0,0.0,7.85,51.7,3.53,
16.551,73.22687578653567,79.56603665341393,-3.0,0.0,-1.0,3.0,5.0,3.0,0.0,0.0,1.0,0.0,7.85,52.09,3.53,
16.566,73.26568757865357,79.56960366534139,-3.0,0.0,-1.0,3.0,5.0,3.0,0.0,0.0,1.0,0.0,7.75,52.48,3.53,
16.58,73.25156875786536,79.56996036653413,-3.0,1.0,-1.0,3.0,5.0,2.0,0.0,0.0,1.0,0.0,7.75,52.88,3.53,
16.593,73.28615687578655,79.57899603665341,-3.0,1.0,-1.0,3.0,5.0,2.0,0.0,0.0,1.0,0.0,7.65,53.56,3.43,
16.608,73.33461568757865,79.55289960366534,-3.0,1.0,-1.0,3.0,5.0,2.0,0.0,0.0,1.0,0.0,7.55,53.96,3.43,
16.621,73.35746156875787,79.52328996036653,-3.0,1.0,-1.0,3.0,5.0,2.0,0.0,0.0,1.0,0.0,7.55,54.35,3.43,
16.635,73.34174615687579,79.46632899603665,-4.0,1.0,-1.0,3.0,5.0,2.0,0.0,0.0,1.0,0.0,7.46,54.74,3.34,
16.649,73.42117461568758,79.37963289960368,-3.0,0.0,-1.0,3.0,5.0,2.0,0.0,0.0,1.0,0.0,7.36,55.52,3.24,
16.663,73.43811746156877,79.34396328996037,-3.0,0.0,-1.0,3.0,5.0,2.0,0.0,0.0,1.0,0.0,7.26,55.82,3.24,
16.676,73.43981174615688,79.27739632899603,-3.0,0.0,-1.0,3.0,5.0,2.0,0.0,0.0,1.0,0.0,7.16,56.11,3.24,
16.691,73.4669811746157,79.2797396328996,-3.0,0.0,-1.0,3.0,5.0,2.0,0.0,0.0,1.0,0.0,7.16,56.31,3.14,
16.705,73.46969811746158,79.31597396328995,-3.0,0.0,0.0,3.0,5.0,2.0,0.0,0.0,1.0,0.0,7.06,56.8,3.14,
16.718,73.46096981174614,79.337597396329,-3.0,0.0,-1.0,3.0,5.0,2.0,0.0,0.0,1.0,0.0,7.16,57.0,3.14,
16.733,73.5140969811746,79.33075973963291,-3.0,1.0,-1.0,3.0,5.0,2.0,0.0,0.0,1.0,0.0,7.16,57.39,3.14,
16.746,73.53740969811747,79.33007597396329,-3.0,0.0,-1.0,3.0,5.0,2.0,0.0,0.0,1.0,0.0,6.97,57.78,3.04,
16.759,73.53074096981175,79.30300759739633,-4.0,0.0,-1.0,3.0,5.0,2.0,0.0,0.0,1.0,0.0,6.87,58.76,2.94,
