time,t1:pitch,t1:roll,t1:gyrx,t1:gyry,t1:gyrz,t2:pitch,t2:roll,t2:gyrx,t2:gyry,t2:gyrz,k1:pitch,k1:roll,k1:gyrx,k1:gyry,k1:gyrz,k2:pitch,k2:roll,k2:gyrx,k2:gyry,k2:gyrz,W:pitch,W:roll,W:gyrx,W:gyry,W:gyrz,B:pitch,B:roll,B:gyrx,B:gyry,B:gyrz
0.288,1.1041328824280354,15.03913868427149,0.015267175572519083,0.48854961832061067,0.24427480916030533,24.82797462790676,14.979113334137082,-0.06870229007633588,0.015267175572519083,0.022900763358778626,-11.649017141288208,24.696700679126884,0.0,0.04580152671755725,0.03816793893129771,27.000000015425996,19.499740464871266,-0.030534351145038167,-0.0,0.2748091603053435,89.0,89.0,0.0,0.0,0.0,43.9,55.25,-2.0,0.0,-3.0,
0.326,2.0426458324918655,27.822406565902256,0.015267175572519083,0.48854961832061067,0.24427480916030533,45.931753061627504,27.7113596681536,-0.06870229007633588,0.015267175572519083,0.022900763358778626,-21.550681711383184,45.68889625638474,0.0,0.04580152671755725,0.03816793893129771,49.95000002853809,36.07451986001185,-0.030534351145038167,-0.0,0.24427480916030533,89.0,89.0,0.0,0.0,0.0,47.81,60.32,-3.0,-1.0,-2.0,
0.365,2.8403818400461214,38.688184265288406,0.015267175572519083,0.48854961832061067,0.24427480916030533,63.869964730290135,38.53376905206764,-0.06870229007633588,0.015267175572519083,0.022900763358778626,-29.967096595963916,63.53226249705391,0.0,0.04580152671755725,0.03816793893129771,69.45750003968337,50.163082345881335,-0.030534351145038167,-0.0,0.24427480916030533,89.0,89.0,0.0,0.0,0.0,51.0,64.73,-3.0,-3.0,0.0,
0.402,3.518457446467239,47.92409530976664,0.015267175572519083,0.48854961832061067,0.24427480916030533,79.11744464865338,47.73281702839458,-0.06870229007633588,0.015267175572519083,0.022900763358778626,-37.12104924785754,78.6991238016227,0.0,0.04580152671755725,0.03816793893129771,86.0390697056454,62.1383604588704,-0.030534351145038167,0.022900763358778626,0.2595419847328244,89.0,89.0,0.0,0.0,0.0,54.03,68.59,-3.0,-2.0,0.0,
0.44,4.094821711925189,55.77461969757314,0.015267175572519083,0.48854961832061067,0.24427480916030533,92.03892297884738,55.36382263162726,-0.04580152671755725,0.022900763358778626,0.0,-43.20190900196712,91.59095591050618,0.0,0.04580152671755725,0.03816793893129771,100.13340392171314,72.31734685491111,-0.030534351145038167,0.022900763358778626,0.2595419847328244,89.0,89.0,0.0,0.0,0.0,56.51,71.72,-3.0,-1.0,-1.0,
0.479,4.584731337564445,62.44756542720866,0.015267175572519083,0.48854961832061067,0.24427480916030533,103.17042435168959,61.8673257651119,-0.022900763358778626,0.015267175572519083,0.015267175572519083,-48.37063979296025,102.54901320305714,0.0,0.04580152671755725,0.03816793893129771,112.11358800537072,80.96948529154571,-0.030534351145038167,0.022900763358778626,0.2595419847328244,89.0,89.0,0.0,0.0,0.0,58.2,74.26,-4.0,0.0,3.0,
0.517,5.001154519357814,68.11956929739885,0.015267175572519083,0.48854961832061067,0.24427480916030533,112.63661169552329,67.48009487064236,-0.007633587786259542,-0.0,0.0,-52.76406096530441,111.86336190172545,0.0,0.04580152671755725,0.03816793893129771,122.29674447647966,88.32380296268511,-0.030534351145038167,0.022900763358778626,0.2595419847328244,89.0,89.0,0.0,0.0,0.0,60.08,76.63,-6.0,1.0,0.0,
0.5549999999999999,5.355114223882177,72.94077258706052,0.015267175572519083,0.48854961832061067,0.24427480916030533,120.74318461600028,72.45405201946934,0.0,-0.015267175572519083,0.0,-56.49846896179696,119.78055829559352,0.0,0.04580152671755725,0.03816793893129771,130.95242747692225,94.5749729831536,-0.030534351145038167,0.022900763358778626,0.2595419847328244,89.0,89.0,0.0,0.0,0.0,61.5,78.35,-7.0,0.0,0.0,
0.593,5.655979972727886,77.03879538327293,0.015267175572519083,0.48854961832061067,0.24427480916030533,127.53660032844729,76.68054159768087,0.007633587786259542,-0.022900763358778626,-0.007633587786259542,-59.67271575881561,126.51017523038138,0.0,0.04580152671755725,0.03816793893129771,138.30975802729844,99.88846750055181,-0.030534351145038167,0.022900763358778626,0.2595419847328244,89.0,89.0,0.0,0.0,0.0,62.78,79.79,-4.0,2.0,0.0,
0.632,5.911715859246739,80.52211476005347,0.015267175572519083,0.48854961832061067,0.24427480916030533,133.23189191166827,80.19198078248836,0.015267175572519083,-0.022900763358778626,0.0,-62.37082553628147,132.23034962495106,0.0,0.04580152671755725,0.03816793893129771,144.5634889951182,104.4049378403403,-0.030534351145038167,0.022900763358778626,0.2595419847328244,89.0,89.0,0.0,0.0,0.0,63.91,81.16,-5.0,0.0,-2.0,
0.6699999999999999,6.129091362787763,83.48293623031694,0.015267175572519083,0.48854961832061067,0.24427480916030533,138.10127260463503,83.20785884254413,0.0,-0.015267175572519083,-0.007633587786259542,-64.66421884712746,137.09249786033527,0.0,0.04580152671755725,0.03816793893129771,149.879160317765,108.24393762916051,-0.030534351145038167,0.022900763358778626,0.2595419847328244,89.0,89.0,0.0,0.0,0.0,64.88,82.29,-4.0,0.0,0.0,
0.708,6.313860540797634,85.99963448004088,0.015267175572519083,0.48854961832061067,0.24427480916030533,142.2137967998618,85.74557195209297,0.007633587786259542,-0.015267175572519083,0.015267175572519083,-66.61360316134655,141.22532386041186,0.0,0.04580152671755725,0.03816793893129771,154.3974809420148,111.50708744965769,-0.030534351145038167,0.022900763358778626,0.2595419847328244,89.0,89.0,0.0,0.0,0.0,65.69,83.28,-3.0,-2.0,0.0,
0.747,6.470914342106025,88.13882799230623,0.015267175572519083,0.48854961832061067,0.24427480916030533,145.70944236580453,87.90262809520951,0.007633587786259542,-0.015267175572519083,0.015267175572519083,-68.27057982843277,144.73822596047697,0.0,0.04580152671755725,0.03816793893129771,158.23805347262712,114.2807647970803,-0.030534351145038167,0.022900763358778626,0.2595419847328244,89.0,89.0,0.0,0.0,0.0,66.47,84.38,-3.0,0.0,0.0,
0.784,6.6044100732181565,89.95714247773178,0.015267175572519083,0.48854961832061067,0.24427480916030533,148.68074109685588,89.73612581685856,0.007633587786259542,-0.015267175572519083,0.015267175572519083,-69.53889194345984,147.85697408281803,0.022900763358778626,0.022900763358778626,-0.061068702290076333,161.50254012364758,116.6383905423895,-0.030534351145038167,0.022900763358778626,0.2595419847328244,89.0,89.0,0.0,0.0,0.0,67.02,84.91,-5.0,-1.0,-1.0,
0.822,6.717881444663469,91.5027097903435,0.015267175572519083,0.48854961832061067,0.24427480916030533,151.21833439726612,91.29030835186249,0.0,-0.007633587786259542,0.0,-70.61695724123287,150.50790998680793,0.022900763358778626,0.022900763358778626,-0.061068702290076333,164.27735377701498,118.64237242590234,-0.030534351145038167,0.022900763358778626,0.2595419847328244,89.0,89.0,0.0,0.0,0.0,67.44,85.6,-3.0,-1.0,-3.0,
0.861,6.64816804200299,93.01917537028993,-0.022900763358778626,0.5190839694656488,0.24427480916030533,153.37528870261482,92.61136350661585,0.0,-0.007633587786259542,0.0,-71.53331274433994,152.76120550519934,0.022900763358778626,0.022900763358778626,-0.061068702290076333,166.63594538237726,120.34575702688825,-0.030534351145038167,0.022900763358778626,0.2595419847328244,89.0,89.0,0.0,0.0,0.0,67.85,86.07,-4.0,1.0,-2.0,
0.899,6.695572255892166,94.37608319017829,-0.022900763358778626,0.5267175572519084,0.24427480916030533,155.20869986216124,93.73426038815619,0.0,-0.007633587786259542,0.0,-72.31221492198094,154.67650669583202,0.022900763358778626,0.022900763358778626,-0.061068702290076333,168.6407482469352,121.79363393772627,-0.030534351145038167,0.022900763358778626,0.2595419847328244,89.0,89.0,0.0,0.0,0.0,68.2,86.68,-4.0,3.0,-1.0,
0.937,6.7358658376979665,95.52945483708342,-0.022900763358778626,0.5267175572519084,0.24427480916030533,156.85561025267754,94.78796948717658,0.0,0.022900763358778626,-0.015267175572519083,-72.97428177297579,156.30451270786983,0.022900763358778626,0.022900763358778626,-0.061068702290076333,170.34483068180947,123.02432931193859,-0.030534351145038167,0.022900763358778626,0.2595419847328244,89.0,89.0,0.0,0.0,0.0,68.57,86.97,-4.0,1.0,1.0,
0.976,6.7701153822328966,96.50982073695278,-0.022900763358778626,0.5267175572519084,0.24427480916030533,158.23477375389768,95.6375137566686,0.0,0.03816793893129771,0.0,-73.53703859632142,157.68831781810195,0.022900763358778626,0.022900763358778626,-0.061068702290076333,171.7933007514526,124.07042038001906,-0.030534351145038167,0.022900763358778626,0.2595419847328244,89.0,89.0,0.0,0.0,0.0,68.99,87.35,-4.0,0.0,-1.0,
1.0150000000000001,6.799227495087587,97.34313175184172,-0.022900763358778626,0.5267175572519084,0.24427480916030533,159.43778859276856,96.25901450417135,0.0,0.03816793893129771,0.007633587786259542,-74.01538189616521,158.86455216179928,0.022900763358778626,0.022900763358778626,-0.061068702290076333,173.02450031064924,124.95959778788746,-0.030534351145038167,0.022900763358778626,0.2595419847328244,89.0,89.0,0.0,0.0,0.0,69.24,87.53,-4.0,0.0,0.0,
1.053,6.823972791014074,98.05144611449731,-0.022900763358778626,0.5267175572519084,0.24427480916030533,160.46035120580882,96.78729013954869,0.0,0.03816793893129771,0.007633587786259542,-74.42197370103243,159.86435135394197,0.022900763358778626,0.022900763358778626,-0.061068702290076333,174.0710199359664,125.7153985845756,-0.030534351145038167,0.022900763358778626,0.2595419847328244,89.0,89.0,0.0,0.0,0.0,69.36,87.84,-2.0,0.0,0.0,
1.091,7.050055899599852,98.07240135944093,-0.03816793893129771,0.5572519083969466,0.17557251908396945,161.32952942689303,97.23632442961942,0.0,0.03816793893129771,0.007633587786259542,-74.76757673516957,160.7141806672633,0.022900763358778626,0.022900763358778626,-0.061068702290076333,174.96056161748598,126.35782926176051,-0.030534351145038167,0.022900763358778626,0.2595419847328244,89.0,89.0,0.0,0.0,0.0,69.69,88.02,-6.0,1.0,0.0,
1.129,7.242226541897763,98.09021331764302,-0.03816793893129771,0.5572519083969466,0.17557251908396945,162.06833091481462,97.61800357617953,0.0,0.03816793893129771,0.007633587786259542,-75.06133931418614,161.43653558358642,0.022900763358778626,0.022900763358778626,-0.061068702290076333,175.7168667032662,126.9035060243906,-0.07633587786259542,0.04580152671755725,0.183206106870229,89.0,89.0,0.0,0.0,0.0,69.78,88.0,-5.0,-2.0,-2.0,
1.167,7.405571587850987,98.1053534821148,-0.03816793893129771,0.5572519083969466,0.17557251908396945,162.69631217954796,97.94243085075564,0.0,0.03816793893129771,0.007633587786259542,-75.31103750635022,162.05053726246103,0.022900763358778626,0.022900763358778626,-0.061068702290076333,176.359596255187,127.36733127262617,-0.07633587786259542,0.030534351145038167,0.183206106870229,89.0,89.0,0.0,0.0,0.0,69.75,88.06,-1.0,-1.0,-2.0,
1.206,7.544414876911227,98.11822262191579,-0.03816793893129771,0.5572519083969466,0.17557251908396945,163.18432907345436,98.43876683562665,0.0,-0.0,-0.007633587786259542,-75.5232809696897,162.5724386895045,0.022900763358778626,0.022900763358778626,-0.061068702290076333,176.90591637431967,127.76158273362641,-0.07633587786259542,0.030534351145038167,0.183206106870229,89.0,89.0,0.0,0.0,0.0,69.89,88.18,-4.0,-1.0,-3.0,
1.245,7.662431672612431,98.12916139074665,-0.03816793893129771,0.5572519083969466,0.17557251908396945,163.67082316414306,98.85071221486507,0.007633587786259542,-0.0,-0.007633587786259542,-75.70368791352823,163.01605490249142,0.022900763358778626,0.022900763358778626,-0.061068702290076333,177.37028847558244,128.09669647547662,-0.07633587786259542,0.030534351145038167,0.183206106870229,89.0,89.0,0.0,0.0,0.0,70.25,88.36,-5.0,5.0,-4.0,
1.283,7.762745948958456,98.13845934425287,-0.03816793893129771,0.5572519083969466,0.17557251908396945,164.08434314122846,99.20086578721772,0.007633587786259542,-0.0,-0.007633587786259542,-75.8990720073286,163.28292977604283,-0.04580152671755725,-0.015267175572519083,0.0,177.7650047616558,128.3815431560493,-0.07633587786259542,0.030534351145038167,0.183206106870229,89.0,89.0,0.0,0.0,0.0,70.24,88.41,-3.0,0.0,-1.0,
1.322,7.848013083852576,98.14636260473316,-0.03816793893129771,0.5572519083969466,0.17557251908396945,164.43583512175104,99.49849632371748,0.007633587786259542,-0.0,-0.007633587786259542,-76.25064741462522,163.51353341603092,-0.022900763358778626,-0.07633587786259542,0.015267175572519083,178.10051360481816,128.62366283453608,-0.07633587786259542,0.030534351145038167,0.183206106870229,89.0,89.0,0.0,0.0,0.0,70.39,88.56,-2.0,0.0,0.0,
1.36,7.920490148512578,98.1530803761414,-0.03816793893129771,0.5572519083969466,0.17557251908396945,164.73460330519524,99.75148227974226,0.007633587786259542,-0.0,-0.007633587786259542,-76.54948651082735,163.7095465100208,-0.022900763358778626,-0.07633587786259542,0.015267175572519083,178.38569612150616,128.82946456124984,-0.07633587786259542,0.030534351145038167,0.183206106870229,89.0,89.0,0.0,0.0,0.0,70.49,88.76,-4.0,0.0,0.0,
1.399,7.98209565347358,98.15879048183841,-0.03816793893129771,0.5572519083969466,0.17557251908396945,164.9885562611228,99.96652034236334,0.007633587786259542,-0.0,-0.007633587786259542,-76.80349974259916,163.8761576399122,-0.022900763358778626,-0.07633587786259542,0.015267175572519083,178.62816614618714,129.0044609144527,-0.06870229007633588,0.03816793893129771,0.21374045801526717,89.0,89.0,0.0,0.0,0.0,70.58,88.93,-4.0,1.0,1.0,
1.437,8.034460332690433,98.16364407168086,-0.03816793893129771,0.5572519083969466,0.17557251908396945,165.32033756730166,100.18702600598682,-0.007633587786259542,0.03816793893129771,-0.007633587786259542,-77.01941098960519,164.0177771003199,-0.022900763358778626,-0.07633587786259542,0.015267175572519083,178.83426566716597,129.15320781467514,-0.06870229007633588,0.03816793893129771,0.21374045801526717,89.0,89.0,0.0,0.0,0.0,70.32,88.8,-2.0,-3.0,1.0,
1.476,8.078970310024756,98.16776962304695,-0.03816793893129771,0.5572519083969466,0.17557251908396945,165.60235167755368,100.37445582006679,-0.007633587786259542,0.03816793893129771,-0.007633587786259542,-77.20293554956032,164.13815364166643,-0.022900763358778626,-0.07633587786259542,0.015267175572519083,179.00958003099035,129.2796426798642,-0.06870229007633588,0.05343511450381679,0.22900763358778625,89.0,89.0,0.0,0.0,0.0,70.58,89.1,-3.0,-1.0,1.0,
1.515,8.116803790758931,98.17127634170814,-0.03816793893129771,0.5572519083969466,0.17557251908396945,165.8420636712679,100.53377116203475,-0.007633587786259542,0.03816793893129771,-0.007633587786259542,-77.35893142552219,164.24047370181097,-0.022900763358778626,-0.07633587786259542,0.015267175572519083,179.1587918967296,129.38698254428255,-0.08396946564885496,0.07633587786259542,0.22900763358778625,89.0,89.0,0.0,0.0,0.0,70.5,88.99,-4.0,0.0,0.0,
1.552,8.14896224938298,98.17425705257014,-0.03816793893129771,0.5572519083969466,0.17557251908396945,166.04581886592499,100.66918920270753,-0.007633587786259542,0.03816793893129771,-0.007633587786259542,-77.49152792008977,164.32744575293384,-0.022900763358778626,-0.07633587786259542,0.015267175572519083,179.28562198260798,129.47815654354196,-0.0916030534351145,0.07633587786259542,0.21374045801526717,89.0,89.0,0.0,0.0,0.0,70.64,89.07,-3.0,-4.0,1.0,
1.591,8.046449922500656,98.08371014037282,-0.030534351145038167,0.5114503816793893,0.22900763358778625,166.2190107813835,100.7842945372794,-0.007633587786259542,0.03816793893129771,-0.007633587786259542,-77.60423494047221,164.4013719963883,-0.022900763358778626,-0.07633587786259542,0.015267175572519083,179.3934275556046,129.55565444291247,-0.0916030534351145,0.07633587786259542,0.21374045801526717,89.0,89.0,0.0,0.0,0.0,70.68,88.88,-3.0,-3.0,-1.0,
1.63,7.959314444650681,98.0067452650051,-0.030534351145038167,0.5114503816793893,0.22900763358778625,166.36622390952326,100.88213407166548,-0.007633587786259542,0.03816793893129771,-0.007633587786259542,-77.70003590779729,164.46420930332457,-0.022900763358778626,-0.07633587786259542,0.015267175572519083,179.48506229265172,129.62152765737738,-0.0916030534351145,0.07633587786259542,0.21374045801526717,89.0,89.0,0.0,0.0,0.0,70.64,89.08,-4.0,0.0,-1.0,
1.669,7.885249288478202,97.94132512094254,-0.030534351145038167,0.5114503816793893,0.22900763358778625,166.49135506844203,100.96529767589365,-0.007633587786259542,0.03816793893129771,-0.007633587786259542,-77.7814667300236,164.5176210142204,-0.022900763358778626,-0.07633587786259542,0.015267175572519083,179.56295181914177,129.67751988967257,-0.0916030534351145,0.07633587786259542,0.21374045801526717,89.0,89.0,0.0,0.0,0.0,70.56,89.07,-5.0,0.0,0.0,
1.708,7.822293905731595,97.88571799848935,-0.030534351145038167,0.5114503816793893,0.22900763358778625,166.59822215274338,101.2337868302678,-0.015267175572519083,0.007633587786259542,-0.007633587786259542,-77.85068292891596,164.56302096848185,-0.022900763358778626,-0.07633587786259542,0.015267175572519083,179.62915791665833,129.7251132871235,-0.0916030534351145,0.07633587786259542,0.21374045801526717,89.0,89.0,0.0,0.0,0.0,70.58,89.11,-4.0,1.0,-2.0,
1.747,7.768781830396979,97.83845194440416,-0.030534351145038167,0.5114503816793893,0.22900763358778625,166.68905917439952,101.46200261148583,-0.015267175572519083,0.007633587786259542,-0.007633587786259542,-77.90951669797447,164.60161092960408,-0.022900763358778626,-0.07633587786259542,0.015267175572519083,179.6854330995474,129.76556767495677,-0.0916030534351145,0.07633587786259542,0.21374045801526717,89.0,89.0,0.0,0.0,0.0,70.71,89.28,-5.0,0.0,-1.0,
1.785,7.6645474676011105,98.31836199165306,0.0,0.4961832061068702,0.22900763358778625,166.76627064280723,101.65598602552116,-0.015267175572519083,0.007633587786259542,-0.007633587786259542,-77.9595254016742,164.634412396558,-0.022900763358778626,-0.07633587786259542,0.015267175572519083,179.7332670050031,129.79995390461505,-0.0916030534351145,0.07633587786259542,0.21374045801526717,89.0,89.0,0.0,0.0,0.0,70.63,89.28,-4.0,1.0,-3.0,
1.824,7.530235383138377,98.88145539761572,0.022900763358778626,0.5038167938931297,0.2748091603053435,166.8319003909538,101.82087192745118,-0.015267175572519083,0.007633587786259542,-0.007633587786259542,-78.00203279981898,164.66229364346881,-0.022900763358778626,-0.07633587786259542,0.015267175572519083,179.77392582464046,129.8291821998246,-0.0916030534351145,0.07633587786259542,0.21374045801526717,89.0,89.0,0.0,0.0,0.0,70.45,89.25,-4.0,-3.0,0.0,
1.863,7.512398300190502,99.62711348558395,0.007633587786259542,0.5038167938931297,0.26717557251908397,166.88768567687836,101.9610249440917,-0.015267175572519083,0.007633587786259542,-0.007633587786259542,-78.03816408824204,164.685992703343,-0.022900763358778626,-0.07633587786259542,0.015267175572519083,179.8084858213322,129.85402625075272,-0.0916030534351145,0.07633587786259542,0.21374045801526717,89.0,89.0,0.0,0.0,0.0,70.73,89.39,-6.0,0.0,-2.0,
1.902,7.497236779684808,100.26092286035693,0.007633587786259542,0.5038167938931297,0.26717557251908397,166.93510316991424,102.08015500823615,-0.015267175572519083,0.007633587786259542,-0.007633587786259542,-77.94959057352173,164.61917034416277,-0.061068702290076333,-0.030534351145038167,0.04580152671755725,179.8378618185202,129.87514369404164,-0.0916030534351145,0.07633587786259542,0.21374045801526717,89.0,89.0,0.0,0.0,0.0,70.71,89.16,-6.0,1.0,0.0,
1.939,7.484349487254969,100.79966082891397,0.007633587786259542,0.5038167938931297,0.26717557251908397,166.86913179624955,101.99941682451455,0.0,-0.0,-0.007633587786259542,-77.87430308600946,164.56237133885955,-0.061068702290076333,-0.030534351145038167,0.04580152671755725,179.86283141612998,129.8930935208372,-0.0916030534351145,0.07633587786259542,0.21374045801526717,89.0,89.0,0.0,0.0,0.0,70.69,89.17,-3.0,-4.0,0.0,
1.978,7.473395288689605,101.25758810218746,0.007633587786259542,0.5038167938931297,0.26717557251908397,166.81305612863454,101.93078936835121,0.0,-0.0,-0.007633587786259542,-77.909465489683,164.54263203251904,-0.015267175572519083,-0.007633587786259542,0.015267175572519083,179.88405557409828,129.90835087361341,-0.0916030534351145,0.07633587786259542,0.21374045801526717,89.0,89.0,0.0,0.0,0.0,70.73,89.28,-5.0,0.0,-2.0,
2.016,7.464084219909045,101.64682628446991,0.007633587786259542,0.5038167938931297,0.26717557251908397,166.7653918111618,101.87245603061237,0.0,-0.0,-0.007633587786259542,-77.93935353280551,164.5258536221296,-0.015267175572519083,-0.007633587786259542,0.015267175572519083,179.90170679539426,129.92151427996174,-0.06870229007633588,0.030534351145038167,0.17557251908396945,89.0,89.0,0.0,0.0,0.0,70.55,89.16,-8.0,-1.0,-2.0,
2.0549999999999997,7.45616981144557,101.97767873941,0.007633587786259542,0.5038167938931297,0.26717557251908397,166.72487714130997,101.82287269353435,0.0,-0.0,-0.007633587786259542,-78.07927671744436,164.54845268946715,0.0,-0.007633587786259542,0.0,179.91671033349584,129.93270317535783,-0.06870229007633588,0.030534351145038167,0.17557251908396945,89.0,89.0,0.0,0.0,0.0,70.46,89.22,-7.0,-5.0,-3.0,
2.093,7.369356817096626,102.4040158743889,-0.03816793893129771,0.48854961832061067,0.22900763358778625,166.6904396719359,101.78072685701804,0.0,-0.0,-0.007633587786259542,-78.19821142438738,164.5676618967041,0.0,-0.007633587786259542,0.0,179.9294633408822,129.9422137364445,-0.06870229007633588,0.030534351145038167,0.17557251908396945,89.0,89.0,0.0,0.0,0.0,70.45,89.27,-8.0,-4.0,-3.0,
2.1319999999999997,7.295565771900023,102.76640243912098,-0.03816793893129771,0.48854961832061067,0.22900763358778625,166.671284493686,101.67786870458359,0.007633587786259542,0.007633587786259542,-0.030534351145038167,-78.29930592528895,164.58398972285548,0.0,-0.007633587786259542,0.0,179.9403033971606,129.95029771336817,-0.06870229007633588,0.030534351145038167,0.17557251908396945,89.0,89.0,0.0,0.0,0.0,70.38,89.15,-8.0,-1.0,-2.0,
2.17,7.23284338348291,103.07443101914325,-0.03816793893129771,0.48854961832061067,0.22900763358778625,166.65500259217356,101.5904392750143,0.007633587786259542,0.007633587786259542,-0.030534351145038167,-78.37930330804399,164.72841281751786,-0.03816793893129771,-0.07633587786259542,0.03816793893129771,179.94951744499724,129.9571690937533,-0.06870229007633588,0.030534351145038167,0.17557251908396945,89.0,89.0,0.0,0.0,0.0,70.38,89.06,-6.0,-2.0,0.0,
2.209,7.179529353328364,103.33625531216218,-0.03816793893129771,0.48854961832061067,0.22900763358778625,166.64002203715825,101.67590975022185,0.030534351145038167,0.022900763358778626,-0.015267175572519083,-78.44730108338577,164.8511724479809,-0.03816793893129771,-0.07633587786259542,0.03816793893129771,179.95734938565838,129.96300976708065,-0.06870229007633588,0.030534351145038167,0.17557251908396945,89.0,89.0,0.0,0.0,0.0,70.2,89.04,-6.0,0.0,2.0,
2.248,7.134212427697001,103.55880596122826,-0.03816793893129771,0.48854961832061067,0.22900763358778625,166.6272885653952,101.74855965414827,0.030534351145038167,0.022900763358778626,-0.015267175572519083,-78.50509919242629,164.95551813387448,-0.03816793893129771,-0.07633587786259542,0.03816793893129771,179.96400653522036,129.9679743394089,-0.06870229007633588,0.030534351145038167,0.17557251908396945,89.0,89.0,0.0,0.0,0.0,69.58,88.99,-5.0,2.0,3.0,
2.286,7.095693040910342,103.74797401293443,-0.03816793893129771,0.48854961832061067,0.22900763358778625,166.6164651143966,101.81031207248571,0.030534351145038167,0.022900763358778626,-0.015267175572519083,-78.55422758511072,165.04421196688403,-0.03816793893129771,-0.07633587786259542,0.03816793893129771,179.96966511234805,129.9721942258879,-0.06870229007633588,0.030534351145038167,0.17557251908396945,89.0,89.0,0.0,0.0,0.0,69.4,89.23,-6.0,0.0,7.0,
2.324,7.062951562141682,103.90876685688468,-0.03816793893129771,0.48854961832061067,0.22900763358778625,166.70846737528646,102.11114012799052,0.030534351145038167,0.04580152671755725,-0.061068702290076333,-78.5959867188925,165.11960172494216,-0.03816793893129771,-0.07633587786259542,0.03816793893129771,179.97447490290656,129.97578112939505,-0.06870229007633588,0.030534351145038167,0.17557251908396945,89.0,89.0,0.0,0.0,0.0,68.95,89.04,-8.0,2.0,10.0,
2.363,7.03512130518832,104.0454407742424,-0.03816793893129771,0.48854961832061067,0.22900763358778625,166.6472251978901,102.15832847998978,0.022900763358778626,0.07633587786259542,-0.05343511450381679,-78.63148198260701,165.18368301929155,-0.03816793893129771,-0.07633587786259542,0.03816793893129771,179.9785632248813,129.97882999737612,-0.06870229007633588,0.030534351145038167,0.17557251908396945,89.0,89.0,0.0,0.0,0.0,68.89,89.01,-6.0,-6.0,12.0,
2.401,6.733186374698091,105.44653166690091,0.030534351145038167,0.31297709923664124,0.2900763358778626,166.5951693471032,102.19843857918914,0.022900763358778626,0.07633587786259542,-0.05343511450381679,-78.66165295676434,165.23815211948855,-0.03816793893129771,-0.07633587786259542,0.03816793893129771,179.98203829855984,129.98142153516005,-0.06870229007633588,0.030534351145038167,0.17557251908396945,89.0,89.0,0.0,0.0,0.0,68.86,88.99,-5.0,-3.0,11.0,
2.44,6.476541683781396,106.63745892566065,0.030534351145038167,0.31297709923664124,0.2900763358778626,166.52605386704533,102.08661770775412,0.05343511450381679,0.1984732824427481,-0.13740458015267176,-78.68729828479808,165.28445085465597,-0.03816793893129771,-0.07633587786259542,0.03816793893129771,179.98499211118659,129.98362434227639,-0.06870229007633588,0.030534351145038167,0.17557251908396945,89.0,89.0,0.0,0.0,0.0,68.8,89.05,-3.0,2.0,13.0,
2.479,6.258393696502205,107.64974709560643,0.030534351145038167,0.31297709923664124,0.2900763358778626,166.46730570899615,101.99156996703434,0.05343511450381679,0.1984732824427481,-0.13740458015267176,-79.0873427112085,165.23837171050562,0.06870229007633588,-0.030534351145038167,0.06870229007633588,179.98750285191932,129.98549672832527,-0.06870229007633588,0.030534351145038167,0.17557251908396945,89.0,89.0,0.0,0.0,0.0,69.03,89.07,-1.0,-1.0,15.0,
2.518,5.952513789646024,108.18205725491501,0.05343511450381679,0.2748091603053435,0.2595419847328244,166.41736977465436,101.91077938742252,0.05343511450381679,0.1984732824427481,-0.13740458015267176,-79.42738047365738,165.19920443797784,0.06870229007633588,-0.030534351145038167,0.06870229007633588,179.98963698154216,129.98708825646685,-0.06870229007633588,0.030534351145038167,0.17557251908396945,89.0,89.0,0.0,0.0,0.0,69.33,89.03,0.0,20.0,10.0,
2.556,5.69251586881827,108.63452089032731,0.05343511450381679,0.2748091603053435,0.2595419847328244,166.37492423046385,101.84210739475249,0.05343511450381679,0.1984732824427481,-0.13740458015267176,-79.71641257173891,165.16591225632922,0.06870229007633588,-0.030534351145038167,0.06870229007633588,179.99145099172156,129.98844105538717,-0.06870229007633588,0.030534351145038167,0.17557251908396945,89.0,89.0,0.0,0.0,0.0,69.8,88.61,4.0,14.0,5.0,
2.595,5.47151763611468,109.01911498042776,0.05343511450381679,0.2748091603053435,0.2595419847328244,167.22762464014684,103.48678637112845,0.12213740458015267,0.31297709923664124,-0.09923664122137404,-79.96208985510822,165.1376139019279,0.06870229007633588,-0.030534351145038167,0.06870229007633588,179.99299290037405,129.98959093446945,-0.06870229007633588,0.030534351145038167,0.17557251908396945,89.0,89.0,0.0,0.0,0.0,70.2,88.47,4.0,24.0,-3.0,
2.633,5.283669138316627,109.34601995701314,0.05343511450381679,0.2748091603053435,0.2595419847328244,167.9524199883774,104.884763501048,0.12213740458015267,0.31297709923664124,-0.09923664122137404,-81.2114518732582,165.12947170517788,-0.13740458015267176,-0.1984732824427481,0.19083969465648856,179.99430352272867,129.99056833168936,-0.06870229007633588,0.030534351145038167,0.17557251908396945,89.0,89.0,0.0,0.0,0.0,70.68,88.66,0.0,34.0,-3.0,
2.672,4.216526113508421,113.92522147347935,0.20610687022900764,0.1984732824427481,0.3282442748091603,168.56849603437334,106.07304406147962,0.12213740458015267,0.31297709923664124,-0.09923664122137404,-82.27340958868568,165.12255083794037,-0.13740458015267176,-0.1984732824427481,0.19083969465648856,179.9954175517301,129.9913991193263,-0.06870229007633588,0.030534351145038167,0.17557251908396945,89.0,89.0,0.0,0.0,0.0,71.46,88.89,-1.0,49.0,-2.0,
2.711,3.309454542421446,117.81754276247564,0.20610687022900764,0.1984732824427481,0.3282442748091603,169.8167779997338,108.69235472419018,0.22137404580152673,0.29770992366412213,-0.09923664122137404,-83.17607364679904,165.11666810078847,-0.13740458015267176,-0.1984732824427481,0.19083969465648856,179.9963644763813,129.9921052888177,-0.06870229007633588,0.030534351145038167,0.17557251908396945,89.0,89.0,0.0,0.0,0.0,72.36,88.92,2.0,52.0,-5.0,
2.749,2.5384437069975174,121.12601585812249,0.20610687022900764,0.1984732824427481,0.3282442748091603,170.97152867685026,111.06519335034267,0.19083969465648856,0.3053435114503817,-0.08396946564885496,-83.94333809619539,165.11166777420937,-0.13740458015267176,-0.1984732824427481,0.19083969465648856,179.99716936233483,129.9927055328854,-0.06870229007633588,0.030534351145038167,0.17557251908396945,89.0,89.0,0.0,0.0,0.0,73.04,89.0,4.0,53.0,-4.0,
2.788,1.883084496887178,123.9382179894223,0.20610687022900764,0.1984732824427481,0.3282442748091603,172.01062193128902,113.16457145459384,0.1297709923664122,0.31297709923664124,-0.1984732824427481,-84.59551287818229,165.10741749661713,-0.13740458015267176,-0.1984732824427481,0.19083969465648856,179.99785351539535,129.99321574034292,-0.06870229007633588,0.030534351145038167,0.17557251908396945,89.0,89.0,0.0,0.0,0.0,75.83,90.11,4.0,52.0,-10.0,
2.827,1.3260291682933896,126.32858980102714,0.20610687022900764,0.1984732824427481,0.3282442748091603,172.893851197562,114.94904284320734,0.1297709923664122,0.31297709923664124,-0.1984732824427481,-85.21959221851347,164.15291449282776,-0.2900763358778626,-0.32061068702290074,0.04580152671755725,179.9984350454968,129.99364941668182,-0.06870229007633588,0.030534351145038167,0.17557251908396945,89.0,89.0,0.0,0.0,0.0,76.51,89.94,0.0,66.0,12.0,
2.866,0.8525321389886693,128.36040584089125,0.20610687022900764,0.1984732824427481,0.3282442748091603,173.644596073894,116.4658435235288,0.1297709923664122,0.31297709923664124,-0.1984732824427481,-85.75005965779496,163.3415869396068,-0.2900763358778626,-0.32061068702290074,0.04580152671755725,153.00068122362796,129.9936287285928,-0.11450381679389313,0.2366412213740458,-0.0916030534351145,89.0,89.0,0.0,0.0,0.0,77.6,90.35,5.0,44.0,5.0,
2.905,0.450059664079657,130.08744947477575,0.20610687022900764,0.1984732824427481,0.3282442748091603,174.2827292187762,117.75512410180205,0.1297709923664122,0.31297709923664124,-0.1984732824427481,-86.20095698118425,162.65195851936897,-0.2900763358778626,-0.32061068702290074,0.04580152671755725,130.05259047503947,129.99361114371712,-0.11450381679389313,0.2366412213740458,-0.0916030534351145,89.0,89.0,0.0,0.0,0.0,80.17,91.5,1.0,80.0,5.0,
2.944,0.10795806040699657,131.55543656357756,0.20610687022900764,0.1984732824427481,0.3282442748091603,175.20450274668573,119.71299966130029,0.21374045801526717,0.5572519083969466,-0.16793893129770993,-86.58421970606514,162.06577436216685,-0.2900763358778626,-0.32061068702290074,0.04580152671755725,110.54671333873922,129.9935961965728,-0.11450381679389313,0.2366412213740458,-0.0916030534351145,89.0,89.0,0.0,0.0,0.0,82.1,91.61,-1.0,59.0,9.0,
2.983,-0.18282830271476475,132.8032255890591,0.20610687022900764,0.1984732824427481,0.3282442748091603,175.98801024540884,121.3771938868738,0.21374045801526717,0.5572519083969466,-0.16793893129770993,-86.90999302221391,161.56751782854502,-0.2900763358778626,-0.32061068702290074,0.04580152671755725,93.96671777288402,129.99358349150015,-0.11450381679389313,0.2366412213740458,-0.0916030534351145,89.0,89.0,0.0,0.0,0.0,84.24,91.25,2.0,41.0,6.0,
3.022,-2.2748635375746398,136.37647576219476,0.07633587786259542,0.45038167938931295,-0.33587786259541985,176.65399161932348,122.79175897861127,0.21374045801526717,0.5572519083969466,-0.16793893129770993,-87.18690034094035,161.1439997749665,-0.2900763358778626,-0.32061068702290074,0.04580152671755725,79.8737215419071,129.99357269218837,-0.11450381679389313,0.2366412213740458,-0.0916030534351145,89.0,89.0,0.0,0.0,0.0,86.52,91.49,4.0,39.0,-6.0,
3.062,-4.053093487205533,139.41373840936006,0.07633587786259542,0.45038167938931295,-0.33587786259541985,177.22007578715093,123.99413930658812,0.21374045801526717,0.5572519083969466,-0.16793893129770993,-87.42227156185783,160.7840094294247,-0.2900763358778626,-0.32061068702290074,0.04580152671755725,67.89467474557672,129.99356351277333,-0.11450381679389313,0.2366412213740458,-0.0916030534351145,89.0,89.0,0.0,0.0,0.0,88.58,91.85,-3.0,38.0,-9.0,
3.101,-5.564588944391792,141.99541165945055,0.07633587786259542,0.45038167938931295,-0.33587786259541985,177.70124732980426,125.01616258536845,0.21374045801526717,0.5572519083969466,-0.16793893129770993,-87.62233709963769,160.47801763571422,-0.2900763358778626,-0.32061068702290074,0.04580152671755725,57.7124849686959,129.99355571027058,-0.11450381679389313,0.2366412213740458,-0.0916030534351145,89.0,89.0,0.0,0.0,0.0,91.12,92.54,-11.0,64.0,-12.0,
3.141,-6.8493600830001125,144.18983392202747,0.07633587786259542,0.45038167938931295,-0.33587786259541985,178.11024314105958,125.88488237233173,0.21374045801526717,0.5572519083969466,-0.16793893129770993,-87.79239280675057,160.21792461106028,-0.2900763358778626,-0.32061068702290074,0.04580152671755725,49.05762365834719,129.99354907814325,-0.11450381679389313,0.2366412213740458,-0.0916030534351145,89.0,89.0,0.0,0.0,0.0,94.21,93.28,-17.0,54.0,-5.0,
3.181,-7.941415550817185,146.05509284521787,0.07633587786259542,0.45038167938931295,-0.33587786259541985,178.4578895806266,126.62329419125052,0.21374045801526717,0.5572519083969466,-0.16793893129770993,-34.588408636464145,160.585454263788,0.0916030534351145,-0.2595419847328244,-0.11450381679389313,41.70099154455079,129.993543440835,-0.11450381679389313,0.2366412213740458,-0.0916030534351145,89.0,89.0,0.0,0.0,0.0,97.55,92.91,-9.0,66.0,-3.0,
3.219,-8.869662698461696,147.6405629299297,0.07633587786259542,0.45038167938931295,-0.33587786259541985,179.63813444325424,128.39638385927984,-0.007633587786259542,0.1450381679389313,0.04580152671755725,10.634977908279303,160.89785446860657,0.0916030534351145,-0.2595419847328244,-0.11450381679389313,35.44785424782385,129.99353864912297,-0.11450381679389313,0.2366412213740458,-0.0916030534351145,89.0,89.0,0.0,0.0,0.0,99.87,92.74,-1.0,2.0,-1.0,
3.259,-9.65867277395953,148.98821250193475,0.07633587786259542,0.45038167938931295,-0.33587786259541985,181.04821458446838,130.73557690276917,0.022900763358778626,0.17557251908396945,0.2824427480916031,49.074856471311236,161.16339464270234,0.0916030534351145,-0.2595419847328244,-0.11450381679389313,30.132687545605947,129.99353457616775,-0.11450381679389313,0.2366412213740458,-0.0916030534351145,89.0,89.0,0.0,0.0,0.0,101.77,93.68,1.0,21.0,5.0,
3.298,-10.425882395792474,150.964770614881,-0.12213740458015267,0.4122137404580153,-0.04580152671755725,182.2467827045004,132.72389098973508,0.022900763358778626,0.17557251908396945,0.2824427480916031,81.74875324988838,161.38910379068375,0.0916030534351145,-0.2595419847328244,-0.11450381679389313,25.614795848720732,129.99353111415581,-0.11450381679389313,0.2366412213740458,-0.0916030534351145,89.0,89.0,0.0,0.0,0.0,103.36,93.6,-3.0,18.0,6.0,
3.337,-11.078010574350476,152.6448450108853,-0.12213740458015267,0.4122137404580153,-0.04580152671755725,183.26556560652762,134.41395796365612,0.022900763358778626,0.17557251908396945,0.2824427480916031,109.52156551167894,161.58095656646796,0.0916030534351145,-0.2595419847328244,-0.11450381679389313,21.7745879063683,129.9935281714457,-0.11450381679389313,0.2366412213740458,-0.0916030534351145,89.0,89.0,0.0,0.0,0.0,104.88,93.06,-4.0,11.0,0.0,
3.377,-11.834214529490456,155.07261533754186,-0.0916030534351145,0.46564885496183206,0.04580152671755725,184.13153107325076,135.850514891489,0.022900763358778626,0.17557251908396945,0.2824427480916031,133.12845593420093,161.74403142588451,0.0916030534351145,-0.2595419847328244,-0.11450381679389313,18.510411155368732,129.99352567014208,-0.11450381679389313,0.2366412213740458,-0.0916030534351145,89.0,89.0,0.0,0.0,0.0,106.13,93.03,-5.0,15.0,-1.0,
3.416,-12.476987891359439,157.13622011519993,-0.0916030534351145,0.46564885496183206,0.04580152671755725,185.1665795031363,137.73343951623875,0.1450381679389313,0.007633587786259542,0.0,153.1943127933446,161.8826450563886,0.0916030534351145,-0.2595419847328244,-0.11450381679389313,15.735860917019101,129.99352354403402,-0.11450381679389313,0.2366412213740458,-0.0916030534351145,89.0,89.0,0.0,0.0,0.0,107.33,92.86,-9.0,12.0,-1.0,
3.455,-13.023345248948075,158.8902841762093,-0.0916030534351145,0.46564885496183206,0.04580152671755725,185.96143773058802,139.03739086567828,0.09923664122137404,-0.007633587786259542,-0.0916030534351145,170.25029112361673,162.0004666423171,0.0916030534351145,-0.2595419847328244,-0.11450381679389313,13.377493214421918,129.99352173684215,-0.11450381679389313,0.2366412213740458,-0.0916030534351145,89.0,89.0,0.0,0.0,0.0,108.12,92.65,-8.0,8.0,-6.0,
3.495,-13.227927562497985,159.35604993796315,-0.0916030534351145,0.5038167938931297,0.20610687022900764,186.637067223922,140.14574951270185,0.09923664122137404,-0.007633587786259542,-0.0916030534351145,184.74787270434805,162.1006149903563,0.0916030534351145,-0.2595419847328244,-0.11450381679389313,11.37288066721431,129.99352020072905,-0.11450381679389313,0.2366412213740458,-0.0916030534351145,89.0,89.0,0.0,0.0,0.0,108.91,92.78,-8.0,1.0,-8.0,
3.534,-13.401822529015408,159.75195083545393,-0.0916030534351145,0.5038167938931297,0.20610687022900764,187.21135229325589,141.08785436267192,0.09923664122137404,-0.007633587786259542,-0.0916030534351145,197.07081704796965,162.1857410861896,0.0916030534351145,-0.2595419847328244,-0.11450381679389313,9.668960002087845,129.99351889503293,-0.11450381679389313,0.2366412213740458,-0.0916030534351145,89.0,89.0,0.0,0.0,0.0,109.59,92.94,-7.0,1.0,-5.0,
3.573,-13.549633250555218,160.0884665983211,-0.0916030534351145,0.5038167938931297,0.20610687022900764,187.69949460218967,141.88864348514647,0.09923664122137404,-0.007633587786259542,-0.0916030534351145,207.08632006619905,162.53876017523768,0.03816793893129771,-0.0,-0.03816793893129771,8.22062743673035,129.99351778519122,-0.11450381679389313,0.2366412213740458,-0.0916030534351145,89.0,89.0,0.0,0.0,0.0,109.99,92.94,-8.0,-3.0,-2.0,
3.613,-13.687930853118056,160.49046923336746,-0.08396946564885496,0.5038167938931297,0.1984732824427481,188.1144155647834,142.56931423924982,0.09923664122137404,-0.007633587786259542,-0.0916030534351145,215.59949763169402,162.83882640092853,0.03816793893129771,-0.0,-0.03816793893129771,6.989544756176478,129.99351684182577,-0.11450381679389313,0.2366412213740458,-0.0916030534351145,89.0,89.0,0.0,0.0,0.0,110.16,92.78,-7.0,-5.0,-2.0,
3.652,-13.80548381529647,160.83217147315685,-0.08396946564885496,0.5038167938931297,0.1984732824427481,188.46709838298807,143.14788438023768,0.09923664122137404,-0.007633587786259542,-0.0916030534351145,222.8849196442377,163.15852379492776,0.030534351145038167,-0.0,-0.07633587786259542,5.9431244777056875,129.99351603996513,-0.11450381679389313,0.2366412213740458,-0.0916030534351145,89.0,89.0,0.0,0.0,0.0,110.23,92.57,-8.0,-8.0,-2.0,
3.691,-13.905403833148121,161.12261837697784,-0.08396946564885496,0.5038167938931297,0.1984732824427481,188.76687877846203,143.63966900007736,0.09923664122137404,-0.007633587786259542,-0.0916030534351145,228.93996444544965,163.51765245580725,0.03816793893129771,0.030534351145038167,-0.030534351145038167,5.053667241005516,129.9935153583836,-0.11450381679389313,0.2366412213740458,-0.0916030534351145,89.0,89.0,0.0,0.0,0.0,110.2,92.49,-9.0,-7.0,-2.0,
3.73,-13.990335848322024,161.36949824522569,-0.08396946564885496,0.5038167938931297,0.1984732824427481,188.70463270595909,144.01031674803224,-0.03816793893129771,-0.007633587786259542,0.03816793893129771,234.08675252647978,163.82291181755483,0.03816793893129771,0.030534351145038167,-0.030534351145038167,4.29762858981037,129.9935147790393,-0.11450381679389313,0.2366412213740458,-0.0916030534351145,89.0,89.0,0.0,0.0,0.0,110.02,92.35,-8.0,-10.0,-1.0,
3.769,-13.892157720009696,161.8123329227066,-0.03816793893129771,0.5190839694656488,0.2366412213740458,188.6517235443316,144.32536733379388,-0.03816793893129771,-0.007633587786259542,0.03816793893129771,238.46152239535542,164.08238227504026,0.03816793893129771,0.030534351145038167,-0.030534351145038167,3.654995736294495,129.99351428659662,-0.11450381679389313,0.2366412213740458,-0.0916030534351145,89.0,89.0,0.0,0.0,0.0,109.79,92.27,-8.0,-10.0,0.0,
3.808,-13.808706310944217,162.18874239856535,-0.03816793893129771,0.5190839694656488,0.2366412213740458,188.60675075694823,144.59316033169125,-0.03816793893129771,-0.007633587786259542,0.03816793893129771,242.47787758347104,164.21508831570262,-0.022900763358778626,0.015267175572519083,-0.022900763358778626,3.108757810806001,129.9935138680204,-0.11450381679389313,0.2366412213740458,-0.0916030534351145,89.0,89.0,0.0,0.0,0.0,109.51,92.14,-8.0,-12.0,0.0,
3.847,-13.737772613238558,162.50869045304532,-0.03816793893129771,0.5190839694656488,0.2366412213740458,188.56852388767237,144.82078437990404,-0.03816793893129771,-0.007633587786259542,0.03816793893129771,245.89177949336934,164.32788845026562,-0.022900763358778626,0.015267175572519083,-0.022900763358778626,2.6444555741407814,129.99351351223055,-0.11450381679389313,0.2366412213740458,-0.0916030534351145,89.0,89.0,0.0,0.0,0.0,109.22,91.99,-7.0,-11.0,1.0,
3.886,-13.677478970188748,162.7806462993533,-0.03816793893129771,0.5190839694656488,0.2366412213740458,188.5360310487879,145.0142648208849,-0.03816793893129771,-0.007633587786259542,0.03816793893129771,248.53224369960625,164.44419569804816,0.022900763358778626,-0.0,0.022900763358778626,2.2497986729753445,129.9935132098092,-0.11450381679389313,0.2366412213740458,-0.0916030534351145,89.0,89.0,0.0,0.0,0.0,108.87,91.83,-7.0,-11.0,1.0,
3.925,-13.62622937359641,163.01180876871507,-0.03816793893129771,0.5190839694656488,0.2366412213740458,188.39181051217963,144.73944892650835,-0.015267175572519083,-0.007633587786259542,-0.007633587786259542,250.77663827490764,164.5430568586633,0.022900763358778626,-0.0,0.022900763358778626,1.9143403069847233,129.99351295275108,-0.11450381679389313,0.2366412213740458,-0.0916030534351145,89.0,89.0,0.0,0.0,0.0,108.52,91.67,-6.0,-11.0,2.0,
3.964,-13.582667216492922,163.20829686767257,-0.03816793893129771,0.5190839694656488,0.2366412213740458,188.26922305606257,144.50585541628828,-0.015267175572519083,-0.007633587786259542,-0.007633587786259542,252.68437366391382,164.6270888451862,0.022900763358778626,-0.0,0.022900763358778626,1.6292006958926957,129.99351273425165,-0.11450381679389313,0.2366412213740458,-0.0916030534351145,89.0,89.0,0.0,0.0,0.0,108.14,91.49,-6.0,-12.0,2.0,
4.003,-13.54563938295496,163.37531175178646,-0.03816793893129771,0.5190839694656488,0.2366412213740458,188.1650237183631,144.3073009326012,-0.015267175572519083,-0.007633587786259542,-0.007633587786259542,254.30594874456906,164.69851603373064,0.022900763358778626,-0.0,0.022900763358778626,1.386832026464472,129.99351254852715,-0.11450381679389313,0.2366412213740458,-0.0916030534351145,89.0,89.0,0.0,0.0,0.0,107.77,91.33,-5.0,-9.0,0.0,
4.042,-13.51416572444769,163.51727440328324,-0.03816793893129771,0.5190839694656488,0.2366412213740458,188.07645428131855,144.1385296214672,-0.015267175572519083,-0.007633587786259542,-0.007633587786259542,255.729099083862,164.72022410408223,-0.015267175572519083,-0.007633587786259542,-0.030534351145038167,1.180818657450482,129.99351239066132,-0.11450381679389313,0.2366412213740458,-0.0916030534351145,89.0,89.0,0.0,0.0,0.0,107.35,91.21,-5.0,-10.0,0.0,
4.0809999999999995,-13.596566827455808,163.2170129432758,-0.03816793893129771,0.5267175572519084,0.2366412213740458,188.0011702598307,143.9950740070033,-0.015267175572519083,-0.007633587786259542,-0.007633587786259542,256.938776872261,164.7386759638811,-0.015267175572519083,-0.007633587786259542,-0.030534351145038167,1.0057072937885905,129.99351225647536,-0.11450381679389313,0.2366412213740458,-0.0916030534351145,89.0,89.0,0.0,0.0,0.0,106.85,91.06,-5.0,-8.0,0.0,
4.12,-13.666607765012708,162.96179070226947,-0.03816793893129771,0.5267175572519084,0.2366412213740458,187.93717884156598,143.873136734709,-0.015267175572519083,-0.007633587786259542,-0.007633587786259542,258.0104459749319,164.75808564528865,-0.015267175572519083,0.022900763358778626,-0.022900763358778626,0.8568626346759828,129.99351214241727,-0.11450381679389313,0.2366412213740458,-0.0916030534351145,89.0,89.0,0.0,0.0,0.0,106.4,90.96,-5.0,-8.0,0.0,
4.1579999999999995,-13.726142561936074,162.7448517974141,-0.03816793893129771,0.5267175572519084,0.2366412213740458,187.88278613604098,143.76949005325883,-0.015267175572519083,-0.007633587786259542,-0.007633587786259542,258.92136471220215,164.77458387448507,-0.015267175572519083,0.022900763358778626,-0.022900763358778626,0.7282683385524036,129.99409601493358,-0.04580152671755725,-0.007633587786259542,0.2366412213740458,89.0,89.0,0.0,0.0,0.0,105.95,90.91,-6.0,-6.0,-1.0,
4.198,-13.776747139320934,162.56045372828703,-0.03816793893129771,0.5267175572519084,0.2366412213740458,187.83655233634477,143.6813903740262,-0.015267175572519083,-0.007633587786259542,-0.007633587786259542,259.7439595902109,164.8154072112938,-0.015267175572519083,0.022900763358778626,0.0,0.6189631868473612,129.99459230657243,-0.04580152671755725,-0.007633587786259542,0.2366412213740458,89.0,89.0,0.0,0.0,0.0,105.53,90.7,-6.0,-7.0,-2.0,
4.236000000000001,-13.703984912143726,162.29086002103801,-0.022900763358778626,0.5267175572519084,0.25190839694656486,187.79725360660296,143.60650564667844,-0.015267175572519083,-0.007633587786259542,-0.007633587786259542,260.4431652365184,164.85010704758122,-0.015267175572519083,0.022900763358778626,0.0,0.5260538078980752,129.99501415446545,-0.04580152671755725,-0.007633587786259542,0.2366412213740458,89.0,89.0,0.0,0.0,0.0,105.29,90.68,-5.0,-5.0,-2.0,
4.275,-13.6421370190431,162.06170536987636,-0.022900763358778626,0.5267175572519084,0.25190839694656486,187.7118082889442,143.55968952290908,-0.05343511450381679,-0.0,0.015267175572519083,261.0374900358797,164.8796019084255,-0.015267175572519083,0.022900763358778626,0.0,0.44708083579118213,129.99537272517452,-0.04580152671755725,-0.007633587786259542,0.2366412213740458,89.0,89.0,0.0,0.0,0.0,104.96,90.65,-6.0,-4.0,0.0,
4.314,-13.589566309907566,161.86692391638897,-0.022900763358778626,0.5267175572519084,0.25190839694656486,187.6567600699883,143.57877652244045,-0.04580152671755725,-0.0,0.030534351145038167,261.5426661153369,164.90467254014317,-0.015267175572519083,0.022900763358778626,0.0,0.379953809500323,129.99567751027723,-0.04580152671755725,-0.007633587786259542,0.2366412213740458,89.0,89.0,0.0,0.0,0.0,104.8,90.61,-6.0,-4.0,0.0,
4.353,-13.544881207142362,161.70135968092467,-0.022900763358778626,0.5267175572519084,0.25190839694656486,187.58794676068638,143.6086519685723,-0.03816793893129771,-0.0,0.030534351145038167,261.97206578287546,164.92598257710318,-0.015267175572519083,0.022900763358778626,0.0,0.3228958371530927,129.99593657761454,-0.04580152671755725,-0.007633587786259542,0.2366412213740458,89.0,89.0,0.0,0.0,0.0,104.65,90.57,-4.0,-2.0,-2.0,
4.391,-13.50689886979194,161.56063008078002,-0.022900763358778626,0.5267175572519084,0.25190839694656486,187.54696528022222,143.695541521915,-0.03816793893129771,-0.0,0.030534351145038167,262.3370555002832,164.9440961085192,-0.015267175572519083,0.022900763358778626,0.0,0.274396560657947,129.99615678485125,-0.04580152671755725,-0.007633587786259542,0.2366412213740458,89.0,89.0,0.0,0.0,0.0,104.51,90.57,-4.0,-1.0,-1.0,
4.43,-13.47461388304408,161.44100992065705,-0.022900763358778626,0.5267175572519084,0.25190839694656486,187.5121310218277,143.7693976422563,-0.03816793893129771,-0.0,0.030534351145038167,262.5661590054405,164.91928158681554,-0.022900763358778626,0.007633587786259542,0.0,0.2331721756370731,129.99634396100245,-0.04580152671755725,-0.007633587786259542,0.2366412213740458,89.0,89.0,0.0,0.0,0.0,104.26,90.5,-5.0,-2.0,0.0,
4.469,-13.4471716443084,161.33933278455254,-0.022900763358778626,0.5267175572519084,0.25190839694656486,187.5041889036518,143.92687064310326,-0.022900763358778626,-0.0,0.015267175572519083,262.7608969848242,164.89818924336743,-0.022900763358778626,0.007633587786259542,0.0,0.1981314483693303,129.99650306073096,-0.04580152671755725,-0.007633587786259542,0.2366412213740458,89.0,89.0,0.0,0.0,0.0,104.2,90.38,-5.0,-2.0,-1.0,
4.508,-13.42384574138307,161.2529072188637,-0.022900763358778626,0.5267175572519084,0.25190839694656486,187.49743810320228,144.06072269382315,-0.022900763358778626,-0.0,0.015267175572519083,262.9264242673004,164.8802607514365,-0.022900763358778626,0.007633587786259542,0.0,0.16847660118411534,129.99650852450782,-0.061068702290076333,0.007633587786259542,0.1984732824427481,89.0,89.0,0.0,0.0,0.0,104.07,90.34,-5.0,0.0,-2.0,
4.547,-13.423090903053076,161.03873971443062,-0.022900763358778626,0.5038167938931297,0.22137404580152673,187.49169992282017,144.1744969369351,-0.022900763358778626,-0.0,0.015267175572519083,263.0671224574051,164.86502153329525,-0.022900763358778626,0.007633587786259542,0.0,0.14326998107668262,129.99651316871817,-0.061068702290076333,0.007633587786259542,0.1984732824427481,89.0,89.0,0.0,0.0,0.0,104.13,90.44,-5.0,0.0,-1.0,
4.584,-13.389893945775318,160.78844334642397,-0.022900763358778626,0.5038167938931297,0.21374045801526717,187.4868224694954,144.27120504358024,-0.022900763358778626,-0.0,0.015267175572519083,263.18671591899414,164.85206819787518,-0.022900763358778626,0.007633587786259542,0.0,0.12184435398536482,129.99651711629696,-0.061068702290076333,0.007633587786259542,0.1984732824427481,89.0,89.0,0.0,0.0,0.0,104.1,90.39,-5.0,-1.0,0.0,
4.623,-13.361676532089225,160.57569143361835,-0.022900763358778626,0.5038167938931297,0.21374045801526717,187.48267663416934,144.3534069342286,-0.022900763358778626,-0.0,0.015267175572519083,263.5717040109161,164.79052026094894,-0.015267175572519083,0.007633587786259542,-0.022900763358778626,0.10363257095774468,129.99652047173893,-0.061068702290076333,0.007633587786259542,0.1984732824427481,89.0,89.0,0.0,0.0,0.0,104.0,90.4,-3.0,-1.0,-1.0,
4.662,-13.337691730456045,160.39485230773354,-0.022900763358778626,0.5038167938931297,0.21374045801526717,187.47915267414217,144.4232785412797,-0.022900763358778626,-0.0,0.015267175572519083,263.68539483757473,164.77481530864162,-0.007633587786259542,-0.0,-0.007633587786259542,0.08815255538426757,129.9965233238646,-0.061068702290076333,0.007633587786259542,0.1984732824427481,89.0,89.0,0.0,0.0,0.0,104.01,90.43,-3.0,0.0,-1.0,
4.701,-13.39511289343503,160.35345507768773,-0.022900763358778626,0.5038167938931297,0.21374045801526717,187.4761573081191,144.48266940727314,-0.022900763358778626,-0.0,0.015267175572519083,263.7820320402345,164.7614660991804,-0.007633587786259542,-0.0,-0.007633587786259542,0.07499454214681202,129.99652574817145,-0.061068702290076333,0.007633587786259542,0.1984732824427481,89.0,89.0,0.0,0.0,0.0,104.01,90.43,-4.0,1.0,-1.0,
4.74,-13.443920881967166,160.3182674321488,-0.022900763358778626,0.5038167938931297,0.21374045801526717,187.52668388972063,144.4214167674129,0.0,-0.0,-0.015267175572519083,263.8641736624954,164.75011927113837,-0.007633587786259542,-0.0,-0.007633587786259542,0.06381023089497481,129.99652780883224,-0.061068702290076333,0.007633587786259542,0.1984732824427481,89.0,89.0,0.0,0.0,0.0,104.0,90.41,-4.0,0.0,-1.0,
4.779,-13.485407672219482,160.2883579334407,-0.022900763358778626,0.5038167938931297,0.21374045801526717,187.54804086355168,144.3146434223167,0.0,-0.0,-0.007633587786259542,263.93399404141707,164.74047446730265,-0.007633587786259542,-0.0,-0.007633587786259542,0.05430356633091319,129.99652956039392,-0.061068702290076333,0.007633587786259542,0.1984732824427481,89.0,89.0,0.0,0.0,0.0,104.0,90.36,-4.0,0.0,-1.0,
4.817,-13.520671443933951,160.2629348595388,-0.022900763358778626,0.5038167938931297,0.21374045801526717,187.56619429130805,144.22388607898492,0.0,-0.0,-0.007633587786259542,264.05220995961525,164.71964403033675,0.0,0.007633587786259542,0.0,0.04622290145146081,129.99653104922135,-0.061068702290076333,0.007633587786259542,0.1984732824427481,89.0,89.0,0.0,0.0,0.0,104.09,90.39,-3.0,0.0,-1.0,
4.856,-13.470802486174371,160.17255728829724,-0.022900763358778626,0.5038167938931297,0.21374045801526717,187.58162470490097,144.14674233715292,0.0,-0.0,-0.007633587786259542,264.1526934900837,164.70193815891574,0.0,0.007633587786259542,0.0,0.039354336303926284,129.99653231472467,-0.061068702290076333,0.007633587786259542,0.1984732824427481,89.0,89.0,0.0,0.0,0.0,104.1,90.36,-3.0,0.0,-1.0,
4.895,-13.428413872078728,160.0957363527419,-0.022900763358778626,0.5038167938931297,0.21374045801526717,187.58766507139433,144.11267399183404,-0.007633587786259542,-0.0,0.0,264.2381044909819,164.6868881682079,0.0,0.007633587786259542,0.0,0.033516055928521936,129.99653339040248,-0.061068702290076333,0.007633587786259542,0.1984732824427481,89.0,89.0,0.0,0.0,0.0,104.04,90.42,-3.0,0.0,-1.0,
4.933,-13.392383550097431,160.0304385575199,-0.022900763358778626,0.5038167938931297,0.21374045801526717,187.59279938291368,144.08371589831302,-0.007633587786259542,-0.0,0.0,264.3107038417454,164.67409567610622,0.0,0.007633587786259542,0.0,0.028618403105611447,129.99646941923245,-0.06870229007633588,0.015267175572519083,0.1984732824427481,89.0,89.0,0.0,0.0,0.0,104.09,90.44,-3.0,0.0,-1.0,
4.972,-13.36175777641333,159.97493543158114,-0.022900763358778626,0.5038167938931297,0.21374045801526717,187.59716354770515,144.05910151882014,-0.007633587786259542,-0.0,0.0,264.3724132898943,164.6632220578198,0.0,0.007633587786259542,0.0,0.02445539820613753,129.99641504373793,-0.06870229007633588,0.015267175572519083,0.183206106870229,89.0,89.0,0.0,0.0,0.0,104.09,90.38,-3.0,0.0,-1.0,
5.01,-13.335725868781847,159.92775777453323,-0.022900763358778626,0.5038167938931297,0.21374045801526717,187.6008730877779,144.0381792962512,-0.007633587786259542,-0.0,0.0,264.3746211392688,164.63702944799743,-0.007633587786259542,-0.0,0.0,0.0209168440415847,129.99636882456758,-0.06870229007633588,0.015267175572519083,0.183206106870229,89.0,89.0,0.0,0.0,0.0,104.08,90.4,-3.0,-1.0,-2.0,
5.048,-13.313598747295082,159.8876567660425,-0.022900763358778626,0.5038167938931297,0.21374045801526717,187.60402619683973,144.0203954070676,-0.007633587786259542,-0.0,0.0,264.38005843357325,164.59873859052513,-0.007633587786259542,-0.0,0.0,0.017909073001714796,129.9963295382728,-0.06870229007633588,0.015267175572519083,0.183206106870229,89.0,89.0,0.0,0.0,0.0,104.12,90.48,-4.0,-1.0,-1.0,
5.087,-13.355013101071549,159.86173954911993,-0.030534351145038167,0.5038167938931297,0.21374045801526717,187.60670633954228,144.00527910126155,-0.007633587786259542,-0.0,0.0,264.38468013373205,164.56619136167367,-0.007633587786259542,-0.0,0.0,0.015352467617825376,129.9962961449222,-0.06870229007633588,0.015267175572519083,0.183206106870229,89.0,89.0,0.0,0.0,0.0,104.04,90.59,-3.0,0.0,-1.0,
5.126,-13.390215301781545,159.83970991473572,-0.030534351145038167,0.5038167938931297,0.21374045801526717,187.60898446083945,143.9924302413264,-0.007633587786259542,-0.0,0.0,264.388608578867,164.53852621714995,-0.007633587786259542,-0.0,0.0,0.013179353041519369,129.99626776057423,-0.06870229007633588,0.015267175572519083,0.22137404580152673,89.0,89.0,0.0,0.0,0.0,104.0,90.59,-4.0,-1.0,-1.0,
5.164,-13.420137172385042,159.82098472550916,-0.030534351145038167,0.5038167938931297,0.21374045801526717,187.61092086394203,143.98150871038152,-0.007633587786259542,-0.0,0.0,264.39194775723166,164.51501084430478,-0.007633587786259542,-0.0,0.0,0.011332205651659263,129.99624363387844,-0.06870229007633588,0.015267175572519083,0.22137404580152673,89.0,89.0,0.0,0.0,0.0,104.0,90.67,-4.0,-1.0,0.0,
5.203,-13.445570762398015,159.80506831466658,-0.030534351145038167,0.5038167938931297,0.21374045801526717,187.59044588801484,144.03670693558826,0.0,-0.0,0.0,264.39478605884165,164.4950227773864,-0.007633587786259542,-0.0,0.0,0.009762130370278174,129.99622312618703,-0.06870229007633588,0.015267175572519083,0.22137404580152673,89.0,89.0,0.0,0.0,0.0,103.98,90.7,-4.0,-2.0,0.0,
5.242,-13.467189313909042,159.79153936545038,-0.030534351145038167,0.5038167938931297,0.21374045801526717,187.57304215847674,144.083625427014,0.0,-0.0,0.0,264.39719861521013,164.47803292050577,-0.007633587786259542,-0.0,0.0,0.008427566381104248,129.99620569464932,-0.06870229007633588,0.015267175572519083,0.22137404580152673,89.0,89.0,0.0,0.0,0.0,103.98,90.61,-3.0,0.0,-1.0,
5.28,-13.485565082693414,159.7800397586166,-0.030534351145038167,0.5038167938931297,0.21374045801526717,187.55824898836934,144.12350614472587,0.0,-0.0,0.0,264.4585842877224,164.45072568130925,-0.015267175572519083,0.015267175572519083,0.0,0.007293186990306411,129.99619087784225,-0.06870229007633588,0.015267175572519083,0.22137404580152673,89.0,89.0,0.0,0.0,0.0,103.85,90.68,-4.0,0.0,-1.0,
5.319,-13.495134743145282,159.90578502594835,-0.030534351145038167,0.5114503816793893,0.20610687022900764,187.54567479377806,144.15740475478094,0.0,-0.0,0.0,264.5107621093578,164.4275145279922,-0.015267175572519083,0.015267175572519083,0.0,0.006328964508128249,129.99617828355628,-0.06870229007633588,0.015267175572519083,0.22137404580152673,89.0,89.0,0.0,0.0,0.0,103.75,90.74,-4.0,-1.0,-1.0,
5.358,-13.503268954529368,160.01266850318032,-0.030534351145038167,0.5114503816793893,0.20610687022900764,187.5349867283755,144.18621857332778,0.0,-0.0,0.0,264.5551132577479,164.40778504767272,-0.015267175572519083,0.015267175572519083,0.0,0.0055742608944600175,129.9960378074208,-0.08396946564885496,0.022900763358778626,0.20610687022900764,89.0,89.0,0.0,0.0,0.0,103.72,90.73,-4.0,-2.0,0.0,
5.395,-13.510183034205841,160.1035194588275,-0.030534351145038167,0.5114503816793893,0.20610687022900764,187.5259018727833,144.21071031909258,0.0,-0.0,0.0,264.5928117338795,164.39101498940116,-0.015267175572519083,0.015267175572519083,0.0,0.004867877326658815,129.99598328820184,-0.07633587786259542,0.015267175572519083,0.1984732824427481,89.0,89.0,0.0,0.0,0.0,103.77,90.72,-4.0,0.0,0.0,
5.434,-13.516060001930846,160.1807427711276,-0.030534351145038167,0.5114503816793893,0.20610687022900764,187.51817974552992,144.23152830299267,0.0,-0.0,0.0,264.63428009683184,164.38508424138888,-0.007633587786259542,0.007633587786259542,-0.007633587786259542,0.004267451294027793,129.99593694686575,-0.07633587786259542,0.015267175572519083,0.1984732824427481,89.0,89.0,0.0,0.0,0.0,103.78,90.72,-4.0,0.0,-1.0,
5.473,-13.5210554244971,160.24638258658268,-0.030534351145038167,0.5114503816793893,0.20610687022900764,187.51161593736455,144.24922358930775,0.0,-0.0,0.0,264.67977039049657,164.37801130437802,-0.007633587786259542,0.007633587786259542,-0.007633587786259542,0.003757089166291424,129.99589755673009,-0.07633587786259542,0.015267175572519083,0.1984732824427481,89.0,89.0,0.0,0.0,0.0,103.65,90.71,-4.0,-1.0,-1.0,
5.512,-13.525301533678412,160.3021764297195,-0.030534351145038167,0.5114503816793893,0.20610687022900764,187.54686054439142,144.2421956817685,-0.007633587786259542,-0.0,0.0,264.7184371401116,164.3719993079188,-0.007633587786259542,0.007633587786259542,-0.007633587786259542,0.003323281357715511,129.99586407511475,-0.07633587786259542,0.015267175572519083,0.1984732824427481,89.0,89.0,0.0,0.0,0.0,103.64,90.74,-4.0,0.0,-1.0,
5.551,-13.528910726482529,160.3496011963858,-0.030534351145038167,0.5114503816793893,0.20610687022900764,187.57681846036425,144.23622196036013,-0.007633587786259542,-0.0,0.0,264.7472610081774,164.38292770043637,-0.007633587786259542,0.007633587786259542,0.0,0.0029545447204259844,129.99583561574173,-0.07633587786259542,0.015267175572519083,0.1984732824427481,89.0,89.0,0.0,0.0,0.0,103.6,90.68,-5.0,-1.0,-1.0,
5.59,-13.53197854036603,160.38991224805216,-0.030534351145038167,0.5114503816793893,0.20610687022900764,187.59871764959485,144.255902727707,-0.007633587786259542,-0.0,0.0,264.7717612960334,164.3922168340763,-0.007633587786259542,0.007633587786259542,0.0,0.002641118578729887,129.99581142527464,-0.07633587786259542,0.015267175572519083,0.1984732824427481,89.0,89.0,0.0,0.0,0.0,103.56,90.67,-4.0,0.0,-1.0,
5.629,-13.534586182167004,160.42417664196856,-0.030534351145038167,0.5114503816793893,0.20610687022900764,187.62328583335824,144.24793783490404,0.0,-0.0,0.0,264.79258654071094,164.40011259767024,-0.007633587786259542,0.007633587786259542,0.0,0.0023747063582882045,129.99579086337764,-0.07633587786259542,0.015267175572519083,0.1984732824427481,89.0,89.0,0.0,0.0,0.0,103.55,90.8,-4.0,-1.0,-1.0,
5.668,-13.536802677697832,160.4533013767975,-0.030534351145038167,0.5114503816793893,0.20610687022900764,187.6553638109375,144.25423351172586,0.0,-0.0,0.0,264.8102879986869,164.40682399672508,-0.007633587786259542,0.007633587786259542,0.0,0.002148255970912774,129.99577338576518,-0.07633587786259542,0.015267175572519083,0.1984732824427481,89.0,89.0,0.0,0.0,0.0,103.52,90.69,-5.0,0.0,0.0,
5.706,-13.538686698899035,160.4780574014021,-0.030534351145038167,0.5114503816793893,0.20610687022900764,187.68263009187987,144.25958483702442,0.0,-0.0,0.0,264.80087453412847,164.37173761349896,-0.007633587786259542,-0.0,0.0,0.0019557731416436587,129.99575852979456,-0.07633587786259542,0.015267175572519083,0.1984732824427481,89.0,89.0,0.0,0.0,0.0,103.47,90.7,-5.0,-1.0,0.0,
5.745,-13.542367893547073,160.36963767762205,-0.030534351145038167,0.5114503816793893,0.19083969465648856,187.7058064306809,144.2641334635282,0.0,-0.0,0.0,264.7928730892539,164.34191418775677,-0.007633587786259542,-0.0,0.0,0.0017921627367649103,129.99574590221954,-0.07633587786259542,0.015267175572519083,0.1984732824427481,89.0,89.0,0.0,0.0,0.0,103.47,90.63,-5.0,0.0,0.0,
5.784,-13.545496908997904,160.277480912409,-0.030534351145038167,0.5114503816793893,0.19083969465648856,187.65735127870553,144.16183785217828,-0.007633587786259542,-0.0,-0.007633587786259542,264.78607186111043,164.3165642758759,-0.007633587786259542,-0.0,0.0,0.0016530938926179741,129.99573516878078,-0.07633587786259542,0.015267175572519083,0.1984732824427481,89.0,89.0,0.0,0.0,0.0,103.41,90.51,-5.0,-1.0,1.0,
5.821,-13.569765308027726,160.27356184342983,-0.03816793893129771,0.5114503816793893,0.19083969465648856,187.6161643995265,144.07488658253087,-0.007633587786259542,-0.0,-0.007633587786259542,264.78029081718853,164.29501685077716,-0.007633587786259542,-0.0,0.0,0.0015348853750930785,129.99572604535786,-0.07633587786259542,0.015267175572519083,0.1984732824427481,89.0,89.0,0.0,0.0,0.0,103.91,90.64,-2.0,0.0,-3.0,
5.86,-13.590393447203075,160.2702306347975,-0.03816793893129771,0.5114503816793893,0.19083969465648856,187.67091923651554,144.20965810630565,0.0,-0.0,0.0,264.77537692985493,164.27670153944322,-0.007633587786259542,-0.0,0.0,0.0014344081351969171,129.99571829044834,-0.07633587786259542,0.015267175572519083,0.1984732824427481,89.0,89.0,0.0,0.0,0.0,104.33,90.55,-1.0,7.0,-3.0,
5.899,-13.607927365502121,160.26739910746005,-0.03816793893129771,0.5114503816793893,0.19083969465648856,187.65713704050003,144.1935368223001,-0.007633587786259542,-0.0,0.0,264.77120012562136,164.2611335248094,-0.007633587786259542,-0.0,0.0,0.0013490024812851799,129.99571169877527,-0.07633587786259542,0.015267175572519083,0.1984732824427481,89.0,89.0,0.0,0.0,0.0,104.4,90.44,-1.0,7.0,-1.0,
5.938,-13.62283119605631,160.2649923092232,-0.03816793893129771,0.5114503816793893,0.19083969465648856,187.64542217388683,144.17983373089538,-0.007633587786259542,-0.0,0.0,264.7676498420228,164.24790071237064,-0.007633587786259542,-0.0,0.0,0.0012764076754602034,129.99570609585317,-0.07633587786259542,0.015267175572519083,0.1984732824427481,89.0,89.0,0.0,0.0,0.0,104.11,90.29,-5.0,0.0,-1.0,
5.976,-13.635499452027371,160.26294653072188,-0.03816793893129771,0.5114503816793893,0.19083969465648856,187.65113714839953,144.24185668926592,0.0,-0.0,0.0,264.76463210096404,164.2366528217977,-0.007633587786259542,-0.0,0.0,0.0012147020905089734,129.99570133336937,-0.07633587786259542,0.015267175572519083,0.1984732824427481,89.0,89.0,0.0,0.0,0.0,103.81,90.37,-6.0,-1.0,0.0,
6.015,-13.646267469602773,160.26120761899577,-0.03816793893129771,0.5114503816793893,0.19083969465648856,187.6742147828114,144.25728781616255,0.0,-0.0,-0.022900763358778626,264.76206702106407,164.2270921148107,-0.007633587786259542,-0.0,0.0,0.0011622523433004277,129.99569728525813,-0.07633587786259542,0.015267175572519083,0.1984732824427481,89.0,89.0,0.0,0.0,0.0,103.68,90.41,-3.0,3.0,-1.0,
6.054,-13.655420284541863,160.25972954402857,-0.03816793893129771,0.5114503816793893,0.19083969465648856,187.69383077206146,144.27040427402468,0.0,-0.0,-0.022900763358778626,264.8368067135508,164.29753187565373,0.0,-0.0,-0.015267175572519083,0.001117670058173164,129.9956938443636,-0.07633587786259542,0.015267175572519083,0.1984732824427481,89.0,89.0,0.0,0.0,0.0,103.78,90.41,-5.0,0.0,-2.0,
6.093,-13.596921026422114,160.4254003015604,-0.030534351145038167,0.5114503816793893,0.21374045801526717,187.710504362924,144.2815532632075,0.0,-0.0,-0.022900763358778626,264.90033545216454,164.3574056723703,0.0,-0.0,-0.015267175572519083,0.0010797751158149898,129.99569091960322,-0.07633587786259542,0.015267175572519083,0.1984732824427481,89.0,89.0,0.0,0.0,0.0,103.84,90.4,-3.0,0.0,-3.0,
6.131,-13.547196657020327,160.56622044546242,-0.030534351145038167,0.5114503816793893,0.21374045801526717,187.7246769151572,144.2910299040129,0.0,-0.0,-0.022900763358778626,264.94935522608637,164.3655936063081,-0.007633587786259542,0.007633587786259542,0.0,0.0010475644148105418,129.9956884335569,-0.07633587786259542,0.015267175572519083,0.1984732824427481,89.0,89.0,0.0,0.0,0.0,103.75,90.42,-4.0,1.0,-3.0,
6.17,-13.513078914930079,160.5956968451409,-0.030534351145038167,0.5114503816793893,0.21374045801526717,187.73672358455542,144.2990850486975,0.0,-0.0,-0.022900763358778626,264.99102203392,164.37255335015521,-0.007633587786259542,0.007633587786259542,0.0,0.001020185318956761,129.99568632041752,-0.07633587786259542,0.015267175572519083,0.1984732824427481,89.0,89.0,0.0,0.0,0.0,103.68,90.31,-4.0,-2.0,-2.0,
6.209,-13.47545787663696,160.66014069187662,-0.030534351145038167,0.5114503816793893,0.21374045801526717,187.7469632535439,144.3059319216794,0.0,-0.0,-0.022900763358778626,265.0264388205785,164.37846913242527,-0.007633587786259542,0.007633587786259542,0.0,0.0009969130874810472,129.99568452424907,-0.07633587786259542,0.015267175572519083,0.1984732824427481,89.0,89.0,0.0,0.0,0.0,103.63,90.22,-5.0,-2.0,-1.0,
6.247,-13.443479994087811,160.71491796160197,-0.030534351145038167,0.5114503816793893,0.21374045801526717,187.7556669721841,144.311751763714,0.0,-0.0,-0.022900763358778626,265.0565430892383,164.3834975473548,-0.007633587786259542,0.007633587786259542,0.0,0.0009771316907266907,129.99568299750587,-0.07633587786259542,0.015267175572519083,0.1984732824427481,89.0,89.0,0.0,0.0,0.0,103.54,90.22,-5.0,0.0,-2.0,
6.286,-13.416298793921033,160.76147864086852,-0.030534351145038167,0.5114503816793893,0.21374045801526717,187.76306513302825,144.3166986294434,0.0,-0.0,-0.022900763358778626,265.08213171759905,164.38777170004494,-0.007633587786259542,0.007633587786259542,0.0,0.0009603175034854874,129.99568169977417,-0.07633587786259542,0.015267175572519083,0.1984732824427481,89.0,89.0,0.0,0.0,0.0,103.49,90.24,-5.0,0.0,-1.0,
6.325,-13.393194773779273,160.8010552182451,-0.030534351145038167,0.5114503816793893,0.21374045801526717,187.7693535697458,144.32090346531342,0.0,-0.0,-0.022900763358778626,265.10388205170574,164.39140472983155,-0.007633587786259542,0.007633587786259542,0.0,0.0008811399481472586,129.9957454821984,-0.06870229007633588,0.007633587786259542,0.20610687022900764,89.0,89.0,0.0,0.0,0.0,103.42,90.12,-6.0,0.0,-2.0,
6.364,-13.373556356658776,160.8346953090152,-0.030534351145038167,0.5114503816793893,0.21374045801526717,187.7746987409557,144.32447757580292,0.0,-0.0,-0.022900763358778626,265.1223698356964,164.39449280515015,-0.007633587786259542,0.007633587786259542,0.0,0.000813839026109764,129.99579969725897,-0.06870229007633588,0.007633587786259542,0.20610687022900764,89.0,89.0,0.0,0.0,0.0,103.38,90.1,-5.0,0.0,-1.0,
6.402,-13.356863702106354,160.86328938616975,-0.030534351145038167,0.5114503816793893,0.21374045801526717,187.77924213648413,144.327515569719,0.0,-0.0,-0.022900763358778626,265.1142012761089,164.37007916883232,-0.007633587786259542,-0.0,0.0,0.0007566332423778936,129.99584578006048,-0.06870229007633588,0.007633587786259542,0.20610687022900764,89.0,89.0,0.0,0.0,0.0,103.26,90.08,-4.0,0.0,0.0,
6.441,-13.342674945736796,160.88759435175115,-0.030534351145038167,0.5114503816793893,0.21374045801526717,187.7831040226833,144.33009786454767,0.0,-0.0,-0.022900763358778626,265.1057602328328,164.3550084557805,-0.007633587786259542,-0.0,0.0,0.0007080083262058038,129.99588495044173,-0.06870229007633588,0.007633587786259542,0.20610687022900764,89.0,89.0,0.0,0.0,0.0,103.25,90.06,-7.0,-1.0,-4.0,
6.48,-13.330614502822671,160.9082535724953,-0.030534351145038167,0.5114503816793893,0.21374045801526717,187.7712330320783,144.27371067735262,0.0,-0.0,0.0,265.0985853460481,164.34219834968647,-0.007633587786259542,-0.0,0.0,0.0006666771474595274,129.99591824526584,-0.06870229007633588,0.007633587786259542,0.20610687022900764,89.0,89.0,0.0,0.0,0.0,103.32,89.96,-5.0,-1.0,-2.0,
6.518,-13.320363126345665,160.92581391012786,-0.030534351145038167,0.5114503816793893,0.21374045801526717,187.76114269006405,144.22578156823684,0.0,-0.0,0.0,265.08538935004043,164.3478169166509,0.0,0.007633587786259542,0.0,0.0006315456455251925,129.99594654586633,-0.06870229007633588,0.007633587786259542,0.20610687022900764,89.0,89.0,0.0,0.0,0.0,103.45,89.89,-2.0,1.0,1.0,
6.557,-13.31164945634021,160.94074019711553,-0.030534351145038167,0.5114503816793893,0.21374045801526717,187.75256589935194,144.1850418254884,0.0,-0.0,0.0,265.0741727534339,164.35259269857067,0.0,0.007633587786259542,0.0,0.000666569365064214,129.99590571588055,-0.07633587786259542,0.015267175572519083,0.19083969465648856,89.0,89.0,0.0,0.0,0.0,103.43,90.0,-1.0,-1.0,6.0,
6.596,-13.304242836835572,160.95342754105505,-0.030534351145038167,0.5114503816793893,0.21374045801526717,187.74527562724666,144.15041304415226,0.0,-0.0,0.0,265.07173598855906,164.35862691500674,-0.007633587786259542,-0.0,0.0,0.0006963395266723823,129.99587101039265,-0.07633587786259542,0.015267175572519083,0.19083969465648856,89.0,89.0,0.0,0.0,0.0,103.55,90.13,0.0,9.0,6.0,
6.633,-13.29794721025663,160.96421178340364,-0.030534351145038167,0.5114503816793893,0.21374045801526717,187.73907889595716,144.12097858001653,0.0,-0.0,0.0,265.04525199306084,164.358025082722,-0.007633587786259542,0.007633587786259542,0.0,0.0007216441640393252,129.99584151072793,-0.07633587786259542,0.015267175572519083,0.19083969465648856,89.0,89.0,0.0,0.0,0.0,103.15,90.16,0.0,5.0,6.0,
6.672,-13.36988953160458,161.01646797491563,-0.022900763358778626,0.5114503816793893,0.21374045801526717,187.73381167436108,144.09595928550115,0.0,-0.0,0.0,265.0227405968874,164.35751352528,-0.007633587786259542,0.007633587786259542,0.0,0.0007431531058012268,129.99581643601292,-0.07633587786259542,0.015267175572519083,0.19083969465648856,89.0,89.0,0.0,0.0,0.0,102.63,90.33,0.0,14.0,5.0,
6.71,-13.431040504750337,161.06088573770083,-0.022900763358778626,0.5114503816793893,0.21374045801526717,188.03323980480667,144.69502298847692,0.022900763358778626,-0.015267175572519083,-0.061068702290076333,265.0036059101399,164.35707870145433,-0.007633587786259542,0.007633587786259542,0.0,0.0007614357062988432,129.99579512250517,-0.07633587786259542,0.015267175572519083,0.19083969465648856,89.0,89.0,0.0,0.0,0.0,102.56,90.18,-1.0,27.0,-3.0,
6.749,-13.48301883192423,161.09864083606823,-0.022900763358778626,0.5114503816793893,0.21374045801526717,188.28775371568543,145.20422713600632,0.022900763358778626,-0.015267175572519083,-0.061068702290076333,264.9873414264046,164.35670910120245,-0.007633587786259542,0.007633587786259542,0.0,0.000776975916721817,129.99577700602356,-0.07633587786259542,0.015267175572519083,0.19083969465648856,89.0,89.0,0.0,0.0,0.0,103.2,89.93,-2.0,61.0,-12.0,
6.789,-13.52720041002204,161.13073266968053,-0.022900763358778626,0.5114503816793893,0.21374045801526717,188.50409053993238,145.6370506614063,0.022900763358778626,-0.015267175572519083,-0.061068702290076333,264.9735166152296,164.35639494098837,-0.007633587786259542,0.007633587786259542,0.0,0.0007901850955813448,129.9957616070142,-0.07633587786259542,0.015267175572519083,0.19083969465648856,89.0,89.0,0.0,0.0,0.0,103.36,89.68,2.0,70.0,-10.0,
6.827,-13.564754751405177,161.15801072825099,-0.022900763358778626,0.5114503816793893,0.21374045801526717,188.6989810588062,145.45804804238475,0.09923664122137404,-0.061068702290076333,-0.07633587786259542,264.9617655257308,164.35612790480639,-0.007633587786259542,0.007633587786259542,0.0,0.0008014128976119435,129.99574851785624,-0.07633587786259542,0.015267175572519083,0.19083969465648856,89.0,89.0,0.0,0.0,0.0,103.3,90.1,7.0,32.0,-1.0,
6.866,-13.596675941580845,161.18119707803586,-0.022900763358778626,0.5114503816793893,0.21374045801526717,188.40299937063514,144.66515418364122,0.03816793893129771,-0.030534351145038167,-0.05343511450381679,264.95177709965685,164.35590092405175,-0.007633587786259542,0.007633587786259542,0.0,0.0008109565293379523,129.995737392072,-0.07633587786259542,0.015267175572519083,0.19083969465648856,89.0,89.0,0.0,0.0,0.0,103.39,90.89,3.0,44.0,0.0,
6.905,-13.623808953230162,161.200905475353,-0.022900763358778626,0.5114503816793893,0.21374045801526717,188.1514149356898,143.99119440370924,0.03816793893129771,-0.030534351145038167,-0.05343511450381679,265.44495237809673,164.22617837981053,-0.11450381679389313,0.09923664122137404,0.022900763358778626,0.0008190686163050598,129.99572793515534,-0.07633587786259542,0.015267175572519083,0.19083969465648856,89.0,89.0,0.0,0.0,0.0,103.93,91.55,1.0,64.0,-2.0,
6.944,-13.64687201313208,161.2176576130726,-0.022900763358778626,0.5114503816793893,0.21374045801526717,187.9375681659862,143.41832859076706,0.03816793893129771,-0.030534351145038167,-0.05343511450381679,212.2809626702534,164.09014502977206,-0.11450381679389313,0.030534351145038167,0.022900763358778626,0.0008259638902271011,129.99571989677622,-0.07633587786259542,0.015267175572519083,0.19083969465648856,89.0,89.0,0.0,0.0,0.0,104.98,91.42,-8.0,57.0,-10.0,
6.983,-13.666475614048712,161.23189693013424,-0.022900763358778626,0.5114503816793893,0.21374045801526717,187.75579841173817,142.9313926497662,0.03816793893129771,-0.030534351145038167,-0.05343511450381679,167.09157141858654,163.97451668223934,-0.11450381679389313,0.030534351145038167,0.022900763358778626,0.0008967103692440423,129.9958428351463,-0.061068702290076333,0.022900763358778626,0.2366412213740458,89.0,89.0,0.0,0.0,0.0,107.02,92.36,-6.0,77.0,-9.0,
7.022,-13.68313867482785,161.24400034963665,-0.022900763358778626,0.5114503816793893,0.21374045801526717,187.60129412062736,142.51749709991546,0.03816793893129771,-0.030534351145038167,-0.05343511450381679,182.28357019877382,163.97022095318624,-0.07633587786259542,-0.061068702290076333,0.15267175572519084,0.0009568448764084426,129.99594733276086,-0.061068702290076333,0.022900763358778626,0.2366412213740458,89.0,89.0,0.0,0.0,0.0,109.89,91.58,-17.0,54.0,-4.0,
7.06,-13.697302276490117,161.2542882562137,-0.022900763358778626,0.5114503816793893,0.21374045801526717,187.46996547318315,142.16568588254233,0.03816793893129771,-0.030534351145038167,-0.05343511450381679,195.19676916193305,163.9665695834911,-0.07633587786259542,-0.061068702290076333,0.15267175572519084,0.0010079592074981828,129.99603615573324,-0.061068702290076333,0.022900763358778626,0.2366412213740458,89.0,89.0,0.0,0.0,0.0,112.63,92.01,-20.0,61.0,-14.0,
7.099,-13.106953503073601,161.1133017002084,0.06870229007633588,0.366412213740458,0.25190839694656486,187.35833612285558,141.86664634777517,0.03816793893129771,-0.030534351145038167,-0.05343511450381679,206.17298828061837,163.9634659192502,-0.07633587786259542,-0.061068702290076333,0.15267175572519084,0.0010514063889244618,129.99611165525977,-0.061068702290076333,0.022900763358778626,0.2366412213740458,89.0,89.0,0.0,0.0,0.0,115.57,90.91,-17.0,13.0,8.0,
7.138,-12.605157045669563,160.9934631276039,0.06870229007633588,0.366412213740458,0.25190839694656486,185.89822497628387,139.21829308646238,0.1297709923664122,0.13740458015267176,-0.06870229007633588,215.5027745315009,163.96082780464548,-0.07633587786259542,-0.061068702290076333,0.15267175572519084,0.001088336493136799,129.99617582985732,-0.061068702290076333,0.022900763358778626,0.2366412213740458,89.0,89.0,0.0,0.0,0.0,116.54,91.22,-7.0,-34.0,9.0,
7.177,-12.17863005687613,160.89160034089005,0.06870229007633588,0.366412213740458,0.25190839694656486,183.39701450221577,135.2970777205729,0.061068702290076333,0.13740458015267176,0.22137404580152673,223.43309284475106,163.95858540723145,-0.07633587786259542,-0.061068702290076333,0.15267175572519084,0.0011197270817172858,129.99623037826524,-0.061068702290076333,0.022900763358778626,0.2366412213740458,89.0,89.0,0.0,0.0,0.0,117.57,91.1,-13.0,-2.0,21.0,
7.216,-11.816082116401713,160.8050169721833,0.06870229007633588,0.366412213740458,0.25190839694656486,183.04752109318122,134.93275396024765,0.05343511450381679,0.22900763358778625,-0.06870229007633588,230.17386341101366,163.95667936942954,-0.07633587786259542,-0.061068702290076333,0.15267175572519084,0.0011464090820106994,129.99627674441197,-0.061068702290076333,0.022900763358778626,0.2366412213740458,89.0,89.0,0.0,0.0,0.0,119.27,90.12,-12.0,9.0,1.0,
7.255,-11.507916366998458,160.73142110878254,0.06870229007633588,0.366412213740458,0.25190839694656486,182.75045169550185,134.6230787639712,0.05343511450381679,0.22900763358778625,-0.06870229007633588,235.31203250688404,163.71899494356913,0.0,-0.6412213740458015,0.19083969465648856,0.001169088782260101,129.9963161556367,-0.061068702290076333,0.022900763358778626,0.2366412213740458,89.0,89.0,0.0,0.0,0.0,120.96,90.26,-5.0,5.0,12.0,
7.293,-11.245975480005692,160.6688646248919,0.06870229007633588,0.366412213740458,0.25190839694656486,183.68375000631747,135.9410821489698,0.07633587786259542,0.5801526717557252,-0.22900763358778625,239.67947623837387,163.51696318158778,0.0,-0.6412213740458015,0.19083969465648856,0.0011883665274720924,129.9963496551777,-0.061068702290076333,0.022900763358778626,0.2366412213740458,89.0,89.0,0.0,0.0,0.0,122.66,89.4,-12.0,3.0,9.0,
7.332,-12.803114932535912,160.51467150422084,0.15267175572519084,-0.3053435114503817,0.40458015267175573,184.47705357051075,137.0613850262186,0.07633587786259542,0.5801526717557252,-0.22900763358778625,243.3918034101402,163.34523618390364,0.0,-0.6412213740458015,0.19083969465648856,0.001204752610902285,129.99637812978756,-0.061068702290076333,0.022900763358778626,0.2366412213740458,89.0,89.0,0.0,0.0,0.0,123.29,88.36,-12.0,-39.0,-3.0,
7.372,-14.1266834671866,160.38360735165045,0.15267175572519084,-0.3053435114503817,0.40458015267175573,185.15136160007503,138.01364247188008,0.07633587786259542,0.5801526717557252,-0.22900763358778625,243.1325441971575,163.41220984095816,0.0,-0.5114503816793893,0.25190839694656486,0.001218680781817949,129.99640233320594,-0.061068702290076333,0.022900763358778626,0.2366412213740458,89.0,89.0,0.0,0.0,0.0,122.8,88.53,-9.0,-57.0,-7.0,
7.411,-15.251716721639685,160.2722028219656,0.15267175572519084,-0.3053435114503817,0.40458015267175573,185.7245234252047,138.82306130069236,0.07633587786259542,0.5801526717557252,-0.22900763358778625,243.3060294553678,163.2255616231978,-0.06870229007633588,-0.25190839694656486,0.15267175572519084,0.0012305197270962632,129.99642290611155,-0.061068702290076333,0.022900763358778626,0.2366412213740458,89.0,89.0,0.0,0.0,0.0,122.45,88.39,-18.0,-30.0,-10.0,
7.451,-18.21666765176389,160.66979272904788,0.26717557251908397,-0.8473282442748091,0.26717557251908397,186.2117109765649,139.5110673051828,0.07633587786259542,0.5801526717557252,-0.22900763358778625,243.45349192484656,163.0669106381015,-0.06870229007633588,-0.25190839694656486,0.15267175572519084,0.0012405828305828302,129.99644039308134,-0.061068702290076333,0.022900763358778626,0.2366412213740458,89.0,89.0,0.0,0.0,0.0,122.13,88.32,-12.0,-45.0,-5.0,
7.49,-20.73687594236946,161.00774415006782,0.26717557251908397,-0.8473282442748091,0.26717557251908397,190.45799496949553,141.9310613586755,-0.022900763358778626,1.3893129770992367,-0.1450381679389313,243.5788350239035,162.9320573007696,-0.06870229007633588,-0.25190839694656486,0.15267175572519084,0.0012491364685464123,129.99645525700566,-0.061068702290076333,0.022900763358778626,0.2366412213740458,89.0,89.0,0.0,0.0,0.0,121.24,89.1,-12.0,-59.0,0.0,
7.529,-22.879052989384196,161.29500285793475,0.26717557251908397,-0.8473282442748091,0.26717557251908397,194.06733636348656,143.98805630414432,-0.022900763358778626,1.3893129770992367,-0.1450381679389313,243.68537665810192,162.8174319640375,-0.06870229007633588,-0.25190839694656486,0.15267175572519084,-0.0007550433208639325,129.99646789134135,-0.061068702290076333,-0.21374045801526717,0.2824427480916031,89.0,89.0,0.0,0.0,0.0,120.1,88.61,-16.0,-66.0,-5.0,
7.568,-24.69990347934672,161.53917275962164,0.26717557251908397,-0.8473282442748091,0.26717557251908397,197.13527654837893,145.7365020077928,-0.022900763358778626,1.3893129770992367,-0.1450381679389313,243.77593704717054,162.7200004278152,-0.06870229007633588,-0.25190839694656486,0.15267175572519084,-0.003950962554076466,129.99615420304576,-0.09923664122137404,-0.3893129770992366,0.3282442748091603,89.0,89.0,0.0,0.0,0.0,118.74,87.7,-10.0,-99.0,-4.0,
7.608,-26.247626395814866,161.7467171760555,0.26717557251908397,-0.8473282442748091,0.26717557251908397,199.74302570553746,147.22268085589403,-0.022900763358778626,1.3893129770992367,-0.1450381679389313,243.05381036789453,162.74229202392416,0.09923664122137404,0.42748091603053434,-0.03816793893129771,-0.006667493902307119,129.9958875679945,-0.09923664122137404,-0.3893129770992366,0.3282442748091603,89.0,89.0,0.0,0.0,0.0,116.78,87.32,-9.0,-73.0,15.0,
7.648,-31.50698498739905,162.90855322034616,0.25190839694656486,-1.3358778625954197,0.21374045801526717,201.9596124891222,148.48593287678005,-0.022900763358778626,1.3893129770992367,-0.1450381679389313,242.4400026905099,162.76123988061678,0.09923664122137404,0.42748091603053434,-0.03816793893129771,-0.008976545548303174,129.99566092820092,-0.09923664122137404,-0.3893129770992366,0.3282442748091603,89.0,89.0,0.0,0.0,0.0,115.69,86.21,-1.0,-64.0,0.0,
7.687,-35.97743979024561,163.89611385799324,0.25190839694656486,-1.3358778625954197,0.21374045801526717,208.34194408956506,150.29592622100205,0.007633587786259542,1.9083969465648856,-0.35877862595419846,241.91826616473298,162.7773455588055,0.09923664122137404,0.42748091603053434,-0.03816793893129771,-0.01093923944739982,129.9954682843764,-0.09923664122137404,-0.3893129770992366,0.3282442748091603,89.0,89.0,0.0,0.0,0.0,113.86,86.2,-14.0,-74.0,4.0,
7.726,-39.777326372665186,164.73554039999325,0.25190839694656486,-1.3358778625954197,0.21374045801526717,213.76692594994148,151.83442056359075,0.007633587786259542,1.9083969465648856,-0.35877862595419846,241.4747901178226,162.79103538526593,0.09923664122137404,0.42748091603053434,-0.03816793893129771,-0.01546249109369304,129.99348774323244,-0.31297709923664124,-0.7251908396946565,0.7404580152671756,89.0,89.0,0.0,0.0,0.0,113.35,87.2,-17.0,-68.0,-6.0,
7.766,-43.00722996772183,165.44905296069325,0.25190839694656486,-1.3358778625954197,0.21374045801526717,218.37816053126141,153.14214075479114,0.007633587786259542,1.9083969465648856,-0.35877862595419846,245.2794760307875,163.2434732911827,-0.015267175572519083,0.8931297709923665,-0.26717557251908397,-0.019307254993042273,129.99180428326008,-0.31297709923664124,-0.7251908396946565,0.7404580152671756,89.0,89.0,0.0,0.0,0.0,111.24,86.62,-22.0,-48.0,6.0,
7.806,-45.75264802351997,166.05553863728827,0.25190839694656486,-1.3358778625954197,0.21374045801526717,222.2977099253834,154.25370291731147,0.007633587786259542,1.9083969465648856,-0.35877862595419846,248.38049322051333,163.74001716577425,-0.015267175572519083,0.9007633587786259,-0.19083969465648856,-0.022575304307489122,129.99037334228356,-0.31297709923664124,-0.7251908396946565,0.7404580152671756,89.0,89.0,0.0,0.0,0.0,110.3,85.9,-19.0,-84.0,0.0,
7.845,-48.08625337094839,166.57105146239402,0.25190839694656486,-1.3358778625954197,0.21374045801526717,226.5005403338603,154.9351613867555,0.08396946564885496,1.4351145038167938,-0.2595419847328244,251.0163578317803,164.16207945917705,-0.015267175572519083,0.9007633587786259,-0.19083969465648856,-0.025353146224768943,129.9891570424535,-0.31297709923664124,-0.7251908396946565,0.7404580152671756,89.0,89.0,0.0,0.0,0.0,108.63,86.52,-19.0,-27.0,-6.0,
7.885,-50.06981791626255,167.00923736373392,0.25190839694656486,-1.3358778625954197,0.21374045801526717,230.07294618106567,155.51440108578294,0.08396946564885496,1.4351145038167938,-0.2595419847328244,253.25684275135723,164.52083240856945,-0.015267175572519083,0.9007633587786259,-0.19083969465648856,26.975270451821967,129.98838272958272,-0.2824427480916031,-0.37404580152671757,0.5114503816793893,89.0,89.0,0.0,0.0,0.0,107.76,86.04,-13.0,5.0,21.0,
7.924,-51.755847779779586,167.3816953798728,0.25190839694656486,-1.3358778625954197,0.21374045801526717,233.25402261271728,156.04647336084543,0.07633587786259542,0.6641221374045801,-0.9618320610687023,255.16125493299762,164.82577241555296,-0.015267175572519083,0.9007633587786259,-0.19083969465648856,49.92580051016169,129.98772456364253,-0.2824427480916031,-0.37404580152671757,0.5114503816793893,89.0,89.0,0.0,0.0,0.0,104.86,84.46,7.0,-63.0,29.0,
7.964,-53.18897316376906,167.6982846935909,0.25190839694656486,-1.3358778625954197,0.21374045801526717,235.95793757962116,156.49873479464856,0.07633587786259542,0.6641221374045801,-0.9618320610687023,256.78000528739193,165.08497142148894,-0.015267175572519083,0.9007633587786259,-0.19083969465648856,69.43375105975045,129.98716512259338,-0.2824427480916031,-0.37404580152671757,0.5114503816793893,89.0,89.0,0.0,0.0,0.0,101.28,84.34,3.0,-61.0,11.0,
8.003,-54.40712974016012,167.96738561025126,0.25190839694656486,-1.3358778625954197,0.21374045801526717,238.25626530148946,156.8831570133812,0.07633587786259542,0.6641221374045801,-0.9618320610687023,258.15594308862705,165.30529057653453,-0.015267175572519083,0.9007633587786259,-0.19083969465648856,86.0155090269009,129.9866895977016,-0.2824427480916031,-0.37404580152671757,0.5114503816793893,89.0,89.0,0.0,0.0,0.0,97.13,83.4,-9.0,-88.0,18.0,
8.043,-55.44256283009252,168.19612138941255,0.25190839694656486,-1.3358778625954197,0.21374045801526717,240.20984386507752,157.20991589930398,0.07633587786259542,0.6641221374045801,-0.9618320610687023,259.3254902196769,165.49256185832328,-0.015267175572519083,0.9007633587786259,-0.19083969465648856,73.11551853530236,129.98777776795578,-0.10687022900763359,0.2748091603053435,-0.015267175572519083,89.0,89.0,0.0,0.0,0.0,94.23,83.15,0.0,-3.0,-12.0,
8.081,-7.219766803020647,168.1334566588202,0.015267175572519083,0.6183206106870229,-0.6412213740458015,241.87038564412737,157.48766095233833,0.07633587786259542,0.6641221374045801,-0.9618320610687023,260.3196052810693,165.65174244784373,-0.015267175572519083,0.9007633587786259,-0.19083969465648856,62.1505266174436,129.98870271267185,-0.10687022900763359,0.2748091603053435,-0.015267175572519083,89.0,89.0,0.0,0.0,0.0,93.41,83.98,1.0,59.0,-40.0,
8.120000000000001,33.76960981999044,168.08019163781668,0.015267175572519083,0.6183206106870229,-0.6412213740458015,243.28184615631972,157.72374424741753,0.07633587786259542,0.6641221374045801,-0.9618320610687023,261.1646030832528,165.7870459489361,-0.015267175572519083,0.9007633587786259,-0.19083969465648856,52.83041325825603,129.98981334316142,-0.06870229007633588,0.2900763358778626,0.33587786259541985,89.0,89.0,0.0,0.0,0.0,93.5,85.11,-14.0,41.0,-19.0,
8.16,68.61057994954987,168.0349163699637,0.015267175572519083,0.6183206106870229,-0.6412213740458015,244.48158759168322,157.92441504823483,0.07633587786259542,0.6641221374045801,-0.9618320610687023,261.8828512151088,165.90205392486465,-0.015267175572519083,0.9007633587786259,-0.19083969465648856,44.908316902946595,129.99075737907754,-0.06870229007633588,0.2900763358778626,0.33587786259541985,89.0,89.0,0.0,0.0,0.0,94.08,85.09,-4.0,30.0,-2.0,
8.199,98.22540455967538,167.99643239228865,0.015267175572519083,0.6183206106870229,-0.6412213740458015,245.5013678117422,158.09498522892954,0.07633587786259542,0.6641221374045801,-0.9618320610687023,262.1436035858428,165.91338977397774,0.12213740458015267,0.1984732824427481,0.2595419847328244,38.174535000933574,129.99155980960626,-0.06870229007633588,0.2900763358778626,0.33587786259541985,89.0,89.0,0.0,0.0,0.0,93.46,84.97,6.0,-10.0,0.0,
8.238,123.39800547828207,167.96372101126488,0.015267175572519083,0.6183206106870229,-0.6412213740458015,246.36818099879233,158.23996988252006,0.07633587786259542,0.6641221374045801,-0.9618320610687023,210.73960822578036,165.9377820673442,0.022900763358778626,0.11450381679389313,-0.015267175572519083,32.4508203842225,129.99224187555566,-0.06870229007633588,0.2900763358778626,0.33587786259541985,89.0,89.0,0.0,0.0,0.0,92.43,85.42,5.0,-22.0,2.0,
8.277,91.50240274347354,144.35230413252177,-0.015267175572519083,0.3969465648854962,0.21374045801526717,247.10497220778495,158.363206838072,0.07633587786259542,0.6641221374045801,-0.9618320610687023,167.0462121697273,165.95851551670566,0.022900763358778626,0.11450381679389313,-0.015267175572519083,27.58566296001809,129.99282163161266,-0.06870229007633588,0.2900763358778626,0.33587786259541985,89.0,89.0,0.0,0.0,0.0,91.68,85.68,1.0,-9.0,7.0,
8.316,117.0736208707102,124.41045036877406,-0.015267175572519083,0.44274809160305345,0.2748091603053435,247.73124473542867,158.46795825029113,0.07633587786259542,0.6641221374045801,-0.9618320610687023,129.90682552208222,165.97613894866294,0.022900763358778626,0.11450381679389313,-0.015267175572519083,23.450279149444338,129.9933144242611,-0.06870229007633588,0.2900763358778626,0.33587786259541985,89.0,89.0,0.0,0.0,0.0,91.13,85.9,-4.0,8.0,5.0,
8.355,138.68775976858754,107.32796951146393,0.030534351145038167,0.44274809160305345,0.26717557251908397,248.26357638392585,158.55699695067742,0.07633587786259542,0.6641221374045801,-0.9618320610687023,98.3383468715839,165.99111886582662,0.022900763358778626,0.11450381679389313,-0.015267175572519083,19.93520291045665,129.99373329801227,-0.06870229007633588,0.2900763358778626,0.33587786259541985,89.0,89.0,0.0,0.0,0.0,91.93,86.08,-14.0,11.0,7.0,
8.395,156.78671118220717,116.66648579615,0.03816793893129771,0.4198473282442748,0.2748091603053435,248.71605828514845,158.63267984600574,0.07633587786259542,0.6641221374045801,-0.9618320610687023,71.50514001866031,166.00385179541573,0.022900763358778626,0.11450381679389313,-0.015267175572519083,16.947388107317114,129.99408934070078,-0.06870229007633588,0.2900763358778626,0.33587786259541985,89.0,89.0,0.0,0.0,0.0,91.87,86.19,-13.0,6.0,-4.0,
8.434,172.48212359747816,124.66651294043949,0.0,0.4351145038167939,0.20610687022900764,249.10066790118765,158.69701030703482,0.07633587786259542,0.6641221374045801,-0.9618320610687023,48.69691419367527,166.01467478556648,0.022900763358778626,0.11450381679389313,-0.015267175572519083,14.407745524648508,129.994391976986,-0.06870229007633588,0.2900763358778626,0.33587786259541985,89.0,89.0,0.0,0.0,0.0,91.47,85.66,-9.0,-8.0,1.0,
8.473,185.8232241504585,131.46653601308554,0.0,0.4351145038167939,0.20610687022900764,249.42758607482097,158.75169119890953,0.07633587786259542,0.6641221374045801,-0.9618320610687023,29.30992224243799,166.02387432719462,0.022900763358778626,0.11450381679389313,-0.015267175572519083,12.247167649990882,129.99497364530936,-0.030534351145038167,0.06870229007633588,0.2366412213740458,89.0,89.0,0.0,0.0,0.0,90.94,85.31,-5.0,-10.0,0.0,
8.511,197.16315962049174,137.2465556248347,0.0,0.4351145038167939,0.20610687022900764,249.7054665224093,158.79816995700304,0.07633587786259542,0.6641221374045801,-0.9618320610687023,12.8309790838863,166.03169393757855,0.022900763358778626,0.11450381679389313,-0.015267175572519083,10.411195540501366,129.99566271987277,-0.007633587786259542,0.1297709923664122,0.15267175572519084,89.0,89.0,0.0,0.0,0.0,90.68,85.19,-1.0,-9.0,-7.0,
8.55,206.80210477002004,142.1595722948215,0.0,0.4351145038167939,0.20610687022900764,249.94166490285937,158.83767690138254,0.07633587786259542,0.6641221374045801,-0.9618320610687023,-1.7163716391346888,165.82525634918161,-0.015267175572519083,-0.0,0.030534351145038167,8.850619247435276,129.99624843325168,-0.007633587786259542,0.1297709923664122,0.15267175572519084,89.0,89.0,0.0,0.0,0.0,90.81,85.31,4.0,-5.0,-9.0,
8.589,214.99520814711906,146.33563646431026,0.0,0.4351145038167939,0.20610687022900764,250.14243352624194,158.87125780410508,0.07633587786259542,0.6641221374045801,-0.9618320610687023,-14.822638627573108,165.7580792931983,-0.007633587786259542,-0.015267175572519083,0.07633587786259542,7.524129398329101,129.99674628962373,-0.007633587786259542,0.1297709923664122,0.15267175572519084,89.0,89.0,0.0,0.0,0.0,91.1,85.68,7.0,4.0,-7.0,
8.627,221.95934601765322,149.8852910083757,0.0,0.4351145038167939,0.20610687022900764,250.3130868561171,158.89980157141926,0.07633587786259542,0.6641221374045801,-0.9618320610687023,-25.962965567745762,165.70097879561249,-0.007633587786259542,-0.015267175572519083,0.07633587786259542,6.394926003688089,129.99671526906667,-0.061068702290076333,-0.06870229007633588,0.183206106870229,89.0,89.0,0.0,0.0,0.0,91.38,86.33,8.0,-6.0,2.0,
8.666,227.87886320760725,152.90249737083133,0.0,0.4351145038167939,0.20610687022900764,250.458142186511,158.9240637736363,0.07633587786259542,0.6641221374045801,-0.9618320610687023,-35.432243466892515,165.65244337266455,-0.007633587786259542,-0.015267175572519083,0.07633587786259542,5.435103118243228,129.9966889015932,-0.061068702290076333,-0.06870229007633588,0.183206106870229,89.0,89.0,0.0,0.0,0.0,90.87,87.45,12.0,4.0,7.0,
8.704,233.24213828294927,131.61611776472952,-0.030534351145038167,0.5725190839694656,0.42748091603053434,250.5814392173458,158.9446866455208,0.07633587786259542,0.6641221374045801,-0.9618320610687023,-43.48112968116726,165.6111882631588,-0.007633587786259542,-0.015267175572519083,0.07633587786259542,4.619253665615097,129.99666648924074,-0.061068702290076333,-0.06870229007633588,0.183206106870229,89.0,89.0,0.0,0.0,0.0,89.98,88.1,8.0,-5.0,2.0,
8.743,237.80092209698998,113.52269509954299,-0.030534351145038167,0.5725190839694656,0.42748091603053434,250.6862416935554,158.96221608662262,0.07633587786259542,0.6641221374045801,-0.9618320610687023,-50.3226829633008,165.5761214200789,-0.007633587786259542,-0.015267175572519083,0.07633587786259542,3.925781630881185,129.99664743874115,-0.061068702290076333,-0.06870229007633588,0.183206106870229,89.0,89.0,0.0,0.0,0.0,88.96,88.4,9.0,14.0,-7.0,
8.782,241.67588833892458,98.14328583413443,-0.030534351145038167,0.5725190839694656,0.42748091603053434,250.77532379833355,158.97711611155916,0.07633587786259542,0.6641221374045801,-0.9618320610687023,-56.138003253114306,165.54631460346098,-0.007633587786259542,-0.015267175572519083,0.07633587786259542,3.3368494853268253,129.99831826871727,0.13740458015267176,-0.007633587786259542,0.16793893129770993,89.0,89.0,0.0,0.0,0.0,89.39,89.25,-10.0,27.0,-17.0,
8.821,244.969609644569,85.07078795853715,-0.030534351145038167,0.5725190839694656,0.42748091603053434,250.85104358739497,158.9897811327552,0.07633587786259542,0.6641221374045801,-0.9618320610687023,-7.293486072499363,165.58512227438317,-0.09923664122137404,-0.07633587786259542,-0.03816793893129771,2.83625716160562,129.999738474197,0.13740458015267176,-0.007633587786259542,0.16793893129770993,89.0,89.0,0.0,0.0,0.0,90.09,88.1,-38.0,67.0,2.0,
8.86,247.76927275436677,73.95916476427946,-0.030534351145038167,0.5725190839694656,0.42748091603053434,250.9154054080972,159.00054640077187,0.07633587786259542,0.6641221374045801,-0.9618320610687023,34.22435353102334,165.61810879466702,-0.09923664122137404,-0.07633587786259542,-0.03816793893129771,2.410818571938778,130.00081587786235,0.12213740458015267,-0.0,0.7633587786259542,89.0,89.0,0.0,0.0,0.0,91.55,86.55,-22.0,73.0,12.0,
8.899,250.14898639769487,64.51428504916043,-0.030534351145038167,0.5725190839694656,0.42748091603053434,253.52699497944704,159.3623518970586,0.06870229007633588,0.007633587786259542,0.2366412213740458,69.51451719401763,165.6461473369083,-0.09923664122137404,-0.07633587786259542,-0.03816793893129771,2.0491957707219624,130.0017316709779,0.12213740458015267,-0.0,0.7633587786259542,89.0,89.0,0.0,0.0,0.0,91.99,84.82,-15.0,25.0,31.0,
8.937,252.17174299452375,56.48613729130926,-0.030534351145038167,0.5725190839694656,0.42748091603053434,255.7468461150944,159.6698865689023,0.06870229007633588,0.007633587786259542,0.2366412213740458,47.43444542866093,165.5308578776203,-0.0916030534351145,-0.030534351145038167,-0.0916030534351145,1.7418163896876693,130.00251009512613,0.12213740458015267,-0.0,0.7633587786259542,89.0,89.0,0.0,0.0,0.0,90.99,83.06,-8.0,2.0,27.0,
8.975,253.8910861018283,49.66221169713577,-0.030534351145038167,0.5725190839694656,0.42748091603053434,257.63371958039465,159.93129103996947,0.06870229007633588,0.007633587786259542,0.2366412213740458,29.031075711586944,165.1851201175951,-0.11450381679389313,-0.3053435114503817,0.16030534351145037,1.48054391580852,130.00317175565215,0.12213740458015267,-0.0,0.7633587786259542,89.0,89.0,0.0,0.0,0.0,90.04,81.23,-2.0,-16.0,38.0,
9.014,202.96829638721056,67.59918744071227,-0.22900763358778625,1.3740458015267176,-0.2824427480916031,259.2375620258999,160.15348484037654,0.06870229007633588,0.007633587786259542,0.2366412213740458,13.388211452074055,164.89124302157367,-0.11450381679389313,-0.3053435114503817,0.16030534351145037,1.2584623130112433,130.00373416709925,0.12213740458015267,-0.0,0.7633587786259542,89.0,89.0,0.0,0.0,0.0,88.14,77.26,-21.0,-171.0,87.0,
9.053,212.89194040305907,82.12416714818399,-0.2824427480916031,1.3206106870229009,-0.3511450381679389,260.6008281045793,160.34234957072255,0.06870229007633588,0.007633587786259542,0.2366412213740458,0.09177683148809912,164.64144748995548,-0.11450381679389313,-0.3053435114503817,0.16030534351145037,1.0696929506335582,130.00421221682927,0.12213740458015267,-0.0,0.7633587786259542,89.0,89.0,0.0,0.0,0.0,86.76,77.46,1.0,-24.0,7.0,
9.092,220.2599578419017,94.91528746215864,-0.10687022900763359,1.1221374045801527,-0.015267175572519083,261.75960427145685,160.50288459151668,0.06870229007633588,0.007633587786259542,0.2366412213740458,-11.210192596009962,164.42912128808,-0.11450381679389313,-0.3053435114503817,0.16030534351145037,0.9092389926125258,130.0046185590998,0.12213740458015267,-0.0,0.7633587786259542,89.0,89.0,0.0,0.0,0.0,86.86,78.74,30.0,89.0,-44.0,
9.131,226.52277266491794,105.78773972903711,-0.10687022900763359,1.1221374045801527,-0.015267175572519083,261.02601734881387,160.90460212014725,-0.030534351145038167,-0.015267175572519083,0.04580152671755725,-20.816866609383315,164.24864401648585,-0.11450381679389313,-0.3053435114503817,0.16030534351145037,0.7728531282946484,130.00496395002978,0.12213740458015267,-0.0,0.7633587786259542,89.0,89.0,0.0,0.0,0.0,88.63,78.77,-9.0,12.0,8.0,
9.17,231.84616526448173,115.0293241558838,-0.10687022900763359,1.1221374045801527,-0.015267175572519083,260.4024684645674,161.24606201948322,-0.030534351145038167,-0.015267175572519083,0.04580152671755725,19.830202098982543,164.33389359702684,0.16030534351145037,0.1450381679389313,-0.5954198473282443,0.6569251436244525,130.00525753232023,0.12213740458015267,-0.0,0.7633587786259542,89.0,89.0,0.0,0.0,0.0,88.47,77.94,-6.0,2.0,-34.0,
9.209,236.37104897411095,122.88467091870349,-0.10687022900763359,1.1221374045801527,-0.015267175572519083,259.8724519129579,161.5363029339188,-0.030534351145038167,-0.015267175572519083,0.04580152671755725,4.795171790311093,162.87641322997544,0.12213740458015267,0.2748091603053435,-0.648854961832061,0.5583863566547861,130.0055070772671,0.12213740458015267,-0.0,0.7633587786259542,89.0,89.0,0.0,0.0,0.0,89.34,80.05,10.0,-20.0,-37.0,
9.248,190.49889638436528,128.94139623832345,-0.2824427480916031,0.33587786259541985,0.6564885496183206,259.4219378440898,161.78300771118904,-0.030534351145038167,-0.015267175572519083,0.04580152671755725,-7.98460397205964,161.63755491798176,0.12213740458015267,0.2748091603053435,-0.648854961832061,0.4746283877305696,130.00571919047195,0.12213740458015267,-0.0,0.7633587786259542,89.0,89.0,0.0,0.0,0.0,89.56,82.42,6.0,-22.0,-22.0,
9.288,200.00886286085822,112.21390076125508,0.0,0.366412213740458,0.9923664122137404,259.0390008855519,161.99270677186874,-0.030534351145038167,-0.015267175572519083,0.04580152671755725,-18.84741337007476,160.58452535278713,0.12213740458015267,0.2748091603053435,-0.648854961832061,0.40343411414498553,130.00589948669608,0.12213740458015267,-0.0,0.7633587786259542,89.0,89.0,0.0,0.0,0.0,89.73,83.72,0.0,-8.0,-29.0,
9.327,208.98510254237922,97.37292152032171,0.08396946564885496,0.16793893129770993,-0.030534351145038167,258.7135044707947,162.17095097344648,-0.030534351145038167,-0.015267175572519083,0.04580152671755725,-28.080801358387617,159.68945022237168,0.12213740458015267,0.2748091603053435,-0.648854961832061,0.3429189815972391,130.00605273848657,0.12213740458015267,-0.0,0.7633587786259542,89.0,89.0,0.0,0.0,0.0,89.01,85.03,8.0,-3.0,-27.0,
9.366,217.6522235874056,107.9790258471965,0.13740458015267176,-0.06870229007633588,-0.32061068702290074,258.4368325182511,162.32245854478757,-0.030534351145038167,-0.015267175572519083,0.04580152671755725,-35.929181148453544,158.92863636151856,0.12213740458015267,0.2748091603053435,-0.648854961832061,0.2914811189316546,130.00618300250852,0.12213740458015267,-0.0,0.7633587786259542,89.0,89.0,0.0,0.0,0.0,88.93,86.96,0.0,-19.0,-20.0,
9.403,225.019276475678,116.99421452504006,0.13740458015267176,-0.06870229007633588,-0.32061068702290074,258.20166135858904,162.4512399804275,-0.030534351145038167,-0.015267175572519083,0.04580152671755725,-42.678331869502486,159.41565771912238,-0.1450381679389313,0.15267175572519084,-0.16793893129770993,0.24775893566590781,130.00629372692717,0.12213740458015267,-0.0,0.7633587786259542,89.0,89.0,0.0,0.0,0.0,89.59,87.32,-18.0,5.0,0.0,
9.442,231.28127143070955,124.6571249012071,0.13740458015267176,-0.06870229007633588,-0.32061068702290074,258.5282987787923,162.6213390830172,-0.06870229007633588,-0.03816793893129771,0.7175572519083969,-48.41510998239409,159.82962587308563,-0.1450381679389313,0.15267175572519084,-0.16793893129770993,0.21059507989002302,130.006387842683,0.12213740458015267,-0.0,0.7633587786259542,89.0,89.0,0.0,0.0,0.0,90.65,87.51,-15.0,4.0,-1.0,
9.481,236.60396714248637,131.17059872094907,0.13740458015267176,-0.06870229007633588,-0.32061068702290074,258.80594058596506,162.76592332021846,-0.06870229007633588,-0.03816793893129771,0.7175572519083969,-52.68758095182371,160.82661895318213,-0.46564885496183206,0.015267175572519083,-0.4198473282442748,0.17900580248052095,130.00646784107548,0.12213740458015267,-0.0,0.7633587786259542,89.0,89.0,0.0,0.0,0.0,89.97,87.13,-7.0,-17.0,11.0,
9.52,189.1006370131344,136.8483249709833,-0.17557251908396945,0.20610687022900764,-0.16030534351145037,259.0419361220619,162.8888199218395,-0.06870229007633588,-0.03816793893129771,0.7175572519083969,-56.31918127583889,161.67406307126416,-0.46564885496183206,0.015267175572519083,-0.4198473282442748,0.15215491668244419,130.00653583970907,0.12213740458015267,-0.0,0.7633587786259542,89.0,89.0,0.0,0.0,0.0,88.7,86.1,1.0,-56.0,12.0,
9.559,149.52907570897855,117.95658767815117,-0.17557251908396945,0.4580152671755725,-0.4351145038167939,259.2425323277442,162.9932820332174,-0.06870229007633588,-0.03816793893129771,0.7175572519083969,-59.406041551251796,162.3943905716339,-0.46564885496183206,0.015267175572519083,-0.4198473282442748,0.12933166375407892,130.00659363854766,0.12213740458015267,-0.0,0.7633587786259542,89.0,89.0,0.0,0.0,0.0,87.89,85.46,-5.0,-34.0,3.0,
9.599,114.72697320418902,102.02030374240229,-0.10687022900763359,0.6030534351145038,-0.44274809160305345,259.41303910257415,163.08207482788862,-0.06870229007633588,-0.03816793893129771,0.7175572519083969,-62.029872785352765,163.00666894694817,-0.46564885496183206,0.015267175572519083,-0.4198473282442748,0.10993189876496846,130.00664276756044,0.12213740458015267,-0.0,0.7633587786259542,89.0,89.0,0.0,0.0,0.0,88.01,85.38,-5.0,34.0,-36.0,
9.638,135.32936797915679,111.91155495796671,-0.1297709923664122,0.48091603053435117,-0.3816793893129771,259.5579698611796,163.15754870335917,-0.06870229007633588,-0.03816793893129771,0.7175572519083969,-64.26012933433859,163.5271055659653,-0.46564885496183206,0.015267175572519083,-0.4198473282442748,0.09344209852422457,130.0066845272213,0.12213740458015267,-0.0,0.7633587786259542,89.0,89.0,0.0,0.0,0.0,88.7,85.93,-20.0,34.0,0.0,
9.677,154.19912451384656,120.26646170739714,-0.10687022900763359,0.32061068702290074,-0.11450381679389313,259.6811610059942,163.22170149750912,-0.06870229007633588,-0.03816793893129771,0.7175572519083969,-66.15584740097653,163.96947669212983,-0.46564885496183206,0.015267175572519083,-0.4198473282442748,0.07942576831959226,130.00672002293302,0.12213740458015267,-0.0,0.7633587786259542,89.0,89.0,0.0,0.0,0.0,89.1,85.48,-10.0,0.0,9.0,
9.716,170.92914527573762,127.63066449380186,-0.05343511450381679,0.3053435114503817,0.44274809160305345,259.7858734790867,163.27623137253659,-0.06870229007633588,-0.03816793893129771,0.7175572519083969,-67.76720775761878,164.3454921493697,-0.46564885496183206,0.015267175572519083,-0.4198473282442748,0.0675118876456548,130.00675019428797,0.12213740458015267,-0.0,0.7633587786259542,89.0,89.0,0.0,0.0,0.0,89.13,85.09,-4.0,-12.0,3.0,
9.755,184.65828749911955,110.00143582420975,0.0,0.37404580152671757,0.5725190839694656,259.87487908121534,163.32258176630992,-0.06870229007633588,-0.03816793893129771,0.7175572519083969,-69.1368640607647,164.6651052880236,-0.46564885496183206,0.015267175572519083,-0.4198473282442748,0.05738508907280797,130.0067758399397,0.12213740458015267,-0.0,0.7633587786259542,89.0,89.0,0.0,0.0,0.0,89.12,84.76,-2.0,-25.0,5.0,
9.794,196.3280583889942,95.01659145505646,0.0,0.37404580152671757,0.5725190839694656,259.95053384302463,163.36197960101725,-0.06870229007633588,-0.03816793893129771,0.7175572519083969,-70.30107191843872,164.9367764558794,-0.46564885496183206,0.015267175572519083,-0.4198473282442748,0.04929639425535381,130.00549992882,-0.030534351145038167,0.061068702290076333,0.2900763358778626,89.0,89.0,0.0,0.0,0.0,89.18,84.32,-4.0,2.0,1.0,
9.831,206.24736364538765,82.27947374127615,0.0,0.37404580152671757,0.5725190839694656,260.01484039056254,163.3954677605185,-0.06870229007633588,-0.03816793893129771,0.7175572519083969,-73.08504268400053,164.68695467823107,-0.12213740458015267,-0.13740458015267176,-0.1450381679389313,0.04242100366051777,130.00441540436827,-0.030534351145038167,0.061068702290076333,0.2900763358778626,89.0,89.0,0.0,0.0,0.0,89.2,84.23,-6.0,13.0,0.0,
9.87,214.89597854755672,95.17106758664937,-0.061068702290076333,0.5114503816793893,-0.06870229007633588,260.0695009559697,163.42393269609457,-0.06870229007633588,-0.03816793893129771,0.7175572519083969,-75.45141783472806,164.47460616723,-0.12213740458015267,-0.13740458015267176,-0.1450381679389313,0.03657692165490714,130.0034935585843,-0.030534351145038167,0.061068702290076333,0.2900763358778626,89.0,89.0,0.0,0.0,0.0,89.47,84.2,-8.0,2.0,0.0,
9.908,222.24730121440044,106.12892235521662,-0.061068702290076333,0.5114503816793893,-0.06870229007633588,208.683800623721,163.65654196275133,0.022900763358778626,0.06870229007633588,0.0,-77.46283671284645,164.29410993287908,-0.12213740458015267,-0.13740458015267176,-0.1450381679389313,0.031609451950138104,130.0027099896679,-0.030534351145038167,0.061068702290076333,0.2900763358778626,89.0,89.0,0.0,0.0,0.0,89.35,84.18,-6.0,0.0,0.0,
9.947,228.49592548121757,115.44309890849877,-0.061068702290076333,0.5114503816793893,-0.06870229007633588,165.0059553413096,163.8542598394096,0.022900763358778626,0.06870229007633588,0.0,-79.1725427592471,164.1406881336808,-0.12213740458015267,-0.13740458015267176,-0.1450381679389313,0.026868018731618776,130.00171952860805,-0.06870229007633588,-0.0,0.25190839694656486,89.0,89.0,0.0,0.0,0.0,89.02,84.18,-4.0,-5.0,8.0,
9.985,233.80725610801215,123.3601489787886,-0.061068702290076333,0.5114503816793893,-0.06870229007633588,127.87978685125992,164.0223200345691,0.022900763358778626,0.06870229007633588,0.0,-80.62579289868764,164.01027960436227,-0.12213740458015267,-0.13740458015267176,-0.1450381679389313,27.023292029821153,130.00094252220336,-0.061068702290076333,0.05343511450381679,0.2366412213740458,89.0,89.0,0.0,0.0,0.0,88.87,84.08,-4.0,-10.0,5.0,
10.024,238.32188714078754,130.08964153853498,-0.061068702290076333,0.5114503816793893,-0.06870229007633588,96.32254363471769,164.1651712004547,0.022900763358778626,0.06870229007633588,0.0,-81.8610555172121,163.89943235444153,-0.12213740458015267,-0.13740458015267176,-0.1450381679389313,49.97025243924726,130.00028206675938,-0.061068702290076333,0.05343511450381679,0.2366412213740458,89.0,89.0,0.0,0.0,0.0,88.63,83.94,-7.0,-2.0,-1.0,
10.063,242.15932351864663,135.80971021431938,-0.061068702290076333,0.5114503816793893,-0.06870229007633588,69.4988869006568,164.28659469145742,0.022900763358778626,0.06870229007633588,0.0,-82.91102874295788,163.8052121920089,-0.12213740458015267,-0.13740458015267176,-0.1450381679389313,69.47516878725945,129.999720679632,-0.061068702290076333,0.05343511450381679,0.2366412213740458,89.0,89.0,0.0,0.0,0.0,88.33,83.74,-6.0,2.0,-5.0,
10.101,245.42114443982683,140.67176858873611,-0.061068702290076333,0.5114503816793893,-0.06870229007633588,46.69877867670505,164.38980465880977,0.022900763358778626,0.06870229007633588,0.0,-30.204446655312104,163.8385840976388,0.0,-0.0,-0.04580152671755725,86.0543476830698,129.9992435005737,-0.061068702290076333,0.05343511450381679,0.2366412213740458,89.0,89.0,0.0,0.0,0.0,88.27,83.93,-5.0,1.0,-5.0,
10.139,248.19369222283,144.80451820699034,-0.061068702290076333,0.5114503816793893,-0.06870229007633588,27.318686686346055,164.47753313105926,0.022900763358778626,0.06870229007633588,0.0,14.5961481191868,163.8669502174242,0.0,-0.0,-0.04580152671755725,73.14645505716807,129.9987081273818,-0.07633587786259542,0.030534351145038167,0.16793893129770993,89.0,89.0,0.0,0.0,0.0,88.04,84.15,-4.0,2.0,-3.0,
10.178,250.55035783838272,148.31735538250643,-0.061068702290076333,0.5114503816793893,-0.06870229007633588,10.84560849454091,164.55210233247132,0.022900763358778626,0.06870229007633588,0.0,52.66645426936479,163.79284158532386,0.015267175572519083,0.015267175572519083,0.0,62.174746325151595,129.9982530601687,-0.07633587786259542,0.030534351145038167,0.16793893129770993,89.0,89.0,0.0,0.0,0.0,87.85,84.19,-6.0,2.0,0.0,
10.215,252.55352361160251,151.30326698169512,-0.061068702290076333,0.5114503816793893,-0.06870229007633588,-3.6504856532848162,164.59397635079085,-0.022900763358778626,-0.03816793893129771,0.0,85.02621449701608,163.72984924803856,0.015267175572519083,0.015267175572519083,0.0,52.848793902937594,129.99786625303756,-0.07633587786259542,0.030534351145038167,0.16793893129770993,89.0,89.0,0.0,0.0,0.0,87.75,84.3,-5.0,-3.0,1.0,
10.253,254.25621451883936,153.8412918410055,-0.061068702290076333,0.5114503816793893,-0.06870229007633588,-15.972165678936683,164.62956926636247,-0.022900763358778626,-0.03816793893129771,0.0,112.53201069051968,163.67630576134607,0.015267175572519083,0.015267175572519083,0.0,44.92179922955187,129.9975374669761,-0.07633587786259542,0.03816793893129771,0.183206106870229,89.0,89.0,0.0,0.0,0.0,87.65,84.25,-6.0,-3.0,2.0,
10.291,255.70350178999067,155.99861297141933,-0.061068702290076333,0.5114503816793893,-0.06870229007633588,-26.445593700740773,164.65982324459833,-0.022900763358778626,-0.03816793893129771,0.0,136.0916365358846,163.78973583361733,0.015267175572519083,0.022900763358778626,-0.007633587786259542,38.18385375717401,129.99725799882384,-0.07633587786259542,0.03816793893129771,0.183206106870229,89.0,89.0,0.0,0.0,0.0,87.54,84.25,-6.0,-1.0,1.0,
10.329,256.6031829620475,157.96485901467264,-0.015267175572519083,0.5267175572519084,0.17557251908396945,-35.34800751927425,164.68553912609877,-0.022900763358778626,-0.03816793893129771,0.0,156.11731850444474,163.8861513950479,0.015267175572519083,0.022900763358778626,-0.007633587786259542,32.45660010565283,129.99702045089444,-0.07633587786259542,0.03816793893129771,0.183206106870229,89.0,89.0,0.0,0.0,0.0,87.54,84.12,-6.0,0.0,0.0,
10.367,257.42735307291156,159.6754137088507,-0.015267175572519083,0.5114503816793893,0.1984732824427481,-42.9150592650277,164.7073976253742,-0.022900763358778626,-0.03816793893129771,0.0,173.13914817772087,163.9681046222639,0.015267175572519083,0.022900763358778626,-0.007633587786259542,27.588434501859822,129.99681853515443,-0.07633587786259542,0.03816793893129771,0.183206106870229,89.0,89.0,0.0,0.0,0.0,87.33,84.09,-5.0,-3.0,0.0,
10.405,258.127897667146,161.12938519890204,-0.015267175572519083,0.5114503816793893,0.1984732824427481,-49.34705324891813,164.7259773497583,-0.022900763358778626,-0.03816793893129771,0.0,187.43168205764636,163.955633038461,0.015267175572519083,0.015267175572519083,0.015267175572519083,23.450493738635764,129.99664690677542,-0.07633587786259542,0.03816793893129771,0.183206106870229,89.0,89.0,0.0,0.0,0.0,87.29,84.15,-4.0,0.0,0.0,
10.444,258.72336057224527,162.36526096544569,-0.015267175572519083,0.5114503816793893,0.1984732824427481,-54.814248135225,164.74177011548477,-0.022900763358778626,-0.03816793893129771,0.0,199.72108583861305,163.9641691237505,0.015267175572519083,0.015267175572519083,0.0,19.933244089895314,129.9965010226533,-0.07633587786259542,0.03816793893129771,0.183206106870229,89.0,89.0,0.0,0.0,0.0,87.06,84.15,-4.0,0.0,0.0,
10.482,259.2295040415796,163.41575536700776,-0.015267175572519083,0.5114503816793893,0.1984732824427481,-59.461363788585835,164.7551939663523,-0.022900763358778626,-0.03816793893129771,0.0,156.32468990457284,163.95502490025416,0.0,0.007633587786259542,-0.007633587786259542,16.943581888465932,129.99637702114947,-0.07633587786259542,0.03816793893129771,0.183206106870229,89.0,89.0,0.0,0.0,0.0,87.02,84.11,-4.0,-1.0,2.0,
10.52,259.65972599051383,164.30867560833553,-0.015267175572519083,0.5114503816793893,0.1984732824427481,-63.411412093942545,164.76660423958964,-0.022900763358778626,-0.03816793893129771,0.0,173.19272769172514,163.9700525414151,0.007633587786259542,0.015267175572519083,0.0,14.40236901725096,129.9962716198712,-0.07633587786259542,0.03816793893129771,0.183206106870229,89.0,89.0,0.0,0.0,0.0,86.96,83.99,-4.0,-1.0,0.0,
10.557,259.93069950518577,165.05914112037036,-0.015267175572519083,0.5114503816793893,0.21374045801526717,-66.76895315349576,164.7763029718414,-0.022900763358778626,-0.03816793893129771,0.0,187.5305598108046,163.9828260364019,0.007633587786259542,0.015267175572519083,0.0,12.242338076718234,129.9961820287847,-0.07633587786259542,0.03816793893129771,0.183206106870229,89.0,89.0,0.0,0.0,0.0,86.67,84.05,-4.0,0.0,3.0,
10.595,260.20861919410464,165.69809594316956,-0.015267175572519083,0.5114503816793893,0.19083969465648856,-69.62286305411598,164.7845468942554,-0.022900763358778626,-0.03816793893129771,0.0,199.71771711202214,163.99368350714067,0.007633587786259542,0.015267175572519083,0.0,10.406311777265417,129.99610587636116,-0.07633587786259542,0.03816793893129771,0.183206106870229,89.0,89.0,0.0,0.0,0.0,86.85,83.82,0.0,-7.0,2.0,
10.633,260.4448509296857,166.2412075425489,-0.015267175572519083,0.5114503816793893,0.19083969465648856,-72.04868646964317,164.7915542283073,-0.022900763358778626,-0.03816793893129771,0.0,210.07516832426847,163.97000457658743,0.007633587786259542,-0.0,-0.015267175572519083,8.845689422730523,129.99604114680116,-0.07633587786259542,0.03816793893129771,0.183206106870229,89.0,89.0,0.0,0.0,0.0,86.69,84.27,2.0,0.0,-8.0,
10.671,260.64564790492955,166.7028524020213,-0.015267175572519083,0.5114503816793893,0.19083969465648856,-74.11063637284128,164.7975104622514,-0.022900763358778626,-0.03816793893129771,0.0,218.92293488496142,163.9638130284658,0.015267175572519083,0.007633587786259542,0.0,7.5191604213758625,129.99598612667518,-0.07633587786259542,0.03816793893129771,0.183206106870229,89.0,89.0,0.0,0.0,0.0,86.74,85.35,-6.0,11.0,-4.0,
10.71,260.7527058486685,167.14501827995767,-0.022900763358778626,0.5038167938931297,0.25190839694656486,-75.86329379055968,164.80257326110393,-0.022900763358778626,-0.03816793893129771,0.0,226.44353646155042,163.95855021256244,0.015267175572519083,0.007633587786259542,0.0,6.391610770224401,129.99593935956807,-0.07633587786259542,0.03816793893129771,0.183206106870229,89.0,89.0,0.0,0.0,0.0,86.17,85.84,-8.0,11.0,1.0,
10.748,261.70250344737246,167.5690154126908,-0.03816793893129771,0.46564885496183206,0.4580152671755725,-77.35305259562031,164.80687664012856,-0.022900763358778626,-0.03816793893129771,0.0,232.83604780165106,163.95407681904456,0.015267175572519083,0.007633587786259542,0.0,5.433193566745658,129.99589960752704,-0.07633587786259542,0.03816793893129771,0.183206106870229,89.0,89.0,0.0,0.0,0.0,86.97,86.39,-3.0,23.0,2.0,
10.786,262.50983140627085,167.92941297551394,-0.03816793893129771,0.46564885496183206,0.4580152671755725,-78.61934757992185,164.8105345122995,-0.022900763358778626,-0.03816793893129771,0.0,184.5913553244157,164.09641197371732,0.05343511450381679,0.030534351145038167,0.13740458015267176,4.618538943788726,129.99586581829215,-0.07633587786259542,0.03816793893129771,0.183206106870229,89.0,89.0,0.0,0.0,0.0,87.1,86.28,-10.0,-8.0,10.0,
10.824,261.91326660593205,144.33156247294323,-0.007633587786259542,0.5801526717557252,0.2748091603053435,-79.69569831657816,164.8136437036448,-0.022900763358778626,-0.03816793893129771,0.0,143.58336671876563,164.21739685518915,0.05343511450381679,0.030534351145038167,0.13740458015267176,3.9260825142753344,129.99583709744252,-0.07633587786259542,0.03816793893129771,0.183206106870229,89.0,89.0,0.0,0.0,0.0,87.35,85.47,-7.0,-4.0,2.0,
10.862,261.4061865256441,124.27338954575815,-0.007633587786259542,0.5801526717557252,0.2748091603053435,-80.61059644273602,164.8162865162883,-0.022900763358778626,-0.03816793893129771,0.0,108.96664750405127,164.3102909221131,-0.07633587786259542,-0.09923664122137404,-0.09923664122137404,3.337494549188951,129.9958126847203,-0.07633587786259542,0.03816793893129771,0.183206106870229,89.0,89.0,0.0,0.0,0.0,87.69,84.6,-6.0,-3.0,-3.0,
10.9,260.9751684573993,107.22394255765082,-0.007633587786259542,0.5801526717557252,0.2748091603053435,-81.38825984997021,164.81853290703526,-0.022900763358778626,-0.03816793893129771,0.0,79.34705621232142,164.28406867310636,-0.07633587786259542,-0.13740458015267176,-0.11450381679389313,2.8371947788655256,129.99579193390645,-0.07633587786259542,0.03816793893129771,0.183206106870229,89.0,89.0,0.0,0.0,0.0,87.85,84.48,-4.0,4.0,-6.0,
10.939,260.60880309939125,92.73191261775958,-0.007633587786259542,0.5801526717557252,0.2748091603053435,-81.89232679952413,164.6710104257634,0.022900763358778626,0.10687022900763359,-0.21374045801526717,54.170403614351066,164.26177976145064,-0.07633587786259542,-0.13740458015267176,-0.11450381679389313,2.411939974090614,129.99577429571465,-0.07633587786259542,0.03816793893129771,0.183206106870229,89.0,89.0,0.0,0.0,0.0,87.57,84.7,-4.0,10.0,1.0,
10.978,260.2973925450844,80.41368716885204,-0.007633587786259542,0.5801526717557252,0.2748091603053435,-82.93232828510679,164.47225240517923,0.015267175572519083,0.0916030534351145,-0.09923664122137404,32.77024890607626,164.2428341865433,-0.07633587786259542,-0.13740458015267176,-0.11450381679389313,2.050473390031939,129.99575930325165,-0.07633587786259542,0.03816793893129771,0.183206106870229,89.0,89.0,0.0,0.0,0.0,87.62,85.16,-4.0,-2.0,8.0,
11.017,260.0326935739236,69.94319553728062,-0.007633587786259542,0.5801526717557252,0.2748091603053435,-83.81632954785206,164.3033080876827,0.015267175572519083,0.0916030534351145,-0.09923664122137404,14.580117404042676,164.22673044787203,-0.07633587786259542,-0.13740458015267176,-0.11450381679389313,1.7429672515973325,129.9962656436275,-0.015267175572519083,0.007633587786259542,0.2595419847328244,89.0,89.0,0.0,0.0,0.0,87.42,85.43,-5.0,-9.0,14.0,
