time,pitch,roll,gyrx,gyry,gyrz,f1,f2,f3,f4,f5,f6,f7,g1,g2,g3
0.372,36.51,36.33,-4.98,0.08,2.2,0.0,0.0,0.0,0.0,0.0,0.0,0.0,0.0,0.0,0.39,
0.396,44.087999999999994,44.358000000000004,-4.98,1.5,-0.95,0.0,0.0,0.0,0.0,0.0,0.0,0.0,0.0,0.0,1.86,
0.419,51.4158,52.0098,-7.87,-3.57,-0.82,0.0,0.0,0.0,0.0,0.0,0.0,0.0,0.0,0.0,1.67,
0.443,57.91758,58.42698,-7.63,-5.21,-1.17,0.0,0.0,0.0,0.0,0.0,0.0,0.0,0.0,0.0,0.0,
0.467,63.310758,63.964698,-0.62,-5.61,0.39,0.0,0.0,0.0,0.0,0.0,0.0,0.0,0.0,0.0,1.08,
0.491,67.74707579999999,68.8384698,1.99,0.01,1.29,0.0,0.0,0.0,0.0,0.0,0.0,0.0,0.0,0.0,0.0,
0.515,71.70970758,72.67384698,4.65,-0.88,0.96,0.0,0.0,0.0,0.0,0.0,0.0,0.0,0.0,0.0,0.0,
0.538,74.724970758,76.17138469800001,7.7,-2.24,1.12,0.0,0.0,0.0,0.0,0.0,0.0,0.0,0.0,0.0,0.0,
0.562,77.60049707579999,79.35613846979999,5.44,-1.83,2.53,0.0,0.0,0.0,0.0,0.0,0.0,0.0,0.0,0.0,0.69,
0.585,80.30904970758,82.20361384698,4.08,-3.11,5.37,0.0,0.0,0.0,0.0,0.0,0.0,0.0,0.1,0.0,1.18,
0.61,82.424904970758,84.28836138469799,3.91,-2.44,4.75,0.0,0.0,0.0,0.0,0.0,0.0,0.0,0.1,0.0,1.86,
0.633,84.16649049707581,86.0988361384698,3.57,-1.18,5.32,0.0,0.0,0.0,0.0,0.0,0.0,0.0,0.1,0.0,0.0,
0.657,85.72664904970759,87.81888361384698,2.21,-0.43,5.57,0.0,0.0,0.0,0.0,0.0,0.0,0.0,0.2,0.0,0.0,
0.68,87.03466490497075,89.3858883613847,-0.63,-1.3,2.72,0.0,0.0,0.0,0.0,0.0,0.0,0.0,0.2,0.0,1.37,
0.704,88.26346649049708,90.44258883613847,-3.59,-0.04,0.52,0.0,0.0,0.0,0.0,0.0,0.0,0.0,0.29,0.0,1.57,
0.728,89.2683466490497,91.41225888361384,-5.2,-0.7,-0.15,0.0,0.0,0.0,0.0,0.0,0.0,0.0,0.2,0.0,0.0,
0.752,90.43083466490498,91.9772258883614,-3.86,-2.14,-0.89,0.0,0.0,0.0,0.0,0.0,0.0,0.0,0.2,0.0,0.1,
0.776,90.8350834664905,92.62772258883615,-2.48,-1.59,-1.19,0.0,0.0,0.0,0.0,0.0,0.0,0.0,0.2,0.0,0.39,
0.799,91.36150834664906,93.16077225888361,-4.18,-1.37,-1.38,0.0,0.0,0.0,0.0,0.0,0.0,0.0,0.2,0.0,0.0,
0.824,92.0351508346649,93.70907722588836,-5.02,-0.34,0.92,0.0,0.0,0.0,0.0,0.0,0.0,0.0,0.1,0.0,0.78,
0.847,92.48051508346649,94.16890772258884,-6.24,1.91,2.02,0.0,0.0,0.0,0.0,0.0,0.0,0.0,0.2,0.0,0.59,
0.871,92.66005150834665,94.31389077225889,-7.01,2.81,2.5,0.0,0.0,0.0,0.0,0.0,0.0,0.0,0.1,0.0,0.88,
0.894,92.79500515083467,94.29238907722589,-2.6,0.75,4.29,0.0,0.0,0.0,0.0,0.0,0.0,0.0,0.2,0.0,0.39,
0.918,92.83550051508348,94.6412389077226,2.67,0.51,4.34,0.0,0.0,0.0,0.0,0.0,0.0,0.0,0.1,0.0,0.69,
0.942,93.01955005150835,95.18012389077225,5.08,-1.21,4.94,0.0,0.0,0.0,0.0,0.0,0.0,0.0,0.2,0.0,0.59,
0.965,93.34395500515083,95.67501238907724,3.58,-2.27,5.26,0.0,0.0,0.0,0.0,0.0,0.0,0.0,0.1,0.0,1.08,
0.99,93.5653955005151,96.13850123890772,0.0,-1.99,4.46,0.0,0.0,0.0,0.0,0.0,0.0,0.0,0.1,0.0,1.08,
1.013,93.81253955005151,96.49085012389078,-2.07,-2.31,3.75,0.0,0.0,0.0,0.0,0.0,0.0,0.0,0.1,0.0,0.49,
1.037,93.90925395500516,96.76008501238908,-1.88,-2.09,1.86,0.0,0.0,0.0,0.0,0.0,0.0,0.0,0.1,0.0,0.0,
1.06,93.93692539550052,96.88600850123892,-3.46,-1.68,-0.27,0.0,0.0,0.0,0.0,0.0,0.0,0.0,0.2,0.0,0.59,
1.084,94.03869253955004,97.01560085012389,-4.87,-0.73,0.4,0.0,0.0,0.0,0.0,0.0,0.0,0.0,0.1,0.0,0.39,
1.108,94.23786925395501,97.15456008501239,-6.81,0.47,1.25,0.0,0.0,0.0,0.0,0.0,0.0,0.0,0.2,0.0,0.59,
1.132,94.3657869253955,97.10545600850124,-8.53,1.97,0.8,0.0,0.0,0.0,0.0,0.0,0.0,0.0,0.1,0.0,0.39,
1.156,94.38757869253956,96.97454560085012,-6.36,-1.24,0.96,0.0,0.0,0.0,0.0,0.0,0.0,0.0,0.1,0.0,0.29,
1.179,94.35375786925394,97.10545456008501,-3.07,-3.23,0.11,0.0,0.0,0.0,0.0,0.0,0.0,0.0,0.1,0.0,0.69,
1.203,94.43137578692539,97.3255454560085,-2.17,-2.94,-1.02,0.0,0.0,0.0,0.0,0.0,0.0,0.0,0.2,0.0,0.39,
1.227,94.55613757869253,97.33855454560086,-1.97,-2.34,0.03,0.0,0.0,0.0,0.0,0.0,0.0,0.0,0.2,0.0,0.49,
1.251,94.64061375786926,97.3668554545601,-3.6,-1.39,0.48,0.0,0.0,0.0,0.0,0.0,0.0,0.0,0.2,0.0,0.78,
1.274,94.59506137578693,97.279685545456,-6.79,0.36,-1.63,0.0,0.0,0.0,0.0,0.0,0.0,0.0,0.2,0.0,0.39,
1.298,94.64450613757869,97.0279685545456,-5.15,-2.42,-1.41,0.0,0.0,0.0,0.0,0.0,0.0,0.0,0.1,0.0,0.88,
1.323,94.50545061375786,96.96679685545456,-1.5,-3.56,0.08,0.0,0.0,0.0,0.0,0.0,0.0,0.0,0.1,0.0,1.86,
1.346,94.48254506137579,97.06867968554545,-2.46,-0.8,-1.31,0.0,0.0,0.0,0.0,0.0,0.0,0.0,0.1,0.0,0.88,
1.37,94.56125450613757,97.15086796855455,-4.4,-0.54,-1.17,0.0,0.0,0.0,0.0,0.0,0.0,0.0,0.1,0.0,0.0,
1.394,94.65912545061376,97.16808679685545,-5.98,-0.75,0.06,0.0,0.0,0.0,0.0,0.0,0.0,0.0,0.1,0.0,0.49,
1.418,94.73191254506136,97.21480867968555,-5.67,-0.43,-1.76,0.0,0.0,0.0,0.0,0.0,0.0,0.0,0.1,0.0,0.39,
1.441,94.69419125450614,97.31848086796855,-3.69,-1.49,-3.61,0.0,0.0,0.0,0.0,0.0,0.0,0.0,0.1,0.0,1.86,
1.465,94.7894191254506,97.46384808679684,-5.56,-1.3,-2.24,0.0,0.0,0.0,0.0,0.0,0.0,0.0,0.1,0.0,1.28,
1.489,94.87994191254505,97.28938480867967,-7.83,-0.82,-1.68,0.0,0.0,0.0,0.0,0.0,0.0,0.0,0.2,0.0,1.57,
1.513,94.6819941912545,96.89393848086796,-6.64,0.4,-4.37,0.0,0.0,0.0,0.0,0.0,0.0,0.0,0.2,0.0,1.47,
1.537,94.38319941912545,96.6203938480868,-4.78,-0.21,-3.11,0.0,0.0,0.0,0.0,0.0,0.0,0.0,0.1,0.0,1.67,
1.561,94.30831994191254,96.53003938480867,-4.85,0.17,-0.56,0.0,0.0,0.0,0.0,0.0,0.0,0.0,0.1,0.0,1.37,
1.585,94.40883199419126,96.35000393848087,-6.17,0.65,1.85,0.0,0.0,0.0,0.0,0.0,0.0,0.0,0.2,0.0,0.59,
1.608,94.57188319941912,96.28700039384809,-5.66,-0.63,4.45,0.0,0.0,0.0,0.0,0.0,0.0,0.0,0.2,0.0,0.78,
1.632,94.51618831994192,96.25370003938481,-4.24,-2.29,4.24,0.0,0.0,0.0,0.0,0.0,0.0,0.0,0.1,0.0,0.78,
1.655,94.5736188319942,96.0793700039385,-2.96,-2.15,2.51,0.0,0.0,0.0,0.0,0.0,0.0,0.0,0.2,0.0,0.78,
1.68,94.58836188319941,96.03493700039385,-1.73,-1.85,2.39,0.0,0.0,0.0,0.0,0.0,0.0,0.0,0.1,0.0,0.39,
1.703,94.55383618831993,96.18349370003938,-2.02,-1.89,2.28,0.0,0.0,0.0,0.0,0.0,0.0,0.0,0.2,0.0,0.29,
1.727,94.757383618832,96.35134937000394,-3.7,-1.48,1.81,0.0,0.0,0.0,0.0,0.0,0.0,0.0,0.29,0.0,0.0,
1.751,94.9847383618832,96.44913493700038,-5.34,-1.73,0.43,0.0,0.0,0.0,0.0,0.0,0.0,0.0,0.2,0.0,0.0,
1.775,94.93547383618832,96.47691349370004,-4.89,-1.62,-1.09,0.0,0.0,0.0,0.0,0.0,0.0,0.0,0.2,0.0,0.0,
1.799,94.66954738361883,96.41669134937001,-2.36,-2.21,-4.4,0.0,0.0,0.0,0.0,0.0,0.0,0.0,0.2,0.0,0.49,
1.822,94.57095473836188,96.51866913493701,-2.66,-1.85,-4.8,0.0,0.0,0.0,0.0,0.0,0.0,0.0,0.2,0.0,0.39,
1.846,95.00209547383619,96.3398669134937,-3.53,-3.16,1.92,0.0,0.0,0.0,0.0,0.0,0.0,0.0,0.1,0.0,1.08,
1.87,94.88320954738363,96.13298669134936,-5.02,-0.19,3.11,0.0,0.0,0.0,0.0,0.0,0.0,0.0,0.2,0.0,0.0,
1.894,94.84432095473836,96.14829866913495,-3.37,1.78,3.14,0.0,0.0,0.0,0.0,0.0,0.0,0.0,0.2,0.0,0.29,
1.917,94.78643209547384,96.11382986691349,-4.51,1.3,3.18,0.0,0.0,0.0,0.0,0.0,0.0,0.0,0.2,0.0,0.39,
1.941,95.06864320954739,96.13738298669134,-7.62,1.24,0.88,0.0,0.0,0.0,0.0,0.0,0.0,0.0,0.2,0.0,0.2,
1.965,95.35786432095473,96.20273829866913,-5.08,-0.35,0.37,0.0,0.0,0.0,0.0,0.0,0.0,0.0,0.1,0.0,0.29,
1.989,95.36878643209548,96.45227382986693,-3.05,-0.21,-3.73,0.0,0.0,0.0,0.0,0.0,0.0,0.0,0.1,0.0,0.0,
2.013,95.49587864320955,96.8282273829867,-4.99,0.75,-5.66,0.0,0.0,0.0,0.0,0.0,0.0,0.0,0.1,0.0,0.59,
2.036,95.42758786432096,96.73982273829867,-3.61,-2.83,-7.27,0.0,0.0,0.0,0.0,0.0,0.0,0.0,0.1,0.0,0.69,
2.061,95.23175878643208,96.72198227382987,-1.82,-3.79,-7.92,0.0,0.0,0.0,0.0,0.0,0.0,0.0,0.1,0.0,0.88,
2.084,95.0771758786432,96.48619822738297,0.73,-4.07,-4.81,0.0,0.0,0.0,0.0,0.0,0.0,0.0,0.1,0.0,0.78,
2.108,94.89071758786433,96.11161982273829,-0.38,-3.46,-2.23,0.0,0.0,0.0,0.0,0.0,0.0,0.0,0.1,0.0,0.39,
2.131,94.75507175878641,96.09216198227384,-3.09,-0.36,2.59,0.0,0.0,0.0,0.0,0.0,0.0,0.0,0.1,0.0,0.29,
2.156,94.69650717587865,95.89221619822739,-6.31,1.73,4.41,0.0,0.0,0.0,0.0,0.0,0.0,0.0,0.1,0.0,0.59,
2.18,94.77165071758787,95.45822161982274,-6.94,0.89,7.55,0.0,0.0,0.0,0.0,0.0,0.0,0.0,0.2,0.0,0.39,
2.203,94.7251650717588,95.29782216198228,-8.65,3.4,7.49,0.0,0.0,0.0,0.0,0.0,0.0,0.0,0.1,0.0,0.88,
2.227,94.75651650717589,95.02978221619823,-9.44,2.53,7.24,0.0,0.0,0.0,0.0,0.0,0.0,0.0,0.2,0.0,0.59,
2.25,94.55265165071759,94.62497822161981,-9.37,0.22,6.82,0.0,0.0,0.0,0.0,0.0,0.0,0.0,0.1,0.0,0.39,
2.274,94.17226516507176,94.21549782216198,-10.14,0.18,2.44,0.0,0.0,0.0,0.0,0.0,0.0,0.0,0.0,0.0,0.29,
2.298,94.16122651650717,94.2375497822162,-10.79,-4.65,1.41,0.0,0.0,0.0,0.0,0.0,0.0,0.0,0.1,0.0,1.18,
2.322,94.60112265165071,94.79775497822162,-11.2,-5.6,6.27,0.0,0.0,0.0,0.0,0.0,0.0,0.0,0.1,0.0,1.18,
2.345,94.71711226516507,94.97077549782216,-9.39,-2.11,9.59,0.0,0.0,0.0,0.0,0.0,0.0,0.0,0.1,0.0,0.0,
2.369,94.5667112265165,94.81707754978221,-6.11,-2.17,2.95,0.0,0.0,0.0,0.0,0.0,0.0,0.0,0.1,0.0,1.08,
2.394,94.48867112265165,94.97270775497822,-5.52,-0.06,-0.92,0.0,0.0,0.0,0.0,0.0,0.0,0.0,0.1,0.0,0.98,
2.417,94.48086711226517,94.92527077549782,-7.52,0.63,-1.77,0.0,0.0,0.0,0.0,0.0,0.0,0.0,0.1,0.0,0.29,
2.441,94.37208671122653,94.66852707754978,-8.59,-1.79,-2.31,0.0,0.0,0.0,0.0,0.0,0.0,0.0,0.1,0.0,0.69,
2.465,94.45120867112264,94.36385270775499,-9.72,-3.21,0.4,0.0,0.0,0.0,0.0,0.0,0.0,0.0,0.1,0.0,0.59,
2.489,94.67512086711227,94.0183852707755,-10.22,-3.46,2.18,0.0,0.0,0.0,0.0,0.0,0.0,0.0,0.0,0.0,0.39,
2.512,94.76051208671122,93.58783852707755,-9.43,-3.45,4.98,0.0,0.0,0.0,0.0,0.0,0.0,0.0,0.0,0.0,1.47,
2.536,94.73305120867113,93.07678385270776,-8.47,-3.78,4.81,0.0,0.0,0.0,0.0,0.0,0.0,0.0,0.0,0.0,0.78,
2.561,94.61330512086711,92.78267838527078,-10.22,-3.59,3.18,0.0,0.0,0.0,0.0,0.0,0.0,0.0,0.1,0.0,0.29,
2.584,94.8083305120867,92.56426783852707,-15.79,-2.42,3.24,0.0,0.0,0.0,0.0,0.0,0.0,0.0,0.0,0.0,1.67,
2.608,94.89983305120866,92.0744267838527,-15.97,-1.71,2.21,0.0,0.0,0.0,0.0,0.0,0.0,0.0,0.0,0.0,0.88,
2.631,94.85498330512085,91.64744267838526,-15.22,-4.82,-0.98,0.0,0.0,0.0,0.0,0.0,0.0,0.0,0.0,0.0,0.59,
2.656,94.90449833051208,91.82074426783853,-14.76,-3.88,7.97,0.0,0.0,0.0,0.0,0.0,0.0,0.0,0.0,0.0,2.16,
2.679,94.84644983305121,91.64907442678386,-15.73,-0.18,1.77,0.0,0.0,0.0,0.0,0.0,0.0,0.0,0.0,0.0,2.06,
2.703,94.76864498330512,91.6229074426784,-16.28,-5.85,2.1,0.0,0.0,0.0,0.0,0.0,0.0,0.0,0.0,0.0,1.77,
2.727,94.35586449833052,91.51229074426784,-19.12,2.02,6.92,0.0,0.0,0.0,0.0,0.0,0.0,0.0,0.0,0.0,0.78,
2.751,94.21558644983305,91.09622907442677,-19.54,0.2,-0.56,0.0,0.0,0.0,0.0,0.0,0.0,0.0,0.0,0.0,0.0,
2.775,94.50755864498332,90.65862290744268,-13.95,-2.12,-0.25,0.0,0.0,0.0,0.0,0.0,0.0,0.0,0.0,0.0,2.65,
2.799,94.40175586449834,90.56086229074427,-9.76,-6.53,2.34,0.0,0.0,0.0,0.0,0.0,0.0,0.0,0.0,0.0,1.08,
2.823,94.32817558644982,90.85708622907443,-14.4,-5.78,0.4,0.0,0.0,0.0,0.0,0.0,0.0,0.0,0.0,0.0,0.69,
2.846,94.29381755864499,91.09370862290746,-18.08,-3.4,-0.11,0.0,0.0,0.0,0.0,0.0,0.0,0.0,0.0,0.0,0.2,
2.871,93.9033817558645,91.27937086229075,-15.34,-3.66,-5.33,0.0,0.0,0.0,0.0,0.0,0.0,0.0,0.0,0.0,0.78,
2.894,93.66633817558645,91.49593708622906,-9.95,-8.75,-11.49,0.0,0.0,0.0,0.0,0.0,0.0,0.0,0.0,0.0,0.88,
2.918,93.86763381755864,91.7695937086229,-7.05,-11.13,-10.98,0.0,0.0,0.0,0.0,0.0,0.0,0.0,0.0,0.0,0.0,
2.942,94.25676338175586,92.00395937086229,-8.73,-8.98,-5.9,0.0,0.0,0.0,0.0,0.0,0.0,0.0,0.0,0.0,0.39,
2.966,94.55667633817558,91.84739593708623,-11.29,-2.44,-1.47,0.0,0.0,0.0,0.0,0.0,0.0,0.0,0.0,0.0,0.59,
2.99,94.59566763381756,91.20173959370862,-12.73,1.79,-0.72,0.0,0.0,0.0,0.0,0.0,0.0,0.0,0.0,0.0,1.37,
3.014,94.30256676338176,90.00317395937087,-12.92,1.18,-6.08,0.0,0.0,0.0,0.0,0.0,0.0,0.0,0.0,0.0,1.57,
3.038,93.80525667633817,88.4343173959371,-12.18,-4.29,-11.89,0.0,0.0,0.0,0.0,0.0,0.0,0.0,0.0,0.0,1.18,
3.061,93.19752566763381,87.4134317395937,-9.25,-10.8,-13.36,0.0,0.0,0.0,0.0,0.0,0.0,0.0,0.0,0.0,0.0,
3.086,92.40775256676338,86.72634317395938,-10.5,-9.69,-10.82,0.0,0.0,0.0,0.0,0.0,0.0,0.0,0.0,0.0,0.0,
3.109,91.81577525667635,86.45063431739594,-18.24,-7.5,-6.65,0.0,0.0,0.0,0.0,0.0,0.0,0.0,0.0,0.0,0.88,
3.134,91.49557752566763,86.28806343173959,-24.89,-8.53,1.44,0.0,0.0,0.0,0.0,0.0,0.0,0.0,0.0,0.0,0.0,
3.158,91.30155775256677,85.62380634317397,-27.08,-12.5,5.07,0.0,0.0,0.0,0.0,0.0,0.0,0.0,0.0,0.0,0.0,
3.181,91.22815577525668,85.04438063431739,-24.63,-14.28,4.55,0.0,0.0,0.0,0.0,0.0,0.0,0.0,0.0,0.0,1.57,
3.206,90.98681557752566,84.68043806343174,-24.19,-10.56,-1.4,0.0,0.0,0.0,0.0,0.0,0.0,0.0,0.0,0.0,1.37,
3.229,91.03468155775258,84.75204380634318,-21.15,-9.95,-7.4,0.0,0.0,0.0,0.0,0.0,0.0,0.0,0.0,0.0,0.0,
3.254,91.47146815577526,85.47920438063431,-17.6,-10.98,-4.59,0.0,0.0,0.0,0.0,0.0,0.0,0.0,0.0,0.0,0.0,
3.277,92.19914681557754,86.17292043806343,-14.89,-8.9,3.38,0.0,0.0,0.0,0.0,0.0,0.0,0.0,0.0,0.0,0.0,
3.302,92.74891468155776,86.64729204380635,-8.22,-3.34,9.62,0.0,0.0,0.0,0.0,0.0,0.0,0.0,0.0,0.0,0.49,
3.325,93.10989146815578,86.76672920438064,-2.02,-1.47,7.18,0.0,0.0,0.0,0.0,0.0,0.0,0.0,0.0,0.0,0.98,
3.349,93.41598914681558,86.97667292043806,-2.88,0.22,2.02,0.0,0.0,0.0,0.0,0.0,0.0,0.0,0.0,0.0,0.0,
3.373,93.67159891468155,86.6646672920438,0.46,1.16,-4.98,0.0,0.0,0.0,0.0,0.0,0.0,0.0,0.0,0.0,1.18,
3.396,93.67915989146816,86.39946672920438,7.82,1.58,-12.89,0.0,0.0,0.0,0.0,0.0,0.0,0.0,0.0,0.0,0.49,
3.421,93.42791598914681,86.29194667292043,9.03,5.82,-18.82,0.0,0.0,0.0,0.0,0.0,0.0,0.0,0.0,0.0,0.0,
3.444,93.32179159891467,86.26319466729204,4.08,9.52,-22.5,0.0,0.0,0.0,0.0,0.0,0.0,0.0,0.0,0.0,0.69,
3.468,93.36517915989147,86.0983194667292,0.94,6.64,-19.77,0.0,0.0,0.0,0.0,0.0,0.0,0.0,0.0,0.0,2.26,
3.491,93.09951791598914,85.78483194667291,-0.76,-0.08,-11.87,0.0,0.0,0.0,0.0,0.0,0.0,0.0,0.0,0.0,1.08,
3.516,92.38895179159891,85.15948319466729,-6.3,-1.01,-7.07,0.0,0.0,0.0,0.0,0.0,0.0,0.0,0.0,0.0,0.88,
3.539,91.8048951791599,84.30494831946673,-14.13,-0.82,-5.63,0.0,0.0,0.0,0.0,0.0,0.0,0.0,0.0,0.0,0.29,
3.563,90.22548951791599,82.76149483194668,-20.1,-4.12,-2.35,0.0,0.0,0.0,0.0,0.0,0.0,0.0,0.0,0.0,1.47,
3.588,88.06054895179159,81.01414948319467,-16.38,-16.37,-3.37,0.0,0.0,0.0,0.0,0.0,0.0,0.0,0.0,0.0,0.78,
3.611,85.32405489517916,79.84941494831946,-3.71,-31.97,1.1,0.0,0.0,0.0,0.0,0.0,0.0,0.0,0.0,0.0,0.1,
3.635,83.66440548951792,79.79594149483195,-7.53,-43.14,13.59,0.0,0.0,0.0,0.0,0.0,0.0,0.0,0.1,0.0,2.84,
3.659,83.48944054895179,80.37559414948319,-21.6,-37.11,20.91,0.0,0.0,0.0,0.0,0.0,0.0,0.0,0.39,0.0,1.37,
3.683,84.27294405489519,80.52355941494832,-31.71,-32.08,16.96,0.0,0.0,0.0,0.0,0.0,0.0,0.0,0.39,0.0,0.49,
3.707,85.75529440548952,80.79035594149482,-38.0,-15.97,3.66,0.0,0.0,0.0,0.0,0.0,0.0,0.0,0.1,0.0,0.0,
3.731,87.02852944054895,80.66403559414948,-29.41,13.24,-25.3,0.0,0.0,0.0,1.0,0.0,0.0,0.0,0.1,0.0,0.69,
3.756,95.3008529440549,89.54340355941495,104.92,39.85,-123.92,0.0,0.0,0.0,2.0,0.0,0.0,0.0,0.59,0.59,0.0,
3.779,97.18108529440548,91.2503403559415,14.43,21.5,35.76,0.0,0.0,0.0,2.0,0.0,0.0,0.0,2.75,0.69,12.85,
3.803,94.90310852944054,90.58403403559416,-2.85,31.03,9.04,0.0,0.0,0.0,1.0,0.0,0.0,0.0,1.67,0.59,2.65,
3.827,93.54131085294405,88.29440340355941,-5.67,13.89,-20.27,0.0,0.0,0.0,1.0,0.0,0.0,0.0,0.98,0.59,0.0,
3.851,93.0631310852944,87.65144034035595,5.9,-0.37,-17.47,0.0,0.0,0.0,1.0,0.0,0.0,0.0,0.59,0.39,0.0,
3.874,92.68231310852944,87.84814403403561,1.11,-4.63,-11.39,0.0,0.0,0.0,2.0,0.0,0.0,0.0,0.78,0.49,14.13,
3.899,91.96023131085293,87.18381440340356,-7.78,11.55,-5.9,0.0,0.0,0.0,2.0,0.0,0.0,0.0,1.18,0.78,0.0,
3.922,92.23002313108529,86.05538144034035,0.63,8.27,0.59,1.0,0.0,0.0,2.0,0.0,0.0,0.0,1.37,0.88,13.83,
3.946,91.66300231310852,85.55553814403403,7.35,0.68,2.44,1.0,0.0,0.0,2.0,0.0,0.0,0.0,1.18,0.78,0.0,
3.97,91.39030023131085,85.9555538144034,3.44,5.01,-3.67,1.0,0.0,0.0,2.0,0.0,0.0,0.0,0.98,0.78,10.89,
3.994,91.4980300231311,85.77055538144033,-0.89,9.2,-3.12,1.0,0.0,0.0,2.0,0.0,0.0,0.0,0.88,0.98,0.0,
4.018,91.72480300231311,85.42805553814404,1.2,4.63,-1.08,1.0,0.0,0.0,2.0,0.0,0.0,0.0,0.88,1.08,2.84,
4.041,91.71148030023132,85.3848055538144,0.66,5.07,1.33,1.0,0.0,0.0,3.0,0.0,0.0,0.0,0.88,0.98,0.98,
4.065,91.81814803002314,85.32648055538144,-3.06,5.3,0.83,1.0,0.0,0.0,3.0,0.0,0.0,0.0,0.98,1.08,0.0,
4.088,91.76581480300231,85.12264805553815,-3.98,3.94,-1.45,1.0,0.0,0.0,3.0,0.0,0.0,0.0,1.08,1.08,14.32,
4.112,91.76058148030023,84.94026480555381,-3.66,0.59,-2.13,1.0,0.0,0.0,3.0,0.0,0.0,0.0,1.28,0.98,0.0,
4.136,91.85005814803003,84.94902648055537,-4.69,0.22,-2.02,1.0,0.0,0.0,3.0,0.0,0.0,0.0,1.37,0.98,0.0,
4.16,91.85900581480301,84.85090264805555,-5.53,-0.76,0.73,2.0,0.0,0.0,3.0,0.0,0.0,0.0,1.37,0.88,0.0,
4.184,91.7879005814803,84.48109026480554,-5.98,-0.02,0.93,2.0,0.0,0.0,3.0,0.0,0.0,0.0,1.47,0.88,7.95,
4.207,91.79879005814803,84.22810902648055,-4.57,1.85,3.85,2.0,0.0,0.0,4.0,0.0,0.0,0.0,1.47,0.78,6.18,
4.231,91.7728790058148,84.13981090264805,-0.83,2.29,2.11,2.0,0.0,0.0,4.0,0.0,0.0,0.0,1.47,0.78,3.92,
4.255,91.89628790058147,84.2299810902648,-1.44,3.61,1.19,2.0,0.0,0.0,4.0,0.0,0.0,0.0,1.28,0.59,10.5,
4.279,92.00762879005813,84.20299810902648,-2.09,3.24,1.31,2.0,0.0,0.0,4.0,0.0,0.0,0.0,1.28,0.59,2.06,
4.302,92.23476287900581,84.21829981090265,0.78,0.95,3.84,2.0,0.0,0.0,4.0,0.0,0.0,0.0,1.18,0.49,3.73,
4.326,92.27547628790059,84.33682998109026,0.65,2.79,5.12,2.0,0.0,0.0,4.0,0.0,0.0,0.0,0.98,0.59,0.0,
4.35,92.39654762879005,84.43868299810903,-1.32,4.82,4.56,2.0,0.0,0.0,4.0,0.0,0.0,0.0,0.88,0.59,0.0,
4.374,92.615654762879,84.4398682998109,-1.15,4.56,3.44,3.0,0.0,0.0,4.0,0.0,0.0,0.0,0.69,0.59,0.0,
4.398,92.77256547628791,84.5299868299811,-1.91,4.43,3.49,3.0,0.0,0.0,4.0,0.0,0.0,0.0,0.69,0.69,0.0,
4.421,92.79725654762879,84.60199868299811,-3.28,4.23,3.39,3.0,0.0,0.0,4.0,0.0,0.0,0.0,0.69,0.69,0.0,
4.446,92.88072565476287,84.58219986829981,-5.6,4.95,2.2,3.0,0.0,0.0,4.0,0.0,0.0,0.0,0.59,0.69,0.0,
4.469,93.04207256547629,84.54421998682999,-4.44,1.31,1.03,3.0,0.0,0.0,4.0,0.0,0.0,0.0,0.59,0.78,0.0,
4.493,93.08520725654763,84.477421998683,-5.11,-2.24,-1.95,3.0,0.0,0.0,4.0,0.0,0.0,0.0,0.49,0.69,0.0,
4.517,93.16152072565477,84.6057421998683,-8.35,-5.11,-7.18,3.0,0.0,0.0,4.0,0.0,0.0,0.0,0.39,0.69,0.0,
4.541,93.11515207256548,84.48357421998682,-10.95,-9.72,-8.29,3.0,0.0,0.0,5.0,0.0,0.0,0.0,0.39,0.78,0.0,
4.566,93.08351520725655,84.34535742199868,-12.21,-12.43,-10.88,3.0,0.0,0.0,5.0,0.0,0.0,0.0,0.49,0.88,2.55,
4.59,92.99935152072565,84.34953574219986,-14.07,-13.43,-10.96,3.0,0.0,0.0,5.0,0.0,0.0,0.0,0.49,0.98,3.83,
4.614,92.97293515207257,84.13395357421999,-15.89,-14.73,-9.11,4.0,0.0,0.0,5.0,0.0,0.0,0.0,0.59,1.18,0.0,
4.638,92.70929351520726,83.707395357422,-12.5,-15.69,-5.07,5.0,0.0,0.0,6.0,0.0,0.0,0.0,0.78,1.47,10.99,
4.663,92.30492935152073,83.3587395357422,-8.6,-14.92,-1.22,5.0,0.0,0.0,7.0,0.0,0.0,0.0,0.88,1.96,4.71,
4.687,92.39049293515208,83.17987395357422,-6.43,-19.4,-0.11,6.0,0.0,0.0,7.0,0.0,0.0,0.0,1.08,2.55,4.41,
4.711,91.83204929351521,83.06298739535742,-4.92,-17.98,0.12,6.0,0.0,0.0,8.0,0.0,0.0,0.0,1.18,3.04,5.2,
4.736,91.30820492935152,82.88029873953573,-4.98,-15.01,0.18,6.0,0.0,0.0,9.0,0.0,0.0,0.0,1.28,3.73,0.49,
4.759,90.92282049293516,82.61002987395358,-1.21,-21.63,2.63,7.0,0.0,0.0,8.0,0.0,0.0,0.0,1.08,4.12,0.0,
4.784,90.80328204929353,82.69100298739536,-1.94,-26.04,1.37,7.0,0.0,0.0,8.0,0.0,0.0,0.0,0.39,4.22,0.0,
4.807,90.41332820492937,82.96910029873953,-7.11,-18.65,-4.45,7.0,0.0,0.0,8.0,0.0,0.0,0.0,0.1,3.92,0.0,
4.832,90.05033282049294,83.05091002987396,-12.54,-12.07,-5.24,7.0,0.0,0.0,9.0,0.0,0.0,0.0,0.2,4.32,0.0,
4.856,89.5280332820493,83.3110910029874,-20.79,-6.27,-10.25,7.0,0.0,0.0,10.0,0.0,0.0,0.0,0.39,4.81,44.93,
4.881,89.11580332820492,82.97710910029873,-23.7,4.92,-16.24,7.0,0.0,0.0,11.0,0.0,1.0,1.0,1.18,5.49,2.94,
4.904,89.2545803328205,82.19671091002988,-23.96,12.21,-19.46,7.0,0.0,0.0,1.0,0.0,1.0,1.0,2.94,6.28,0.0,
4.929,89.31345803328205,81.713671091003,-14.25,5.11,-14.03,7.0,1.0,0.0,4.0,0.0,1.0,1.0,5.49,6.97,0.0,
4.954,89.4993458033282,81.57536710910031,-9.16,1.43,-6.62,8.0,1.0,0.0,5.0,0.0,1.0,1.0,6.18,7.06,0.0,
4.978,89.33793458033281,81.30953671091004,-6.9,6.99,-3.97,7.0,1.0,0.0,6.0,0.0,1.0,1.0,7.36,7.26,0.0,
5.002,89.54679345803328,81.27395367109101,-7.92,11.29,-1.61,7.0,1.0,0.0,8.0,0.0,1.0,1.0,8.34,7.36,0.0,
5.026,89.75667934580333,81.00939536710911,-9.4,10.03,-1.14,8.0,1.0,0.0,8.0,0.0,1.0,2.0,9.52,7.85,0.0,
5.051,89.97566793458033,80.80293953671091,-6.86,6.37,1.56,8.0,0.0,0.0,10.0,1.0,1.0,2.0,11.38,8.53,0.0,
5.074,90.15956679345804,80.6022939536711,-5.89,9.97,2.72,8.0,0.0,0.0,10.0,1.0,1.0,2.0,14.42,9.12,0.0,
5.099,90.43895667934581,80.4742293953671,-5.07,11.03,4.21,8.0,0.0,0.0,10.0,1.0,1.0,2.0,15.99,9.42,0.0,
5.124,90.68289566793457,80.35342293953673,-2.2,8.9,5.33,7.0,0.0,0.0,11.0,1.0,1.0,2.0,17.36,9.61,0.0,
5.147,90.99528956679346,80.34134229395369,-3.21,10.71,6.48,7.0,0.0,0.0,10.0,1.0,1.0,2.0,18.44,9.91,0.0,
5.172,91.31452895667934,80.25913422939537,-1.98,9.23,7.09,7.0,0.0,0.0,10.0,1.0,1.0,2.0,19.62,10.3,0.0,
5.196,91.60745289566793,80.16991342293954,0.08,8.37,6.56,7.0,0.0,0.0,10.0,1.0,1.0,2.0,20.8,10.99,0.0,
5.22,91.66374528956679,80.23299134229394,-1.46,7.7,7.08,7.0,0.0,0.0,10.0,1.0,1.0,2.0,22.46,12.07,0.0,
5.244,91.90337452895669,80.1492991342294,-1.4,4.56,5.0,7.0,0.0,0.0,11.0,1.0,1.0,2.0,24.03,12.85,0.0,
5.269,92.08933745289566,80.17692991342294,-1.96,0.2,1.67,7.0,0.0,0.0,11.0,1.0,1.0,2.0,25.8,13.73,0.0,
5.294,92.21593374528956,80.1886929913423,-2.44,-1.98,1.9,8.0,1.0,0.0,12.0,1.0,1.0,2.0,27.57,14.52,0.0,
5.318,92.23759337452894,80.19886929913423,-2.31,-4.94,0.4,8.0,1.0,0.0,13.0,1.0,1.0,2.0,29.53,15.5,0.0,
5.342,92.32075933745288,80.17288692991343,-1.82,-6.98,-0.25,8.0,1.0,0.0,14.0,1.0,1.0,2.0,30.9,15.7,0.0,
5.366,92.1760759337453,80.17028869299135,-0.77,-6.74,1.1,8.0,1.0,0.0,14.0,1.0,1.0,2.0,31.69,15.5,0.0,
5.391,92.05360759337454,80.19702886929915,-0.13,-5.38,1.22,8.0,1.0,0.0,14.0,1.0,1.0,2.0,31.2,15.01,0.0,
5.415,92.11336075933745,80.22670288692993,0.79,-5.51,-1.27,8.0,1.0,0.0,13.0,1.0,1.0,2.0,29.92,14.22,1.47,
5.44,92.16433607593375,80.31967028869299,1.75,-6.16,0.97,8.0,0.0,0.0,12.0,1.0,1.0,2.0,28.35,13.05,1.18,
5.465,91.95343360759338,80.53596702886931,-0.06,-5.05,2.64,8.0,0.0,0.0,11.0,1.0,1.0,2.0,26.29,11.87,4.22,
5.488,91.94134336075933,80.51259670288694,-2.38,-5.13,-0.76,7.0,0.0,0.0,12.0,1.0,1.0,1.0,24.62,10.99,3.04,
5.513,91.94013433607593,80.51025967028869,-3.13,-8.05,-3.92,8.0,0.0,0.0,11.0,1.0,1.0,1.0,24.13,10.2,0.59,
5.537,91.8410134336076,80.59102596702886,-2.92,-7.69,-0.43,8.0,0.0,0.0,11.0,1.0,1.0,1.0,24.23,9.61,1.37,
5.562,91.66010134336076,80.6891025967029,-4.71,-5.58,2.11,8.0,0.0,0.0,11.0,1.0,1.0,1.0,24.43,9.22,1.08,
5.586,91.62401013433609,80.6989102596703,-5.75,-3.1,1.79,8.0,0.0,0.0,12.0,1.0,1.0,1.0,25.41,8.93,0.78,
5.611,91.5034010134336,80.66389102596702,-5.36,-1.81,2.87,8.0,0.0,0.0,11.0,1.0,1.0,1.0,27.37,9.22,0.69,
5.635,91.43734010134337,80.69638910259671,-5.78,-1.58,4.24,8.0,0.0,0.0,14.0,1.0,1.0,1.0,29.23,9.81,0.0,
5.659,91.35873401013434,80.62763891025968,-7.62,-2.59,4.66,8.0,0.0,0.0,14.0,1.0,1.0,2.0,32.08,10.4,0.0,
5.684,91.29687340101343,80.50376389102597,-6.59,-2.82,5.56,8.0,0.0,0.0,15.0,1.0,1.0,2.0,34.92,11.09,0.0,
5.708,91.26368734010134,80.5003763891026,-7.89,-1.72,5.77,8.0,0.0,0.0,15.0,1.0,1.0,2.0,37.08,11.77,0.0,
5.733,91.26936873401013,80.35603763891027,-7.0,-2.24,6.1,8.0,1.0,0.0,16.0,1.0,1.0,2.0,39.14,12.65,0.0,
5.756,91.179936873401,80.26960376389104,-6.69,-2.81,4.77,8.0,1.0,0.0,17.0,1.0,1.0,2.0,41.4,12.95,0.0,
5.781,91.2429936873401,80.1709603763891,-6.75,-1.78,4.8,8.0,1.0,0.0,17.0,1.0,1.0,2.0,43.26,13.44,0.0,
5.806,91.27629936873402,80.08009603763891,-5.28,-1.6,5.79,8.0,1.0,0.0,18.0,1.0,1.0,3.0,46.01,13.83,0.0,
5.83,91.16262993687342,79.9900096037639,-5.41,-0.87,5.05,8.0,1.0,0.0,18.0,1.0,1.0,3.0,47.48,14.03,0.0,
5.855,90.89026299368734,79.91800096037639,-5.85,-0.89,5.0,8.0,1.0,0.0,19.0,1.0,1.0,3.0,48.76,14.22,0.0,
5.879,90.89902629936873,79.89280009603763,-6.21,-1.64,3.59,8.0,1.0,0.0,19.0,1.0,2.0,3.0,49.74,14.52,0.0,
5.903,90.98090262993686,79.81828000960377,-5.31,-1.98,2.3,8.0,1.0,0.0,19.0,1.0,2.0,3.0,50.72,14.72,0.0,
5.927,90.87209026299368,79.69382800096038,-3.97,-2.17,0.84,8.0,1.0,0.0,19.0,1.0,2.0,3.0,51.6,14.62,0.0,
5.952,90.83420902629936,79.64538280009604,-2.5,-3.0,0.0,8.0,1.0,0.0,19.0,1.0,2.0,3.0,51.8,14.52,0.0,
5.977,90.74942090262994,79.65853828000961,-1.93,-1.88,-0.6,8.0,1.0,0.0,19.0,1.0,2.0,3.0,51.21,14.22,0.0,
6.001,90.605942090263,79.63285382800096,-0.98,0.57,0.44,8.0,1.0,0.0,19.0,1.0,2.0,3.0,50.42,14.03,0.0,
6.026,90.6365942090263,79.6482853828001,-0.37,1.73,-0.58,8.0,1.0,0.0,19.0,1.0,2.0,3.0,49.64,14.22,0.0,
6.049,90.66665942090263,79.62282853828,1.11,1.57,-1.12,8.0,1.0,0.0,18.0,1.0,1.0,3.0,48.36,14.32,0.0,
6.074,90.77766594209027,79.647282853828,1.81,1.03,-1.82,8.0,1.0,0.0,17.0,1.0,1.0,3.0,46.21,14.32,0.0,
6.098,90.85176659420902,79.67672828538281,2.56,-0.11,-2.23,8.0,1.0,0.0,16.0,1.0,1.0,2.0,41.89,14.22,0.0,
6.123,90.8321766594209,79.76067282853828,2.5,0.75,-1.08,8.0,0.0,0.0,15.0,1.0,1.0,2.0,38.85,13.73,0.98,
6.147,90.81221766594209,79.87706728285383,2.93,0.52,-1.82,8.0,0.0,0.0,14.0,1.0,1.0,2.0,36.2,13.44,0.98,
6.171,90.80122176659421,79.96970672828539,3.33,0.76,-0.63,8.0,0.0,0.0,13.0,1.0,1.0,2.0,33.26,12.56,2.45,
6.196,90.82712217665942,80.05097067282854,3.36,-0.02,0.17,8.0,0.0,0.0,11.0,1.0,1.0,1.0,30.02,11.97,2.16,
6.22,90.91971221766595,80.18509706728285,3.75,-0.24,0.13,8.0,0.0,0.0,10.0,1.0,1.0,1.0,26.88,11.18,7.85,
6.245,91.0189712217666,80.3515097067283,4.15,-0.43,1.27,7.0,0.0,0.0,9.0,0.0,1.0,1.0,22.86,10.4,4.91,
6.268,91.08289712217666,80.59315097067284,2.58,0.08,2.85,7.0,0.0,0.0,7.0,0.0,1.0,1.0,20.5,9.71,7.06,
6.293,91.15228971221767,80.73431509706728,-0.18,0.63,2.39,7.0,0.0,0.0,8.0,0.0,1.0,1.0,18.74,9.12,7.75,
6.317,91.24922897122177,80.82043150970672,-1.58,0.2,1.21,7.0,0.0,0.0,8.0,0.0,1.0,1.0,18.05,8.93,1.57,
6.341,91.27692289712218,80.90104315097068,-1.35,-0.76,0.62,7.0,0.0,0.0,8.0,0.0,1.0,1.0,18.05,8.93,0.0,
6.366,91.27969228971222,80.95410431509706,-0.81,-1.0,1.69,7.0,0.0,0.0,8.0,0.0,1.0,1.0,18.25,9.03,0.0,
6.389,91.27096922897123,81.02241043150971,0.08,-0.95,2.05,7.0,0.0,0.0,8.0,0.0,0.0,1.0,17.76,8.93,0.59,
6.414,91.27909692289712,81.08324104315098,-0.05,-0.32,2.71,7.0,0.0,0.0,7.0,0.0,0.0,1.0,17.17,8.73,0.0,
6.437,91.2799096922897,81.1973241043151,-0.85,0.27,1.68,7.0,0.0,0.0,6.0,0.0,0.0,1.0,16.48,8.44,1.77,
6.462,91.36999096922898,81.23573241043151,-1.21,-0.16,1.77,6.0,0.0,0.0,6.0,0.0,0.0,1.0,16.19,8.14,1.37,
6.487,91.3789990969229,81.36557324104315,-1.58,0.0,1.94,6.0,0.0,0.0,6.0,0.0,0.0,1.0,15.99,7.85,0.98,
6.51,91.39789990969228,81.43255732410432,-1.77,-0.78,2.21,6.0,0.0,0.0,6.0,0.0,0.0,1.0,16.09,7.85,1.86,
6.535,91.42678999096924,81.47525573241043,-2.41,-0.93,1.44,6.0,0.0,0.0,6.0,0.0,0.0,1.0,16.09,7.75,1.28,
6.559,91.42067899909694,81.43452557324105,-2.99,-0.92,0.46,6.0,0.0,0.0,5.0,0.0,0.0,1.0,16.09,7.85,0.49,
6.583,91.4290678999097,81.4934525573241,-2.44,-1.28,0.34,7.0,0.0,0.0,6.0,0.0,0.0,1.0,15.99,7.85,0.0,
6.607,91.43890678999097,81.52634525573242,-2.27,-1.33,0.2,6.0,0.0,0.0,7.0,0.0,0.0,1.0,15.79,7.95,0.0,
6.632,91.49389067899911,81.51163452557324,-2.19,-2.27,0.5,7.0,0.0,0.0,5.0,0.0,0.0,1.0,15.5,7.95,0.0,
6.656,91.44538906789991,81.54616345255732,-1.99,-2.56,0.92,7.0,0.0,0.0,5.0,0.0,0.0,1.0,15.3,7.95,0.0,
6.68,91.43153890679,81.56761634525573,-2.4,-2.67,1.06,7.0,0.0,0.0,5.0,0.0,0.0,1.0,14.91,7.75,0.0,
6.705,91.42115389067901,81.64176163452558,-2.35,-2.41,0.26,7.0,0.0,0.0,4.0,0.0,0.0,1.0,14.13,7.16,0.0,
6.728,91.45611538906789,81.65817616345255,-3.09,-2.34,-0.4,7.0,0.0,0.0,5.0,0.0,0.0,1.0,13.73,6.87,0.0,
6.753,91.4326115389068,81.69581761634525,-4.12,-0.79,-0.4,7.0,0.0,0.0,5.0,0.0,0.0,1.0,13.44,6.67,0.0,
6.777,91.47526115389068,81.73558176163452,-4.68,-0.07,-1.74,7.0,0.0,0.0,5.0,0.0,0.0,1.0,13.54,6.77,0.0,
6.802,91.46152611538906,81.68555817616347,-4.57,0.4,-1.79,7.0,0.0,0.0,5.0,0.0,0.0,1.0,14.03,7.06,2.26,
6.825,91.59515261153891,81.68055581761637,-5.11,1.58,-2.22,7.0,0.0,0.0,6.0,0.0,1.0,1.0,14.42,7.55,0.78,
6.85,91.6445152611539,81.62605558176165,-5.69,-0.27,-3.05,7.0,0.0,0.0,6.0,0.0,1.0,1.0,15.4,8.14,1.77,
6.875,91.58645152611538,81.62060555817618,-5.05,-1.36,-2.23,7.0,0.0,0.0,7.0,0.0,1.0,1.0,16.38,8.73,1.77,
6.898,91.57164515261154,81.51206055581763,-4.42,-2.49,-2.15,7.0,0.0,0.0,8.0,0.0,1.0,1.0,17.07,9.12,0.0,
6.923,91.58816451526116,81.52820605558178,-5.8,-2.15,-1.59,7.0,0.0,0.0,9.0,0.0,1.0,1.0,17.66,9.42,0.0,
6.947,91.58981645152613,81.52082060555817,-5.1,-2.25,-1.06,7.0,0.0,0.0,10.0,0.0,1.0,1.0,18.44,9.71,0.0,
6.972,91.6079816451526,81.44808206055582,-4.02,-1.35,0.24,7.0,0.0,0.0,10.0,0.0,1.0,1.0,19.23,10.2,0.0,
6.996,91.65479816451526,81.36880820605559,-3.26,-1.16,0.85,7.0,0.0,0.0,10.0,0.0,1.0,1.0,19.82,10.4,0.0,
7.02,91.61447981645152,81.32488082060556,-2.59,-1.17,1.02,7.0,0.0,0.0,10.0,0.0,1.0,1.0,19.91,10.4,0.0,
7.045,91.59244798164517,81.33848808206056,-1.7,-1.03,0.78,7.0,0.0,0.0,10.0,0.0,1.0,1.0,19.72,10.3,0.2,
7.069,91.57224479816452,81.37584880820606,-1.79,-0.31,0.94,7.0,0.0,0.0,10.0,0.0,1.0,1.0,19.42,10.1,2.16,
7.094,91.59722447981645,81.4155848808206,-1.85,-0.41,1.02,7.0,0.0,0.0,10.0,0.0,1.0,1.0,18.93,10.1,0.88,
7.118,91.58172244798163,81.47355848808206,-1.55,-0.89,1.25,7.0,0.0,0.0,10.0,0.0,1.0,1.0,18.74,10.01,0.0,
7.143,91.60717224479816,81.45235584880821,-2.18,-1.01,1.18,7.0,0.0,0.0,10.0,0.0,1.0,1.0,18.34,10.01,0.78,
7.166,91.58271722447981,81.45923558488082,-2.25,-1.4,0.87,7.0,0.0,0.0,10.0,0.0,1.0,1.0,18.25,10.01,1.28,
7.191,91.55327172244797,81.43292355848808,-2.14,-1.73,0.57,7.0,0.0,0.0,9.0,0.0,1.0,1.0,18.15,9.81,0.2,
7.216,91.5413271722448,81.44829235584882,-1.91,-1.7,0.34,7.0,0.0,0.0,9.0,0.0,1.0,1.0,17.76,9.71,0.69,
7.24,91.56713271722447,81.50382923558489,-2.44,-1.97,0.28,7.0,0.0,0.0,9.0,0.0,1.0,1.0,17.46,9.61,1.08,
7.264,91.55171327172243,81.50038292355849,-2.36,-1.98,-0.02,7.0,0.0,0.0,9.0,0.0,1.0,1.0,17.36,9.52,4.71,
7.288,91.51417132717225,81.50903829235585,-2.95,-1.87,-0.08,7.0,0.0,0.0,9.0,0.0,1.0,1.0,16.97,9.22,1.28,
7.313,91.56441713271722,81.4829038292356,-2.65,-2.51,-0.46,7.0,0.0,0.0,8.0,0.0,1.0,1.0,16.78,9.22,0.0,
7.336,91.56044171327173,81.51629038292356,-2.72,-2.71,-0.27,7.0,0.0,0.0,9.0,0.0,1.0,1.0,16.68,9.03,0.0,
7.361,91.58704417132718,81.48362903829236,-2.65,-2.79,0.56,7.0,0.0,0.0,9.0,0.0,1.0,1.0,16.28,8.83,0.0,
7.386,91.59870441713271,81.46236290382923,-2.5,-2.92,1.05,7.0,0.0,0.0,9.0,0.0,1.0,1.0,15.99,8.73,0.0,
7.41,91.50087044171326,81.47823629038292,-2.37,-3.13,0.95,7.0,0.0,0.0,8.0,0.0,1.0,1.0,15.79,8.34,0.1,
7.434,91.49108704417132,81.5338236290383,-2.81,-2.54,0.32,7.0,0.0,0.0,7.0,0.0,1.0,1.0,15.21,8.04,0.59,
7.458,91.49010870441712,81.49438236290382,-3.78,-1.55,-0.08,7.0,0.0,0.0,8.0,0.0,1.0,1.0,15.01,7.85,0.0,
7.483,91.45401087044172,81.48143823629039,-3.8,-0.91,-1.05,7.0,0.0,0.0,8.0,0.0,1.0,1.0,14.91,7.85,1.57,
7.506,91.49540108704417,81.43514382362905,-3.69,-1.11,-0.9,7.0,0.0,0.0,8.0,0.0,1.0,1.0,15.11,7.95,0.78,
7.531,91.51754010870441,81.42151438236291,-3.47,-1.51,-0.53,7.0,0.0,0.0,8.0,0.0,1.0,1.0,15.11,8.04,0.39,
7.556,91.51075401087044,81.45615143823628,-3.06,-1.51,-0.02,7.0,0.0,0.0,8.0,0.0,1.0,1.0,15.11,7.95,0.0,
7.58,91.42907540108705,81.51361514382361,-2.83,-1.16,0.56,7.0,0.0,0.0,10.0,0.0,1.0,1.0,15.11,8.14,0.0,
7.604,91.38490754010871,81.51036151438237,-3.05,-0.79,0.47,7.0,0.0,0.0,8.0,0.0,1.0,1.0,15.21,8.14,0.2,
7.628,91.39849075401088,81.50103615143824,-3.08,-1.53,0.31,7.0,0.0,0.0,8.0,0.0,1.0,1.0,15.21,8.14,0.78,
7.653,91.4268490754011,81.53610361514383,-3.14,-1.32,0.55,7.0,0.0,0.0,8.0,0.0,1.0,1.0,15.21,8.14,0.2,
7.677,91.41168490754012,81.53961036151439,-3.39,-0.66,0.47,7.0,0.0,0.0,8.0,0.0,1.0,1.0,15.21,8.24,0.0,
7.701,91.41016849075402,81.56696103615144,-3.51,-1.18,-0.05,7.0,0.0,0.0,9.0,0.0,1.0,1.0,15.4,8.34,0.0,
7.726,91.3920168490754,81.56069610361516,-3.21,-1.31,0.21,7.0,0.0,0.0,9.0,0.0,1.0,1.0,15.6,8.44,0.0,
7.75,91.42620168490754,81.61406961036153,-3.05,-1.47,0.21,7.0,0.0,0.0,8.0,0.0,1.0,1.0,15.79,8.44,0.0,
7.774,91.42062016849076,81.63740696103615,-3.4,-2.02,0.15,7.0,0.0,0.0,9.0,0.0,1.0,1.0,15.7,8.44,0.0,
7.798,91.38406201684907,81.61274069610361,-3.16,-1.91,0.13,7.0,0.0,0.0,9.0,0.0,1.0,1.0,15.79,8.44,0.0,
7.823,91.3534062016849,81.65527406961036,-3.0,-1.82,0.05,7.0,0.0,0.0,9.0,0.0,1.0,1.0,15.7,8.34,0.59,
7.846,91.3503406201685,81.60552740696103,-2.89,-1.96,0.37,7.0,0.0,0.0,9.0,0.0,1.0,1.0,15.7,8.24,0.0,
7.871,91.35903406201685,81.5555527406961,-2.58,-2.08,0.96,7.0,0.0,0.0,9.0,0.0,1.0,1.0,15.7,8.04,0.1,
7.896,91.30590340620168,81.55055527406961,-2.56,-2.52,1.31,7.0,0.0,0.0,8.0,0.0,1.0,1.0,15.3,7.95,0.0,
7.919,91.28259034062017,81.58605552740697,-2.47,-2.29,0.66,7.0,0.0,0.0,8.0,0.0,1.0,1.0,15.21,7.75,0.49,
7.944,91.23525903406201,81.6076055527407,-2.69,-1.51,0.78,7.0,0.0,0.0,8.0,0.0,1.0,1.0,15.01,7.55,0.29,
7.968,91.1945259034062,81.63676055527407,-3.13,-1.13,0.36,7.0,0.0,0.0,8.0,0.0,1.0,1.0,14.91,7.46,0.1,
7.992,91.20845259034061,81.6306760555274,-3.27,-1.13,0.05,7.0,0.0,0.0,8.0,0.0,1.0,1.0,14.81,7.46,0.2,
8.016,91.21884525903405,81.67506760555275,-3.11,-1.22,-0.27,7.0,0.0,0.0,8.0,0.0,1.0,1.0,14.91,7.46,0.1,
8.041,91.2288845259034,81.66150676055527,-2.92,-1.37,-0.16,7.0,0.0,0.0,8.0,0.0,1.0,1.0,14.91,7.46,0.0,
8.066,91.24788845259033,81.66915067605552,-3.02,-1.24,-0.16,7.0,0.0,0.0,8.0,0.0,1.0,1.0,14.81,7.36,0.0,
8.089,91.25878884525903,81.69691506760554,-3.05,-1.27,0.01,7.0,0.0,0.0,8.0,0.0,1.0,1.0,14.81,7.36,0.29,
8.114,91.2328788845259,81.69069150676056,-3.09,-1.19,-0.01,7.0,0.0,0.0,8.0,0.0,1.0,1.0,14.81,7.26,0.0,
8.138,91.19428788845258,81.72606915067605,-2.89,-1.21,-0.05,7.0,0.0,0.0,8.0,0.0,1.0,1.0,14.81,7.16,0.0,
8.163,91.16342878884525,81.7296069150676,-2.8,-1.47,0.0,7.0,0.0,0.0,8.0,0.0,1.0,1.0,14.81,7.16,0.0,
8.186,91.15134287888453,81.74796069150676,-3.08,-1.64,0.04,7.0,0.0,0.0,8.0,0.0,1.0,1.0,14.72,7.26,0.0,
8.211,91.17713428788846,81.67779606915067,-2.93,-1.53,0.09,7.0,0.0,0.0,8.0,0.0,1.0,1.0,14.72,7.26,0.0,
8.236,91.15271342878886,81.68877960691506,-2.69,-1.5,0.12,7.0,0.0,0.0,8.0,0.0,1.0,1.0,14.62,7.16,0.1,
8.259,91.13227134287888,81.68087796069152,-2.67,-1.19,0.3,7.0,0.0,0.0,8.0,0.0,1.0,1.0,14.52,7.06,0.0,
8.284,91.13022713428788,81.70708779606915,-2.63,-1.52,0.64,7.0,0.0,0.0,8.0,0.0,1.0,1.0,14.42,7.16,0.0,
8.308,91.1210227134288,81.69170877960691,-2.66,-1.31,0.39,7.0,0.0,0.0,8.0,0.0,1.0,1.0,14.03,7.06,0.0,
8.332,91.12910227134287,81.6901708779607,-2.52,-1.44,0.46,7.0,0.0,0.0,7.0,0.0,1.0,1.0,13.83,7.06,0.0,
8.356,91.1479102271343,81.67201708779606,-2.66,-1.19,0.23,7.0,0.0,0.0,7.0,0.0,1.0,1.0,13.54,6.87,0.0,
8.381,91.17679102271345,81.7152017087796,-2.63,-1.37,0.54,7.0,0.0,0.0,8.0,0.0,1.0,1.0,13.54,6.77,0.1,
8.404,91.16167910227134,81.76452017087796,-2.9,-1.2,0.22,7.0,0.0,0.0,7.0,0.0,1.0,1.0,13.44,6.67,0.39,
8.429,91.14216791022713,81.7694520170878,-3.45,-0.67,-0.25,7.0,0.0,0.0,7.0,0.0,1.0,1.0,13.44,6.77,0.0,
8.454,91.11321679102271,81.76094520170878,-3.5,-0.37,-0.61,7.0,0.0,0.0,8.0,0.0,1.0,1.0,13.44,6.97,0.1,
8.478,91.07432167910227,81.75109452017088,-3.8,0.46,-1.05,7.0,0.0,0.0,8.0,0.0,1.0,1.0,13.73,7.16,0.0,
8.502,91.16943216791023,81.76810945201709,-3.6,0.14,-1.05,7.0,0.0,0.0,8.0,0.0,1.0,1.0,14.22,7.55,1.28,
8.526,91.24194321679101,81.76981094520171,-3.52,-0.03,-1.11,7.0,0.0,0.0,9.0,0.0,1.0,1.0,14.62,7.85,0.39,
8.551,91.2401943216791,81.79698109452018,-3.42,0.32,-0.12,7.0,0.0,0.0,10.0,0.0,1.0,1.0,14.91,8.24,0.0,
8.574,91.29401943216791,81.79969810945202,-3.22,-0.31,-0.52,7.0,0.0,0.0,9.0,0.0,1.0,1.0,15.11,8.44,0.0,
8.599,91.2994019432168,81.7819698109452,-2.89,-1.01,-0.18,7.0,0.0,0.0,9.0,0.0,1.0,1.0,15.4,8.73,0.0,
8.624,91.31794019432168,81.75319698109452,-2.74,-1.27,0.06,7.0,0.0,0.0,10.0,0.0,1.0,1.0,15.6,8.83,0.2,
8.648,91.31979401943217,81.75031969810945,-2.75,-1.39,0.17,7.0,0.0,0.0,9.0,0.0,1.0,1.0,15.6,8.93,0.2,
8.672,91.31997940194321,81.74103196981095,-2.55,-1.94,0.24,7.0,0.0,0.0,10.0,0.0,1.0,1.0,15.4,8.93,0.0,
8.696,91.31999794019433,81.7581031969811,-2.36,-1.69,0.48,7.0,0.0,0.0,9.0,0.0,1.0,1.0,15.21,8.73,0.0,
8.721,91.31099979401944,81.81381031969809,-2.42,-1.86,0.52,7.0,0.0,0.0,9.0,0.0,1.0,1.0,14.91,8.63,0.1,
8.744,91.31009997940194,81.85538103196981,-2.53,-1.94,0.43,7.0,0.0,0.0,8.0,0.0,1.0,1.0,14.72,8.44,0.0,
8.769,91.3280099979402,81.85053810319697,-2.95,-1.86,0.48,7.0,0.0,0.0,7.0,0.0,1.0,1.0,14.52,8.24,0.49,
8.794,91.31180099979402,81.86805381031971,-2.66,-1.67,0.37,7.0,0.0,0.0,8.0,0.0,1.0,1.0,14.32,8.24,0.88,
8.817,91.2921800999794,81.86080538103198,-2.87,-1.44,0.4,7.0,0.0,0.0,8.0,0.0,1.0,1.0,14.22,8.04,0.0,
8.842,91.27221800999794,81.85108053810319,-2.71,-1.3,0.56,7.0,0.0,0.0,8.0,0.0,1.0,1.0,14.03,7.95,0.0,
8.866,91.27922180099979,81.81410805381032,-2.83,-1.13,0.5,7.0,0.0,0.0,8.0,0.0,1.0,1.0,13.83,7.85,0.1,
8.89,91.29792218009997,81.76541080538104,-2.76,-1.51,0.61,7.0,0.0,0.0,8.0,0.0,1.0,1.0,13.73,7.75,0.1,
8.914,91.29979221801,81.85954108053811,-3.04,-1.27,0.52,7.0,0.0,0.0,8.0,0.0,1.0,1.0,13.64,7.75,0.0,
8.939,91.308979221801,81.86895410805381,-3.53,-1.53,-0.27,7.0,0.0,0.0,8.0,0.0,1.0,1.0,13.64,7.75,0.0,
8.964,91.2558979221801,81.83389541080538,-3.68,-1.24,-0.74,7.0,0.0,0.0,8.0,0.0,1.0,1.0,13.64,7.75,0.0,
8.987,91.22358979221801,81.84838954108054,-3.73,-0.82,-0.83,7.0,0.0,0.0,8.0,0.0,1.0,1.0,13.83,7.85,0.0,
9.012,91.2383589792218,81.81383895410806,-3.98,-0.76,-0.87,7.0,0.0,0.0,8.0,0.0,1.0,1.0,14.03,8.04,0.29,
9.036,91.30283589792218,81.7743838954108,-3.69,-1.13,-0.92,7.0,0.0,0.0,9.0,0.0,1.0,1.0,14.22,8.14,0.0,
9.061,91.30928358979222,81.80643838954109,-3.32,-1.14,-0.27,7.0,0.0,0.0,9.0,0.0,1.0,1.0,14.42,8.24,0.0,
9.084,91.28292835897922,81.77364383895411,-3.03,-1.06,0.4,7.0,0.0,0.0,9.0,0.0,1.0,1.0,14.52,8.24,0.0,
9.109,91.33429283589793,81.79736438389541,-3.27,-1.0,-0.39,7.0,0.0,0.0,8.0,0.0,1.0,1.0,14.72,8.24,0.78,
9.134,91.3214292835898,81.78173643838954,-3.3,-1.1,-0.47,7.0,0.0,0.0,9.0,0.0,1.0,1.0,14.72,8.24,0.29,
9.157,91.30214292835898,81.83417364383897,-3.18,-1.42,0.21,7.0,0.0,0.0,9.0,0.0,1.0,1.0,14.81,8.44,0.2,
9.182,91.29121429283589,81.82141736438389,-3.54,-1.68,-0.31,7.0,0.0,0.0,10.0,0.0,1.0,1.0,14.91,8.53,0.59,
9.206,91.29912142928359,81.85614173643839,-3.59,-1.82,-0.35,7.0,0.0,0.0,9.0,0.0,1.0,1.0,15.01,8.44,0.39,
9.231,91.25491214292836,81.90461417364384,-3.11,-1.92,-0.05,7.0,0.0,0.0,9.0,0.0,1.0,1.0,15.01,8.53,0.59,
9.255,91.17849121429283,81.83746141736438,-3.05,-2.1,-0.15,7.0,0.0,0.0,10.0,0.0,1.0,1.0,15.01,8.34,0.29,
9.279,91.17084912142928,81.83074614173644,-3.12,-2.08,-0.17,7.0,0.0,0.0,10.0,0.0,1.0,1.0,14.91,8.34,0.0,
9.304,91.20608491214293,81.81207461417365,-3.33,-2.16,-0.27,7.0,0.0,0.0,9.0,0.0,1.0,1.0,14.81,8.24,0.98,
9.328,91.28160849121429,81.81920746141735,-3.27,-2.21,0.02,7.0,0.0,0.0,8.0,0.0,1.0,1.0,14.81,8.24,0.0,
9.353,91.28016084912143,81.76592074614173,-3.31,-1.85,0.0,7.0,0.0,0.0,9.0,0.0,1.0,1.0,14.81,8.04,0.0,
9.376,91.26201608491215,81.75159207461418,-3.33,-1.91,-0.18,7.0,0.0,0.0,10.0,0.0,1.0,1.0,14.72,8.04,0.0,
9.401,91.26920160849122,81.72315920746142,-3.5,-1.76,-0.15,8.0,0.0,0.0,10.0,0.0,1.0,1.0,14.81,7.95,0.0,
9.425,91.32392016084913,81.69331592074614,-3.18,-2.32,-0.08,7.0,0.0,0.0,10.0,0.0,1.0,1.0,14.72,7.95,0.0,
9.45,91.31139201608491,81.69933159207461,-3.37,-2.28,-0.11,8.0,0.0,0.0,10.0,0.0,1.0,1.0,14.81,7.85,0.0,
9.475,91.28313920160849,81.68193315920747,-3.66,-1.95,-0.34,7.0,0.0,0.0,9.0,0.0,1.0,1.0,14.72,8.04,0.0,
9.498,91.27131392016085,81.66219331592075,-3.37,-1.79,-0.14,8.0,0.0,0.0,10.0,0.0,1.0,1.0,14.81,7.85,0.0,
9.523,91.32413139201608,81.67821933159209,-3.16,-1.36,-0.06,8.0,0.0,0.0,10.0,0.0,1.0,1.0,14.72,7.85,0.0,
9.547,91.3114131392016,81.6708219331592,-3.34,-1.34,-0.31,7.0,0.0,0.0,8.0,0.0,1.0,1.0,14.81,7.85,0.0,
9.572,91.31914131392016,81.60708219331592,-3.25,-1.44,-0.26,7.0,0.0,0.0,10.0,0.0,1.0,1.0,14.91,7.85,0.0,
9.596,91.26591413139201,81.61870821933161,-3.34,-1.24,0.01,7.0,0.0,0.0,10.0,0.0,1.0,1.0,15.01,7.95,0.0,
9.62,91.2875914131392,81.64687082193318,-3.74,-1.3,-0.17,7.0,0.0,0.0,10.0,0.0,1.0,1.0,15.11,8.04,0.0,
9.645,91.23575914131392,81.61368708219331,-3.27,-1.22,-0.36,8.0,0.0,0.0,10.0,0.0,1.0,1.0,15.11,8.04,0.0,
9.669,91.23057591413139,81.59236870821934,-3.5,-1.15,-0.21,8.0,0.0,0.0,10.0,0.0,1.0,1.0,15.21,8.14,1.37,
9.694,91.21205759141313,81.59023687082194,-3.7,-1.2,-0.24,8.0,0.0,0.0,10.0,0.0,1.0,1.0,15.3,8.34,0.49,
9.718,91.21920575914132,81.6080236870822,-3.34,-1.22,-0.01,8.0,0.0,0.0,10.0,0.0,1.0,1.0,15.6,8.44,0.98,
9.743,91.16592057591413,81.55580236870821,-3.53,-1.25,-0.25,8.0,0.0,0.0,10.0,0.0,1.0,1.0,15.7,8.63,0.0,
9.766,91.18759205759142,81.56858023687082,-3.63,-1.12,-0.01,8.0,0.0,0.0,11.0,0.0,1.0,1.0,15.79,8.73,0.0,
9.791,91.13575920575914,81.51585802368709,-3.66,-1.6,-0.49,8.0,0.0,0.0,11.0,0.0,1.0,1.0,15.89,8.73,4.22,
9.816,91.17557592057592,81.51058580236872,-3.78,-1.19,-0.27,8.0,0.0,0.0,11.0,0.0,1.0,1.0,16.19,8.73,0.0,
9.84,91.1525575920576,81.53705858023687,-3.78,-0.98,-0.41,8.0,0.0,0.0,11.0,0.0,1.0,1.0,16.28,8.93,0.0,
9.865,91.20425575920575,81.5577058580237,-3.52,-0.56,-0.42,8.0,0.0,0.0,11.0,0.0,1.0,1.0,16.48,9.12,0.0,
9.889,91.22742557592058,81.55077058580237,-4.18,0.2,-0.28,8.0,0.0,0.0,11.0,0.0,1.0,1.0,16.68,9.42,0.0,
9.913,91.25674255759205,81.52307705858023,-4.36,0.51,0.1,8.0,0.0,0.0,11.0,0.0,1.0,1.0,17.07,9.71,0.0,
9.937,91.29567425575921,81.52030770585802,-5.07,0.44,-0.41,8.0,0.0,0.0,12.0,0.0,1.0,2.0,17.46,10.2,0.0,
9.962,91.29956742557592,81.5020307705858,-5.66,0.18,-0.47,8.0,0.0,0.0,12.0,0.0,1.0,2.0,18.64,10.79,0.0,
9.987,91.2549567425576,81.41020307705858,-5.32,-0.41,-0.8,8.0,0.0,0.0,12.0,0.0,1.0,2.0,19.52,11.38,0.0,
10.011,91.23249567425576,81.32002030770586,-5.18,-0.98,-0.69,8.0,0.0,0.0,14.0,0.0,1.0,2.0,20.4,12.36,0.0,
10.036,91.30224956742558,81.22100203077058,-4.93,-0.76,-0.57,8.0,0.0,0.0,16.0,0.0,1.0,2.0,21.19,12.85,0.0,
10.06,91.33622495674256,81.16610020307705,-4.19,-1.06,-0.38,8.0,0.0,0.0,14.0,0.0,1.0,2.0,21.97,13.24,0.0,
10.085,91.33962249567426,81.1966100203077,-3.73,-1.66,-0.01,8.0,0.0,0.0,15.0,0.0,1.0,2.0,22.46,13.44,0.0,
10.109,91.34896224956742,81.13666100203076,-3.47,-1.76,0.26,8.0,0.0,0.0,15.0,0.0,1.0,2.0,22.96,13.54,0.2,
10.133,91.34989622495675,81.09466610020309,-3.1,-1.85,0.09,8.0,0.0,0.0,15.0,0.0,1.0,2.0,23.05,13.54,0.0,
10.158,91.35898962249567,81.06346661002031,-2.89,-2.29,0.13,8.0,0.0,0.0,15.0,0.0,1.0,2.0,22.96,13.44,0.0,
10.182,91.35089896224957,81.06934666100203,-2.61,-2.31,0.44,8.0,0.0,0.0,15.0,0.0,1.0,2.0,22.76,13.24,0.39,
10.207,91.35008989622496,81.0699346661002,-2.4,-2.36,0.18,8.0,0.0,0.0,14.0,0.0,1.0,2.0,22.37,13.05,0.59,
10.231,91.29600898962249,81.13299346661002,-2.92,-2.05,0.21,8.0,0.0,0.0,14.0,0.0,1.0,2.0,21.88,12.85,0.29,
10.256,91.28160089896225,81.10329934666099,-2.69,-1.8,-0.16,8.0,0.0,0.0,14.0,0.0,1.0,2.0,21.78,12.56,0.78,
10.28,91.26216008989623,81.07332993466609,-2.84,-1.65,0.08,8.0,0.0,0.0,14.0,0.0,1.0,2.0,21.48,12.56,0.29,
10.305,91.25121600898962,81.09733299346661,-2.68,-1.93,-0.05,8.0,0.0,0.0,14.0,0.0,1.0,2.0,21.29,12.36,0.1,
10.33,91.22312160089896,81.09973329934665,-2.6,-2.07,-0.05,8.0,0.0,0.0,14.0,0.0,1.0,2.0,21.09,12.26,0.0,
10.354,91.21131216008989,81.09997332993466,-1.82,-3.16,0.19,8.0,0.0,0.0,14.0,0.0,1.0,2.0,20.8,11.97,0.0,
10.379,91.22813121600899,81.12699733299345,-1.44,-4.27,0.61,8.0,0.0,0.0,14.0,0.0,1.0,2.0,20.01,11.38,0.0,
10.403,91.2118131216009,81.19269973329935,-1.11,-5.78,1.58,8.0,0.0,0.0,13.0,0.0,1.0,1.0,19.03,10.69,0.29,
10.428,91.16518131216009,81.26226997332994,-1.66,-6.47,2.55,8.0,0.0,0.0,11.0,0.0,1.0,1.0,17.95,9.71,2.45,
10.452,90.980518131216,81.350226997333,-2.32,-6.65,2.44,8.0,0.0,0.0,11.0,0.0,1.0,1.0,16.87,8.73,5.69,
10.476,90.8180518131216,81.3680226997333,-3.56,-1.37,0.48,8.0,0.0,0.0,11.0,0.0,1.0,1.0,15.79,8.04,0.88,
10.501,90.77480518131216,81.32480226997333,-4.41,2.53,-1.51,8.0,0.0,0.0,11.0,0.0,1.0,1.0,15.6,8.04,0.2,
10.525,90.83348051813121,81.33848022699733,-4.22,2.24,-1.85,8.0,0.0,0.0,13.0,0.0,1.0,1.0,15.99,8.53,0.0,
10.55,90.92034805181312,81.25884802269974,-3.66,0.89,-0.92,8.0,0.0,0.0,13.0,0.0,1.0,1.0,16.87,9.32,0.0,
10.574,91.0100348051813,81.23288480226998,-3.14,-0.33,-0.34,8.0,0.0,0.0,13.0,0.0,1.0,2.0,17.36,9.71,0.0,
10.599,91.02800348051814,81.23028848022699,-3.11,-0.89,-0.18,8.0,0.0,0.0,14.0,0.0,1.0,2.0,17.66,10.01,0.0,
10.624,90.98480034805182,81.2660288480227,-3.06,-0.31,0.11,8.0,0.0,0.0,14.0,0.0,1.0,2.0,17.95,10.2,0.0,
10.648,90.98948003480517,81.24260288480227,-2.82,-0.37,-0.26,8.0,0.0,0.0,14.0,0.0,1.0,2.0,18.25,10.3,0.0,
10.673,91.07094800348051,81.24026028848023,-2.61,-1.2,-0.34,8.0,0.0,0.0,14.0,0.0,1.0,2.0,18.44,10.3,0.0,
10.697,91.09709480034805,81.24002602884802,-3.04,-0.73,-0.36,8.0,0.0,0.0,14.0,0.0,1.0,2.0,18.34,10.3,0.0,
10.722,91.1267094800348,81.2400026028848,-2.98,-0.44,-0.23,8.0,0.0,0.0,14.0,0.0,1.0,2.0,18.54,10.59,0.0,
10.746,91.13867094800348,81.24900026028848,-2.22,-0.34,0.11,8.0,0.0,0.0,14.0,0.0,1.0,2.0,18.74,10.69,1.08,
10.771,91.17586709480035,81.25890002602884,-2.32,-0.85,0.35,8.0,0.0,0.0,14.0,0.0,1.0,2.0,18.64,10.69,0.59,
10.795,91.22458670948004,81.23289000260289,-2.22,-1.41,0.23,8.0,0.0,0.0,14.0,0.0,1.0,2.0,18.64,10.79,0.0,
10.819,91.220458670948,81.25728900026029,-2.43,-1.53,0.24,8.0,0.0,0.0,13.0,0.0,1.0,2.0,18.15,10.5,0.0,
10.844,91.1930458670948,81.29572890002603,-2.32,-0.65,0.21,8.0,0.0,0.0,14.0,0.0,1.0,2.0,17.85,10.5,0.0,
10.868,91.19930458670947,81.31757289000261,-2.73,-1.01,-0.21,8.0,0.0,0.0,13.0,0.0,1.0,2.0,17.66,10.4,0.0,
10.893,91.19093045867095,81.34675728900027,-2.76,-1.32,-0.08,8.0,0.0,0.0,14.0,0.0,1.0,2.0,17.56,10.3,0.0,
10.917,91.19009304586709,81.34067572890002,-2.89,-0.74,-0.02,8.0,0.0,0.0,13.0,0.0,1.0,2.0,17.46,10.2,0.1,
10.942,91.18100930458672,81.32206757289,-3.11,-0.56,-0.11,8.0,0.0,0.0,13.0,0.0,1.0,2.0,17.36,10.2,0.0,
10.967,91.15310093045868,81.320206757289,-3.66,-0.53,-0.27,8.0,0.0,0.0,13.0,0.0,1.0,2.0,17.36,10.3,0.0,
10.991,91.18631009304586,81.3020206757289,-3.48,-0.37,-0.72,8.0,0.0,0.0,14.0,0.0,1.0,2.0,17.56,10.3,0.0,
11.016,91.22563100930458,81.30020206757288,-3.55,-0.56,-0.44,8.0,0.0,0.0,14.0,0.0,1.0,2.0,17.76,10.59,0.0,
11.04,91.24756310093045,81.29102020675728,-3.63,0.28,-0.6,8.0,0.0,0.0,16.0,0.0,1.0,2.0,18.25,10.79,0.0,
11.065,91.24975631009305,81.27210202067573,-3.63,0.04,-0.34,8.0,0.0,0.0,14.0,0.0,1.0,2.0,18.54,11.18,0.2,
11.089,91.2409756310093,81.27021020206757,-3.36,-0.69,-0.57,8.0,0.0,0.0,13.0,0.0,1.0,2.0,18.84,11.48,0.0,
11.114,91.24909756310093,81.20702102020675,-2.85,-1.05,-0.37,8.0,0.0,0.0,14.0,0.0,1.0,2.0,19.13,11.67,0.0,
11.139,91.25890975631009,81.21870210202067,-2.44,-1.24,-0.36,8.0,0.0,0.0,14.0,0.0,1.0,2.0,19.03,11.67,0.0,
11.163,91.24189097563101,81.17487021020206,-2.25,-0.28,-1.04,8.0,0.0,0.0,13.0,0.0,1.0,2.0,18.93,11.67,0.0,
11.188,91.2131890975631,81.1164870210202,-2.34,1.62,-1.65,8.0,0.0,0.0,14.0,0.0,1.0,2.0,18.44,11.77,0.39,
11.212,91.30031890975631,81.17364870210203,-2.79,1.88,-1.46,8.0,0.0,0.0,14.0,0.0,1.0,2.0,18.25,12.07,0.39,
11.237,91.43503189097564,81.2063648702102,-3.02,1.12,-0.98,8.0,0.0,0.0,14.0,0.0,1.0,2.0,18.34,12.56,0.0,
11.261,91.55650318909755,81.19163648702101,-3.86,0.44,-0.22,8.0,0.0,0.0,14.0,0.0,1.0,2.0,18.54,12.95,0.0,
11.286,91.60465031890975,81.2261636487021,-3.75,-0.2,-0.11,8.0,0.0,0.0,14.0,0.0,1.0,2.0,18.84,13.24,0.88,
11.311,91.64546503189098,81.25661636487021,-4.82,-0.08,-0.12,8.0,0.0,0.0,14.0,0.0,1.0,2.0,19.62,13.54,0.39,
11.335,91.6675465031891,81.30466163648703,-5.27,-0.34,-0.21,8.0,0.0,0.0,15.0,0.0,1.0,2.0,20.7,14.03,0.0,
11.36,91.72375465031891,81.2824661636487,-4.98,-1.24,0.47,8.0,0.0,0.0,15.0,0.0,1.0,2.0,21.78,14.42,0.0,
11.384,91.8013754650319,81.25324661636486,-4.4,-1.53,1.02,8.0,0.0,0.0,14.0,0.0,1.0,2.0,22.66,14.62,0.0,
11.409,91.7911375465032,81.22332466163648,-4.15,-1.56,1.37,9.0,0.0,0.0,15.0,0.0,1.0,2.0,23.15,14.62,0.1,
11.433,91.77211375465032,81.22933246616364,-4.2,-1.06,0.43,9.0,0.0,0.0,16.0,0.0,1.0,2.0,23.45,14.62,0.39,
11.458,91.77021137546504,81.19393324661635,-3.92,-1.55,-0.11,9.0,0.0,0.0,16.0,0.0,1.0,2.0,23.94,14.72,0.29,
11.483,91.7070211375465,81.09139332466162,-3.77,-1.66,0.39,9.0,0.0,0.0,16.0,0.0,1.0,2.0,24.23,14.72,0.69,
11.507,91.68270211375466,81.05413933246615,-3.96,-0.59,-0.11,8.0,0.0,0.0,16.0,0.0,1.0,2.0,24.33,15.01,0.49,
11.532,91.68927021137546,80.98741393324661,-3.47,-0.05,-1.27,9.0,0.0,0.0,16.0,1.0,1.0,2.0,24.82,15.5,0.0,
11.556,91.77092702113755,81.03474139332467,-4.65,2.02,-0.87,9.0,0.0,0.0,17.0,1.0,1.0,2.0,25.31,16.09,0.0,
11.58,91.86909270211375,81.04847413933246,-4.44,0.87,-0.82,9.0,0.0,0.0,16.0,1.0,1.0,2.0,26.68,16.97,0.0,
11.604,91.87890927021137,80.98684741393325,-3.98,-0.72,-0.05,9.0,0.0,0.0,17.0,1.0,1.0,2.0,27.57,17.66,0.0,
11.629,91.85289092702112,80.94468474139333,-3.79,-1.38,-0.38,9.0,0.0,0.0,17.0,1.0,1.0,2.0,28.15,18.25,0.0,
11.654,91.91328909270212,80.86846847413933,-3.25,-2.99,-2.62,9.0,0.0,0.0,17.0,1.0,1.0,2.0,28.65,18.74,0.0,
11.678,91.8833289092702,80.82484684741394,-3.47,-4.07,-4.11,9.0,0.0,0.0,18.0,1.0,1.0,2.0,28.74,19.03,0.0,
11.703,91.88033289092701,80.87448468474139,-3.67,-3.31,-3.03,9.0,0.0,0.0,18.0,1.0,1.0,2.0,28.55,19.42,0.0,
11.727,91.7090332890927,80.80744846847413,-3.18,-2.42,-2.97,9.0,0.0,0.0,18.0,1.0,1.0,2.0,28.55,19.72,0.0,
11.752,91.51190332890926,80.78274484684741,-2.28,-0.02,-5.69,9.0,0.0,0.0,18.0,1.0,1.0,3.0,28.84,20.11,0.0,
11.777,91.67219033289092,80.82527448468474,-3.02,0.18,-5.8,9.0,0.0,0.0,18.0,1.0,1.0,3.0,29.33,21.68,0.0,
11.801,91.88621903328908,80.91052744846847,-4.24,-3.05,-4.32,9.0,0.0,0.0,19.0,1.0,1.0,3.0,29.92,22.27,0.0,
11.826,91.9076219033289,80.87405274484685,-5.24,-5.12,-1.35,9.0,0.0,0.0,19.0,1.0,1.0,3.0,30.12,22.37,0.0,
11.85,91.8107621903329,80.77140527448469,-5.5,-4.73,-1.56,9.0,0.0,0.0,19.0,1.0,1.0,3.0,30.51,22.27,0.0,
11.875,91.6930762190333,80.74314052744846,-6.88,-3.42,-1.82,9.0,0.0,0.0,19.0,1.0,1.0,3.0,30.8,22.07,0.0,
11.899,91.66330762190333,80.70431405274485,-8.11,-3.82,-2.18,9.0,0.0,0.0,19.0,1.0,1.0,3.0,31.0,21.58,0.0,
11.924,91.76833076219033,80.70043140527449,-9.34,-5.85,-0.35,9.0,0.0,0.0,19.0,1.0,1.0,3.0,31.39,20.7,0.0,
11.949,91.74283307621903,80.63704314052744,-9.07,-7.85,2.14,9.0,0.0,0.0,19.0,1.0,1.0,3.0,31.69,19.52,0.0,
11.973,91.5422833076219,80.54070431405275,-8.13,-8.06,3.02,9.0,0.0,0.0,19.0,1.0,1.0,3.0,31.0,18.05,0.0,
11.998,91.3062283307622,80.42307043140528,-7.73,-7.64,3.08,9.0,0.0,0.0,18.0,1.0,1.0,3.0,29.82,16.58,0.0,
12.022,91.11162283307623,80.25830704314052,-6.79,-6.62,3.1,8.0,0.0,0.0,16.0,1.0,1.0,3.0,28.25,15.01,0.0,
12.047,90.98416228330763,80.16083070431405,-5.17,-6.24,3.73,8.0,0.0,0.0,13.0,1.0,1.0,2.0,26.09,13.64,0.59,
12.071,90.97141622833077,80.19608307043141,-4.37,-9.8,7.37,7.0,0.0,0.0,9.0,1.0,1.0,2.0,22.76,12.36,2.06,
12.096,91.02414162283308,80.20860830704314,-5.27,-14.98,11.97,6.0,0.0,0.0,4.0,1.0,1.0,1.0,19.33,10.69,5.69,
12.121,90.7504141622833,80.38086083070432,-9.68,-22.23,22.98,6.0,0.0,0.0,11.0,0.0,1.0,1.0,13.93,7.85,12.75,
12.145,90.48904141622833,80.74908608307044,-15.29,-34.81,35.79,5.0,0.0,0.0,9.0,0.0,1.0,0.0,11.09,5.89,12.36,
12.17,90.42690414162283,81.20890860830704,-39.91,-37.54,28.21,4.0,0.0,0.0,5.0,0.0,1.0,0.0,8.53,4.22,1.77,
12.193,88.12569041416229,81.63289086083071,-52.39,-21.02,34.11,3.0,0.0,0.0,2.0,0.0,0.0,0.0,5.59,2.65,10.4,
12.218,87.94056904141623,84.62728908608307,-39.21,1.59,12.58,3.0,0.0,0.0,0.0,0.0,0.0,0.0,3.14,1.08,0.0,
12.242,87.13905690414163,89.46272890860831,-13.77,2.28,20.11,2.0,0.0,0.0,0.0,0.0,0.0,0.0,1.28,0.2,4.12,
12.266,85.55590569041416,94.99527289086083,24.13,-20.31,8.73,2.0,0.0,0.0,0.0,0.0,0.0,0.0,0.0,0.0,0.1,
12.291,84.18259056904142,100.30052728908609,45.61,-24.18,14.62,2.0,0.0,0.0,0.0,0.0,0.0,0.0,0.1,0.0,0.0,
12.314,83.61325905690413,104.66505272890862,58.28,-16.74,21.19,1.0,0.0,0.0,0.0,0.0,0.0,0.0,0.1,0.0,0.98,
12.339,83.3403259056904,107.01850527289086,61.25,-2.08,22.63,1.0,0.0,0.0,0.0,0.0,0.0,0.0,0.0,0.0,0.0,
12.362,83.50203259056903,107.59585052728909,53.56,12.89,18.74,1.0,0.0,0.0,0.0,0.0,0.0,0.0,0.0,0.0,0.0,
12.387,84.1572032590569,107.06858505272892,45.69,22.94,13.86,0.0,0.0,0.0,0.0,0.0,0.0,0.0,0.0,0.0,4.91,
12.41,85.11372032590569,105.99885850527289,38.93,28.18,12.6,0.0,0.0,0.0,0.0,0.0,0.0,0.0,0.0,0.0,7.26,
12.434,85.36237203259057,104.42488585052729,29.73,44.51,1.49,0.0,0.0,0.0,0.0,0.0,0.0,0.0,0.0,0.0,8.34,
12.459,86.08023720325906,101.80148858505274,23.4,54.18,4.89,0.0,0.0,0.0,0.0,0.0,0.0,0.0,0.0,0.0,9.91,
12.482,87.11502372032591,98.09214885850528,16.95,57.06,12.27,0.0,0.0,0.0,0.0,0.0,0.0,0.0,0.0,0.0,0.0,
12.507,88.38850237203259,93.54521488585053,25.66,45.77,8.7,0.0,0.0,0.0,0.0,0.0,0.0,0.0,0.0,0.0,13.05,
12.53,90.18085023720326,88.09552148858505,56.25,23.34,22.21,0.0,0.0,0.0,0.0,0.0,0.0,0.0,0.0,0.0,8.63,
12.554,91.51208502372032,84.1125521488585,68.36,-3.57,25.56,0.0,0.0,0.0,0.0,0.0,0.0,0.0,0.0,0.0,6.18,
12.577,92.14920850237203,81.02325521488586,59.32,0.48,30.41,0.0,0.0,0.0,0.0,0.0,0.0,0.0,0.0,0.0,3.43,
12.602,92.79792085023722,78.17632552148858,36.34,8.97,32.34,0.0,0.0,0.0,0.0,0.0,0.0,0.0,0.0,0.0,0.0,
12.625,93.58279208502371,74.56163255214885,21.36,6.1,21.21,0.0,0.0,0.0,0.0,0.0,0.0,0.0,0.0,0.0,13.24,
12.649,94.41727920850238,70.67216325521488,20.47,-1.93,1.77,0.0,0.0,0.0,0.0,0.0,0.0,0.0,0.0,0.0,10.01,
12.673,94.31172792085025,68.5282163255215,18.67,-21.08,-11.81,0.0,0.0,0.0,0.0,0.0,0.0,0.0,0.0,0.0,0.0,
12.697,92.87017279208501,66.97282163255214,-23.01,17.67,13.05,0.0,0.0,0.0,0.0,0.0,0.0,0.0,0.0,0.0,0.0,
12.721,92.9870172792085,64.06328216325521,-85.66,-8.27,-37.06,0.0,0.0,0.0,0.0,0.0,0.0,0.0,0.0,0.0,10.59,
12.744,89.84870172792084,69.64032821632553,-122.53,-25.63,-88.47,0.0,0.0,0.0,0.0,0.0,0.0,0.0,0.0,0.0,2.55,
12.769,88.96787017279209,69.34303282163256,-194.86,-0.78,-90.53,0.0,0.0,0.0,0.0,0.0,0.0,0.0,0.0,0.1,2.45,
12.792,88.06978701727921,67.53130328216325,-126.41,-65.08,-36.66,1.0,0.0,0.0,6.0,0.0,0.0,0.0,0.78,1.37,0.88,
12.817,85.88297870172792,68.29513032821632,-27.37,-66.23,3.42,2.0,0.0,0.0,11.0,0.0,0.0,0.0,4.81,2.94,0.0,
12.841,86.07829787017279,70.64851303282163,-14.98,12.15,-29.61,3.0,0.0,0.0,0.0,0.0,0.0,0.0,8.53,3.63,0.0,
12.866,88.91482978701728,71.99985130328216,-16.34,-12.05,-12.84,3.0,0.0,0.0,4.0,1.0,1.0,1.0,12.65,3.53,0.0,
12.891,89.24348297870173,73.47598513032821,-18.11,-34.85,-0.34,4.0,0.0,0.0,10.0,1.0,2.0,1.0,20.21,4.32,0.0,
12.915,88.23234829787017,74.37059851303282,-17.82,-29.95,0.71,5.0,0.0,0.0,17.0,1.0,2.0,1.0,34.73,6.08,0.0,
12.94,87.33023482978702,75.00005985130328,-12.05,-10.9,-12.08,6.0,0.0,0.0,22.0,1.0,3.0,1.0,58.37,7.95,0.0,
12.964,87.1770234829787,75.65700598513034,-10.46,0.56,-14.98,7.0,0.0,0.0,25.0,1.0,4.0,2.0,73.38,9.12,0.0,
12.989,87.46770234829786,76.30770059851304,-10.02,-3.12,-8.33,8.0,0.0,0.0,27.0,1.0,4.0,3.0,88.68,10.1,0.1,
13.014,87.61377023482979,76.7777700598513,-8.44,-5.33,-3.85,9.0,0.0,0.0,28.0,1.0,5.0,3.0,103.1,10.89,0.0,
13.038,87.68237702348299,77.22077700598513,-6.31,-3.82,-2.05,10.0,0.0,0.0,30.0,1.0,5.0,3.0,114.68,11.38,0.0,
13.064,87.82423770234831,77.55307770059852,-4.73,-2.33,0.27,10.0,0.0,0.0,30.0,1.0,5.0,4.0,126.16,11.67,0.0,
13.088,87.78442377023484,77.85630777005986,-1.21,-4.02,2.82,11.0,0.0,0.0,31.0,1.0,6.0,4.0,129.39,11.67,0.0,
13.113,87.75344237702349,78.11163077700598,0.23,-2.56,2.92,11.0,0.0,0.0,30.0,1.0,6.0,4.0,128.81,11.48,0.1,
13.137,87.72334423770235,78.3441630777006,3.54,-0.45,3.89,11.0,0.0,0.0,30.0,1.0,6.0,4.0,125.08,11.09,2.26,
13.162,87.59433442377023,78.59241630777007,2.17,1.29,2.54,12.0,0.0,0.0,28.0,1.0,5.0,3.0,117.72,10.69,3.73,
13.187,87.76143344237703,78.89624163077701,-0.18,2.24,2.16,12.0,0.0,0.0,28.0,1.0,5.0,3.0,106.05,10.4,2.75,
13.211,87.79614334423769,79.0886241630777,-1.4,1.46,3.73,0.0,0.0,0.0,28.0,1.0,5.0,3.0,101.34,10.4,0.49,
13.236,87.62861433442377,79.26086241630777,-3.64,10.85,5.73,1.0,0.0,0.0,30.0,1.0,5.0,4.0,96.24,10.79,0.0,
13.26,87.77386143344239,79.27808624163077,-6.19,3.49,3.37,1.0,0.0,0.0,30.0,1.0,6.0,4.0,86.33,11.48,0.0,
13.284,87.81538614334423,79.29780862416308,-7.03,2.47,3.56,2.0,0.0,0.0,31.0,1.0,6.0,4.0,80.25,12.16,0.0,
13.308,87.91853861433444,79.46178086241632,-9.27,10.08,5.53,2.0,0.0,0.0,32.0,1.0,6.0,4.0,78.68,13.05,0.2,
13.333,88.12685386143345,79.56817808624163,-8.5,17.0,9.16,3.0,0.0,0.0,34.0,1.0,6.0,5.0,74.75,14.32,0.0,
13.358,88.50768538614334,79.48881780862418,-7.21,14.68,9.66,4.0,0.0,0.0,34.0,1.0,6.0,5.0,68.57,16.28,0.0,
13.382,88.88776853861434,79.36388178086241,-6.22,12.09,5.6,3.0,0.0,0.0,32.0,1.0,6.0,6.0,64.06,18.54,0.0,
13.407,89.27677685386142,79.37838817808623,-7.66,8.42,5.2,2.0,0.0,0.0,35.0,1.0,6.0,6.0,61.8,20.31,0.0,
13.431,89.45067768538614,79.38883881780863,-7.76,11.93,7.02,4.0,0.0,0.0,35.0,1.0,6.0,6.0,61.9,21.78,0.0,
13.456,89.77406776853861,79.32688388178086,-8.5,12.14,9.67,4.0,0.0,0.0,37.0,1.0,6.0,7.0,62.1,23.94,0.0,
13.48,89.72540677685386,79.16768838817809,-11.83,9.86,5.37,4.0,0.0,0.0,35.0,1.0,6.0,7.0,62.0,26.68,0.0,
13.505,89.81054067768538,79.0077688388178,-14.6,12.44,4.32,3.0,0.0,0.0,39.0,1.0,7.0,7.0,64.16,29.72,0.0,
13.53,90.26905406776854,78.88377688388178,-16.37,10.9,8.37,2.0,0.0,0.0,40.0,1.0,7.0,8.0,67.98,32.57,0.0,
13.554,90.52190540677685,78.79937768838818,-19.71,10.77,13.5,1.0,0.0,0.0,39.0,2.0,7.0,8.0,72.2,35.51,0.0,
13.579,90.71819054067768,78.86293776883882,-26.72,10.73,20.46,12.0,0.0,0.0,37.0,2.0,7.0,9.0,78.48,40.61,0.0,
13.603,90.87281905406778,78.68929377688387,-39.5,5.62,26.6,10.0,0.0,0.0,35.0,2.0,7.0,9.0,91.63,43.65,0.0,
13.628,90.80728190540677,78.5459293776884,-62.83,-13.7,24.92,9.0,0.0,0.0,31.0,2.0,7.0,10.0,101.93,46.5,347.67,
13.652,90.7647281905407,77.30759293776885,-84.01,25.02,44.77,7.0,0.0,0.0,21.0,2.0,7.0,10.0,111.05,48.85,2.75,
13.678,89.91447281905405,76.77875929377689,-95.76,35.01,28.94,4.0,0.0,0.0,9.0,2.0,8.0,10.0,117.92,44.54,0.98,
13.703,89.36144728190541,75.95187592937769,-118.6,44.91,24.74,3.0,0.0,0.0,9.0,2.0,8.0,10.0,121.15,32.86,1.47,
13.727,88.33414472819054,75.64418759293777,-136.19,58.44,-25.66,2.0,0.0,0.0,4.0,2.0,8.0,10.0,112.72,20.01,3.14,
13.752,87.41241447281905,74.66841875929377,-157.73,53.19,3.18,2.0,0.0,0.0,0.0,2.0,7.0,10.0,94.27,9.03,2.65,
13.776,88.69724144728191,71.75384187592938,-160.32,38.27,-36.08,1.0,0.0,0.0,1.0,2.0,7.0,9.0,70.04,4.71,1.86,
13.801,91.4177241447282,70.45438418759294,-157.69,-0.42,-38.07,1.0,0.0,0.0,1.0,1.0,5.0,7.0,40.71,3.24,2.06,
13.826,93.46277241447282,67.84043841875929,-136.66,-22.21,-12.57,0.0,0.0,0.0,0.0,1.0,3.0,3.0,17.76,1.96,3.14,
13.85,96.81727724144729,70.13504384187593,-81.2,-43.27,-5.45,0.0,0.0,0.0,0.0,0.0,1.0,0.0,6.08,0.98,15.21,
13.874,98.06172772414473,80.21950438418759,-6.63,-38.87,27.11,0.0,0.0,0.0,0.0,0.0,0.0,0.0,2.65,1.28,12.75,
13.898,99.86917277241447,90.62395043841876,83.85,-88.75,44.24,0.0,0.0,0.0,0.0,0.0,0.0,0.0,1.37,1.57,7.46,
13.922,99.13191727724144,99.29639504384188,129.96,-75.88,61.09,0.0,0.0,0.0,1.0,0.0,0.0,0.0,1.57,0.98,0.0,
13.946,98.14019172772414,105.92363950438418,163.45,-53.47,72.15,0.0,0.0,0.0,1.0,0.0,0.0,0.0,1.57,0.59,1.08,
13.971,96.21401917277242,107.89136395043842,174.5,-32.67,70.01,0.0,0.0,0.0,0.0,0.0,0.0,0.0,1.47,0.39,4.61,
13.995,93.51940191727724,105.89213639504385,176.05,-11.06,38.5,0.0,0.0,0.0,0.0,0.0,0.0,0.0,1.47,0.49,1.57,
14.019,91.25194019172773,101.73221363950438,184.56,9.15,-4.21,0.0,0.0,0.0,0.0,0.0,0.0,0.0,1.47,0.59,1.18,
14.044,89.58519401917277,96.96022136395044,184.87,18.42,-50.11,0.0,0.0,0.0,0.0,0.0,0.0,0.0,1.57,0.59,1.08,
14.067,89.39151940191728,91.83002213639504,170.42,35.53,-36.02,0.0,0.0,0.0,0.0,0.0,0.0,0.0,1.37,0.59,20.01,
14.092,89.66015194019172,86.62800221363949,121.95,9.37,-4.27,0.0,0.0,0.0,0.0,0.0,0.0,0.0,1.77,0.78,8.04,
14.115,90.37101519401918,80.50080022136395,56.11,7.0,27.24,0.0,0.0,0.0,0.0,0.0,0.0,0.0,1.96,0.69,0.0,
14.14,90.41510151940192,74.3170800221364,10.27,-21.49,27.66,0.0,0.0,0.0,0.0,0.0,0.0,0.0,1.96,0.39,0.0,
14.163,89.31251015194019,69.17170800221363,-7.93,-25.07,-7.54,0.0,0.0,0.0,0.0,0.0,0.0,0.0,1.67,0.2,2.75,
14.188,88.04125101519404,65.65117080022137,-5.23,6.34,-35.24,0.0,0.0,0.0,0.0,0.0,0.0,0.0,1.47,0.0,1.37,
14.212,86.8881251015194,62.17611708002213,-49.98,66.11,-73.1,0.0,0.0,0.0,0.0,0.0,0.0,0.0,1.28,0.0,1.57,
14.236,89.88681251015194,62.15261170800221,-44.09,10.44,-138.24,0.0,0.0,0.0,3.0,0.0,0.0,0.0,0.98,0.49,32.96,
14.261,93.20168125101519,60.512261170800215,-11.47,-11.8,-16.22,1.0,0.0,0.0,6.0,0.0,0.0,1.0,2.55,3.73,0.0,
14.285,91.68816812510151,64.93822611708003,-7.6,-56.19,-4.76,2.0,0.0,0.0,10.0,0.0,0.0,0.0,6.38,5.98,0.0,
14.31,90.22281681251015,66.460822611708,-0.65,8.85,11.51,2.0,0.0,0.0,0.0,0.0,1.0,1.0,11.48,7.16,13.64,
14.334,90.05828168125102,68.8630822611708,-2.98,21.71,-6.85,3.0,0.0,0.0,4.0,0.0,1.0,1.0,14.03,8.34,21.78,
14.358,90.77082816812509,70.44430822611709,-2.85,2.15,-6.66,3.0,0.0,0.0,6.0,0.0,1.0,1.0,16.09,8.93,6.08,
14.383,91.0670828168125,71.9074308226117,-1.55,-7.89,8.25,4.0,0.0,0.0,8.0,0.0,1.0,1.0,17.95,9.61,2.35,
14.407,90.75470828168125,73.14274308226116,-0.91,-3.99,4.45,5.0,0.0,0.0,11.0,0.0,1.0,1.0,19.52,10.3,0.0,
14.431,90.56147082816813,74.21127430822612,0.37,5.5,-1.9,5.0,0.0,0.0,13.0,0.0,1.0,1.0,20.7,11.09,0.0,
14.455,90.48814708281681,75.17312743082262,0.23,5.21,-4.31,6.0,0.0,0.0,14.0,0.0,1.0,1.0,21.68,12.16,0.0,
14.48,90.60681470828169,76.14231274308226,-0.07,-0.09,0.12,6.0,0.0,0.0,15.0,0.0,1.0,1.0,21.68,12.56,1.28,
14.504,90.72668147082817,76.93223127430822,-1.15,-2.91,1.15,6.0,0.0,0.0,15.0,0.0,1.0,1.0,21.48,12.75,1.67,
14.529,90.75666814708282,77.56022312743083,-2.29,-0.35,1.08,7.0,0.0,0.0,16.0,0.0,1.0,1.0,21.09,12.75,1.77,
14.553,90.7056668147083,78.04602231274308,-3.03,-0.03,0.23,7.0,0.0,0.0,17.0,0.0,1.0,1.0,20.99,12.95,1.96,
14.577,90.68256668147083,78.48160223127431,-3.0,-2.18,0.6,7.0,0.0,0.0,17.0,0.0,1.0,1.0,20.99,13.15,2.65,
14.602,90.6532566681471,78.84916022312743,-2.28,-1.88,1.15,8.0,0.0,0.0,18.0,0.0,1.0,1.0,21.39,13.34,2.35,
14.626,90.65932566681471,79.19191602231274,-1.87,-1.32,0.88,8.0,0.0,0.0,18.0,0.0,1.0,2.0,21.19,13.54,1.77,
14.651,90.62393256668148,79.50519160223129,-1.78,-2.29,1.92,8.0,0.0,0.0,18.0,0.0,1.0,1.0,20.9,13.54,1.28,
14.674,90.57539325666814,79.73451916022313,-1.01,-2.91,1.86,8.0,0.0,0.0,18.0,0.0,1.0,1.0,20.6,13.34,0.98,
14.699,90.51653932566681,80.00045191602231,-0.54,-2.51,2.24,8.0,0.0,0.0,17.0,0.0,1.0,1.0,20.11,12.95,1.86,
14.724,90.44765393256668,80.22504519160223,-0.35,-1.11,2.49,8.0,0.0,0.0,17.0,0.0,1.0,1.0,19.62,12.56,6.08,
14.748,90.50376539325667,80.43650451916022,-0.18,-0.64,2.74,8.0,0.0,0.0,15.0,0.0,1.0,1.0,18.44,12.16,13.44,
14.773,90.54537653932567,80.61065045191602,-0.7,-1.16,3.55,8.0,0.0,0.0,14.0,0.0,1.0,1.0,17.66,11.67,7.85,
14.796,90.50453765393257,80.7000650451916,-1.01,-1.38,3.16,8.0,0.0,0.0,14.0,0.0,1.0,1.0,16.87,11.09,4.12,
14.821,90.45545376539326,80.84400650451916,-1.3,-1.44,2.53,8.0,0.0,0.0,13.0,0.0,1.0,1.0,16.28,10.89,2.94,
14.845,90.41454537653932,80.93040065045192,-2.1,-1.24,2.47,8.0,0.0,0.0,12.0,0.0,1.0,1.0,15.89,10.4,3.34,
14.87,90.39245453765393,81.0020400650452,-2.56,-1.9,2.47,8.0,0.0,0.0,12.0,0.0,1.0,1.0,15.6,9.91,3.14,
14.895,90.35424545376539,81.0722040065045,-2.54,-1.65,2.75,8.0,0.0,0.0,12.0,0.0,1.0,1.0,15.4,9.61,1.28,
14.918,90.34142454537655,81.14222040065046,-2.57,-0.64,2.33,8.0,0.0,0.0,12.0,0.0,1.0,1.0,15.21,9.42,2.16,
14.943,90.29514245453767,81.27522204006505,-2.11,-1.04,2.34,8.0,0.0,0.0,11.0,0.0,1.0,1.0,15.21,9.22,1.37,
14.967,90.28151424545378,81.28852220400651,-2.95,-0.17,1.91,8.0,0.0,0.0,11.0,0.0,1.0,1.0,15.01,9.03,1.86,
14.992,90.31615142454537,81.33485222040065,-2.92,0.03,2.08,8.0,0.0,0.0,11.0,0.0,1.0,1.0,15.01,8.93,1.28,
15.015,90.28361514245455,81.35748522204007,-2.94,-0.64,1.73,8.0,0.0,0.0,11.0,0.0,1.0,1.0,14.91,8.83,1.28,
15.04,90.36136151424546,81.40474852220402,-3.21,-0.59,1.62,8.0,0.0,0.0,11.0,0.0,1.0,1.0,14.91,8.73,0.0,
15.065,90.37813615142454,81.4274748522204,-3.69,-1.41,1.34,8.0,0.0,0.0,11.0,0.0,1.0,1.0,14.91,8.63,0.0,
15.088,90.35281361514245,81.38474748522205,-3.75,-0.19,0.51,8.0,0.0,0.0,11.0,0.0,1.0,1.0,14.81,8.73,2.84,
15.113,90.36828136151425,81.3984747485222,-3.43,-0.04,0.31,8.0,0.0,0.0,11.0,0.0,1.0,1.0,14.91,8.83,3.24,
15.137,90.40582813615143,81.46284747485223,-3.69,0.24,-0.48,8.0,0.0,0.0,11.0,0.0,1.0,1.0,15.01,9.03,3.14,
15.162,90.41858281361515,81.45128474748523,-3.59,-0.02,-0.4,8.0,0.0,0.0,11.0,0.0,1.0,1.0,15.11,9.22,0.88,
15.185,90.41985828136151,81.44112847474852,-3.64,-0.04,-0.72,8.0,0.0,0.0,11.0,0.0,1.0,1.0,15.4,9.32,0.0,
15.21,90.38398582813615,81.46711284747485,-3.73,-0.18,-1.0,8.0,0.0,0.0,11.0,0.0,1.0,1.0,15.5,9.52,0.78,
15.235,90.45239858281361,81.46971128474749,-4.33,0.07,-1.36,8.0,0.0,0.0,12.0,0.0,1.0,1.0,15.7,9.71,1.08,
15.259,90.48623985828137,81.45197112847475,-4.2,-0.76,-1.27,8.0,0.0,0.0,12.0,0.0,1.0,1.0,15.99,10.01,0.88,
15.284,90.57062398582814,81.44119711284748,-4.07,-0.92,-0.98,8.0,0.0,0.0,13.0,0.0,1.0,1.0,16.38,10.4,0.1,
15.307,90.5970623985828,81.40411971128475,-4.16,-0.31,-0.97,8.0,0.0,0.0,13.0,0.0,1.0,1.0,16.58,10.5,0.49,
15.332,90.65370623985828,81.38241197112848,-4.39,-0.57,-0.92,8.0,0.0,0.0,14.0,0.0,1.0,1.0,16.97,10.79,0.29,
15.356,90.65037062398584,81.35324119711285,-4.02,-0.25,-1.32,8.0,0.0,0.0,14.0,0.0,1.0,1.0,17.27,11.18,0.0,
15.381,90.66803706239858,81.36832411971129,-3.72,-0.79,-1.12,8.0,0.0,0.0,14.0,0.0,1.0,1.0,17.56,11.48,0.0,
15.406,90.72380370623986,81.36083241197113,-3.37,-1.22,-0.81,8.0,0.0,0.0,15.0,0.0,1.0,1.0,17.85,11.67,0.0,
15.43,90.756380370624,81.39608324119712,-3.31,-0.47,-0.47,8.0,0.0,0.0,14.0,0.0,1.0,1.0,18.15,11.97,0.0,
15.455,90.79563803706239,81.36360832411971,-3.66,-0.56,-0.75,8.0,0.0,0.0,15.0,0.0,1.0,1.0,18.25,12.16,0.29,
15.479,90.84456380370624,81.37836083241197,-3.95,-0.2,-0.6,8.0,0.0,0.0,15.0,0.0,1.0,1.0,18.34,12.36,1.67,
15.504,90.87645638037063,81.4158360832412,-3.98,-0.63,-0.84,8.0,0.0,0.0,16.0,0.0,1.0,1.0,18.74,12.56,0.0,
15.527,90.89764563803706,81.32958360832413,-3.79,-1.34,-0.6,8.0,0.0,0.0,17.0,0.0,1.0,1.0,18.93,12.75,0.0,
15.552,90.8997645638037,81.3029583608324,-3.75,-1.37,-0.76,8.0,0.0,0.0,16.0,0.0,1.0,1.0,19.13,12.95,0.2,
15.577,90.83697645638037,81.21029583608323,-3.75,-1.4,-0.69,8.0,0.0,0.0,16.0,0.0,1.0,2.0,19.33,13.05,0.59,
15.601,90.88469764563804,81.19202958360832,-3.88,-0.93,-0.77,8.0,0.0,0.0,16.0,0.0,1.0,2.0,19.52,13.24,0.69,
15.626,90.8534697645638,81.14520295836083,-3.89,-0.57,-0.44,8.0,0.0,0.0,17.0,0.0,1.0,2.0,19.82,13.34,0.78,
15.65,90.90434697645638,81.13152029583608,-4.4,-0.59,-1.02,8.0,0.0,0.0,17.0,0.0,1.0,2.0,20.01,13.54,1.08,
15.675,90.87343469764564,81.0761520295836,-4.14,-1.22,-0.62,9.0,0.0,0.0,18.0,0.0,1.0,2.0,20.21,13.73,0.29,
15.699,90.87934346976456,81.03461520295836,-4.5,-1.12,-1.08,8.0,0.0,0.0,17.0,0.0,1.0,2.0,20.4,13.93,0.78,
15.724,90.90693434697646,81.04846152029583,-4.44,-0.3,-1.22,9.0,0.0,0.0,18.0,0.0,1.0,2.0,20.6,14.22,0.2,
15.748,90.96369343469765,80.99584615202957,-4.05,-1.14,-0.59,9.0,0.0,0.0,19.0,0.0,1.0,2.0,20.9,14.42,0.49,
15.772,90.93336934346976,80.92758461520296,-3.53,-1.41,-0.05,9.0,0.0,0.0,19.0,0.0,1.0,2.0,21.19,14.52,0.0,
15.797,90.93933693434698,80.9207584615203,-3.29,-1.66,-0.09,9.0,0.0,0.0,19.0,0.0,1.0,2.0,21.29,14.52,0.0,
15.821,90.9939336934347,80.91107584615203,-3.08,-1.69,0.04,9.0,0.0,0.0,19.0,0.0,1.0,2.0,21.39,14.52,0.59,
15.846,91.06239336934345,80.8831075846152,-3.13,-1.81,0.36,9.0,0.0,0.0,20.0,0.0,1.0,2.0,21.39,14.42,0.39,
15.87,91.06023933693436,80.89831075846152,-2.72,-2.06,0.71,9.0,0.0,0.0,18.0,0.0,1.0,2.0,21.29,14.32,0.39,
15.895,91.00602393369344,80.89983107584615,-2.68,-2.19,0.53,9.0,0.0,0.0,19.0,0.0,1.0,2.0,20.99,14.13,0.78,
15.919,91.03660239336935,80.90898310758462,-2.21,-2.59,0.75,9.0,0.0,0.0,19.0,0.0,1.0,2.0,20.8,13.83,1.28,
15.943,90.98566023933694,80.90989831075846,-2.44,-2.41,0.73,9.0,0.0,0.0,18.0,0.0,1.0,2.0,20.6,13.64,1.37,
15.968,90.98956602393369,80.89198983107585,-2.52,-2.64,0.7,9.0,0.0,0.0,18.0,0.0,1.0,2.0,20.4,13.44,1.47,
15.992,90.92695660239337,80.96219898310758,-2.2,-1.98,0.53,9.0,0.0,0.0,18.0,0.0,1.0,2.0,20.11,13.24,1.18,
16.017,90.90269566023935,80.97821989831075,-2.05,-1.93,0.86,9.0,0.0,0.0,18.0,0.0,1.0,2.0,20.01,13.05,1.57,
16.04,90.90926956602394,81.00682198983108,-2.42,-1.69,0.79,8.0,0.0,0.0,17.0,0.0,1.0,2.0,19.62,12.85,1.28,
16.065,90.84692695660239,80.9916821989831,-2.8,-1.65,0.4,9.0,0.0,0.0,17.0,0.0,1.0,2.0,19.42,12.75,1.57,
16.09,90.81369269566024,81.0711682198983,-3.08,-1.49,0.13,8.0,0.0,0.0,17.0,0.0,1.0,2.0,19.33,12.65,1.47,
16.114,90.80136926956602,81.04311682198984,-3.31,-1.7,0.48,9.0,0.0,0.0,17.0,0.0,1.0,2.0,19.42,12.65,1.28,
16.139,90.76413692695661,80.99531168219897,-3.73,-1.06,-0.15,9.0,0.0,0.0,17.0,0.0,1.0,2.0,19.33,12.56,0.78,
16.163,90.77841369269566,81.0265311682199,-3.81,-0.08,-0.34,9.0,0.0,0.0,18.0,0.0,1.0,2.0,19.52,12.75,0.59,
16.187,90.77084136926956,81.01165311682199,-3.66,-0.31,-0.08,9.0,0.0,0.0,18.0,0.0,1.0,2.0,19.82,12.95,0.2,
16.211,90.76108413692697,81.0371653116822,-3.57,-0.7,0.14,9.0,0.0,0.0,18.0,0.0,1.0,2.0,19.82,12.95,0.49,
16.236,90.79610841369269,81.04871653116821,-3.28,-1.12,0.23,9.0,0.0,0.0,18.0,0.0,1.0,2.0,19.91,13.05,0.69,
16.261,90.81761084136926,81.11287165311683,-3.3,-1.24,0.45,9.0,0.0,0.0,18.0,0.0,1.0,2.0,20.01,13.05,0.88,
16.285,90.85576108413693,81.08328716531167,-2.96,-1.57,0.51,9.0,0.0,0.0,20.0,0.0,1.0,2.0,19.91,12.95,0.78,
16.31,90.87757610841369,81.07132871653116,-3.09,-2.02,0.73,9.0,0.0,0.0,18.0,0.0,1.0,2.0,19.82,12.75,0.98,
16.333,90.82575761084136,81.08813287165313,-2.98,-2.33,0.64,9.0,0.0,0.0,18.0,0.0,1.0,2.0,19.82,12.75,0.78,
16.358,90.76657576108414,81.08981328716533,-2.86,-2.07,0.64,9.0,0.0,0.0,18.0,0.0,1.0,2.0,19.62,12.56,0.88,
16.382,90.74265757610841,81.13498132871652,-3.05,-1.6,0.53,9.0,0.0,0.0,18.0,0.0,1.0,2.0,19.52,12.56,0.98,
16.407,90.74926575761083,81.13049813287165,-3.08,-0.66,0.26,9.0,0.0,0.0,18.0,0.0,1.0,2.0,19.33,12.36,1.18,
16.432,90.74992657576108,81.09404981328717,-2.76,-0.95,0.54,8.0,0.0,0.0,17.0,0.0,1.0,2.0,19.23,12.16,1.28,
16.455,90.8129926575761,81.0544049813287,-2.66,-1.5,0.44,8.0,0.0,0.0,17.0,0.0,1.0,2.0,18.93,11.97,1.08,
16.48,90.7742992657576,81.05944049813287,-2.43,-1.85,0.6,8.0,0.0,0.0,16.0,0.0,1.0,2.0,18.74,11.77,0.78,
16.504,90.76142992657577,81.07794404981328,-2.27,-1.73,0.69,8.0,0.0,0.0,16.0,0.0,1.0,2.0,18.54,11.58,0.69,
16.529,90.75114299265758,81.07079440498131,-2.21,-1.59,0.73,8.0,0.0,0.0,16.0,0.0,1.0,2.0,18.34,11.38,0.39,
16.553,90.72311429926575,81.05207944049812,-2.16,-1.6,0.61,8.0,0.0,0.0,15.0,0.0,1.0,2.0,18.15,11.18,0.78,
16.577,90.71131142992657,81.08620794404982,-2.5,-1.6,0.52,8.0,0.0,0.0,15.0,0.0,1.0,2.0,17.85,10.99,1.08,
16.602,90.67413114299266,81.10762079440498,-2.49,-1.85,0.52,8.0,0.0,0.0,14.0,0.0,1.0,2.0,17.66,10.99,1.28,
16.626,90.66141311429925,81.15476207944049,-2.3,-2.21,0.55,8.0,0.0,0.0,14.0,0.0,1.0,2.0,17.56,10.89,0.88,
16.651,90.60614131142992,81.18647620794404,-2.26,-2.16,0.34,8.0,0.0,0.0,14.0,0.0,1.0,2.0,17.46,10.69,1.08,
16.675,90.60961413114299,81.1716476207944,-2.5,-2.23,0.67,8.0,0.0,0.0,14.0,0.0,1.0,2.0,17.27,10.59,0.69,
16.699,90.6189614131143,81.20616476207944,-2.51,-1.79,0.35,8.0,0.0,0.0,14.0,0.0,1.0,2.0,17.07,10.5,1.18,
16.723,90.58389614131144,81.23661647620794,-2.72,-1.46,0.39,8.0,0.0,0.0,14.0,0.0,1.0,2.0,16.97,10.4,1.37,
16.748,90.58038961413115,81.24866164762079,-2.9,-1.34,0.31,8.0,0.0,0.0,14.0,0.0,1.0,2.0,16.97,10.4,1.28,
16.773,90.63403896141313,81.24086616476208,-2.66,-1.49,0.4,8.0,0.0,0.0,15.0,0.0,1.0,2.0,16.87,10.3,1.28,
16.797,90.5764038961413,81.2580866164762,-2.56,-1.45,0.4,8.0,0.0,0.0,14.0,0.0,1.0,1.0,16.87,10.2,1.28,
16.821,90.58864038961414,81.26880866164763,-2.42,-1.12,0.23,8.0,0.0,0.0,14.0,0.0,1.0,1.0,16.68,10.2,3.14,
16.845,90.59886403896141,81.34188086616476,-2.47,-1.31,0.24,8.0,0.0,0.0,14.0,0.0,1.0,1.0,16.58,10.1,2.35,
16.87,90.60888640389615,81.34018808661648,-2.39,-1.49,0.44,8.0,0.0,0.0,14.0,0.0,1.0,1.0,16.48,10.1,0.0,
16.894,90.63688864038963,81.38501880866166,-2.57,-1.47,0.53,8.0,0.0,0.0,14.0,0.0,1.0,1.0,16.28,10.01,0.78,
16.919,90.62168886403897,81.38950188086616,-2.63,-1.37,0.31,8.0,0.0,0.0,14.0,0.0,1.0,1.0,16.19,9.91,0.49,
16.943,90.6381688864039,81.36295018808661,-2.37,-1.06,0.17,8.0,0.0,0.0,14.0,0.0,1.0,1.0,16.09,9.91,0.78,
16.967,90.6128168886404,81.36929501880866,-2.75,-0.92,0.15,8.0,0.0,0.0,14.0,0.0,1.0,1.0,16.19,9.91,0.59,
16.992,90.59228168886405,81.38792950188088,-2.66,-0.95,0.37,8.0,0.0,0.0,14.0,0.0,1.0,1.0,16.09,10.01,0.69,
17.016,90.5992281688864,81.3987929501881,-2.76,-0.45,0.04,8.0,0.0,0.0,14.0,0.0,1.0,1.0,16.19,10.01,0.98,
17.041,90.58192281688864,81.3548792950188,-2.69,-0.66,0.24,8.0,0.0,0.0,14.0,0.0,1.0,1.0,16.19,10.01,1.86,
17.064,90.57119228168885,81.33248792950188,-2.52,-0.86,0.39,8.0,0.0,0.0,14.0,0.0,1.0,1.0,16.19,10.01,1.47,
17.089,90.58811922816889,81.34824879295019,-2.57,-1.01,0.36,8.0,0.0,0.0,14.0,0.0,1.0,1.0,15.99,10.01,1.28,
17.114,90.58981192281689,81.39482487929502,-2.79,-1.15,0.35,8.0,0.0,0.0,14.0,0.0,1.0,1.0,15.99,10.01,1.18,
17.138,90.5899811922817,81.3544824879295,-2.93,-0.96,0.18,8.0,0.0,0.0,14.0,0.0,1.0,1.0,15.99,10.2,0.98,
17.163,90.61699811922817,81.31444824879296,-2.94,-0.46,-0.03,8.0,0.0,0.0,14.0,0.0,1.0,1.0,16.09,10.3,0.98,
17.186,90.6016998119228,81.2834448248793,-3.08,-0.66,-0.14,8.0,0.0,0.0,16.0,0.0,1.0,1.0,15.99,10.5,0.29,
17.211,90.58216998119228,81.28034448248793,-2.95,-0.92,-0.22,8.0,0.0,0.0,14.0,0.0,1.0,1.0,16.09,10.5,0.49,
17.235,90.58921699811923,81.3250344482488,-2.89,-0.83,-0.02,8.0,0.0,0.0,14.0,0.0,1.0,1.0,16.09,10.5,0.49,
17.26,90.56292169981192,81.32050344482488,-3.09,-1.04,0.08,8.0,0.0,0.0,14.0,0.0,1.0,1.0,16.09,10.4,0.78,
17.285,90.5782921699812,81.3200503444825,-3.05,-1.11,-0.07,8.0,0.0,0.0,14.0,0.0,1.0,1.0,16.19,10.5,0.78,
17.309,90.62482921699811,81.30200503444826,-2.81,-0.89,-0.01,8.0,0.0,0.0,14.0,0.0,1.0,1.0,16.19,10.5,0.78,
17.334,90.6024829216998,81.32720050344483,-2.86,-0.7,-0.07,8.0,0.0,0.0,14.0,0.0,1.0,1.0,16.19,10.59,0.78,
17.358,90.66324829216998,81.30272005034448,-2.84,-0.98,-0.06,8.0,0.0,0.0,14.0,0.0,1.0,1.0,16.28,10.59,0.78,
17.383,90.696324829217,81.31827200503444,-2.92,-1.18,-0.08,8.0,0.0,0.0,14.0,0.0,1.0,1.0,16.19,549.75,0.98,
17.408,90.7266324829217,81.32882720050344,-2.85,-1.43,0.01,8.0,0.0,0.0,14.0,0.0,1.0,1.0,16.19,10.69,1.18,
17.431,90.72066324829217,81.32988272005035,-3.01,-1.59,0.15,8.0,0.0,0.0,14.0,0.0,1.0,1.0,16.28,10.79,1.18,
17.456,90.72006632482922,81.35698827200504,-2.72,-1.49,0.14,8.0,0.0,0.0,14.0,0.0,1.0,1.0,16.28,10.89,1.28,
17.48,90.67500663248293,81.3596988272005,-2.56,-1.19,0.28,8.0,0.0,0.0,14.0,0.0,1.0,1.0,16.28,10.89,1.28,
17.505,90.7245006632483,81.42296988272005,-2.63,-1.48,0.53,8.0,0.0,0.0,14.0,0.0,1.0,1.0,16.28,10.79,1.28,
17.529,90.76545006632483,81.43829698827201,-2.55,-1.81,0.39,8.0,0.0,0.0,14.0,0.0,1.0,1.0,16.28,10.69,1.28,
17.553,90.7875450066325,81.50282969882721,-2.59,-1.24,0.22,8.0,0.0,0.0,14.0,0.0,1.0,1.0,16.09,10.79,0.78,
17.577,90.79875450066325,81.50028296988273,-2.89,-1.02,0.08,8.0,0.0,0.0,14.0,0.0,1.0,1.0,16.09,10.69,1.67,
17.602,90.74587545006632,81.50002829698828,-3.11,-1.24,-0.25,8.0,0.0,0.0,14.0,0.0,1.0,1.0,16.09,10.79,1.18,
17.627,90.73158754500665,81.50000282969883,-2.84,-1.07,-0.05,8.0,0.0,0.0,14.0,0.0,1.0,1.0,16.19,10.89,0.98,
17.651,90.69415875450066,81.50000028296989,-3.09,-1.18,-0.07,8.0,0.0,0.0,14.0,0.0,1.0,1.0,16.19,10.89,0.88,
17.676,90.68141587545007,81.455000028297,-3.21,-1.24,-0.35,8.0,0.0,0.0,14.0,0.0,1.0,1.0,16.28,10.99,0.78,
17.7,90.689141587545,81.4685000028297,-3.11,-0.99,-0.35,8.0,0.0,0.0,14.0,0.0,1.0,1.0,16.38,11.09,0.88,
17.725,90.6989141587545,81.50585000028298,-3.05,-0.79,-0.02,8.0,0.0,0.0,14.0,0.0,1.0,1.0,16.48,11.18,0.69,
17.748,90.76289141587544,81.52758500002831,-3.1,-1.02,0.05,9.0,0.0,0.0,14.0,0.0,1.0,1.0,16.68,11.38,0.98,
17.773,90.78728914158755,81.50275850000284,-3.27,-0.99,-0.19,8.0,0.0,0.0,15.0,0.0,1.0,1.0,16.68,11.48,0.78,
17.798,90.77172891415876,81.49127585000028,-3.16,-0.97,-0.27,8.0,0.0,0.0,14.0,0.0,1.0,1.0,16.78,11.67,0.98,
17.822,90.80617289141587,81.53512758500004,-3.75,-0.37,-0.57,8.0,0.0,0.0,14.0,0.0,1.0,1.0,16.78,11.87,0.49,
17.847,90.84561728914159,81.5485127585,-3.37,-0.51,-0.53,8.0,0.0,0.0,15.0,0.0,1.0,1.0,16.87,11.87,0.39,
17.871,90.81356172891415,81.54985127584999,-3.37,-0.3,-0.23,9.0,0.0,0.0,15.0,0.0,1.0,1.0,17.17,12.07,0.0,
17.896,90.85535617289142,81.56798512758499,-3.34,-0.66,-0.17,9.0,0.0,0.0,15.0,0.0,1.0,2.0,17.17,12.26,0.0,
17.921,90.81453561728914,81.5247985127585,-3.36,-1.18,-0.15,9.0,0.0,0.0,15.0,0.0,1.0,2.0,17.27,12.16,0.98,
17.945,90.79245356172892,81.46647985127584,-2.96,-1.08,-0.11,9.0,0.0,0.0,15.0,0.0,1.0,2.0,17.36,12.16,1.28,
17.969,90.81724535617289,81.4516479851276,-2.82,-1.57,-0.02,9.0,0.0,0.0,15.0,0.0,1.0,2.0,17.27,12.26,0.49,
17.993,90.81972453561728,81.46816479851276,-2.79,-1.75,0.24,9.0,0.0,0.0,15.0,0.0,1.0,1.0,17.27,12.16,0.0,
18.018,90.78397245356172,81.50581647985129,-2.98,-1.62,0.31,9.0,0.0,0.0,15.0,0.0,1.0,1.0,17.17,12.16,1.86,
18.042,90.80739724535617,81.51858164798512,-2.88,-1.85,0.46,9.0,0.0,0.0,15.0,0.0,1.0,1.0,17.07,11.97,2.26,
18.067,90.83673972453562,81.45685816479852,-2.76,-2.11,0.33,9.0,0.0,0.0,15.0,0.0,1.0,1.0,16.97,11.87,1.77,
18.092,90.82167397245357,81.49568581647986,-2.95,-1.82,0.3,9.0,0.0,0.0,15.0,0.0,1.0,1.0,16.87,11.77,2.06,
18.115,90.80216739724536,81.51756858164798,-2.83,-2.18,0.39,9.0,0.0,0.0,14.0,0.0,1.0,1.0,16.78,11.67,1.77,
18.14,90.73721673972454,81.48375685816481,-2.73,-1.96,0.33,8.0,0.0,0.0,14.0,0.0,1.0,1.0,16.68,11.48,1.96,
18.164,90.74872167397245,81.43537568581648,-2.77,-1.99,0.26,8.0,0.0,0.0,14.0,0.0,1.0,1.0,16.48,11.28,1.47,
18.189,90.71387216739724,81.45753756858164,-2.71,-2.0,0.54,8.0,0.0,0.0,14.0,0.0,1.0,1.0,16.48,11.18,4.02,
18.213,90.64738721673973,81.45075375685818,-2.8,-1.72,0.66,8.0,0.0,0.0,14.0,0.0,1.0,1.0,16.38,10.99,2.55,
18.237,90.68573872167397,81.45907537568581,-2.79,-1.95,0.66,8.0,0.0,0.0,14.0,0.0,1.0,1.0,16.28,10.89,1.57,
18.262,90.71657387216739,81.45990753756857,-2.9,-1.93,0.46,8.0,0.0,0.0,14.0,0.0,1.0,1.0,16.19,10.69,1.57,
18.286,90.69265738721673,81.45999075375684,-3.11,-1.44,0.4,8.0,0.0,0.0,14.0,0.0,1.0,1.0,15.99,10.59,6.87,
18.311,90.66326573872166,81.41499907537569,-3.28,-1.63,0.03,9.0,0.0,0.0,13.0,0.0,1.0,1.0,15.99,10.5,3.24,
18.335,90.65132657387217,81.41049990753757,-3.06,-1.49,0.05,8.0,0.0,0.0,14.0,0.0,1.0,1.0,16.09,10.5,1.67,
18.359,90.61413265738722,81.45504999075375,-2.95,-1.31,0.48,8.0,0.0,0.0,12.0,0.0,1.0,1.0,15.99,10.5,1.28,
18.383,90.59241326573873,81.47750499907538,-2.82,-1.44,0.38,8.0,0.0,0.0,14.0,0.0,1.0,1.0,15.89,10.4,1.37,
18.408,90.53624132657387,81.46175049990752,-3.01,-1.36,0.14,8.0,0.0,0.0,14.0,0.0,1.0,1.0,15.89,10.3,0.0,
18.433,90.56662413265738,81.48717504999074,-3.38,-1.98,0.11,8.0,0.0,0.0,14.0,0.0,1.0,1.0,15.79,10.4,0.49,
18.457,90.55166241326575,81.49871750499908,-3.42,-1.77,-0.09,8.0,0.0,0.0,14.0,0.0,1.0,1.0,15.79,10.4,0.98,
18.482,90.54116624132658,81.50887175049992,-3.4,-1.39,-0.17,8.0,0.0,0.0,14.0,0.0,1.0,1.0,15.89,10.5,2.06,
18.505,90.50411662413266,81.52788717505,-3.5,-0.91,-0.23,8.0,0.0,0.0,14.0,0.0,1.0,1.0,15.99,10.59,3.04,
18.53,90.54541166241327,81.493788717505,-3.28,-0.92,-0.21,8.0,0.0,0.0,14.0,0.0,1.0,1.0,16.09,10.69,0.0,
18.554,90.56754116624131,81.47237887175051,-3.05,-0.89,-0.2,8.0,0.0,0.0,14.0,0.0,1.0,1.0,16.19,10.59,0.0,
18.579,90.58775411662414,81.47923788717506,-2.87,-1.08,0.0,8.0,0.0,0.0,14.0,0.0,1.0,1.0,16.28,10.69,0.2,
18.604,90.58977541166242,81.4619237887175,-3.11,-0.78,-0.05,8.0,0.0,0.0,14.0,0.0,1.0,1.0,16.28,10.69,0.59,
18.628,90.62597754116624,81.49619237887175,-3.31,-0.65,-0.4,8.0,0.0,0.0,14.0,0.0,1.0,1.0,16.19,10.79,0.78,
18.653,90.65659775411662,81.54461923788718,-3.21,-1.18,-0.15,8.0,0.0,0.0,14.0,0.0,1.0,1.0,16.28,10.89,0.78,
18.677,90.63265977541165,81.59446192378871,-3.0,-1.03,-0.18,8.0,0.0,0.0,14.0,0.0,1.0,1.0,16.28,10.99,0.59,
18.701,90.66626597754117,81.59944619237886,-3.21,-0.76,-0.18,8.0,0.0,0.0,14.0,0.0,1.0,1.0,16.38,11.09,0.88,
18.725,90.6876265977541,81.57294461923789,-3.27,-0.72,-0.47,8.0,0.0,0.0,15.0,0.0,1.0,1.0,16.48,11.18,1.08,
18.75,90.7077626597754,81.59729446192378,-3.59,-0.5,-0.72,8.0,0.0,0.0,14.0,0.0,1.0,1.0,16.48,11.28,0.88,
18.775,90.75477626597755,81.61772944619239,-3.48,-0.73,-0.81,8.0,0.0,0.0,15.0,0.0,1.0,1.0,16.58,11.38,0.2,
18.799,90.78647762659776,81.63777294461923,-3.72,-0.94,-0.81,8.0,0.0,0.0,14.0,0.0,1.0,1.0,16.78,11.48,0.2,
18.824,90.78064776265977,81.60377729446192,-3.6,-1.0,-0.82,8.0,0.0,0.0,14.0,0.0,1.0,1.0,16.97,11.67,0.2,
18.848,90.78006477626597,81.5823777294462,-3.6,-0.74,-0.83,8.0,0.0,0.0,15.0,0.0,1.0,1.0,17.07,11.77,0.29,
18.873,90.81600647762659,81.55323777294461,-3.86,-0.56,-1.18,8.0,0.0,0.0,15.0,0.0,1.0,1.0,17.27,11.97,0.0,
18.897,90.85560064776266,81.48732377729446,-4.26,-1.05,-1.05,8.0,0.0,0.0,15.0,0.0,1.0,1.0,17.56,12.16,0.0,
18.921,90.80556006477626,81.45373237772945,-4.2,-0.91,-1.08,8.0,0.0,0.0,16.0,0.0,1.0,1.0,17.85,12.36,0.0,
18.946,90.79155600647763,81.44137323777295,-4.24,-0.61,-0.73,9.0,0.0,0.0,16.0,0.0,1.0,2.0,18.15,12.75,0.49,
18.97,90.78115560064776,81.4581373237773,-3.88,-0.63,-0.48,9.0,0.0,0.0,17.0,0.0,1.0,2.0,18.54,12.95,0.0,
18.995,90.81611556006477,81.45981373237773,-3.92,-0.48,-0.47,9.0,0.0,0.0,17.0,0.0,1.0,2.0,18.93,13.24,0.78,
19.019,90.85561155600648,81.45098137323778,-3.58,-0.88,-0.12,9.0,0.0,0.0,17.0,0.0,1.0,2.0,19.13,13.54,0.78,
19.044,90.82356115560064,81.43209813732378,-3.47,-1.56,0.03,9.0,0.0,0.0,19.0,0.0,1.0,2.0,19.33,13.64,0.88,
19.068,90.83835611556006,81.39420981373237,-3.12,-1.69,-0.01,9.0,0.0,0.0,17.0,0.0,1.0,2.0,19.33,13.64,1.08,
19.093,90.857835611556,81.39042098137324,-3.2,-1.53,0.02,9.0,0.0,0.0,18.0,0.0,1.0,2.0,19.42,13.73,0.98,
19.117,90.8417835611556,81.34504209813733,-2.98,-1.5,0.11,9.0,0.0,0.0,18.0,0.0,1.0,2.0,19.33,13.73,0.98,
19.141,90.82217835611556,81.32250420981373,-2.83,-1.66,0.15,9.0,0.0,0.0,18.0,0.0,1.0,2.0,19.33,13.73,0.88,
19.166,90.79321783561157,81.29325042098137,-2.64,-1.62,0.52,9.0,0.0,0.0,17.0,0.0,1.0,2.0,19.23,13.64,0.98,
19.19,90.84432178356116,81.31732504209813,-2.66,-1.92,0.24,9.0,0.0,0.0,18.0,0.0,1.0,2.0,19.13,13.54,0.59,
19.215,90.87643217835611,81.31973250420981,-2.89,-2.26,0.64,9.0,0.0,0.0,18.0,0.0,1.0,2.0,18.93,13.44,0.0,
19.238,90.8256432178356,81.37397325042099,-2.89,-2.08,0.66,9.0,0.0,0.0,17.0,0.0,1.0,2.0,18.93,13.24,0.1,
19.263,90.76656432178356,81.40639732504211,-2.69,-1.7,0.36,9.0,0.0,0.0,17.0,0.0,1.0,2.0,18.84,13.15,0.78,
19.288,90.71565643217835,81.39163973250422,-2.56,-1.85,0.33,9.0,0.0,0.0,18.0,0.0,1.0,2.0,18.74,13.15,0.98,
19.312,90.71056564321783,81.40816397325042,-2.69,-1.88,0.57,9.0,0.0,0.0,17.0,0.0,1.0,1.0,18.64,13.15,0.78,
19.337,90.74605656432178,81.44581639732505,-2.86,-1.6,0.24,9.0,0.0,0.0,17.0,0.0,1.0,1.0,18.64,13.05,0.0,
19.36,90.76760565643218,81.4855816397325,-2.83,-1.32,0.05,9.0,0.0,0.0,17.0,0.0,1.0,1.0,18.54,13.05,1.18,
19.385,90.75176056564321,81.51655816397324,-2.96,-1.4,0.07,9.0,0.0,0.0,17.0,0.0,1.0,1.0,18.54,13.05,0.78,
19.409,90.75017605656431,81.50165581639733,-3.11,-0.46,-0.22,9.0,0.0,0.0,18.0,0.0,1.0,1.0,18.54,13.05,0.98,
19.434,90.74101760565642,81.46416558163972,-3.36,-0.5,-0.24,9.0,0.0,0.0,17.0,0.0,1.0,2.0,18.64,13.24,1.08,
19.459,90.81210176056564,81.47841655816399,-3.14,-0.89,-0.02,9.0,0.0,0.0,18.0,0.0,1.0,2.0,18.74,13.24,1.77,
19.483,90.81921017605656,81.4438416558164,-3.05,-0.98,0.18,9.0,0.0,0.0,18.0,0.0,1.0,2.0,18.84,13.24,1.57,
19.508,90.81992101760565,81.42238416558165,-3.42,-0.75,-0.24,9.0,0.0,0.0,17.0,0.0,1.0,2.0,18.84,13.34,1.18,
19.531,90.88299210176056,81.38423841655816,-3.47,-1.22,-0.31,9.0,0.0,0.0,18.0,0.0,1.0,2.0,19.03,13.44,0.78,
19.556,90.87129921017606,81.37142384165583,-3.43,-1.4,-0.11,9.0,0.0,0.0,18.0,0.0,1.0,2.0,19.13,13.54,0.59,
19.58,90.8251299210176,81.37014238416559,-3.46,-1.24,0.11,9.0,0.0,0.0,18.0,0.0,1.0,2.0,19.33,13.64,0.49,
19.605,90.80251299210175,81.40601423841656,-3.25,-1.31,0.14,9.0,0.0,0.0,18.0,0.0,1.0,2.0,19.42,13.64,0.39,
19.63,90.79125129921019,81.40060142384166,-2.73,-1.6,0.18,9.0,0.0,0.0,18.0,0.0,1.0,2.0,19.52,13.64,1.18,
19.654,90.80812512992102,81.39106014238416,-2.9,-1.75,0.16,9.0,0.0,0.0,18.0,0.0,1.0,2.0,19.52,13.73,0.69,
19.678,90.8368125129921,81.39910601423841,-2.93,-1.5,-0.08,9.0,0.0,0.0,18.0,0.0,1.0,2.0,19.42,13.73,0.69,
19.702,90.83068125129921,81.38191060142384,-3.15,-1.17,-0.17,9.0,0.0,0.0,18.0,0.0,1.0,2.0,19.33,13.83,0.69,
19.727,90.78506812512992,81.3711910601424,-3.22,-1.05,-0.29,9.0,0.0,0.0,18.0,0.0,1.0,2.0,19.33,14.03,0.88,
19.751,90.83450681251298,81.41511910601425,-3.34,-0.84,-0.42,9.0,0.0,0.0,19.0,0.0,1.0,2.0,19.42,14.03,1.08,
19.776,90.8574506812513,81.38351191060143,-3.47,-0.96,-0.5,9.0,0.0,0.0,18.0,0.0,1.0,2.0,19.52,14.13,0.98,
19.801,90.85974506812514,81.38035119106014,-3.39,-0.93,-0.33,9.0,0.0,0.0,18.0,0.0,1.0,2.0,19.72,14.32,0.88,
19.825,90.91397450681251,81.36203511910601,-3.02,-1.06,0.03,9.0,0.0,0.0,18.0,0.0,1.0,2.0,19.82,14.42,1.08,
19.85,90.96439745068125,81.4052035119106,-3.28,-1.27,0.01,9.0,0.0,0.0,19.0,0.0,1.0,2.0,19.91,14.32,1.08,
19.873,90.93343974506813,81.41852035119106,-3.08,-1.6,0.14,9.0,0.0,0.0,18.0,0.0,1.0,2.0,19.91,14.32,0.88,
19.898,90.89434397450681,81.49185203511911,-2.91,-1.45,0.12,9.0,0.0,0.0,19.0,0.0,1.0,2.0,20.01,14.42,0.39,
19.922,90.85443439745067,81.44518520351191,-2.99,-1.54,0.33,9.0,0.0,0.0,19.0,0.0,1.0,2.0,19.82,14.32,0.59,
19.947,90.85944343974506,81.45851852035118,-3.14,-1.62,0.11,9.0,0.0,0.0,19.0,0.0,1.0,2.0,19.91,14.32,0.78,
19.972,90.8419443439745,81.47785185203513,-3.05,-1.82,0.27,9.0,0.0,0.0,19.0,0.0,1.0,2.0,19.82,14.32,0.69,
19.995,90.85819443439745,81.45278518520352,-2.98,-1.34,0.08,9.0,0.0,0.0,18.0,0.0,1.0,2.0,19.82,14.32,0.78,
20.02,90.85081944343975,81.41427851852036,-3.37,-1.4,0.09,9.0,0.0,0.0,19.0,0.0,1.0,2.0,19.91,14.32,0.59,
20.044,90.84108194434397,81.42842785185204,-3.12,-1.66,0.17,9.0,0.0,0.0,19.0,0.0,1.0,2.0,19.91,14.32,0.69,
20.069,90.75910819443439,81.4658427851852,-3.29,-0.95,0.05,9.0,0.0,0.0,19.0,0.0,1.0,2.0,20.01,14.42,0.88,
20.093,90.75091081944343,81.41558427851852,-3.44,-1.29,-0.26,9.0,0.0,0.0,19.0,0.0,1.0,2.0,20.01,14.32,0.98,
20.117,90.83109108194434,81.36555842785185,-3.24,-1.3,-0.13,9.0,0.0,0.0,19.0,0.0,1.0,2.0,20.11,14.42,1.08,
20.142,90.82110910819443,81.37855584278519,-3.47,-1.24,-0.15,9.0,0.0,0.0,19.0,0.0,1.0,2.0,20.21,14.52,1.18,
20.166,90.84711091081944,81.4518555842785,-3.44,-1.4,-0.15,9.0,0.0,0.0,19.0,0.0,1.0,2.0,20.4,14.52,0.88,
20.191,90.84071109108194,81.43218555842786,-2.98,-1.34,-0.05,9.0,0.0,0.0,19.0,0.0,1.0,2.0,20.4,14.62,0.59,
20.215,90.8130711091082,81.46621855584279,-2.92,-1.18,0.04,9.0,0.0,0.0,19.0,0.0,1.0,2.0,20.4,14.52,0.59,
20.24,90.78330711091081,81.42462185558428,-2.95,-1.6,-0.04,9.0,0.0,0.0,19.0,0.0,1.0,2.0,20.4,14.62,0.2,
20.264,90.81633071109108,81.41146218555843,-3.43,-1.41,-0.25,9.0,0.0,0.0,20.0,0.0,1.0,2.0,20.4,14.62,0.59,
20.289,90.84663307110911,81.32914621855585,-3.38,-1.35,-0.03,9.0,0.0,0.0,20.0,0.0,1.0,2.0,20.4,14.72,0.69,
20.314,90.8586633071109,81.31191462185558,-3.3,-1.38,-0.13,9.0,0.0,0.0,20.0,0.0,1.0,2.0,20.6,14.81,0.49,
20.337,90.84186633071108,81.30119146218556,-3.24,-1.39,-0.1,9.0,0.0,0.0,20.0,0.0,1.0,2.0,20.6,14.81,0.29,
20.362,90.84018663307111,81.27311914621856,-3.19,-1.09,-0.21,9.0,0.0,0.0,20.0,0.0,1.0,2.0,20.6,14.72,0.59,
20.386,90.8040186633071,81.31531191462186,-3.24,-1.19,-0.05,9.0,0.0,0.0,20.0,0.0,1.0,2.0,20.6,14.81,0.88,
20.411,90.79140186633072,81.34653119146219,-3.23,-1.11,0.02,9.0,0.0,0.0,20.0,0.0,1.0,2.0,20.8,14.72,0.98,
20.435,90.78114018663307,81.34965311914623,-2.89,-1.37,0.17,9.0,0.0,0.0,20.0,0.0,1.0,2.0,20.8,14.81,0.98,
20.46,90.8161140186633,81.30496531191463,-2.87,-1.6,0.22,9.0,0.0,0.0,19.0,0.0,1.0,2.0,20.7,14.62,0.98,
20.485,90.83761140186633,81.36349653119146,-3.01,-1.66,0.27,9.0,0.0,0.0,20.0,0.0,1.0,2.0,20.6,14.52,0.88,
20.508,90.84876114018664,81.32434965311914,-2.63,-1.76,0.22,9.0,0.0,0.0,19.0,0.0,1.0,2.0,20.4,14.42,0.78,
20.533,90.80487611401867,81.32943496531192,-2.68,-1.38,0.19,9.0,0.0,0.0,19.0,0.0,1.0,2.0,20.31,14.22,1.08,
20.557,90.75548761140186,81.33894349653119,-2.89,-1.4,-0.08,9.0,0.0,0.0,21.0,0.0,1.0,2.0,20.01,14.13,1.08,
20.582,90.80454876114018,81.34889434965312,-3.08,-1.47,-0.11,9.0,0.0,0.0,19.0,0.0,1.0,2.0,19.82,14.13,0.59,
20.606,90.72845487611401,81.34088943496532,-2.98,-1.37,0.12,9.0,0.0,0.0,19.0,0.0,1.0,2.0,19.82,13.93,0.49,
20.631,90.7118454876114,81.33108894349654,-3.29,-0.98,-0.03,9.0,0.0,0.0,20.0,0.0,1.0,2.0,19.62,14.03,0.78,
20.656,90.73718454876114,81.30310889434965,-3.45,-1.48,-0.01,9.0,0.0,0.0,19.0,0.0,1.0,2.0,19.72,14.03,0.49,
20.679,90.74871845487611,81.29131088943497,-3.22,-1.34,0.19,9.0,0.0,0.0,20.0,0.0,1.0,2.0,19.91,14.13,0.88,
20.704,90.7678718454876,81.2991310889435,-2.95,-1.31,0.18,9.0,0.0,0.0,19.0,0.0,1.0,2.0,19.91,14.13,0.69,
20.728,90.72478718454876,81.24591310889434,-3.12,-1.27,-0.07,9.0,0.0,0.0,20.0,0.0,1.0,2.0,20.01,14.13,0.69,
20.753,90.78347871845489,81.20459131088943,-3.24,-1.04,0.11,9.0,0.0,0.0,20.0,0.0,1.0,2.0,20.01,14.13,0.98,
20.777,90.77134787184548,81.20945913108893,-3.21,-1.21,0.21,9.0,0.0,0.0,20.0,0.0,1.0,2.0,20.01,14.22,1.18,
20.802,90.76113478718456,81.2639459131089,-3.02,-0.98,0.06,9.0,0.0,0.0,20.0,0.0,1.0,2.0,20.11,14.13,1.18,
20.827,90.79611347871845,81.32339459131089,-3.31,-1.24,-0.02,9.0,0.0,0.0,19.0,0.0,1.0,2.0,20.11,14.22,0.98,
20.851,90.77261134787184,81.32033945913109,-3.21,-1.63,0.14,9.0,0.0,0.0,20.0,0.0,1.0,2.0,20.21,14.32,0.69,
20.876,90.75226113478718,81.30203394591311,-3.01,-1.66,0.13,9.0,0.0,0.0,20.0,0.0,1.0,2.0,20.21,14.32,0.0,
20.9,90.73222611347873,81.3002033945913,-3.06,-1.63,0.24,9.0,0.0,0.0,20.0,0.0,1.0,2.0,20.11,14.32,0.2,
20.925,90.76622261134787,81.31802033945914,-3.46,-1.47,-0.01,9.0,0.0,0.0,20.0,0.0,1.0,2.0,20.01,14.32,0.0,
20.95,90.82362226113479,81.31980203394592,-3.28,-1.4,-0.17,9.0,0.0,0.0,20.0,0.0,1.0,2.0,20.11,14.32,0.0,
20.974,90.84736222611348,81.28398020339459,-3.28,-1.44,-0.03,9.0,0.0,0.0,20.0,0.0,1.0,2.0,20.21,14.22,0.0,
20.999,90.76873622261135,81.28939802033946,-3.22,-1.4,-0.25,9.0,0.0,0.0,20.0,0.0,1.0,2.0,20.21,14.13,0.0,
21.023,90.75187362226113,81.28093980203394,-3.19,-1.17,-0.15,9.0,0.0,0.0,20.0,0.0,1.0,2.0,20.21,14.22,0.0,
21.048,90.80418736222612,81.26209398020339,-3.18,-1.08,-0.02,9.0,0.0,0.0,20.0,0.0,1.0,2.0,20.21,14.03,0.59,
21.072,90.80941873622261,81.26920939802034,-2.95,-1.36,-0.02,9.0,0.0,0.0,20.0,0.0,1.0,2.0,20.31,14.03,0.0,
21.097,90.77394187362225,81.28792093980204,-3.04,-1.47,0.24,9.0,0.0,0.0,20.0,0.0,1.0,2.0,20.21,13.93,0.59,
21.122,90.77039418736223,81.33479209398021,-2.97,-1.49,0.12,9.0,0.0,0.0,20.0,0.0,1.0,2.0,20.21,14.03,0.0,
21.146,90.78803941873623,81.33947920939802,-3.02,-1.2,-0.04,9.0,0.0,0.0,20.0,0.0,1.0,2.0,20.01,14.03,0.0,
21.171,90.75380394187361,81.36694792093981,-2.98,-1.19,-0.03,9.0,0.0,0.0,20.0,0.0,1.0,2.0,20.11,14.13,0.0,
21.195,90.75038039418736,81.39669479209398,-3.17,-1.07,-0.01,9.0,0.0,0.0,20.0,0.0,1.0,2.0,20.11,14.03,0.0,
21.22,90.81303803941873,81.3366694792094,-3.16,-1.4,0.01,9.0,0.0,0.0,20.0,0.0,1.0,2.0,20.21,14.03,0.0,
21.243,90.77430380394188,81.35766694792095,-2.98,-1.46,0.11,9.0,0.0,0.0,20.0,0.0,1.0,2.0,20.11,14.03,0.0,
21.268,90.7884303803942,81.3507666947921,-3.15,-1.23,-0.05,9.0,0.0,0.0,20.0,0.0,1.0,2.0,20.21,14.03,0.0,
21.293,90.76284303803943,81.35007666947921,-3.04,-1.26,0.02,9.0,0.0,0.0,20.0,0.0,1.0,2.0,20.21,14.03,0.0,
21.317,90.76928430380394,81.35000766694792,-2.91,-1.27,0.05,9.0,0.0,0.0,20.0,0.0,1.0,2.0,20.31,14.13,1.18,
21.342,90.7879284303804,81.34100076669479,-3.1,-1.15,0.04,9.0,0.0,0.0,17.0,0.0,1.0,2.0,20.21,14.03,0.88,
21.366,90.77179284303804,81.31310007666949,-3.13,-1.3,0.21,9.0,0.0,0.0,20.0,0.0,1.0,2.0,20.11,14.03,0.39,
21.391,90.81517928430381,81.31931000766696,-3.11,-1.38,0.09,9.0,0.0,0.0,20.0,0.0,1.0,2.0,20.11,14.03,0.29,
21.415,90.86451792843039,81.3289310007667,-3.08,-1.95,0.39,9.0,0.0,0.0,19.0,0.0,1.0,2.0,20.11,14.03,0.0,
21.44,90.82445179284304,81.32989310007667,-2.73,-1.5,0.16,9.0,0.0,0.0,20.0,0.0,1.0,2.0,20.11,13.93,0.0,
21.465,90.86544517928431,81.30298931000766,-3.06,-1.47,0.2,9.0,0.0,0.0,20.0,0.0,1.0,2.0,20.01,13.93,0.0,
21.489,90.80654451792843,81.28229893100077,-3.15,-1.29,-0.2,9.0,0.0,0.0,20.0,0.0,1.0,2.0,19.72,13.83,20.4,
21.514,90.73765445179285,81.28922989310007,-3.26,-1.28,-0.24,9.0,0.0,0.0,20.0,0.0,1.0,2.0,19.72,13.83,12.85,
21.538,90.73076544517929,81.32592298931002,-3.07,-1.48,-0.12,9.0,0.0,0.0,21.0,0.0,1.0,2.0,19.62,13.73,3.53,
21.563,90.73007654451794,81.293592298931,-2.91,-1.69,0.02,9.0,0.0,0.0,20.0,0.0,1.0,2.0,19.62,13.64,2.06,
21.586,90.73000765445181,81.2993592298931,-2.9,-1.45,0.18,9.0,0.0,0.0,20.0,0.0,1.0,2.0,19.52,13.54,1.86,
21.611,90.72100076544518,81.2639359229893,-2.82,-1.47,0.14,9.0,0.0,0.0,19.0,0.0,1.0,2.0,19.52,13.44,1.57,
21.636,90.72010007654451,81.33239359229893,-2.75,-1.56,-0.27,9.0,0.0,0.0,19.0,0.0,1.0,2.0,19.33,13.34,1.77,
21.66,90.74701000765444,81.32123935922989,-2.69,-1.82,0.15,9.0,0.0,0.0,21.0,0.0,1.0,2.0,19.23,13.24,1.77,
21.685,90.74070100076544,81.29312393592299,-2.47,-1.69,0.41,9.0,0.0,0.0,19.0,0.0,1.0,2.0,19.03,13.15,1.37,
21.708,90.69507010007653,81.2903123935923,-2.7,-1.6,0.32,9.0,0.0,0.0,19.0,0.0,1.0,2.0,18.93,13.05,0.0,
21.733,90.63650701000765,81.29903123935924,-3.13,-1.61,0.21,9.0,0.0,0.0,19.0,0.0,1.0,2.0,18.84,12.95,1.08,
21.757,90.64865070100078,81.33590312393592,-2.99,-1.69,0.1,9.0,0.0,0.0,19.0,0.0,1.0,2.0,18.84,12.85,1.57,
21.782,90.6948650701001,81.3215903123936,-2.79,-1.42,0.21,9.0,0.0,0.0,18.0,0.0,1.0,2.0,18.64,12.85,1.37,
21.807,90.69948650701002,81.37415903123936,-2.69,-1.63,0.42,9.0,0.0,0.0,18.0,0.0,1.0,1.0,18.64,12.85,0.98,
21.83,90.70894865070099,81.40641590312394,-2.93,-1.65,0.15,9.0,0.0,0.0,18.0,0.0,1.0,1.0,18.64,12.75,1.57,
21.855,90.68289486507011,81.45464159031239,-3.07,-1.6,0.67,9.0,0.0,0.0,18.0,0.0,1.0,1.0,18.54,12.75,1.08,
21.879,90.65328948650702,81.41446415903124,-2.85,-1.4,0.37,9.0,0.0,0.0,18.0,0.0,1.0,1.0,18.54,12.65,0.69,
21.904,90.66832894865071,81.41044641590312,-2.67,-1.72,0.38,9.0,0.0,0.0,18.0,0.0,1.0,1.0,18.44,12.56,0.78,
21.928,90.66083289486507,81.37404464159032,-2.64,-1.53,0.72,9.0,0.0,0.0,17.0,0.0,1.0,1.0,18.25,12.36,2.65,
21.953,90.6870832894865,81.40640446415904,-3.17,-1.64,0.25,9.0,0.0,0.0,17.0,0.0,1.0,1.0,18.05,12.26,1.77,
21.977,90.68070832894865,81.4186404464159,-3.34,-1.49,-0.11,9.0,0.0,0.0,17.0,0.0,1.0,1.0,18.05,12.16,1.47,
22.001,90.60807083289485,81.3838640446416,-3.27,-1.11,-0.13,9.0,0.0,0.0,18.0,0.0,1.0,1.0,17.95,12.26,1.28,
22.026,90.6098070832895,81.37138640446416,-3.43,-1.04,-0.24,9.0,0.0,0.0,18.0,0.0,1.0,1.0,18.05,12.36,0.88,
22.05,90.60098070832893,81.39713864044641,-3.67,-0.79,-0.27,9.0,0.0,0.0,18.0,0.0,1.0,1.0,18.25,12.56,0.39,
22.075,90.5910980708329,81.39971386404464,-3.82,-0.8,-0.69,9.0,0.0,0.0,19.0,0.0,1.0,1.0,18.54,12.65,0.0,
22.099,90.6351098070833,81.36397138640447,-3.79,-0.71,-0.74,9.0,0.0,0.0,20.0,0.0,1.0,1.0,18.64,12.85,0.59,
22.124,90.63051098070832,81.37839713864045,-3.63,-0.63,-0.57,9.0,0.0,0.0,19.0,0.0,1.0,2.0,18.93,13.05,0.88,
22.149,90.66605109807084,81.37083971386404,-3.5,-0.9,-0.57,9.0,0.0,0.0,19.0,0.0,1.0,2.0,19.03,13.24,1.96,
22.172,90.7236051098071,81.3070839713864,-3.27,-1.18,-0.5,9.0,0.0,0.0,19.0,0.0,1.0,2.0,19.23,13.34,1.96,
22.197,90.7203605109807,81.26470839713863,-3.21,-1.46,-0.24,9.0,0.0,0.0,19.0,0.0,1.0,2.0,19.42,13.44,0.69,
22.221,90.75603605109808,81.29647083971386,-3.23,-1.46,0.02,9.0,0.0,0.0,19.0,0.0,1.0,2.0,19.42,13.34,0.59,
22.246,90.7236036051098,81.34464708397138,-3.29,-1.64,0.02,9.0,0.0,0.0,19.0,0.0,1.0,2.0,19.42,13.34,0.0,
22.27,90.756360360511,81.29546470839713,-3.11,-1.76,0.02,9.0,0.0,0.0,19.0,0.0,1.0,2.0,19.42,13.34,0.59,
22.295,90.7326360360511,81.31754647083972,-2.89,-1.74,-0.12,9.0,0.0,0.0,19.0,0.0,1.0,2.0,19.33,13.24,1.08,
22.32,90.71226360360511,81.28375464708397,-2.92,-1.7,0.07,9.0,0.0,0.0,19.0,0.0,1.0,2.0,19.23,13.34,1.57,
22.343,90.64722636036052,81.3703754647084,-2.87,-1.77,0.21,9.0,0.0,0.0,20.0,0.0,1.0,2.0,19.13,13.05,1.18,
22.368,90.69472263603606,81.37903754647084,-3.08,-1.66,0.24,9.0,0.0,0.0,19.0,0.0,1.0,2.0,18.93,12.95,0.1,
22.392,90.7174722636036,81.37090375464709,-2.93,-1.6,0.24,9.0,0.0,0.0,19.0,0.0,1.0,2.0,18.74,12.85,0.2,
22.417,90.72874722636037,81.37909037546471,-2.82,-1.4,0.16,9.0,0.0,0.0,19.0,0.0,1.0,2.0,18.74,12.85,1.08,
22.441,90.72087472263603,81.38890903754647,-2.95,-1.31,-0.05,9.0,0.0,0.0,19.0,0.0,1.0,2.0,18.74,12.75,1.37,
22.465,90.7200874722636,81.40789090375465,-3.0,-1.08,-0.24,9.0,0.0,0.0,19.0,0.0,1.0,2.0,18.64,12.85,0.98,
22.49,90.66600874722636,81.40078909037547,-3.25,-1.11,-0.08,9.0,0.0,0.0,19.0,0.0,1.0,2.0,18.64,12.85,0.98,
22.514,90.64260087472265,81.34607890903754,-3.24,-1.02,-0.56,9.0,0.0,0.0,19.0,0.0,1.0,2.0,18.64,13.05,0.69,
22.539,90.74826008747227,81.32260789090375,-3.55,-1.42,-0.35,9.0,0.0,0.0,20.0,0.0,1.0,2.0,18.84,13.15,0.49,
22.563,90.76782600874722,81.33826078909038,-3.43,-1.14,-0.15,9.0,0.0,0.0,20.0,0.0,1.0,2.0,19.03,13.34,1.28,
22.588,90.74278260087472,81.32182607890904,-3.27,-0.87,0.0,9.0,0.0,0.0,20.0,0.0,1.0,2.0,19.13,13.54,1.08,
22.612,90.72227826008746,81.3021826078909,-3.05,-0.86,-0.32,9.0,0.0,0.0,20.0,0.0,1.0,2.0,19.42,13.73,0.59,
22.637,90.76522782600874,81.3992182607891,-3.11,-0.92,0.16,9.0,0.0,0.0,20.0,0.0,1.0,2.0,19.62,13.73,0.78,
22.662,90.78752278260089,81.40892182607891,-2.89,-0.88,0.27,9.0,0.0,0.0,20.0,0.0,1.0,2.0,19.62,13.83,0.98,
22.685,90.81675227826008,81.39189218260789,-2.89,-1.14,0.56,9.0,0.0,0.0,18.0,0.0,1.0,2.0,19.62,13.83,0.98,
22.71,90.76567522782602,81.36318921826079,-2.95,-1.37,0.34,9.0,0.0,0.0,20.0,0.0,1.0,2.0,19.52,13.83,0.88,
22.734,90.73356752278261,81.44131892182608,-3.0,-1.11,0.59,9.0,0.0,0.0,20.0,0.0,1.0,2.0,19.42,13.64,0.98,
22.759,90.71235675227825,81.48513189218261,-2.92,-1.3,0.59,9.0,0.0,0.0,19.0,0.0,1.0,2.0,19.23,13.54,1.28,
22.784,90.73723567522782,81.44451318921827,-3.08,-1.34,0.53,9.0,0.0,0.0,19.0,0.0,1.0,2.0,18.93,13.34,1.47,
22.807,90.71272356752277,81.42245131892183,-3.37,-1.05,0.18,9.0,0.0,0.0,19.0,0.0,1.0,2.0,18.84,13.15,0.0,
22.832,90.70127235675228,81.44724513189219,-3.56,-0.84,0.03,9.0,0.0,0.0,19.0,0.0,1.0,2.0,18.74,13.24,0.98,
22.856,90.71812723567523,81.44072451318922,-2.98,-0.52,-0.01,9.0,0.0,0.0,19.0,0.0,1.0,2.0,19.03,13.15,0.49,
22.881,90.73781272356752,81.41307245131893,-2.82,-0.93,-0.26,9.0,0.0,0.0,19.0,0.0,1.0,2.0,19.03,13.15,0.49,
22.905,90.75778127235677,81.41030724513189,-2.43,-0.79,-0.15,9.0,0.0,0.0,20.0,0.0,1.0,2.0,19.13,13.44,0.49,
22.93,90.71477812723568,81.41003072451319,-2.57,-0.64,-0.14,9.0,0.0,0.0,20.0,0.0,1.0,2.0,19.03,13.73,0.88,
22.955,90.71947781272357,81.46400307245132,-2.98,-0.52,-0.55,9.0,0.0,0.0,20.0,0.0,1.0,2.0,19.13,13.83,0.78,
22.978,90.67494778127237,81.46940030724514,-3.07,-0.73,-0.47,9.0,0.0,0.0,20.0,0.0,1.0,2.0,19.42,14.22,0.98,
23.003,90.72449477812725,81.45194003072451,-3.05,-0.48,-0.41,9.0,0.0,0.0,20.0,0.0,1.0,2.0,19.62,14.42,0.98,
23.027,90.71144947781272,81.40519400307245,-2.89,-0.88,-0.63,9.0,0.0,0.0,21.0,0.0,1.0,2.0,19.91,14.91,0.88,
23.052,90.76414494778126,81.40951940030725,-3.05,-0.75,-0.5,9.0,0.0,0.0,20.0,0.0,1.0,2.0,20.11,15.11,1.28,
23.076,90.77841449477812,81.44595194003072,-3.1,-1.27,-0.27,9.0,0.0,0.0,21.0,0.0,1.0,2.0,20.31,15.3,0.1,
23.101,90.8158414494778,81.44959519400308,-3.42,-1.17,0.57,9.0,0.0,0.0,21.0,0.0,1.0,2.0,20.31,15.6,0.78,
23.126,90.81058414494778,81.42295951940031,-2.92,-0.82,0.36,9.0,0.0,0.0,21.0,0.0,1.0,2.0,20.4,15.5,1.08,
23.15,90.85505841449478,81.42929595194003,-2.56,-0.65,0.51,9.0,0.0,0.0,21.0,0.0,1.0,2.0,20.4,15.4,1.18,
23.174,90.87750584144948,81.46592959519401,-2.82,-0.79,0.69,9.0,0.0,0.0,20.0,0.0,1.0,2.0,20.31,15.4,0.98,
23.198,90.96075058414495,81.4515929595194,-3.16,-2.6,0.5,9.0,0.0,0.0,21.0,0.0,1.0,2.0,20.11,15.21,0.69,
23.223,90.89707505841449,81.38715929595195,-4.48,-6.38,1.13,9.0,0.0,0.0,21.0,0.0,1.0,2.0,20.21,14.81,0.49,
23.247,90.74670750584146,81.3627159295952,-4.22,-5.07,1.34,9.0,0.0,0.0,21.0,0.0,1.0,2.0,20.5,14.22,0.39,
23.272,90.62367075058415,81.32427159295952,-4.44,-2.34,0.39,9.0,0.0,0.0,21.0,0.0,1.0,2.0,20.99,13.54,0.69,
23.296,90.63836707505843,81.23042715929594,-4.52,-1.59,-0.85,9.0,0.0,0.0,21.0,0.0,1.0,2.0,21.48,13.44,0.39,
23.32,90.58583670750585,81.23004271592959,-4.27,-1.11,-0.6,9.0,0.0,0.0,22.0,0.0,2.0,2.0,22.56,13.44,0.0,
23.345,90.58958367075059,81.16700427159296,-4.23,-0.5,-0.84,9.0,0.0,0.0,22.0,0.0,2.0,2.0,23.25,13.83,1.18,
23.369,90.58995836707507,81.11570042715928,-3.91,0.05,-1.5,9.0,0.0,0.0,22.0,0.0,2.0,2.0,24.13,14.42,1.47,
23.394,90.6529958367075,81.11957004271594,-3.18,0.78,-1.9,9.0,0.0,0.0,22.0,0.0,2.0,2.0,25.11,15.11,0.0,
23.418,90.72229958367076,81.05695700427158,-2.59,0.99,-2.63,9.0,0.0,0.0,23.0,0.0,2.0,2.0,25.8,15.79,0.0,
23.442,90.64822995836708,81.07769570042716,-2.44,1.48,-3.51,9.0,0.0,0.0,23.0,0.0,2.0,3.0,26.0,16.48,0.2,
23.467,90.7668229958367,81.09776957004271,-1.65,3.05,-2.65,9.0,0.0,0.0,23.0,0.0,2.0,3.0,26.29,17.27,0.49,
23.491,90.88668229958367,81.14477695700428,-1.59,4.94,-3.0,10.0,0.0,0.0,24.0,0.0,2.0,3.0,26.59,18.15,0.59,
23.516,90.98866822995836,81.10447769570042,-1.65,4.89,-4.02,10.0,0.0,0.0,24.0,0.0,2.0,3.0,26.98,19.52,1.37,
23.54,91.40386682299584,81.16344776957004,-3.04,-1.63,-4.84,10.0,0.0,0.0,25.0,0.0,2.0,3.0,27.86,21.09,1.37,
23.565,91.70638668229958,81.27734477695701,-4.53,-8.73,-3.24,10.0,0.0,0.0,25.0,0.0,2.0,3.0,29.33,21.97,0.98,
23.589,91.54763866822996,81.2527344776957,-4.36,-12.62,-0.9,10.0,0.0,0.0,25.0,0.0,2.0,3.0,31.98,22.07,0.0,
23.614,91.396763866823,81.22327344776957,-4.38,-12.91,0.78,11.0,0.0,0.0,26.0,0.0,2.0,3.0,38.06,21.19,0.0,
23.639,91.2646763866823,81.17532734477695,-5.32,-13.71,-0.75,11.0,0.0,0.0,26.0,0.0,2.0,3.0,43.16,20.6,0.0,
23.663,90.99946763866824,81.20653273447769,-5.87,-12.73,-0.78,11.0,0.0,0.0,26.0,0.0,2.0,3.0,48.66,19.52,0.0,
23.688,90.59494676386683,81.17365327344777,-4.93,-9.11,0.53,11.0,0.0,0.0,26.0,0.0,3.0,3.0,54.45,18.25,0.0,
23.712,90.32949467638667,81.15236532734478,-3.15,-1.26,2.37,11.0,0.0,0.0,26.0,0.0,3.0,3.0,59.06,17.56,0.0,
23.737,90.01494946763867,81.06923653273448,-2.41,2.99,1.98,11.0,0.0,0.0,27.0,0.0,3.0,3.0,63.57,17.56,21.29,
23.761,89.97449494676387,81.06992365327343,-2.33,3.83,-0.29,12.0,0.0,0.0,26.0,0.0,3.0,3.0,65.43,17.66,0.0,
23.786,90.1234494946764,81.09699236532734,-2.63,3.58,-0.25,12.0,0.0,0.0,26.0,0.0,3.0,3.0,67.2,17.85,0.0,
23.811,90.22834494946763,81.11769923653274,-3.44,0.58,-1.31,12.0,0.0,0.0,27.0,0.0,3.0,4.0,69.06,17.76,0.0,
23.835,90.12183449494677,81.06576992365328,-4.33,1.27,-2.1,12.0,0.0,0.0,27.0,0.0,3.0,4.0,71.32,17.76,0.0,
23.86,89.92218344949468,80.99757699236531,-3.81,4.1,-2.95,12.0,0.0,0.0,28.0,0.0,3.0,4.0,75.64,18.15,6.97,
23.884,89.98321834494946,80.94575769923654,-2.85,7.15,-2.69,0.0,0.0,0.0,28.0,0.0,3.0,4.0,77.4,18.93,23.64,
23.909,90.26832183449494,80.96757576992366,-2.85,7.04,-2.92,0.0,0.0,0.0,28.0,0.0,4.0,4.0,75.54,20.31,30.9,
23.933,90.49483218344949,80.96975757699236,-3.82,3.24,-4.28,0.0,0.0,0.0,30.0,0.0,4.0,4.0,71.91,22.17,8.83,
23.958,90.57148321834495,80.92497575769924,-3.46,0.15,-3.32,1.0,0.0,0.0,30.0,0.0,4.0,4.0,69.85,23.45,4.32,
23.983,90.5431483218345,80.88449757576993,-3.07,0.14,-3.03,1.0,0.0,0.0,31.0,0.0,4.0,5.0,68.87,23.94,2.84,
24.006,90.60331483218346,80.95244975757699,-3.14,2.18,-4.97,1.0,0.0,0.0,31.0,0.0,4.0,5.0,65.92,24.13,2.55,
24.031,90.77133148321836,80.95924497575768,-2.47,1.92,-4.73,1.0,0.0,0.0,31.0,0.0,4.0,5.0,63.57,24.43,1.96,
24.055,90.91413314832184,81.04992449757577,-2.95,1.44,-4.54,1.0,0.0,0.0,31.0,0.0,4.0,4.0,61.12,24.62,1.96,
24.08,90.98241331483217,81.04999244975757,-2.35,-0.01,-2.95,1.0,0.0,0.0,31.0,0.0,4.0,4.0,58.86,24.92,1.67,
24.104,91.13324133148322,81.09499924497575,-3.21,-0.97,-4.27,1.0,0.0,0.0,34.0,0.0,4.0,5.0,57.29,25.31,1.18,
24.129,91.16632413314832,81.10849992449756,-3.9,-2.08,-4.24,2.0,0.0,0.0,31.0,0.0,5.0,4.0,55.62,25.51,0.98,
24.154,91.18763241331483,81.19084999244976,-4.53,-2.41,-5.05,2.0,0.0,0.0,31.0,0.0,5.0,4.0,55.82,25.51,0.69,
24.177,91.27076324133148,81.20808499924497,-4.92,-3.45,-5.35,2.0,0.0,0.0,31.0,0.0,5.0,4.0,56.31,25.41,1.18,
24.202,91.35107632413315,81.1828084999245,-6.75,-5.37,-7.53,1.0,0.0,0.0,32.0,0.0,5.0,5.0,57.49,25.02,1.28,
24.226,91.36810763241331,81.14428084999244,-7.4,-7.6,-6.93,2.0,0.0,0.0,32.0,0.0,5.0,5.0,60.82,24.52,1.08,
24.251,91.37881076324133,81.13142808499924,-7.63,-7.78,-4.82,2.0,0.0,0.0,32.0,0.0,5.0,5.0,65.53,23.84,0.98,
24.275,91.23588107632413,80.98614280849992,-6.03,-6.85,-2.13,2.0,0.0,0.0,32.0,0.0,5.0,5.0,71.51,23.05,0.1,
24.3,91.07758810763242,80.83661428084999,-4.53,-5.22,-1.72,2.0,0.0,0.0,32.0,0.0,6.0,5.0,74.16,22.27,0.49,
24.325,90.78275881076324,80.695661428085,-2.73,-3.5,-0.96,2.0,0.0,0.0,32.0,0.0,6.0,5.0,75.14,21.78,0.59,
24.349,90.78027588107632,80.7445661428085,-2.82,-2.96,-2.37,2.0,0.0,0.0,32.0,0.0,6.0,5.0,73.67,21.58,0.0,
24.374,90.85202758810763,80.77645661428085,-2.17,-3.56,-0.25,1.0,0.0,0.0,32.0,0.0,6.0,5.0,72.5,21.29,0.59,
24.397,90.80520275881076,80.78864566142809,-0.91,-4.14,1.08,1.0,0.0,0.0,31.0,0.0,6.0,5.0,71.51,20.8,1.47,
24.422,90.67452027588106,80.80786456614281,-0.78,-2.87,0.98,0.0,0.0,0.0,30.0,0.0,6.0,5.0,67.59,20.21,2.35,
24.446,90.56245202758811,80.80078645661428,0.04,1.16,2.25,0.0,0.0,0.0,27.0,0.0,6.0,5.0,63.27,19.13,2.26,
24.471,90.4882452027588,80.78207864566143,1.66,6.01,3.85,12.0,0.0,0.0,26.0,0.0,6.0,4.0,56.31,19.03,1.18,
24.495,90.64282452027587,80.85220786456614,3.4,5.08,5.42,11.0,0.0,0.0,22.0,0.0,5.0,4.0,46.3,19.52,0.78,
24.519,91.20728245202758,80.68822078645663,5.11,-0.25,8.64,11.0,0.0,0.0,17.0,0.0,5.0,4.0,36.0,19.42,1.57,
24.544,91.27272824520276,80.89682207864567,2.85,-3.47,9.48,10.0,0.0,0.0,10.0,0.0,4.0,3.0,26.98,18.05,1.77,
24.568,91.11727282452027,81.06168220786456,2.5,-1.92,8.67,10.0,0.0,0.0,4.0,0.0,4.0,3.0,18.25,16.09,1.08,
24.592,91.02072728245203,81.09616822078645,2.15,3.82,6.02,9.0,0.0,0.0,0.0,0.0,3.0,2.0,13.93,14.03,2.45,
24.616,91.2450727282452,81.14461682207866,5.84,4.34,8.73,9.0,0.0,0.0,11.0,0.0,3.0,2.0,10.1,12.36,0.2,
24.641,91.42050727282452,81.17646168220787,14.73,4.53,16.76,8.0,0.0,0.0,8.0,0.0,2.0,1.0,6.77,10.69,2.16,
24.665,91.25805072728245,81.18864616822079,21.04,10.28,19.98,7.0,0.0,0.0,5.0,0.0,1.0,0.0,4.51,8.83,0.0,
24.689,91.45780507272825,81.36086461682208,38.79,18.73,32.53,6.0,0.0,0.0,1.0,0.0,1.0,0.0,2.55,6.77,0.0,
24.713,91.69378050727282,81.27008646168221,66.04,10.62,32.99,3.0,0.0,0.0,1.0,0.0,1.0,0.0,0.0,4.91,0.0,
24.737,91.83437805072727,81.54900864616822,90.42,0.98,24.66,2.0,0.0,0.0,1.0,0.0,1.0,0.0,0.0,2.94,0.0,
24.761,90.07543780507272,82.89990086461682,120.34,-28.4,12.6,2.0,0.0,0.0,1.0,0.0,1.0,0.0,0.0,1.57,0.0,
24.785,90.69154378050729,86.31999008646169,125.28,-38.79,29.09,1.0,0.0,0.0,0.0,0.0,0.0,0.0,0.0,0.98,0.0,
24.809,90.54615437805073,88.56999900864616,119.46,-48.66,-3.05,1.0,0.0,0.0,0.0,0.0,0.0,0.0,0.0,0.69,0.0,
24.834,89.94661543780506,90.4239999008646,105.43,-53.36,-5.37,1.0,0.0,0.0,0.0,0.0,0.0,0.0,0.0,0.59,4.51,
24.858,88.77966154378052,92.83239999008646,76.39,-56.25,-4.61,0.0,0.0,0.0,0.0,0.0,0.0,0.0,0.0,0.49,8.24,
24.882,88.32096615437806,92.02023999900865,29.79,-47.57,34.18,0.0,0.0,0.0,0.0,0.0,0.0,0.0,0.0,0.59,27.08,
24.906,88.2030966154378,88.51902399990085,-14.99,-29.51,37.29,0.0,0.0,0.0,0.0,0.0,0.0,0.0,0.0,0.88,7.75,
24.93,87.15630966154379,84.82990239999009,-52.64,-17.69,30.25,0.0,0.0,0.0,0.0,0.0,0.0,0.0,0.0,0.88,0.98,
24.954,85.53063096615438,81.72499023999902,-54.13,-15.09,-8.02,0.0,0.0,0.0,0.0,0.0,0.0,0.0,0.0,0.69,0.0,
24.978,83.89206309661543,79.15549902399991,-44.98,-19.21,-32.87,0.0,0.0,0.0,0.0,0.0,0.0,0.0,0.0,0.49,5.2,
25.003,82.90020630966156,76.98154990239999,-40.04,-16.07,-58.0,0.0,0.0,0.0,0.0,0.0,0.0,0.0,0.0,0.49,10.3,
