time,pitch,roll,gyrx,gyry,gyrz,f1,f2,f3,f4,f5,f6,f7,g1,g2,g3
0.372,26.8,58.18,-5.72,1.65,1.69,2.0,0.0,0.0,5.0,0.0,0.0,0.0,0.0,0.0,0.29,
0.396,32.461,70.798,-4.34,-1.7,-0.56,2.0,0.0,0.0,5.0,0.0,0.0,0.0,0.0,0.0,0.49,
0.419,37.5811,82.6618,-5.6,-1.15,0.76,2.0,0.0,0.0,5.0,0.0,0.0,0.0,0.0,0.0,0.59,
0.444,41.873110000000004,92.65917999999999,-6.23,-1.31,0.73,2.0,0.0,0.0,5.0,0.0,0.0,0.0,0.0,0.0,0.59,
0.467,45.632311,101.45291800000001,-5.41,-2.44,-0.08,2.0,0.0,0.0,5.0,0.0,0.0,0.0,0.0,0.0,0.69,
0.491,49.09523109999999,109.03729179999999,-3.44,-3.61,-0.65,2.0,0.0,0.0,5.0,0.0,0.0,0.0,0.0,0.0,0.59,
0.516,52.06952310999999,115.46572918000001,-2.66,-1.65,-0.74,2.0,0.0,0.0,5.0,0.0,0.0,0.0,0.0,0.0,0.49,
0.539,54.832952311,120.788572918,-2.86,-4.15,0.18,2.0,0.0,0.0,5.0,0.0,0.0,0.0,0.0,0.0,0.49,
0.563,57.38629523110001,125.09185729179998,-4.17,-0.44,2.33,2.0,0.0,0.0,5.0,0.0,0.0,0.0,0.0,0.0,0.69,
0.587,59.44162952311,128.69918572918,-4.03,-1.73,2.32,2.0,0.0,0.0,5.0,0.0,0.0,0.0,0.0,0.0,0.69,
0.611,61.123162952311,131.705918572918,-5.49,-1.41,0.43,2.0,0.0,0.0,5.0,0.0,0.0,0.0,0.0,0.0,0.69,
0.634,62.2903162952311,134.4095918572918,-5.63,-1.12,1.13,2.0,0.0,0.0,5.0,0.0,0.0,0.0,0.0,0.0,0.69,
0.659,63.45103162952311,136.67795918572918,-4.79,-3.33,1.16,2.0,0.0,0.0,5.0,0.0,0.0,0.0,0.0,0.0,0.78,
0.683,64.39510316295231,138.58779591857294,-4.94,-1.64,0.54,2.0,0.0,0.0,5.0,0.0,0.0,0.0,0.0,0.0,0.69,
0.706,65.29051031629523,140.2817795918573,-5.31,-2.36,-3.73,2.0,0.0,0.0,5.0,0.0,0.0,0.0,0.0,0.0,0.69,
0.731,66.15405103162952,141.82817795918572,-4.61,-2.25,-1.31,3.0,0.0,0.0,5.0,0.0,0.0,0.0,0.0,0.0,0.69,
0.754,66.93340510316295,143.0988177959186,-3.44,-1.89,0.1,3.0,0.0,0.0,5.0,0.0,0.0,0.0,0.0,0.0,0.78,
0.778,67.49734051031629,144.27888177959184,-2.66,-0.99,1.87,3.0,0.0,0.0,5.0,0.0,0.0,0.0,0.0,0.0,0.69,
0.802,67.73373405103163,145.3778881779592,-0.97,-2.71,3.86,3.0,0.0,0.0,5.0,0.0,0.0,0.0,0.0,0.0,0.78,
0.826,67.80237340510317,146.20778881779594,-1.29,-0.58,4.4,3.0,0.0,0.0,5.0,0.0,0.0,0.0,0.0,0.0,0.69,
0.849,67.68323734051032,146.7497788817796,-1.14,-1.93,1.68,3.0,0.0,0.0,5.0,0.0,0.0,0.0,0.0,0.0,0.88,
0.874,67.75232373405103,147.23597788817796,-2.73,-1.74,-3.77,3.0,0.0,0.0,5.0,0.0,0.0,0.0,0.0,0.0,0.88,
0.898,68.5692323734051,147.80659778881778,-2.3,-3.38,-2.66,3.0,0.0,0.0,5.0,0.0,0.0,0.0,0.0,0.0,0.78,
0.921,69.5779232373405,148.21465977888178,-1.22,-1.82,1.94,3.0,0.0,0.0,5.0,0.0,0.0,0.0,0.0,0.0,0.88,
0.946,70.63279232373405,148.3184659778882,-1.41,-0.44,3.66,3.0,0.0,0.0,5.0,0.0,0.0,0.0,0.0,0.0,0.98,
0.969,71.1882792323734,148.35584659778885,-2.75,1.25,2.84,3.0,0.0,0.0,5.0,0.0,0.0,0.0,0.0,0.0,0.98,
0.993,70.99182792323734,148.60258465977887,-3.63,1.44,0.03,3.0,0.0,0.0,5.0,0.0,0.0,0.0,0.0,0.0,0.78,
1.016,70.60318279232374,148.8792584659779,-3.41,2.02,-0.63,3.0,0.0,0.0,5.0,0.0,0.0,0.0,0.0,0.0,0.88,
1.041,70.50131827923236,148.7449258465978,-4.34,0.14,-0.99,3.0,0.0,0.0,5.0,0.0,0.0,0.0,0.0,0.0,0.69,
1.064,70.70713182792323,148.58749258465977,-7.31,1.33,-0.33,3.0,0.0,0.0,5.0,0.0,0.0,0.0,0.0,0.0,0.88,
1.088,70.14271318279232,148.85974925846597,-6.7,2.47,-1.69,3.0,0.0,0.0,5.0,0.0,0.0,0.0,0.0,0.0,0.88,
1.113,69.60927131827923,149.3099749258466,-5.2,-1.16,-4.21,3.0,0.0,0.0,5.0,0.0,0.0,0.0,0.0,0.0,0.88,
1.136,70.14092713182792,149.41799749258468,-4.11,-3.52,-1.27,3.0,0.0,0.0,5.0,0.0,0.0,0.0,0.0,0.0,0.98,
1.16,70.37409271318279,149.19479974925844,-4.63,3.19,3.76,3.0,0.0,0.0,5.0,0.0,0.0,0.0,0.0,0.0,0.88,
1.184,69.59640927131828,149.32547997492586,-4.99,1.55,-3.31,3.0,0.0,0.0,5.0,0.0,0.0,0.0,0.0,0.0,0.78,
1.208,68.64564092713184,149.9055479974926,-3.51,-1.69,-4.65,3.0,0.0,0.0,5.0,0.0,0.0,0.0,0.0,0.0,0.88,
1.231,68.62256409271319,150.32355479974925,-0.19,-3.4,-3.21,3.0,0.0,0.0,5.0,0.0,0.0,0.0,0.0,0.0,0.88,
1.256,68.79125640927131,150.33835547997492,0.9,-1.53,1.32,3.0,0.0,0.0,5.0,0.0,0.0,0.0,0.0,0.0,0.29,
1.28,69.32112564092714,150.34883554799748,-1.11,-4.16,3.14,3.0,0.0,0.0,5.0,0.0,0.0,0.0,0.0,0.0,0.39,
1.303,69.63511256409271,150.35888355479975,-1.87,0.18,5.5,3.0,0.0,0.0,5.0,0.0,0.0,0.0,0.0,0.0,0.49,
1.327,69.29751125640928,150.37788835548,-1.4,-0.26,1.69,3.0,0.0,0.0,5.0,0.0,0.0,0.0,0.0,0.0,0.49,
1.351,69.18275112564092,150.26278883554798,-0.94,-2.76,1.1,3.0,0.0,0.0,5.0,0.0,0.0,0.0,0.0,0.0,0.49,
1.375,69.22527511256409,149.98127888355478,-1.5,-2.89,0.32,3.0,0.0,0.0,5.0,0.0,0.0,0.0,0.0,0.0,0.39,
1.398,69.2205275112564,149.89012788835547,-2.01,-1.72,-1.32,3.0,0.0,0.0,5.0,0.0,0.0,0.0,0.0,0.0,0.49,
1.423,69.03105275112564,150.06101278883554,-0.15,-2.43,-0.05,3.0,0.0,0.0,5.0,0.0,0.0,0.0,0.0,0.0,0.69,
1.446,68.85910527511257,150.16810127888357,0.94,-3.44,2.15,3.0,0.0,0.0,5.0,0.0,0.0,0.0,0.0,0.0,0.69,
1.47,68.95891052751125,150.24181012788836,0.21,-5.76,0.3,3.0,0.0,0.0,5.0,0.0,0.0,0.0,0.0,0.0,0.69,
1.495,69.45489105275112,150.41118101278883,-0.61,-4.98,0.49,3.0,0.0,0.0,5.0,0.0,0.0,0.0,0.0,0.0,0.59,
1.518,69.53148910527511,150.73411810127888,-0.41,-1.24,1.5,3.0,0.0,0.0,5.0,0.0,0.0,0.0,0.0,0.0,0.69,
1.542,69.63814891052752,151.05441181012787,1.21,-3.66,-0.15,3.0,0.0,0.0,5.0,0.0,0.0,0.0,0.0,0.0,0.69,
1.566,70.34181489105275,150.9874411810128,0.75,-3.68,1.79,3.0,0.0,0.0,5.0,0.0,0.0,0.0,0.0,0.0,0.69,
1.59,70.73618148910528,150.70174411810126,-1.05,-0.04,1.37,3.0,0.0,0.0,5.0,0.0,0.0,0.0,0.0,0.0,0.78,
1.613,70.55061814891053,150.7811744118101,-2.2,0.18,-2.34,3.0,0.0,0.0,5.0,0.0,0.0,0.0,0.0,0.0,0.69,
1.638,70.17206181489105,150.951117441181,-1.41,-1.78,-3.21,3.0,0.0,0.0,5.0,0.0,0.0,0.0,0.0,0.0,0.78,
1.661,70.62920618148911,150.9771117441181,-1.46,-3.19,-2.28,3.0,0.0,0.0,5.0,0.0,0.0,0.0,0.0,0.0,0.78,
1.685,70.82792061814891,150.88071117441183,-1.56,-0.53,2.14,3.0,0.0,0.0,5.0,0.0,0.0,0.0,0.0,0.0,0.78,
1.71,70.24479206181489,150.8800711174412,-1.21,0.22,1.34,3.0,0.0,0.0,5.0,0.0,0.0,0.0,0.0,0.0,0.88,
1.733,69.63747920618148,150.9880071117441,-0.18,-3.21,0.67,3.0,0.0,0.0,5.0,0.0,0.0,0.0,0.0,0.0,0.88,
1.757,69.34274792061815,151.18780071117442,-0.76,-3.8,-0.64,3.0,0.0,0.0,5.0,0.0,0.0,0.0,0.0,0.0,0.78,
1.781,68.79127479206181,151.33378007111745,0.06,-2.03,-0.23,3.0,0.0,0.0,5.0,0.0,0.0,0.0,0.0,0.0,0.69,
1.805,69.36612747920618,151.41137800711172,-1.63,-5.6,-0.58,3.0,0.0,0.0,5.0,0.0,0.0,0.0,0.0,0.0,0.78,
1.828,70.00861274792062,151.48213780071117,-0.83,-1.56,2.95,3.0,0.0,0.0,5.0,0.0,0.0,0.0,0.0,0.0,0.78,
1.853,70.19886127479207,151.4712137800711,-1.6,0.15,-0.53,3.0,0.0,0.0,5.0,0.0,0.0,0.0,0.0,0.0,0.88,
1.876,70.14588612747922,151.56912137800714,-1.38,-1.84,0.73,3.0,0.0,0.0,5.0,0.0,0.0,0.0,0.0,0.0,0.78,
1.9,70.41058861274792,151.52491213780073,-1.75,-2.12,-0.77,3.0,0.0,0.0,5.0,0.0,0.0,0.0,0.0,0.0,0.88,
1.925,70.96805886127478,151.2684912137801,-2.58,-0.55,-0.78,3.0,0.0,0.0,5.0,0.0,0.0,0.0,0.0,0.0,0.88,
1.948,71.24880588612749,150.990849121378,-4.53,1.49,-0.82,3.0,0.0,0.0,5.0,0.0,0.0,0.0,0.0,0.0,0.88,
1.972,70.74588058861275,151.0350849121378,-5.96,1.58,-2.61,3.0,0.0,0.0,5.0,0.0,0.0,0.0,0.0,0.0,0.88,
1.996,70.16458805886127,151.17450849121377,-2.2,-0.12,1.02,3.0,0.0,0.0,5.0,0.0,0.0,0.0,0.0,0.0,0.98,
2.02,69.81845880588612,150.7924508491214,-3.97,-1.78,0.26,3.0,0.0,0.0,5.0,0.0,0.0,0.0,0.0,0.0,0.88,
2.043,69.20784588058861,150.50224508491215,-6.67,-0.29,0.15,3.0,0.0,0.0,5.0,0.0,0.0,0.0,0.0,0.0,0.88,
2.068,68.42678458805887,150.60822450849122,-8.31,-1.3,-2.18,3.0,0.0,0.0,5.0,0.0,0.0,0.0,0.0,0.0,0.78,
2.092,67.93467845880588,150.8798224508491,-7.3,-3.36,-1.47,3.0,0.0,0.0,5.0,0.0,0.0,0.0,0.0,0.0,0.98,
2.115,68.23646784588058,150.9609822450849,-6.77,-4.67,0.23,3.0,0.0,0.0,5.0,0.0,0.0,0.0,0.0,0.0,0.98,
2.14,68.55464678458806,150.7710982245085,-8.21,-1.83,3.56,3.0,0.0,0.0,5.0,0.0,0.0,0.0,0.0,0.0,0.39,
2.163,69.1714646784588,150.89610982245082,-7.99,-4.44,1.47,3.0,0.0,0.0,5.0,0.0,0.0,0.0,0.0,0.0,0.39,
2.187,69.65614646784587,151.05261098224508,-7.47,0.09,0.69,3.0,0.0,0.0,5.0,0.0,0.0,0.0,0.0,0.0,0.29,
2.211,69.90261464678458,151.3382610982245,-5.01,-0.06,-1.17,3.0,0.0,0.0,5.0,0.0,0.0,0.0,0.0,0.0,0.39,
2.235,70.53026146467846,151.25882610982245,-4.91,-1.56,2.21,3.0,0.0,0.0,5.0,0.0,0.0,0.0,0.0,0.0,0.39,
2.258,70.85402614646785,151.03488261098224,-5.67,0.76,6.07,3.0,0.0,0.0,5.0,0.0,0.0,0.0,0.0,0.0,0.49,
2.283,70.96740261464679,150.7064882610982,-6.12,1.7,3.43,3.0,0.0,0.0,5.0,0.0,0.0,0.0,0.0,0.0,0.59,
2.307,70.99674026146468,150.49364882610982,-7.4,2.97,2.7,3.0,0.0,0.0,5.0,0.0,0.0,0.0,0.0,0.0,0.59,
2.33,70.76567402614646,150.53536488261096,-6.91,2.16,2.21,3.0,0.0,0.0,5.0,0.0,0.0,0.0,0.0,0.0,0.59,
2.354,71.15656740261464,150.0085364882611,-8.31,-0.12,2.31,3.0,0.0,0.0,5.0,0.0,0.0,0.0,0.0,0.0,0.49,
2.378,72.66265674026145,149.3168536488261,-13.63,-0.58,3.4,3.0,0.0,0.0,5.0,0.0,0.0,0.0,0.0,0.0,0.69,
2.402,73.64126567402614,148.62668536488263,-16.56,7.26,5.06,3.0,0.0,0.0,5.0,0.0,0.0,0.0,0.0,0.0,0.69,
2.425,74.0091265674026,147.99066853648824,-20.39,8.38,1.85,3.0,0.0,0.0,5.0,0.0,0.0,0.0,0.0,0.0,0.69,
2.45,73.83891265674026,147.7020668536488,-22.6,8.44,2.48,3.0,0.0,0.0,5.0,0.0,0.0,0.0,0.0,0.0,0.69,
2.473,73.96589126567403,147.04320668536488,-23.34,5.47,4.2,3.0,0.0,0.0,5.0,0.0,0.0,0.0,0.0,0.0,0.69,
2.497,75.55358912656742,145.5733206685365,-28.44,3.87,6.33,3.0,0.0,0.0,5.0,0.0,0.0,0.0,0.0,0.0,0.78,
2.521,78.34935891265674,143.29333206685362,-40.62,9.21,14.37,2.0,0.0,0.0,5.0,0.0,0.0,0.0,0.0,0.0,0.88,
2.545,80.61793589126567,140.71633320668536,-58.41,26.13,23.75,2.0,0.0,0.0,5.0,0.0,0.0,0.0,0.0,0.0,0.98,
2.569,81.87079358912658,138.45163332066852,-68.22,33.58,29.97,2.0,0.0,0.0,5.0,0.0,0.0,0.0,0.0,0.0,0.88,
2.593,82.98607935891266,135.59716333206686,-79.73,28.66,29.69,2.0,0.0,0.0,4.0,0.0,0.0,0.0,0.0,0.0,0.98,
2.617,84.60960793589128,132.4317163332067,-93.57,34.46,32.95,2.0,0.0,0.0,4.0,0.0,0.0,0.0,0.0,0.0,1.08,
2.641,86.00496079358912,129.36117163332068,-108.38,42.98,25.08,2.0,0.0,0.0,4.0,0.0,0.0,0.0,0.0,0.0,0.98,
2.665,86.88249607935892,126.64211716333207,-117.56,46.5,21.27,2.0,0.0,0.0,4.0,0.0,0.0,0.0,0.0,0.0,0.88,
2.69,87.90624960793589,124.7322117163332,-119.26,45.4,22.72,2.0,0.0,0.0,4.0,0.0,0.0,0.0,0.0,0.0,1.08,
2.713,88.7556249607936,123.95622117163332,-118.79,40.18,37.21,2.0,0.0,0.0,4.0,0.0,0.0,0.0,0.0,0.0,1.08,
2.738,89.16456249607936,123.12262211716333,-111.41,33.18,47.92,2.0,0.0,0.0,4.0,0.0,0.0,0.0,0.0,0.0,0.78,
2.761,89.88045624960793,121.61726221171634,-109.87,25.6,55.23,2.0,0.0,0.0,4.0,0.0,0.0,0.0,0.0,0.0,0.78,
2.786,90.63604562496079,119.36072622117163,-116.85,29.37,51.63,2.0,0.0,0.0,4.0,0.0,0.0,0.0,0.0,0.0,0.78,
2.809,91.14360456249608,117.29007262211717,-120.4,24.89,41.49,2.0,0.0,0.0,4.0,0.0,0.0,0.0,0.0,0.0,0.98,
2.834,91.5813604562496,115.88600726221172,-122.5,26.82,32.83,2.0,0.0,0.0,4.0,0.0,0.0,0.0,0.0,0.0,1.08,
2.859,92.13813604562496,114.92660072622117,-121.3,21.73,23.14,2.0,0.0,0.0,4.0,0.0,0.0,0.0,0.0,0.0,0.29,
2.882,92.73381360456249,114.04766007262212,-119.55,22.76,11.63,2.0,0.0,0.0,4.0,0.0,0.0,0.0,0.0,0.0,0.39,
2.907,93.45038136045625,113.5187660072622,-114.61,11.8,12.41,2.0,0.0,0.0,4.0,0.0,0.0,0.0,0.0,0.0,0.39,
2.93,94.47603813604562,113.24987660072621,-104.96,18.4,16.72,2.0,0.0,0.0,4.0,0.0,0.0,0.0,0.0,0.0,0.78,
2.955,95.49660381360457,112.59298766007262,-98.86,12.53,18.02,2.0,0.0,0.0,4.0,0.0,0.0,0.0,0.0,0.0,0.98,
2.978,96.13866038136045,111.68129876600726,-89.82,9.2,19.35,2.0,0.0,0.0,4.0,0.0,0.0,0.0,0.0,0.0,0.98,
3.003,96.53586603813604,110.75312987660072,-81.76,14.48,19.64,2.0,0.0,0.0,4.0,0.0,0.0,0.0,0.0,0.0,0.98,
3.026,97.12458660381361,110.10231298766007,-74.89,10.38,14.19,2.0,0.0,0.0,4.0,0.0,0.0,0.0,0.0,0.0,0.78,
3.051,97.53445866038136,109.155231298766,-69.15,5.44,19.08,2.0,0.0,0.0,4.0,0.0,0.0,0.0,0.0,0.0,0.49,
3.075,97.67444586603814,108.4665231298766,-60.51,3.63,14.36,2.0,0.0,0.0,4.0,0.0,0.0,0.0,0.0,0.0,0.39,
3.098,97.76944458660383,108.18165231298767,-50.21,2.54,11.67,2.0,0.0,0.0,4.0,0.0,0.0,0.0,0.0,0.0,0.49,
3.123,97.56294445866038,108.10816523129876,-38.93,5.3,9.6,2.0,0.0,0.0,4.0,0.0,0.0,0.0,0.0,0.0,0.69,
3.146,97.29929444586602,107.98381652312987,-25.41,-0.84,4.21,2.0,0.0,0.0,4.0,0.0,0.0,0.0,0.0,0.0,0.69,
3.17,97.23692944458661,107.71038165231299,-15.4,-4.28,6.21,2.0,0.0,0.0,4.0,0.0,0.0,0.0,0.0,0.0,0.69,
3.194,97.28469294445867,106.85503816523129,-7.43,-11.95,14.66,2.0,0.0,0.0,4.0,0.0,0.0,0.0,0.0,0.0,0.69,
3.218,97.25346929444586,105.24850381652313,-3.6,-13.87,16.27,2.0,0.0,0.0,4.0,0.0,0.0,0.0,0.0,0.0,0.78,
3.243,97.30434692944459,103.22485038165232,-1.55,-12.02,13.08,2.0,0.0,0.0,4.0,0.0,0.0,0.0,0.0,0.0,0.78,
3.266,97.26443469294446,100.99748503816522,-3.77,-12.37,14.8,2.0,0.0,0.0,4.0,0.0,0.0,0.0,0.0,0.0,0.78,
3.291,97.16144346929445,98.80374850381654,-4.66,-13.3,11.41,2.0,0.0,0.0,4.0,0.0,0.0,0.0,0.0,0.0,0.98,
3.314,97.33114434692943,97.04537485038165,-7.35,-14.72,11.06,2.0,0.0,0.0,4.0,0.0,0.0,0.0,0.0,0.0,1.18,
3.338,97.45611443469294,95.26753748503816,-9.72,-12.08,11.68,2.0,0.0,0.0,4.0,0.0,0.0,0.0,0.0,0.0,1.08,
3.362,97.64861144346929,93.4427537485038,-7.23,-7.31,1.17,2.0,0.0,0.0,4.0,0.0,0.0,0.0,0.0,0.0,1.28,
3.386,98.41486114434693,92.13527537485038,-3.68,-6.85,-1.53,2.0,0.0,0.0,4.0,0.0,0.0,0.0,0.0,0.0,1.28,
3.409,98.98648611443468,90.98752753748504,-5.75,-5.15,-2.68,2.0,0.0,0.0,4.0,0.0,0.0,0.0,0.0,0.0,0.78,
3.434,100.57364861144346,90.2697527537485,-16.45,53.08,20.71,2.0,1.0,0.0,4.0,0.0,0.0,0.0,0.0,0.0,0.59,
3.458,99.75136486114434,88.85697527537485,-8.24,-24.43,6.27,3.0,1.0,0.0,4.0,0.0,0.0,0.0,0.0,0.0,0.0,
3.481,98.34613648611443,88.2116975275375,-10.01,-14.53,-2.95,3.0,1.0,0.0,4.0,0.0,0.0,0.0,0.0,0.0,0.0,
3.506,97.89061364861145,87.99416975275375,-10.98,3.88,-3.08,3.0,1.0,0.0,4.0,0.0,0.0,0.0,0.0,0.0,0.0,
3.529,98.31306136486114,87.50441697527538,-4.86,15.07,-6.21,3.0,1.0,0.0,4.0,0.0,0.0,0.0,0.0,0.0,0.59,
3.554,99.31830613648611,87.40144169752753,-5.12,0.0,1.47,3.0,1.0,0.0,4.0,0.0,0.0,0.0,0.0,0.0,0.0,
3.577,99.23883061364862,87.16614416975276,-8.72,-3.79,0.02,4.0,1.0,0.0,4.0,0.0,0.0,0.0,0.0,0.0,0.0,
3.601,98.60988306136487,87.02561441697529,-8.82,5.11,-1.01,4.0,2.0,0.0,4.0,0.0,0.0,0.0,0.0,0.0,0.0,
3.624,98.2409883061365,86.71456144169754,-14.78,4.98,-5.97,5.0,2.0,0.0,4.0,0.0,0.0,0.0,0.0,0.0,0.0,
3.648,98.33909883061365,86.35945614416976,-18.66,-0.66,-11.76,5.0,2.0,0.0,4.0,0.0,0.0,0.0,0.0,0.0,0.0,
3.673,97.83590988306138,85.67594561441696,-19.09,4.18,-13.76,5.0,2.0,0.0,4.0,0.0,0.0,0.0,0.0,0.0,0.0,
3.696,98.28959098830613,85.4725945614417,-15.24,2.12,-10.05,800.0,2.0,0.0,4.0,0.0,0.0,0.0,0.0,0.0,0.0,
3.721,98.39795909883061,84.50725945614417,-7.34,-5.92,4.78,3300.0,2.0,0.0,4.0,0.0,0.0,0.0,0.0,0.0,0.0,
3.744,98.11179590988306,84.23972594561442,-5.47,-1.66,-0.18,-33.0,2.0,0.0,4.0,0.0,0.0,0.0,0.0,0.0,0.0,
3.769,98.3891795909883,84.23997259456144,-7.5,-1.22,1.98,3300.0,3.0,0.0,5.0,0.0,0.0,0.0,0.0,0.0,0.0,
3.792,98.56991795909883,84.38399725945615,-6.7,1.86,-1.6,3300.0,3.0,0.0,5.0,0.0,0.0,0.0,0.0,0.0,0.0,
3.817,98.82199179590988,84.25439972594562,-5.92,-0.17,3.02,3300.0,3.0,0.0,5.0,0.0,0.0,0.0,0.0,0.0,0.0,
3.841,98.97319917959098,83.98943997259455,-3.45,-0.45,1.66,3300.0,3.0,0.0,5.0,0.0,0.0,0.0,0.0,0.0,0.39,
3.865,99.1503199179591,84.07094399725945,-3.31,-1.85,-0.39,-33.0,3.0,0.0,5.0,0.0,0.0,0.0,0.0,0.0,0.59,
3.89,99.2130319917959,84.21409439972595,-4.95,-2.69,0.84,-33.0,3.0,0.0,5.0,0.0,0.0,0.0,0.0,0.0,0.1,
3.913,99.13830319917959,84.2194094399726,-5.13,-0.05,1.01,-33.0,3.0,0.0,5.0,0.0,0.0,0.0,0.0,0.0,0.2,
3.938,99.26583031991797,84.09394094399725,-4.53,0.39,1.66,-33.0,3.0,0.0,6.0,0.0,0.0,0.0,0.0,0.0,0.98,
3.961,99.44058303199179,83.99139409439974,-3.25,-1.7,0.75,-33.0,3.0,0.0,6.0,0.0,0.0,0.0,0.0,0.0,1.08,
3.986,99.55705830319917,83.98113940943998,-2.95,-1.74,0.14,-33.0,3.0,0.0,6.0,0.0,0.0,0.0,0.0,0.0,0.49,
4.009,99.59570583031991,83.890113940944,-2.77,-1.14,0.73,-33.0,3.0,0.0,6.0,0.0,0.0,0.0,0.0,0.0,0.88,
4.034,99.59057058303199,83.9170113940944,-1.77,-1.91,0.26,-33.0,3.0,0.0,6.0,0.0,0.0,0.0,0.0,0.0,0.69,
4.058,99.5090570583032,83.94670113940944,-2.37,-2.15,0.53,1077.0,3.0,0.0,6.0,0.0,0.0,0.0,0.0,0.0,0.39,
4.082,99.48290570583033,83.93167011394095,-2.4,-0.72,-0.31,-33.0,3.0,0.0,6.0,0.0,0.0,0.0,0.0,0.0,0.49,
4.106,99.53429057058304,83.9391670113941,-1.84,-1.5,0.44,-33.0,3.0,0.0,6.0,0.0,0.0,0.0,0.0,0.0,0.49,
4.13,99.4224290570583,83.92191670113941,-2.08,-1.26,1.27,-33.0,3.0,0.0,6.0,0.0,0.0,0.0,0.0,0.0,0.59,
4.154,99.39324290570583,83.96519167011395,-2.5,-0.65,0.16,-33.0,3.0,0.0,6.0,0.0,0.0,0.0,0.0,0.0,0.29,
4.178,99.39932429057059,84.0505191670114,-2.74,-1.01,0.73,-33.0,3.0,0.0,6.0,0.0,0.0,0.0,0.0,0.0,0.2,
4.202,99.34593242905706,84.02305191670114,-3.05,-0.78,0.21,-33.0,3.0,0.0,6.0,0.0,0.0,0.0,0.0,0.0,0.0,
4.227,99.27759324290571,84.01130519167012,-3.26,-0.31,1.47,-33.0,3.0,0.0,6.0,0.0,0.0,0.0,0.0,0.0,0.0,
4.25,99.26175932429058,84.03713051916702,-3.49,-0.48,0.11,-33.0,3.0,0.0,6.0,0.0,0.0,0.0,0.0,0.0,0.0,
4.275,99.36817593242905,84.02171305191669,-4.4,-1.15,0.21,-33.0,3.0,0.0,6.0,0.0,0.0,0.0,0.0,0.0,0.29,
4.298,99.38781759324291,83.96617130519166,-4.4,-0.8,0.05,-33.0,3.0,0.0,6.0,0.0,0.0,0.0,0.0,0.0,0.49,
4.323,99.43478175932428,83.96061713051915,-4.0,-1.66,0.9,-33.0,3.0,0.0,6.0,0.0,0.0,0.0,0.0,0.0,0.59,
4.346,99.49347817593242,83.96006171305191,-4.05,-1.94,0.49,-33.0,3.0,0.0,6.0,0.0,0.0,0.0,0.0,0.0,0.59,
4.371,99.38234781759324,84.09500617130519,-6.57,-3.1,1.13,-33.0,3.0,0.0,7.0,0.0,0.0,0.0,0.0,0.0,0.39,
4.395,99.27223478175932,84.03650061713053,-8.09,-0.69,0.98,-33.0,3.0,0.0,7.0,0.0,0.0,0.0,0.0,0.0,0.29,
4.419,99.39622347817593,84.02165006171305,-6.86,1.9,2.81,-33.0,3.0,0.0,7.0,0.0,0.0,0.0,0.0,0.0,0.49,
4.443,99.46262234781759,83.8851650061713,-6.27,1.98,2.61,-33.0,3.0,0.0,7.0,0.0,0.0,0.0,0.0,0.0,1.08,
4.467,99.57726223478176,83.79951650061713,-6.27,2.11,1.38,-33.0,3.0,0.0,7.0,0.0,0.0,0.0,0.0,0.0,0.98,
4.491,99.66072622347818,83.77295165006171,-5.88,1.67,2.49,-33.0,3.0,0.0,7.0,0.0,0.0,0.0,0.0,0.0,0.69,
4.515,99.7320726223478,83.65329516500617,-5.74,2.08,1.85,-33.0,3.0,0.0,7.0,0.0,0.0,0.0,0.0,0.0,0.59,
4.539,99.80220726223479,83.51532951650063,-6.1,3.42,1.27,-33.0,3.0,0.0,7.0,0.0,0.0,0.0,0.0,0.0,0.39,
4.563,99.97122072622348,83.45653295165006,-5.02,2.44,1.18,-33.0,3.0,0.0,7.0,0.0,0.0,0.0,0.0,0.0,0.69,
4.587,100.12312207262235,83.36965329516501,-4.15,0.73,0.84,-33.0,3.0,0.0,7.0,0.0,0.0,0.0,0.0,0.0,0.98,
4.612,100.13831220726223,83.2619653295165,-2.77,-1.21,-1.11,3300.0,3.0,0.0,7.0,0.0,0.0,0.0,0.0,0.0,0.78,
4.635,100.20283122072621,83.19719653295164,-2.02,-1.51,-0.71,-33.0,3.0,0.0,7.0,0.0,0.0,0.0,0.0,0.0,0.69,
4.66,100.2092831220726,83.13671965329516,-1.14,-1.78,-1.5,3300.0,3.0,0.0,7.0,0.0,0.0,0.0,0.0,0.0,0.49,
4.684,100.22792831220727,83.06767196532952,0.6,-1.67,-1.33,-33.0,3.0,0.0,7.0,0.0,0.0,0.0,0.0,0.0,0.69,
4.708,100.31079283122072,82.88076719653294,6.78,-1.79,-1.21,-33.0,3.0,0.0,7.0,0.0,0.0,0.0,0.0,0.0,0.29,
4.732,100.58907928312208,83.27607671965329,8.58,0.56,-1.05,-33.0,3.0,0.0,6.0,0.0,0.0,0.0,0.0,0.0,0.2,
4.756,100.3739079283122,83.55860767196533,6.48,-4.73,0.89,-33.0,3.0,0.0,6.0,0.0,0.0,0.0,0.0,0.0,0.0,
4.781,100.00139079283122,83.78486076719653,2.56,0.17,-3.09,-33.0,3.0,0.0,6.0,0.0,0.0,0.0,0.0,0.0,0.0,
4.804,99.96413907928311,83.98748607671966,-0.43,-0.17,0.02,-33.0,3.0,0.0,5.0,0.0,0.0,0.0,0.0,0.0,0.0,
4.829,100.00541390792831,84.01674860767196,-1.89,-0.47,-0.85,-33.0,3.0,0.0,5.0,0.0,0.0,0.0,0.0,0.0,0.0,
4.853,100.09954139079284,84.0736748607672,-1.89,-2.6,-0.3,-33.0,3.0,0.0,5.0,0.0,0.0,0.0,0.0,0.0,0.0,
4.877,100.09995413907929,84.09736748607672,-1.98,-1.38,-0.88,3300.0,3.0,0.0,5.0,0.0,0.0,0.0,0.0,0.0,0.0,
4.901,100.07299541390793,84.09973674860767,-2.69,-1.43,-1.5,-33.0,3.0,0.0,5.0,0.0,0.0,0.0,0.0,0.0,0.29,
4.925,99.98929954139079,84.12697367486076,-2.76,-2.07,-1.28,-33.0,3.0,0.0,5.0,0.0,0.0,0.0,0.0,0.0,0.59,
4.95,99.97192995413907,84.14769736748609,-2.46,-1.14,-0.33,-33.0,3.0,0.0,5.0,0.0,0.0,0.0,0.0,0.0,0.59,
4.973,100.0421929954139,84.18576973674861,-2.73,-1.08,0.24,-33.0,3.0,0.0,5.0,0.0,0.0,0.0,0.0,0.0,0.49,
4.998,100.1122192995414,84.25257697367486,-3.1,-0.83,-0.42,-33.0,3.0,0.0,5.0,0.0,0.0,0.0,0.0,0.0,0.2,
5.021,100.16422192995414,84.31325769736748,-3.11,-1.18,0.26,3300.0,3.0,0.0,5.0,0.0,0.0,0.0,0.0,0.0,0.39,
5.046,100.14242219299541,84.35532576973675,-3.33,-0.92,0.33,-33.0,3.0,0.0,5.0,0.0,0.0,0.0,0.0,0.0,0.49,
5.069,100.14024221929955,84.36853257697368,-3.56,-0.47,0.28,-33.0,3.0,0.0,5.0,0.0,0.0,0.0,0.0,0.0,0.59,
5.094,100.20302422192995,84.41485325769737,-3.98,-0.77,0.16,-33.0,3.0,0.0,5.0,0.0,0.0,0.0,0.0,0.0,0.49,
5.117,100.218302422193,84.34748532576974,-3.89,-0.82,0.08,-33.0,3.0,0.0,6.0,0.0,0.0,0.0,0.0,0.0,0.39,
5.142,100.2738302422193,84.36774853257698,-3.6,-1.11,0.39,-33.0,3.0,0.0,6.0,0.0,0.0,0.0,0.0,0.0,0.49,
5.167,100.28838302422194,84.39677485325771,-3.04,-1.29,0.27,-33.0,3.0,0.0,6.0,0.0,0.0,0.0,0.0,0.0,0.88,
5.19,100.3618383024222,84.37267748532578,-2.47,-1.18,0.06,-33.0,3.0,0.0,6.0,0.0,0.0,0.0,0.0,0.0,1.28,
5.215,100.29718383024223,84.37926774853257,-2.46,-0.89,-0.05,-33.0,3.0,0.0,6.0,0.0,0.0,0.0,0.0,0.0,0.78,
5.238,100.30871838302423,84.42492677485326,-2.82,-0.34,0.05,-33.0,3.0,0.0,6.0,0.0,0.0,0.0,0.0,0.0,0.39,
5.263,100.31887183830241,84.45649267748531,-3.54,-0.98,0.48,3300.0,3.0,0.0,6.0,0.0,0.0,0.0,0.0,0.0,0.39,
5.286,100.29288718383025,84.40564926774854,-3.82,-1.39,0.31,-33.0,3.0,0.0,6.0,0.0,0.0,0.0,0.0,0.0,0.39,
5.311,100.32628871838301,84.34656492677486,-3.8,-2.02,0.35,-33.0,3.0,0.0,6.0,0.0,0.0,0.0,0.0,0.0,0.29,
5.336,100.3296288718383,84.3586564926775,-4.16,-1.92,0.68,-33.0,3.0,0.0,6.0,0.0,0.0,0.0,0.0,0.0,0.39,
5.359,100.33896288718384,84.35986564926776,-3.6,-1.73,0.28,-33.0,3.0,0.0,6.0,0.0,0.0,0.0,0.0,0.0,0.59,
5.384,100.3668962887184,84.39598656492679,-3.27,-1.04,-0.07,-33.0,3.0,0.0,6.0,0.0,0.0,0.0,0.0,0.0,0.78,
5.408,100.31568962887185,84.38159865649267,-3.13,-1.84,-0.02,-33.0,3.0,0.0,6.0,0.0,0.0,0.0,0.0,0.0,0.49,
5.432,100.28356896288719,84.40715986564926,-3.01,-1.43,0.05,-33.0,3.0,0.0,6.0,0.0,0.0,0.0,0.0,0.0,0.39,
5.456,100.34335689628871,84.37371598656493,-2.94,-1.01,-0.56,-33.0,3.0,0.0,6.0,0.0,0.0,0.0,0.0,0.0,0.39,
5.481,100.34933568962887,84.32537159865649,-2.79,-1.73,0.44,-33.0,3.0,0.0,6.0,0.0,0.0,0.0,0.0,0.0,0.49,
5.505,100.3679335689629,84.30253715986565,-3.06,-0.94,-0.02,-33.0,3.0,0.0,6.0,0.0,0.0,0.0,0.0,0.0,0.78,
5.529,100.37879335689628,84.28225371598657,-3.19,-0.79,0.23,-33.0,3.0,0.0,6.0,0.0,0.0,0.0,0.0,0.0,0.88,
5.553,100.37087933568964,84.28922537159866,-3.02,-0.85,0.11,-33.0,3.0,0.0,6.0,0.0,0.0,0.0,0.0,0.0,0.88,
5.577,100.35208793356895,84.28992253715987,-2.74,-0.63,0.25,-33.0,3.0,0.0,6.0,0.0,0.0,0.0,0.0,0.0,0.59,
5.602,100.4222087933569,84.334992253716,-2.77,-0.27,-0.41,-33.0,3.0,0.0,6.0,0.0,0.0,0.0,0.0,0.0,0.59,
5.625,100.4022208793357,84.3844992253716,-2.94,-1.58,0.2,-33.0,3.0,0.0,6.0,0.0,0.0,0.0,0.0,0.0,0.59,
5.65,100.38222208793357,84.36244992253717,-3.07,-0.63,0.35,-33.0,3.0,0.0,6.0,0.0,0.0,0.0,0.0,0.0,0.98,
5.673,100.34422220879337,84.30624499225372,-3.0,-0.52,0.13,-33.0,3.0,0.0,6.0,0.0,0.0,0.0,0.0,0.0,1.08,
5.698,100.30442222087933,84.30062449922538,-3.15,-0.81,0.29,-33.0,3.0,0.0,6.0,0.0,0.0,0.0,0.0,0.0,1.08,
5.723,100.36344222208794,84.34506244992252,-3.53,-1.24,0.28,-33.0,3.0,0.0,6.0,0.0,0.0,0.0,0.0,0.0,1.08,
5.746,100.36934422220881,84.34950624499224,-4.01,-1.02,0.5,-33.0,3.0,0.0,6.0,0.0,0.0,0.0,0.0,0.0,0.78,
5.771,100.41493442222088,84.37695062449922,-4.08,-1.02,0.12,-33.0,3.0,0.0,6.0,0.0,0.0,0.0,0.0,0.0,0.69,
5.794,100.4014934422221,84.34369506244992,-4.03,-1.78,0.02,-33.0,3.0,0.0,6.0,0.0,0.0,0.0,0.0,0.0,0.49,
5.819,100.44514934422222,84.313369506245,-3.83,-1.71,-0.05,-33.0,3.0,0.0,6.0,0.0,0.0,0.0,0.0,0.0,0.69,
5.843,100.38651493442222,84.3643369506245,-3.73,-2.53,0.14,-33.0,3.0,0.0,6.0,0.0,0.0,0.0,0.0,0.0,0.88,
5.867,100.29965149344223,84.27043369506245,-4.81,-1.19,0.1,-33.0,3.0,0.0,6.0,0.0,0.0,0.0,0.0,0.0,0.98,
5.892,100.31796514934422,84.22504336950624,-4.6,-1.44,-0.18,-33.0,3.0,0.0,6.0,0.0,0.0,0.0,0.0,0.0,0.78,
5.916,100.31079651493442,84.20250433695062,-4.63,-2.23,-0.34,-33.0,3.0,0.0,6.0,0.0,0.0,0.0,0.0,0.0,0.59,
5.94,100.39107965149346,84.20925043369506,-4.95,-1.7,-0.01,-33.0,3.0,0.0,6.0,0.0,0.0,0.0,0.0,0.0,0.69,
5.964,100.42610796514936,84.1379250433695,-4.16,-1.26,-0.98,-33.0,3.0,0.0,6.0,0.0,0.0,0.0,0.0,0.0,0.78,
5.989,100.42961079651495,84.03179250433695,-3.53,-0.6,-0.45,-33.0,3.0,0.0,6.0,0.0,0.0,0.0,0.0,0.0,0.59,
6.012,100.41196107965149,83.9761792504337,-3.42,-0.93,0.1,-33.0,3.0,0.0,6.0,0.0,0.0,0.0,0.0,0.0,0.78,
6.037,100.48219610796515,84.02461792504337,-2.95,-0.72,-0.14,-33.0,3.0,0.0,6.0,0.0,0.0,0.0,0.0,0.0,0.59,
6.062,100.38121961079652,84.04746179250434,-2.95,-0.31,-0.11,-33.0,3.0,0.0,6.0,0.0,0.0,0.0,0.0,0.0,0.59,
6.085,100.44312196107965,84.05874617925045,-2.67,-0.04,-0.37,-33.0,3.0,0.0,6.0,0.0,0.0,0.0,0.0,0.0,0.69,
6.11,100.54831219610797,84.06887461792505,-2.6,-0.44,-0.56,-33.0,3.0,0.0,6.0,0.0,0.0,0.0,0.0,0.0,0.69,
6.134,100.6038312196108,84.00688746179252,-2.8,-0.56,-0.79,-33.0,3.0,0.0,6.0,0.0,0.0,0.0,0.0,0.0,0.49,
6.158,100.66338312196109,83.99168874617925,-2.27,-1.19,-0.98,-33.0,3.0,0.0,6.0,0.0,0.0,0.0,0.0,0.0,0.49,
6.182,100.62433831219612,83.95416887461793,-1.5,-1.73,-0.4,-33.0,3.0,0.0,6.0,0.0,0.0,0.0,0.0,0.0,0.88,
6.207,100.61143383121961,84.01341688746179,-1.11,-0.39,-0.38,3300.0,3.0,0.0,6.0,0.0,0.0,0.0,0.0,0.0,0.59,
6.231,100.68214338312195,83.97434168874618,-0.2,-0.24,-0.42,-33.0,3.0,0.0,6.0,0.0,0.0,0.0,0.0,0.0,0.0,
6.255,100.66221433831218,84.03343416887462,-0.06,-0.58,-0.92,-33.0,3.0,0.0,6.0,0.0,0.0,0.0,0.0,0.0,0.0,
6.28,100.73222143383121,84.16534341688748,-0.02,-0.81,-0.3,-33.0,3.0,0.0,6.0,0.0,0.0,0.0,0.0,0.0,0.0,
6.303,100.66722214338311,84.24153434168875,-0.8,-1.02,-0.87,-33.0,3.0,0.0,6.0,0.0,0.0,0.0,0.0,0.0,0.0,
6.328,100.58872221433832,84.30315343416888,-1.38,-1.0,-0.13,-33.0,3.0,0.0,6.0,0.0,0.0,0.0,0.0,0.0,0.0,
6.352,100.55387222143383,84.3813153434169,-1.7,-1.25,-0.64,-33.0,3.0,0.0,6.0,0.0,0.0,0.0,0.0,0.0,0.29,
6.376,100.62238722214337,84.43413153434169,-1.89,-1.33,0.19,-33.0,3.0,0.0,6.0,0.0,0.0,0.0,0.0,0.0,0.49,
6.401,100.47623872221433,84.44841315343417,-1.95,-1.19,-0.06,-33.0,3.0,0.0,6.0,0.0,0.0,0.0,0.0,0.0,0.29,
6.424,100.42562387222144,84.50384131534342,-2.7,0.05,-0.57,-33.0,3.0,0.0,5.0,0.0,0.0,0.0,0.0,0.0,0.49,
6.449,100.47456238722214,84.48238413153435,-2.8,-0.21,-0.6,-33.0,3.0,0.0,5.0,0.0,0.0,0.0,0.0,0.0,0.78,
6.472,100.56945623872221,84.46223841315343,-2.82,-1.49,-0.31,-33.0,3.0,0.0,5.0,0.0,0.0,0.0,0.0,0.0,0.88,
6.497,100.53394562387223,84.45122384131535,-2.56,-2.08,0.22,3300.0,3.0,0.0,5.0,0.0,0.0,0.0,0.0,0.0,0.78,
6.52,100.41339456238724,84.39612238413154,-1.47,0.95,-0.12,-33.0,2.0,0.0,5.0,0.0,0.0,0.0,0.0,0.0,0.59,
6.545,100.48233945623872,84.40861223841314,-0.18,2.3,1.99,-33.0,2.0,0.0,4.0,0.0,0.0,0.0,0.0,0.0,0.78,
6.568,100.74123394562386,84.31986122384131,1.53,1.64,-0.08,-33.0,2.0,0.0,4.0,0.0,0.0,0.0,0.0,0.0,0.98,
6.593,101.01012339456238,84.41898612238414,3.4,-2.17,-0.43,-33.0,2.0,0.0,4.0,0.0,0.0,0.0,0.0,0.0,1.08,
6.617,100.81201233945625,84.58189861223842,2.3,-4.13,1.26,-33.0,2.0,0.0,4.0,0.0,0.0,0.0,0.0,0.0,0.39,
6.641,100.66620123394563,84.67918986122385,1.88,-2.57,0.05,-33.0,2.0,0.0,3.0,0.0,0.0,0.0,0.0,0.0,0.29,
6.665,100.60662012339455,84.8509189861224,1.41,-1.85,-0.46,1077.0,2.0,0.0,3.0,0.0,0.0,0.0,0.0,0.0,0.2,
6.689,100.68166201233944,84.88609189861224,2.19,-1.8,0.6,-33.0,2.0,0.0,3.0,0.0,0.0,0.0,0.0,0.0,0.0,
6.713,100.78816620123393,85.01560918986122,2.73,-2.79,-1.53,-33.0,2.0,0.0,3.0,0.0,0.0,0.0,0.0,0.0,0.78,
6.736,100.7628166201234,85.15456091898612,2.85,-3.66,0.31,-33.0,2.0,0.0,3.0,0.0,0.0,0.0,0.0,0.0,0.2,
6.761,100.76028166201235,85.26745609189862,3.98,-5.18,-0.69,-33.0,2.0,0.0,3.0,0.0,0.0,0.0,0.0,0.0,0.49,
6.785,100.56202816620123,85.50374560918986,2.74,-5.15,-0.34,-33.0,2.0,0.0,3.0,0.0,0.0,0.0,0.0,0.0,0.78,
6.809,100.47920281662013,85.77937456091898,3.18,-0.34,0.15,3300.0,2.0,0.0,3.0,0.0,0.0,0.0,0.0,0.0,0.88,
6.833,100.53392028166202,85.8699374560919,2.31,-0.89,0.93,3300.0,2.0,0.0,3.0,0.0,0.0,0.0,0.0,0.0,0.2,
6.857,100.5393920281662,85.97799374560918,1.88,-1.11,-1.71,3300.0,2.0,0.0,3.0,0.0,0.0,0.0,0.0,0.0,0.2,
6.881,100.58493920281663,86.21379937456092,0.23,3.76,-3.11,3300.0,2.0,0.0,3.0,0.0,0.0,0.0,0.0,0.0,0.0,
6.905,100.65249392028166,86.24637993745608,3.98,2.33,-1.21,3300.0,2.0,0.0,3.0,0.0,0.0,0.0,0.0,0.0,0.49,
6.929,100.67724939202817,86.58263799374562,5.0,0.21,-2.56,3300.0,2.0,0.0,3.0,0.0,0.0,0.0,0.0,0.0,0.0,
6.953,100.50872493920282,86.85926379937457,-1.0,2.53,-3.85,1633.0,3.0,0.0,3.0,0.0,0.0,0.0,0.0,0.0,0.0,
6.977,100.57287249392029,86.94992637993745,-2.68,9.26,-3.63,1077.0,3.0,0.0,3.0,0.0,0.0,0.0,0.0,0.0,0.0,
7.002,100.88528724939204,87.55299263799375,-5.37,17.67,-9.02,800.0,3.0,0.0,3.0,0.0,0.0,0.0,0.0,0.0,0.0,
7.026,102.20352872493919,87.68529926379938,-5.63,23.76,-14.78,3300.0,4.0,0.0,4.0,0.0,0.0,0.0,0.0,0.0,0.0,
7.05,102.73135287249393,87.79752992637995,-24.23,24.07,-24.62,-33.0,5.0,0.0,5.0,0.0,0.0,0.0,0.0,0.0,0.0,
7.074,103.31513528724939,87.511752992638,-20.62,21.59,-11.34,-33.0,6.0,0.0,7.0,0.0,0.0,0.0,0.0,0.0,0.0,
7.099,103.77851352872494,86.7721752992638,-16.46,7.75,-5.25,-33.0,7.0,0.0,8.0,0.0,0.0,0.0,0.0,0.0,0.0,
7.123,103.8698513528725,86.29321752992638,-14.77,1.89,-5.27,-33.0,8.0,0.0,10.0,0.0,0.0,0.0,0.0,0.0,0.0,
7.148,103.83398513528725,86.02032175299263,-6.18,1.21,0.18,-33.0,8.0,0.0,10.0,0.0,0.0,0.0,0.0,0.0,0.0,
7.172,103.84839851352872,85.78603217529927,-4.72,5.05,1.17,-33.0,8.0,0.0,11.0,0.0,0.0,0.0,0.0,0.0,0.0,
7.196,103.93983985135287,85.75360321752993,-4.64,2.54,1.55,-33.0,8.0,0.0,11.0,0.0,0.0,0.0,0.0,0.0,0.0,
7.22,103.9129839851353,85.66936032175299,-4.63,0.92,3.61,-33.0,8.0,0.0,11.0,0.0,0.0,0.0,0.0,0.0,0.0,
7.244,103.84729839851353,85.83193603217529,-11.4,-2.38,2.63,-33.0,8.0,0.0,12.0,0.0,0.0,0.0,0.0,0.0,0.29,
7.269,103.80472983985135,85.66819360321753,-16.77,-2.96,3.39,-33.0,9.0,0.0,1.0,0.0,0.0,0.0,0.0,0.0,0.29,
7.292,103.87247298398513,85.14781936032176,-11.95,-3.16,6.45,-33.0,9.0,0.0,2.0,0.0,0.0,1.0,0.0,0.0,0.1,
7.317,103.87024729839851,85.20378193603217,-8.92,-8.21,8.8,-33.0,9.0,0.0,4.0,0.0,0.0,1.0,0.0,0.0,0.0,
7.342,103.95102472983984,85.17337819360323,-10.46,-11.82,13.69,-33.0,9.0,0.0,6.0,0.0,0.0,1.0,0.0,0.0,0.29,
7.365,103.90510247298398,85.23333781936032,-10.49,-17.66,10.82,-33.0,9.0,0.0,8.0,0.0,0.0,2.0,0.0,0.0,0.59,
7.39,103.4955102472984,85.11333378193603,-14.61,-27.57,17.45,-33.0,10.0,0.0,10.0,0.0,0.0,3.0,0.0,0.0,1.08,
7.414,102.87855102472984,84.6513333781936,-11.99,-20.98,10.56,-33.0,10.0,0.0,14.0,0.0,0.0,3.0,0.0,0.0,1.37,
7.439,102.66385510247298,84.51513333781935,-7.86,-18.24,18.55,-33.0,10.0,0.0,14.0,0.0,0.0,4.0,0.0,0.0,1.67,
7.463,102.33638551024728,84.05151333378194,-7.45,-8.08,11.21,-33.0,10.0,0.0,14.0,0.0,0.0,4.0,0.0,0.0,1.28,
7.488,102.06963855102474,83.7081513333782,-4.31,-1.47,0.99,-33.0,9.0,0.0,14.0,0.0,0.0,4.0,0.0,0.0,1.57,
7.513,101.91696385510248,83.46681513333782,-2.59,-0.82,0.38,-33.0,9.0,0.0,12.0,0.0,0.0,4.0,0.0,0.0,1.08,
7.536,101.90169638551025,83.01068151333378,-3.47,5.6,-3.79,-33.0,8.0,0.0,10.0,0.0,0.0,4.0,0.0,0.0,0.59,
7.561,102.09816963855103,82.84806815133338,5.1,8.28,1.68,-33.0,8.0,0.0,8.0,0.0,0.0,3.0,0.0,0.0,0.29,
7.585,102.1988169638551,82.97580681513334,4.05,7.16,2.4,-33.0,8.0,0.0,5.0,0.0,0.0,3.0,0.0,0.0,0.1,
7.609,102.5418816963855,83.12358068151335,1.79,8.18,0.7,-33.0,8.0,0.0,4.0,0.0,0.0,2.0,0.0,0.0,0.0,
7.632,102.52218816963855,83.30935806815134,1.5,9.15,-1.34,-33.0,8.0,0.0,3.0,0.0,0.0,2.0,0.0,0.0,0.0,
7.657,102.79021881696386,83.28293580681513,1.76,9.36,-2.05,-33.0,8.0,0.0,3.0,0.0,0.0,2.0,0.0,0.0,0.0,
7.681,102.98802188169638,83.45129358068152,-3.24,3.94,-4.03,-33.0,8.0,0.0,3.0,0.0,0.0,2.0,0.0,0.0,0.0,
7.705,102.81880218816963,83.80112935806815,-1.15,3.99,0.85,-33.0,8.0,0.0,3.0,0.0,0.0,1.0,0.0,0.0,0.1,
7.73,102.89188021881698,83.81811293580682,-3.73,2.54,-3.54,-33.0,8.0,0.0,2.0,0.0,0.0,2.0,0.0,0.0,0.2,
7.753,102.92618802188171,83.80181129358068,1.56,3.8,-0.1,-33.0,8.0,0.0,1.0,0.0,0.0,1.0,0.0,0.0,0.2,
7.778,102.86661880218817,83.69218112935808,3.76,3.27,0.21,-33.0,8.0,0.0,0.0,0.0,0.0,1.0,0.0,0.0,0.0,
7.801,103.00466188021882,83.76221811293581,6.81,3.34,0.25,-33.0,8.0,0.0,12.0,0.0,0.0,1.0,0.0,0.0,0.0,
7.826,103.06346618802186,84.23722181129358,4.19,-0.1,4.24,-33.0,7.0,0.0,11.0,0.0,0.0,0.0,0.0,0.0,0.0,
7.849,103.02434661880218,84.32972218112937,-0.82,1.45,0.17,-33.0,7.0,0.0,11.0,0.0,0.0,0.0,0.0,0.0,0.1,
7.874,103.26343466188023,84.36597221811294,1.53,2.82,3.5,-33.0,7.0,0.0,10.0,0.0,0.0,0.0,0.0,0.0,0.0,
7.898,103.35034346618802,84.5315972218113,-1.25,0.51,1.49,-33.0,7.0,0.0,10.0,0.0,0.0,0.0,0.0,0.0,0.0,
7.922,103.4040343466188,84.49415972218112,-2.44,0.92,0.86,-33.0,7.0,0.0,10.0,0.0,0.0,0.0,0.0,0.0,0.0,
7.946,103.52640343466189,84.64341597221811,-4.31,-0.18,2.38,-33.0,7.0,0.0,11.0,0.0,0.0,0.0,0.0,0.0,0.0,
7.97,103.5386403434662,84.6313415972218,-6.45,-0.42,-0.17,-33.0,7.0,0.0,11.0,0.0,0.0,0.0,0.0,0.0,0.59,
7.995,103.70186403434661,84.60313415972217,-4.75,-0.91,0.14,-33.0,8.0,0.0,11.0,0.0,0.0,0.0,0.0,0.0,1.37,
8.019,103.76318640343466,84.53731341597222,-3.76,-1.38,-0.05,-33.0,8.0,0.0,11.0,0.0,0.0,1.0,0.0,0.0,0.1,
8.043,103.74231864034346,84.39573134159721,-1.57,0.86,1.13,-33.0,8.0,0.0,11.0,0.0,0.0,1.0,0.0,0.0,0.0,
8.068,103.76723186403434,84.45357313415971,-0.52,2.73,0.85,3300.0,8.0,0.0,11.0,0.0,0.0,0.0,0.0,0.0,0.2,
8.092,103.95872318640343,84.45935731341596,0.41,2.36,1.6,-33.0,8.0,0.0,11.0,0.0,0.0,0.0,0.0,0.0,1.08,
8.116,104.13087231864036,84.57693573134159,-0.7,-1.21,0.39,-33.0,8.0,0.0,11.0,0.0,0.0,0.0,0.0,0.0,0.0,
8.14,104.16608723186403,84.72369357313414,-3.63,-2.9,0.16,-33.0,8.0,0.0,11.0,0.0,0.0,0.0,0.0,0.0,0.0,
8.164,104.0616087231864,84.74736935731342,-7.66,-2.37,-0.15,-33.0,8.0,0.0,11.0,0.0,0.0,0.0,0.0,0.0,0.39,
8.188,104.11416087231865,84.62373693573134,-4.96,-1.73,0.21,-33.0,8.0,0.0,11.0,0.0,0.0,1.0,0.0,0.0,0.49,
8.213,104.11041608723185,84.61137369357313,-4.08,-2.18,0.56,-33.0,8.0,0.0,12.0,0.0,0.0,1.0,0.0,0.0,0.59,
8.238,104.09204160872319,84.58313736935732,-5.3,-2.99,-1.01,-33.0,8.0,0.0,12.0,0.0,0.0,1.0,0.0,0.0,0.49,
8.261,104.06320416087233,84.55331373693573,-4.18,-2.34,-0.1,-33.0,8.0,0.0,12.0,0.0,0.0,1.0,0.0,0.0,0.0,
8.286,104.02432041608722,84.50533137369356,-3.79,-2.14,-0.11,-33.0,8.0,0.0,12.0,0.0,0.0,1.0,0.0,0.0,0.0,
8.31,103.97543204160873,84.48253313736936,-3.46,-3.0,-0.56,3300.0,8.0,0.0,12.0,0.0,0.0,1.0,0.0,0.0,0.59,
8.335,103.94354320416087,84.51625331373694,-2.47,-2.81,-0.51,-33.0,8.0,0.0,12.0,0.0,0.0,1.0,0.0,0.0,1.18,
8.358,103.90435432041609,84.56462533137369,-2.26,-2.5,-0.18,3300.0,8.0,0.0,11.0,0.0,0.0,0.0,0.0,0.0,1.18,
8.383,103.8464354320416,84.56946253313737,-2.91,-1.76,-0.94,-33.0,8.0,0.0,11.0,0.0,0.0,0.0,0.0,0.0,0.88,
8.408,103.80464354320416,84.56094625331373,-2.64,-0.32,-0.66,-33.0,8.0,0.0,11.0,0.0,0.0,0.0,0.0,0.0,0.69,
8.432,103.85446435432041,84.54209462533139,-2.01,-0.04,-0.01,-33.0,8.0,0.0,11.0,0.0,0.0,0.0,0.0,0.0,0.2,
8.457,103.84144643543205,84.52220946253314,-1.83,0.37,0.47,-33.0,8.0,0.0,11.0,0.0,0.0,0.0,0.0,0.0,0.0,
8.48,103.9121446435432,84.52022094625332,-1.34,0.3,0.29,-33.0,8.0,0.0,11.0,0.0,0.0,0.0,0.0,0.0,0.0,
8.505,104.00921446435432,84.52002209462533,-1.79,0.12,0.4,-33.0,8.0,0.0,11.0,0.0,0.0,0.0,0.0,0.0,0.29,
8.528,104.09092144643543,84.50200220946253,-2.12,0.46,0.67,-33.0,8.0,0.0,11.0,0.0,0.0,0.0,0.0,0.0,0.49,
8.553,104.09009214464355,84.54520022094626,-2.3,-0.1,-0.03,-33.0,8.0,0.0,11.0,0.0,0.0,0.0,0.0,0.0,0.39,
8.578,104.06300921446436,84.60352002209463,-1.77,0.17,0.39,-33.0,8.0,0.0,11.0,0.0,0.0,0.0,0.0,0.0,0.0,
8.601,104.13230092144643,84.63635200220946,-2.74,-0.2,-0.12,3300.0,8.0,0.0,11.0,0.0,0.0,0.0,0.0,0.0,0.0,
8.626,104.13923009214464,84.61263520022095,-3.29,-0.46,-0.38,-33.0,8.0,0.0,11.0,0.0,0.0,0.0,0.0,0.0,0.1,
8.65,104.13092300921446,84.6642635200221,-4.2,-1.53,-0.43,1633.0,8.0,0.0,11.0,0.0,0.0,0.0,0.0,0.0,0.39,
8.675,104.07609230092145,84.6334263520022,-4.44,-1.43,-0.85,-33.0,8.0,0.0,11.0,0.0,0.0,1.0,0.0,0.0,0.49,
8.698,104.09760923009213,84.63034263520022,-3.42,-1.27,0.04,-33.0,8.0,0.0,11.0,0.0,0.0,0.0,0.0,0.0,0.39,
8.723,104.03676092300923,84.64803426352002,-4.15,-1.56,-0.5,-33.0,8.0,0.0,11.0,0.0,0.0,1.0,0.0,0.0,0.29,
8.748,104.02167609230091,84.541803426352,-3.67,-0.73,-0.42,-33.0,8.0,0.0,11.0,0.0,0.0,1.0,0.0,0.0,0.1,
8.772,104.1101676092301,84.54018034263521,-2.84,-0.6,-0.05,-33.0,8.0,0.0,11.0,0.0,0.0,1.0,0.0,0.0,0.49,
8.796,104.128016760923,84.57601803426351,-3.85,-1.76,-0.1,-33.0,8.0,0.0,11.0,0.0,0.0,1.0,0.0,0.0,0.88,
8.82,104.1298016760923,84.58860180342634,-2.58,-1.01,0.64,-33.0,8.0,0.0,11.0,0.0,0.0,1.0,0.0,0.0,0.0,
8.845,104.21098016760922,84.65286018034263,-3.56,-1.43,1.19,-33.0,8.0,0.0,12.0,0.0,0.0,1.0,0.0,0.0,0.29,
8.869,104.19209801676092,84.59628601803426,-2.55,-1.63,1.16,-33.0,8.0,0.0,12.0,0.0,0.0,1.0,0.0,0.0,0.29,
8.893,104.1542098016761,84.57262860180343,-2.02,-1.4,0.98,-33.0,9.0,0.0,12.0,0.0,0.0,1.0,0.0,0.0,0.1,
8.918,104.12342098016762,84.53426286018033,-1.02,-0.58,0.94,-33.0,9.0,0.0,12.0,0.0,0.0,1.0,0.0,0.0,0.0,
8.942,104.21034209801677,84.61142628601803,-2.62,-0.5,2.12,-33.0,9.0,0.0,0.0,0.0,0.0,1.0,0.0,0.0,0.0,
8.966,104.11103420980167,84.54714262860182,-4.01,-1.33,1.88,-33.0,9.0,0.0,1.0,0.0,0.0,1.0,0.0,0.0,0.0,
8.99,104.08310342098017,84.54071426286019,-3.54,-1.03,0.76,-33.0,9.0,0.0,2.0,0.0,0.0,1.0,0.0,0.0,0.49,
9.014,104.05331034209802,84.56707142628602,-2.48,-0.74,0.31,-33.0,9.0,0.0,2.0,0.0,0.0,1.0,0.0,0.0,0.39,
9.038,104.1223310342098,84.6237071426286,-3.33,-0.69,0.79,-33.0,9.0,0.0,2.0,0.0,0.0,2.0,0.0,0.0,0.1,
9.063,104.20123310342098,84.53937071426286,-3.51,-0.15,1.01,-33.0,9.0,0.0,3.0,0.0,0.0,2.0,0.0,0.0,0.1,
9.086,104.2811233103421,84.53093707142628,-4.25,-0.56,1.27,-33.0,9.0,0.0,4.0,0.0,0.0,2.0,0.0,0.0,0.49,
9.111,104.00111233103422,84.37709370714263,-5.78,-1.5,-2.27,-33.0,10.0,0.0,5.0,0.0,0.0,2.0,0.0,0.0,0.59,
9.136,104.11711123310342,84.35270937071425,-5.08,-2.93,-0.9,-33.0,10.0,0.0,5.0,0.0,0.0,2.0,0.0,0.0,0.59,
9.159,104.17371112331035,84.33227093707143,-5.47,-3.33,-1.07,-33.0,10.0,0.0,6.0,0.0,0.0,2.0,0.0,0.0,0.49,
9.184,104.15237111233105,84.26722709370715,-3.52,-1.54,-0.94,-33.0,10.0,0.0,7.0,0.0,0.0,2.0,0.0,0.0,0.1,
9.208,104.1322371112331,84.25172270937071,-2.19,-0.6,-0.37,-33.0,10.0,0.0,8.0,0.0,0.0,2.0,0.0,0.0,0.1,
9.233,104.16622371112331,84.32217227093707,-3.13,-1.67,-0.6,3300.0,10.0,0.0,8.0,0.0,0.0,2.0,0.0,0.0,0.2,
9.256,104.15162237111234,84.32021722709369,-4.26,-2.85,-0.34,-33.0,10.0,0.0,9.0,0.0,0.0,2.0,0.0,0.0,0.0,
9.281,104.14116223711123,84.31102172270937,-3.77,-1.99,0.09,-33.0,10.0,0.0,10.0,0.0,0.0,3.0,0.0,0.0,0.0,
9.306,104.07711622371112,84.24710217227094,-2.37,0.63,-1.79,-33.0,10.0,0.0,10.0,0.0,0.0,3.0,0.0,0.0,0.2,
9.33,104.09771162237111,84.22271021722709,-1.44,0.22,-0.21,-33.0,10.0,0.0,10.0,0.0,0.0,3.0,0.0,0.0,0.29,
9.355,104.0007711622371,84.19327102172271,-0.22,2.07,-0.2,-33.0,10.0,0.0,9.0,0.0,0.0,2.0,0.0,0.0,0.39,
9.378,104.09907711622371,84.20832710217228,2.18,4.98,0.17,-33.0,10.0,0.0,9.0,0.0,0.0,2.0,0.0,0.0,0.1,
9.403,104.40590771162236,84.27283271021723,3.09,4.74,-1.29,-33.0,10.0,0.0,8.0,0.0,0.0,2.0,0.0,0.0,0.2,
9.426,104.42759077116224,84.43228327102173,-1.77,2.69,-0.57,-33.0,10.0,0.0,7.0,0.0,0.0,2.0,0.0,0.0,0.49,
9.451,104.47475907711623,84.52022832710217,1.22,7.05,1.76,-33.0,10.0,0.0,7.0,0.0,0.0,1.0,0.0,0.0,0.59,
9.476,104.60547590771162,84.60102283271021,2.86,7.08,1.68,-33.0,10.0,0.0,8.0,0.0,0.0,1.0,0.0,0.0,0.69,
9.499,104.75354759077115,84.78010228327102,1.15,5.78,1.56,-33.0,11.0,0.0,8.0,0.0,0.0,1.0,0.0,0.0,0.59,
9.524,104.8223547590771,84.8790102283271,-2.36,4.57,1.78,-33.0,11.0,0.0,10.0,0.0,0.0,1.0,0.0,0.0,0.0,
9.547,105.0272354759077,84.96990102283272,-4.2,4.84,2.05,-33.0,11.0,0.0,11.0,0.0,0.0,2.0,0.0,0.0,0.0,
9.572,105.21872354759076,84.99699010228326,-4.58,4.9,1.07,-33.0,11.0,0.0,13.0,0.0,0.0,2.0,0.0,0.0,0.0,
9.596,105.60687235475908,85.13469901022833,-3.08,2.71,0.4,-33.0,12.0,0.0,11.0,0.0,0.0,2.0,0.0,5.49,0.0,
9.62,105.7086872354759,85.22946990102282,-2.53,1.11,1.34,-33.0,0.0,0.0,14.0,0.0,0.0,2.0,0.0,11.09,0.0,
9.645,105.74586872354759,85.2839469901023,-5.46,-1.14,-0.22,-33.0,1.0,0.0,15.0,0.0,0.0,3.0,0.0,14.72,0.0,
9.669,105.84858687235476,85.28039469901023,-5.79,-3.51,-0.34,-33.0,2.0,0.0,17.0,0.0,0.0,3.0,0.0,17.95,0.0,
9.694,105.87685868723547,85.26203946990103,-4.98,-4.42,0.57,-33.0,2.0,0.0,18.0,0.0,0.0,3.0,0.0,20.6,0.39,
9.717,105.75368586872354,85.2692039469901,-5.78,-5.37,0.24,-33.0,2.0,0.0,18.0,0.0,0.0,3.0,0.0,21.68,0.29,
9.742,105.68736858687237,85.089920394699,-4.34,-2.78,0.05,-33.0,2.0,0.0,19.0,0.0,0.0,3.0,0.0,22.17,0.0,
9.766,105.63573685868722,85.0899920394699,-4.2,-2.98,0.92,-33.0,3.0,0.0,20.0,0.0,0.0,3.0,0.0,22.96,0.59,
9.791,105.54057368586872,85.03599920394699,-4.79,-4.43,0.59,-33.0,3.0,0.0,20.0,0.0,0.0,3.0,0.0,23.35,0.78,
9.815,105.55805736858687,84.96759992039469,-5.79,-5.62,-0.34,-33.0,2.0,0.0,20.0,0.0,0.0,3.0,0.0,22.86,0.59,
9.839,105.55080573685869,84.83475999203947,-4.38,-5.5,0.03,-33.0,2.0,0.0,21.0,0.0,0.0,4.0,0.0,21.29,0.29,
9.864,105.47808057368587,84.76747599920395,-5.56,-6.67,1.92,-33.0,2.0,0.0,20.0,0.0,0.0,4.0,0.0,18.05,0.0,
9.888,105.4078080573686,84.76974759992038,-6.5,-7.49,1.38,-33.0,2.0,0.0,23.0,0.0,0.0,4.0,0.0,14.91,0.39,
9.913,105.39178080573686,84.73397475999204,-6.78,-9.89,0.21,-33.0,2.0,0.0,21.0,0.0,0.0,4.0,0.0,12.95,0.49,
9.936,105.03917808057368,84.69439747599921,-8.36,-12.33,2.43,-33.0,2.0,0.0,21.0,0.0,0.0,4.0,0.0,11.77,0.49,
9.961,104.56291780805738,84.49243974759992,-6.64,-9.91,3.21,-33.0,2.0,0.0,24.0,0.0,0.0,4.0,0.0,13.83,0.78,
9.986,104.56929178080574,84.37324397476,-8.07,-9.17,4.22,-33.0,2.0,0.0,22.0,0.0,0.0,4.0,0.0,17.66,0.39,
10.01,104.40792917808058,84.613324397476,-10.12,-9.79,4.7,-33.0,2.0,0.0,22.0,0.0,0.0,5.0,0.0,21.39,0.0,
10.035,104.22979291780806,84.55633243974759,-9.89,-9.81,2.37,-33.0,2.0,0.0,22.0,0.0,0.0,5.0,0.0,24.33,0.0,
10.059,104.0409792917808,84.46963324397476,-9.99,-10.09,3.91,-33.0,2.0,0.0,23.0,0.0,0.0,5.0,0.0,26.49,0.0,
10.084,103.87809792917808,84.33496332439746,-9.53,-10.89,3.38,-33.0,2.0,0.0,23.0,0.0,0.0,5.0,0.0,28.06,0.1,
10.107,103.64580979291782,84.07849633243974,-7.37,-10.91,6.33,-33.0,2.0,0.0,22.0,0.0,0.0,6.0,0.0,28.84,1.18,
10.132,103.40658097929179,83.86384963324397,-8.44,-12.47,2.88,-33.0,1.0,0.0,21.0,0.0,0.0,6.0,0.0,26.19,1.37,
10.157,103.08565809792918,83.24838496332441,-4.76,-3.92,-6.95,-33.0,11.0,0.0,17.0,0.0,0.0,5.0,0.0,19.72,1.08,
10.181,103.1975658097929,83.15983849633244,0.24,-2.36,-8.98,-33.0,10.0,0.0,10.0,0.0,0.0,4.0,0.0,0.39,1.28,
10.206,103.08275658097928,83.42098384963325,-3.68,-11.5,-3.61,633.0,8.0,0.0,12.0,0.0,0.0,3.0,0.0,0.0,1.67,
10.23,102.18027565809793,83.33009838496332,-5.24,-2.09,-0.79,10.0,5.0,0.0,8.0,0.0,0.0,2.0,0.0,0.0,4.81,
10.255,102.3510275658098,83.56400983849633,-12.02,-3.63,7.08,5.0,3.0,0.0,5.0,0.0,0.0,1.0,0.0,0.0,15.6,
10.278,101.29710275658098,83.24540098384963,-13.77,12.0,37.13,4.0,1.0,0.0,3.0,0.0,0.0,0.0,0.0,0.0,13.15,
10.303,101.19171027565811,82.17854009838496,-15.57,-25.34,4.56,2.0,1.0,0.0,3.0,0.0,0.0,0.0,0.2,0.0,9.91,
10.328,100.06517102756581,82.39585400983849,-1.15,-42.14,-14.31,2.0,0.0,0.0,3.0,0.0,0.0,0.0,0.69,0.0,15.21,
10.352,99.18751710275659,84.16358540098385,11.39,-43.53,-37.3,2.0,0.0,0.0,3.0,0.0,0.0,0.0,0.98,0.0,17.27,
10.376,99.55875171027566,86.03235854009839,19.25,-24.35,-17.47,2.0,0.0,0.0,3.0,0.0,0.0,0.0,0.78,100.26,9.42,
10.4,99.63187517102756,86.71423585400984,26.6,-18.78,9.13,2.0,0.0,0.0,3.0,0.0,0.0,0.0,0.59,135.38,7.26,
10.425,99.12618751710275,85.98142358540099,16.73,-9.01,15.15,2.0,0.0,0.0,3.0,0.0,0.0,0.0,0.49,136.16,6.57,
10.449,97.90561875171026,83.0911423585401,-34.3,18.7,-10.67,3.0,1.0,0.0,3.0,0.0,0.0,0.0,0.39,135.18,2.94,
10.473,98.05356187517101,82.64011423585401,-16.79,27.66,-37.72,5.0,2.0,0.0,4.0,0.0,0.0,0.0,0.2,134.0,0.0,
10.498,99.0313561875171,83.40501142358539,2.97,39.73,-1.58,20.0,3.0,0.0,5.0,0.0,0.0,0.0,0.0,14.32,0.0,
10.522,99.46213561875172,82.79750114235854,5.8,26.42,-0.27,-33.0,4.0,0.0,7.0,0.0,0.0,0.0,0.0,0.0,0.0,
10.546,100.31521356187517,83.25875011423585,-7.38,10.3,-1.02,-33.0,5.0,0.0,8.0,0.0,0.0,1.0,0.0,0.0,0.0,
10.57,100.49952135618751,83.30487501142358,-14.64,1.22,-8.92,2.0,5.0,0.0,9.0,0.0,0.0,1.0,0.0,0.0,0.0,
10.595,100.37395213561875,83.08448750114236,-8.02,11.47,2.03,143.0,6.0,0.0,9.0,0.0,0.0,1.0,0.0,0.0,0.0,
10.618,100.61339521356189,83.02644875011424,-0.97,19.42,8.37,89.0,7.0,0.0,11.0,0.0,0.0,2.0,0.0,0.0,0.0,
10.643,101.00633952135618,83.14664487501142,0.82,20.79,9.39,98.0,7.0,0.0,12.0,0.0,0.0,2.0,0.0,0.0,0.0,
10.668,101.62163395213562,83.28466448750115,2.1,18.98,7.41,272.0,8.0,0.0,1.0,0.0,0.0,2.0,0.0,0.0,0.0,
10.691,102.22316339521356,83.41546644875012,1.26,10.69,3.71,53.0,9.0,0.0,2.0,0.0,0.0,3.0,0.0,0.0,0.0,
10.716,102.48131633952136,83.46454664487501,-1.96,4.5,0.16,246.0,9.0,0.0,3.0,0.0,0.0,3.0,0.0,0.0,0.0,
10.739,102.88513163395214,83.4694546644875,-1.04,4.68,0.21,206.0,9.0,0.0,4.0,0.0,0.0,3.0,0.0,0.0,0.0,
10.764,103.24951316339522,83.60494546644875,0.64,5.19,1.92,63.0,9.0,0.0,4.0,0.0,0.0,3.0,0.0,0.0,0.0,
10.787,103.45695131633953,83.73549454664487,-0.71,3.19,1.37,63.0,9.0,0.0,4.0,0.0,0.0,3.0,0.0,0.0,0.0,
10.812,103.65769513163396,83.92854945466449,-1.31,2.01,-1.31,306.0,10.0,0.0,5.0,0.0,0.0,3.0,0.0,0.0,0.0,
10.836,103.80376951316339,84.03785494546645,-1.11,-0.27,-0.33,442.0,10.0,0.0,5.0,0.0,0.0,3.0,0.0,0.0,0.0,
10.86,103.83637695131634,84.05778549454665,-1.42,-0.12,-2.16,306.0,10.0,0.0,5.0,0.0,0.0,3.0,0.0,0.0,0.0,
10.885,103.97463769513163,84.19477854945467,-1.37,0.35,-3.27,345.0,10.0,0.0,5.0,0.0,0.0,3.0,0.0,0.0,0.0,
10.909,104.01546376951316,84.20847785494547,-4.37,-1.37,0.37,383.0,10.0,0.0,5.0,0.0,0.0,3.0,0.0,0.0,0.0,
10.934,104.06454637695131,84.18284778549456,-4.07,-2.07,0.59,345.0,10.0,0.0,6.0,0.0,0.0,3.0,0.0,0.0,0.0,
10.958,104.13245463769513,84.10828477854945,-3.63,-1.74,-0.15,383.0,10.0,0.0,6.0,0.0,0.0,3.0,0.0,0.0,0.0,
10.982,104.22024546376952,84.19082847785495,-3.9,-2.86,0.16,800.0,10.0,0.0,8.0,0.0,0.0,3.0,0.0,0.0,0.0,
11.006,104.28302454637695,84.21708284778549,-6.62,-4.78,-0.24,633.0,10.0,0.0,6.0,0.0,0.0,4.0,0.0,0.0,0.0,
11.031,104.26230245463769,84.07570828477856,-6.95,-7.69,-1.87,522.0,10.0,0.0,6.0,0.0,0.0,4.0,0.0,0.0,0.0,
11.056,104.21523024546377,84.02557082847785,-6.84,-10.64,-2.98,345.0,10.0,0.0,6.0,0.0,0.0,4.0,0.0,0.0,0.59,
11.08,104.00352302454638,84.00255708284779,-8.56,-11.86,-3.61,345.0,10.0,0.0,6.0,0.0,0.0,4.0,0.0,0.0,0.69,
11.105,103.66735230245463,83.83825570828478,-9.17,-10.03,-2.32,306.0,9.0,0.0,6.0,0.0,0.0,4.0,0.0,0.0,0.88,
11.129,103.60673523024545,83.63282557082847,-6.74,-8.4,-1.52,633.0,9.0,0.0,5.0,0.0,0.0,4.0,0.0,0.0,0.49,
11.153,103.65467352302454,83.57628255708283,-4.72,-10.39,-3.72,48.0,9.0,0.0,3.0,0.0,0.0,3.0,0.0,0.0,0.88,
11.177,103.53346735230244,83.55262825570827,-4.09,-13.18,-4.89,42.0,8.0,0.0,0.0,0.0,0.0,3.0,0.0,0.0,1.08,
11.202,103.11634673523024,83.51426282557082,-5.54,-15.65,-8.02,37.0,7.0,0.0,11.0,0.0,0.0,2.0,0.0,0.0,1.47,
11.227,102.64263467352302,83.73542628255709,-12.4,-22.02,-12.71,28.0,6.0,0.0,9.0,0.0,0.0,2.0,0.0,0.0,1.86,
11.251,102.05526346735229,84.27054262825571,-26.05,-26.97,-21.27,11.0,4.0,0.0,7.0,0.0,0.0,2.0,0.0,0.0,5.79,
11.276,102.40152634673522,85.24205426282556,-41.85,-34.86,10.2,7.0,2.0,0.0,5.0,0.0,0.0,2.0,0.0,0.0,11.28,
11.299,102.64315263467353,85.48320542628255,-46.85,-17.15,42.48,3.0,1.0,0.0,3.0,0.0,0.0,2.0,0.0,0.0,9.61,
11.324,102.17231526346735,85.02132054262825,-53.6,29.68,26.63,2.0,0.0,0.0,2.0,0.0,0.0,1.0,0.0,0.0,14.81,
11.348,102.08923152634674,87.72013205426282,-37.89,-5.85,0.3,2.0,0.0,0.0,2.0,0.0,0.0,0.0,0.88,0.0,15.4,
11.373,101.41492315263467,90.43801320542627,-26.89,-25.11,6.17,2.0,0.0,0.0,2.0,0.0,0.0,0.0,1.08,0.0,9.71,
11.397,100.79849231526347,93.85080132054263,-6.15,-22.32,-24.33,2.0,0.0,0.0,2.0,0.0,0.0,0.0,1.08,0.0,7.06,
11.421,100.23284923152636,98.24208013205426,10.8,9.83,-14.82,2.0,0.0,0.0,2.0,0.0,0.0,0.0,0.98,0.0,8.34,
11.446,98.56528492315263,102.47020801320542,40.07,-0.12,-9.61,2.0,0.0,0.0,2.0,0.0,0.0,0.0,0.69,0.0,5.49,
11.469,96.65252849231527,105.75502080132055,53.44,-15.47,1.6,2.0,0.0,0.0,2.0,0.0,0.0,0.0,0.59,62.69,4.41,
11.494,94.61625284923153,107.04650208013206,64.41,-13.56,1.84,2.0,0.0,0.0,2.0,0.0,0.0,0.0,0.59,105.65,3.83,
11.518,93.13462528492315,107.3466502080132,77.79,-22.92,-15.14,1.0,0.0,0.0,2.0,0.0,0.0,0.0,0.49,107.03,2.75,
11.543,92.50046252849232,107.20566502080132,82.48,-31.96,-22.05,1.0,0.0,0.0,2.0,0.0,0.0,0.0,0.39,106.24,1.37,
11.567,92.11304625284923,105.96756650208013,89.48,-16.17,-24.4,1.0,0.0,0.0,2.0,0.0,0.0,0.0,0.49,109.38,1.86,
11.591,92.54230462528493,104.37675665020801,94.41,-46.4,-41.83,1.0,0.0,0.0,2.0,0.0,0.0,0.0,0.49,104.97,1.57,
11.616,93.3052304625285,103.4616756650208,93.21,-49.76,-35.52,1.0,0.0,0.0,2.0,0.0,0.0,0.0,0.49,104.38,1.67,
11.64,93.67852304625285,101.72316756650208,77.15,-31.91,-25.44,1.0,0.0,0.0,2.0,0.0,0.0,0.0,0.39,103.59,2.16,
11.665,94.36385230462528,99.1193167566502,64.91,-18.1,-22.99,1.0,0.0,0.0,2.0,0.0,0.0,0.0,0.39,104.38,1.57,
11.689,96.03438523046253,96.20393167566502,78.4,-3.89,-32.01,1.0,0.0,0.0,2.0,0.0,0.0,0.0,0.29,105.26,1.37,
11.714,97.00243852304625,94.3193931675665,73.36,-35.74,-16.47,1.0,0.0,0.0,2.0,0.0,0.0,0.0,0.39,24.72,0.88,
11.738,97.57624385230463,93.06893931675665,51.48,-28.98,-8.3,1.0,0.0,0.0,2.0,0.0,0.0,0.0,0.39,0.0,2.45,
11.762,98.21862438523047,91.58489393167567,25.95,-20.9,-10.35,1.0,0.0,0.0,2.0,0.0,0.0,0.0,0.29,0.0,0.0,
11.786,98.79586243852305,89.85248939316756,-0.05,1.5,4.9,1.0,0.0,0.0,2.0,0.0,0.0,0.0,0.29,0.0,0.69,
11.81,98.61058624385231,88.54524893931676,-3.68,21.15,15.07,1.0,0.0,0.0,2.0,0.0,0.0,0.0,0.29,0.0,0.59,
11.834,98.04305862438522,88.17152489393166,6.0,17.3,19.92,1.0,0.0,0.0,2.0,0.0,0.0,0.0,0.29,0.0,0.59,
11.857,97.35630586243853,87.81915248939318,-2.5,12.24,20.2,1.0,0.0,0.0,2.0,0.0,0.0,0.0,0.39,0.0,0.0,
11.882,97.43163058624384,86.09191524893932,-14.19,0.56,18.44,1.0,0.0,0.0,2.0,0.0,0.0,0.0,0.39,0.0,1.37,
11.906,98.12316305862439,84.96519152489394,-21.27,-1.94,8.58,1.0,0.0,0.0,2.0,0.0,0.0,0.0,0.39,0.0,1.67,
11.93,99.11931630586244,85.0595191524894,-21.98,8.71,16.53,1.0,0.0,0.0,2.0,0.0,0.0,0.0,0.39,0.0,0.78,
11.954,118.67693163058624,65.02595191524894,-41.77,147.69,60.73,1.0,0.0,0.0,2.0,0.0,0.0,0.0,0.49,0.0,0.49,
11.977,114.95369316305863,67.5315951915249,-48.34,60.08,35.94,0.0,0.0,0.0,1.0,0.0,0.0,0.0,0.39,0.0,0.98,
12.002,113.17736931630586,70.6081595191525,-97.6,64.14,28.95,0.0,0.0,0.0,0.0,0.0,0.0,0.0,0.69,0.0,9.03,
12.026,111.80273693163059,72.76981595191525,-182.6,90.31,7.35,0.0,0.0,0.0,1.0,0.0,0.0,0.0,1.08,0.0,6.08,
12.05,111.98027369316306,73.83198159519154,-162.23,94.43,-24.54,3.0,1.0,0.0,1.0,0.0,0.0,0.0,1.57,0.0,0.0,
12.075,113.13202736931632,72.60619815951915,-79.78,37.53,6.66,-33.0,3.0,0.0,4.0,0.0,0.0,0.0,1.18,0.0,0.0,
12.099,112.74320273693164,73.4556198159519,-41.66,16.22,2.13,3300.0,4.0,0.0,5.0,0.0,0.0,0.0,0.0,0.0,0.0,
12.124,111.68732027369316,73.61256198159518,-35.69,7.24,-1.0,-33.0,6.0,0.0,8.0,0.0,0.0,0.0,0.0,0.0,0.0,
12.147,111.09573202736932,75.21225619815951,-34.09,2.69,1.04,-33.0,8.0,0.0,11.0,0.0,0.0,2.0,0.59,0.0,0.0,
12.172,110.12757320273693,76.18222561981595,-23.5,3.27,-4.24,-33.0,9.0,0.0,12.0,0.0,0.0,3.0,1.96,0.0,0.0,
12.196,109.64375732027369,77.4582225619816,-16.58,1.95,-0.49,-33.0,11.0,0.0,7.0,0.0,0.0,4.0,2.65,0.0,0.0,
12.221,109.18137573202736,78.75582225619816,-11.37,1.35,1.31,-33.0,12.0,0.0,13.0,0.0,0.0,4.0,3.92,5.79,0.0,
12.246,108.28013757320274,79.6685822256198,-0.69,9.46,11.02,-33.0,2.0,0.0,17.0,0.0,0.0,5.0,6.38,13.93,0.0,
12.269,108.26201375732029,80.85785822256197,6.15,11.79,25.65,-33.0,2.0,0.0,18.0,0.0,0.0,5.0,6.87,25.7,0.0,
12.294,107.56720137573203,81.3547858222562,6.89,1.63,39.37,-33.0,12.0,0.0,15.0,0.0,0.0,5.0,6.47,41.1,0.0,
12.318,107.1107201375732,81.28747858222562,6.59,7.97,12.38,-33.0,11.0,0.0,10.0,0.0,0.0,5.0,5.49,55.92,0.0,
12.343,107.23607201375732,81.68574785822256,7.23,13.96,3.57,-33.0,10.0,0.0,4.0,0.0,0.0,4.0,4.61,68.67,0.0,
12.367,107.42860720137573,82.58057478582226,7.24,14.32,0.53,-33.0,9.0,0.0,12.0,0.0,0.0,4.0,5.79,77.2,0.0,
12.391,107.70886072013757,83.08405747858224,6.18,16.73,-2.57,-33.0,8.0,0.0,11.0,0.0,0.0,3.0,8.44,83.68,0.0,
12.416,108.55588607201376,83.81840574785822,2.63,11.84,-1.37,-33.0,8.0,0.0,10.0,0.0,0.0,4.0,9.71,89.47,0.0,
12.44,109.47758860720137,84.46784057478584,-4.0,2.47,2.78,-33.0,7.0,0.0,10.0,0.0,0.0,4.0,10.79,93.59,0.0,
12.465,109.78575886072012,84.72178405747859,-7.45,-8.23,6.17,-33.0,8.0,0.0,11.0,0.0,0.0,4.0,11.28,96.43,0.0,
12.489,109.75357588607201,84.78317840574786,-7.6,-11.63,6.57,-33.0,8.0,0.0,11.0,0.0,0.0,4.0,11.38,99.18,0.0,
12.514,110.2273575886072,85.45531784057479,-13.82,-18.09,2.28,-33.0,8.0,0.0,0.0,0.0,0.0,4.0,10.89,102.42,0.0,
12.538,109.59073575886072,84.96453178405747,-15.29,-23.8,12.05,-33.0,9.0,0.0,2.0,0.0,0.0,4.0,9.22,98.98,0.59,
12.563,109.08607357588608,84.76245317840574,-14.96,-20.29,-0.09,-33.0,11.0,0.0,5.0,0.0,0.0,5.0,7.75,84.95,0.59,
12.588,108.3246073575886,84.29224531784058,-19.46,-25.39,-9.15,-33.0,12.0,0.0,10.0,0.0,0.0,5.0,6.47,49.25,0.78,
12.612,106.45746073575886,84.65922453178406,-8.47,-24.31,-14.09,-33.0,2.0,0.0,14.0,0.0,0.0,5.0,5.3,29.72,2.26,
12.638,105.18174607357588,85.08292245317841,-12.63,-7.87,0.41,-33.0,3.0,0.0,15.0,0.0,0.0,5.0,4.41,18.93,2.84,
12.661,104.99117460735758,84.97229224531785,-18.5,-10.83,0.83,-33.0,4.0,0.0,18.0,0.0,0.0,5.0,2.35,18.93,0.39,
12.686,104.90011746073576,84.66422922453178,-13.5,-14.35,6.37,-33.0,5.0,0.0,21.0,0.0,0.0,6.0,0.0,24.82,0.0,
12.71,104.56701174607358,84.48042292245317,-11.35,-14.13,8.09,-33.0,6.0,0.0,23.0,0.0,0.0,6.0,0.0,33.45,0.0,
12.735,104.27270117460736,84.43504229224533,-8.42,-14.62,10.01,-33.0,7.0,0.0,24.0,0.0,0.0,6.0,0.0,42.58,0.0,
12.761,104.19827011746074,84.42150422922454,-12.34,-19.5,16.15,-33.0,6.0,0.0,24.0,0.0,0.0,5.0,0.0,52.48,0.0,
12.785,103.56082701174606,84.90615042292245,-10.18,-34.25,55.63,-33.0,5.0,0.0,24.0,0.0,0.0,6.0,0.0,65.63,0.0,
12.81,103.29008270117461,84.57661504229226,-14.91,-18.59,20.81,-33.0,3.0,0.0,24.0,0.0,0.0,7.0,1.28,79.46,1.18,
12.834,102.68700827011746,84.02166150422921,-26.53,-6.84,29.72,-33.0,2.0,0.0,23.0,0.0,0.0,8.0,6.18,87.9,3.14,
12.859,101.96070082701173,83.40816615042291,-36.75,3.92,9.82,-33.0,12.0,0.0,21.0,0.0,0.0,9.0,10.79,90.64,5.3,
12.883,100.33107008270117,83.18481661504228,-40.99,6.11,10.26,-33.0,9.0,0.0,15.0,0.0,0.0,12.0,16.68,89.27,10.1,
12.908,100.27610700827012,81.92948166150423,-47.21,42.69,10.6,-33.0,6.0,0.0,8.0,0.0,0.0,5.0,28.84,85.25,11.97,
12.934,102.25061070082701,80.82294816615043,-57.43,36.1,21.19,-33.0,3.0,0.0,2.0,0.0,0.0,12.0,37.08,78.19,0.69,
12.958,102.9250610700827,80.07329481661505,-60.63,15.42,8.55,-33.0,2.0,0.0,11.0,0.0,0.0,21.0,43.65,68.57,0.1,
12.983,103.20850610700826,80.0163294816615,-77.92,12.46,20.01,-33.0,1.0,0.0,10.0,0.0,0.0,26.0,48.56,55.03,3.63,
13.007,103.32685061070083,79.74063294816614,-102.57,19.56,30.67,-33.0,0.0,0.0,10.0,0.0,0.0,31.0,51.5,37.77,4.12,
13.033,102.20468506107008,78.57006329481662,-133.19,32.81,30.47,-33.0,0.0,0.0,10.0,0.0,0.0,31.0,48.76,16.58,4.12,
13.058,102.48846850610701,76.41000632948166,-155.27,54.58,17.03,-33.0,0.0,0.0,10.0,0.0,0.0,10.0,40.12,31.1,18.54,
13.083,103.95684685061072,74.38500063294816,-145.99,29.41,2.35,3300.0,0.0,0.0,9.0,0.0,0.0,24.0,28.74,123.02,58.66,
13.108,106.20068468506108,72.97650006329481,-134.53,29.76,-7.68,0.0,0.0,0.0,6.0,0.0,0.0,15.0,18.25,137.83,156.18,
13.132,104.44506846850611,73.77165000632948,-134.38,129.69,19.73,1.0,0.0,0.0,3.0,0.0,0.0,7.0,6.87,0.0,113.5,
13.157,111.24450684685061,74.08516500063295,-74.68,92.57,74.27,1.0,0.0,0.0,3.0,0.0,0.0,7.0,4.12,0.0,46.99,
13.181,110.92545068468506,74.41351650006331,4.03,7.07,82.18,1.0,0.0,0.0,6.0,0.0,0.0,7.0,1.28,0.0,23.45,
13.205,109.57954506846852,78.63135165000632,42.07,-52.03,146.6,0.0,0.0,0.0,6.0,0.0,0.0,7.0,0.0,0.0,11.48,
13.23,108.07695450684685,83.43613516500064,9.02,-0.66,99.43,0.0,0.0,0.0,6.0,0.0,0.0,7.0,0.0,0.0,8.14,
13.253,103.57969545068468,83.39461351650006,13.61,19.18,106.11,0.0,0.0,0.0,6.0,0.0,0.0,7.0,0.0,0.0,5.2,
13.278,99.89896954506847,78.31446135165001,23.56,18.11,-5.37,0.0,0.0,0.0,6.0,0.0,0.0,7.0,0.0,0.0,3.04,
13.301,99.21589695450685,74.998446135165,50.23,23.02,-25.55,0.0,0.0,0.0,6.0,0.0,0.0,7.0,0.0,12.75,0.39,
13.326,103.24258969545068,75.4408446135165,61.73,-10.86,-14.36,0.0,0.0,0.0,6.0,0.0,0.0,7.0,0.0,63.57,0.49,
13.35,103.24025896954507,73.69408446135165,77.76,-25.84,17.6,0.0,0.0,0.0,6.0,0.0,0.0,7.0,0.0,104.08,1.47,
13.374,103.25802589695452,70.36940844613517,92.33,-21.63,-17.13,0.0,0.0,0.0,6.0,0.0,0.0,7.0,0.0,0.0,2.65,
13.399,104.11480258969544,68.47094084461352,107.55,-21.52,-48.43,0.0,0.0,0.0,6.0,0.0,0.0,7.0,0.0,0.0,2.84,
13.423,106.42348025896956,66.22909408446135,118.73,-38.02,-61.53,0.0,0.0,0.0,6.0,0.0,0.0,7.0,0.0,0.0,1.77,
13.447,106.94234802589695,65.37490940844614,124.98,-44.62,-40.69,0.0,0.0,0.0,6.0,0.0,0.0,7.0,0.0,0.0,1.37,
13.471,105.6532348025897,63.86749094084462,112.53,-45.42,-37.49,0.0,0.0,0.0,6.0,0.0,0.0,7.0,0.0,0.0,0.98,
13.496,103.34632348025897,62.43874909408446,97.06,-71.01,-22.53,0.0,0.0,0.0,6.0,0.0,0.0,7.0,0.0,0.0,1.28,
13.519,102.45863234802589,60.84687490940845,77.73,-52.6,-34.16,0.0,0.0,0.0,6.0,0.0,0.0,7.0,0.0,0.0,1.57,
13.544,103.40486323480259,59.931687490940845,58.14,-34.95,-47.88,0.0,0.0,0.0,6.0,0.0,0.0,7.0,0.0,0.0,1.37,
13.569,104.60648632348025,59.74116874909408,38.18,-26.49,-31.77,0.0,0.0,0.0,5.0,0.0,0.0,7.0,0.0,0.0,0.0,
13.592,104.00664863234803,59.92911687490941,3.66,-19.66,-24.75,0.0,0.0,0.0,4.0,0.0,0.0,7.0,0.0,0.0,0.2,
13.617,103.5326648632348,58.615911687490936,-32.22,3.51,-42.53,0.0,0.0,0.0,4.0,0.0,0.0,7.0,0.0,0.0,2.55,
13.64,104.89826648632348,57.2155911687491,-56.08,26.97,-66.45,0.0,0.0,0.0,3.0,0.0,0.0,7.0,0.0,0.0,5.49,
13.665,107.38382664863235,55.59055911687491,-81.27,56.1,-70.43,0.0,0.0,0.0,2.0,0.0,0.0,7.0,0.0,0.0,3.04,
13.689,119.06238266486324,46.92305591168749,157.0,-250.13,217.75,1.0,0.0,0.0,2.0,0.0,0.0,0.0,0.78,0.0,0.0,
13.714,116.67523826648633,56.586305591168745,57.84,27.27,178.51,2.0,1.0,0.0,4.0,0.0,0.0,1.0,1.77,0.0,0.0,
13.737,110.47852382664864,60.52263055911688,72.25,7.5,112.37,6.0,3.0,0.0,5.0,0.0,0.0,2.0,0.0,0.0,0.0,
13.762,108.26585238266486,64.66926305591169,22.25,166.5,74.17,11.0,5.0,0.0,7.0,0.0,0.0,3.0,0.0,0.0,0.0,
13.787,108.79158523826649,68.24292630559117,30.16,100.21,4.44,5.0,6.0,0.0,9.0,0.0,0.0,3.0,0.0,0.0,0.0,
13.81,107.50315852382664,71.16529263055911,-11.65,10.52,-12.19,27.0,7.0,0.0,9.0,0.0,0.0,4.0,0.0,0.0,0.0,
13.835,106.81631585238266,73.15852926305591,-10.76,4.5,-2.72,10.0,7.0,0.0,10.0,0.0,0.0,4.0,0.0,0.0,0.0,
13.859,106.79263158523827,74.6178529263056,-7.47,2.66,0.86,11.0,7.0,0.0,10.0,0.0,0.0,4.0,0.0,0.0,0.0,
13.883,106.14226315852382,75.90678529263056,-4.74,-5.05,3.97,1633.0,8.0,0.0,11.0,0.0,0.0,5.0,0.0,0.0,0.0,
13.907,105.14122631585238,76.97167852926306,-0.39,2.89,6.39,442.0,8.0,0.0,12.0,0.0,0.0,5.0,0.0,0.0,0.0,
13.932,104.30312263158524,77.8791678529263,-3.15,5.44,0.32,800.0,9.0,0.0,2.0,0.0,0.0,6.0,0.0,0.0,0.0,
13.956,104.01231226315853,78.68991678529262,-8.04,0.16,-1.58,23.0,9.0,0.0,5.0,0.0,0.0,6.0,0.0,0.0,0.0,
13.98,103.94723122631586,79.47299167852925,-4.73,-0.37,1.39,306.0,10.0,0.0,7.0,0.0,0.0,7.0,0.0,0.0,0.0,
14.005,103.5807231226316,80.15429916785293,-8.98,-6.18,0.11,44.0,10.0,0.0,9.0,0.0,0.0,7.0,0.0,0.0,0.0,
14.029,103.04007231226316,80.4744299167853,-5.15,-1.93,0.84,80.0,11.0,0.0,11.0,0.0,0.0,7.0,0.0,0.0,0.0,
14.053,102.76100723122633,80.78544299167852,-1.2,0.68,1.5,3300.0,11.0,0.0,13.0,0.0,0.0,7.0,0.0,0.0,0.0,
14.077,102.69710072312265,81.05054429916784,-1.17,1.35,-9.92,383.0,11.0,0.0,13.0,0.0,0.0,7.0,0.0,0.0,0.0,
14.102,102.65471007231227,81.55405442991677,-2.66,1.01,-2.53,345.0,11.0,0.0,13.0,0.0,0.0,7.0,0.0,0.0,0.0,
14.127,102.59647100723123,81.87440544299167,-1.81,0.56,0.74,522.0,11.0,0.0,14.0,0.0,0.0,7.0,0.0,0.0,0.0,
14.151,102.57264710072312,82.09544054429917,-2.37,0.29,2.02,442.0,11.0,0.0,14.0,0.0,0.0,7.0,0.0,0.0,0.0,
14.175,102.4262647100723,82.36954405442992,-3.04,0.7,-1.11,206.0,11.0,0.0,14.0,0.0,0.0,7.0,0.0,0.0,0.0,
14.199,102.36662647100722,82.56795440544299,-2.76,-0.11,-1.34,89.0,11.0,0.0,14.0,0.0,0.0,7.0,0.0,0.0,0.0,
14.224,102.26166264710072,82.77679544054429,-3.92,-1.49,-2.05,104.0,11.0,0.0,14.0,0.0,0.0,6.0,0.0,0.0,0.0,
14.248,102.19716626471008,82.88767954405444,-3.5,-0.49,-1.25,93.0,11.0,0.0,14.0,0.0,0.0,6.0,0.0,0.0,0.0,
14.273,102.145716626471,82.96176795440545,-1.75,0.51,-0.91,89.0,11.0,0.0,14.0,0.0,0.0,6.0,0.0,0.0,0.0,
14.297,102.1675716626471,82.98717679544055,-0.95,4.92,-1.66,152.0,11.0,0.0,14.0,0.0,0.0,5.0,0.0,0.0,0.0,
14.321,102.48475716626471,82.72871767954406,-0.31,7.98,-3.02,206.0,11.0,0.0,14.0,0.0,0.0,5.0,0.0,0.0,0.0,
14.346,102.55247571662647,82.8918717679544,0.74,8.11,-1.52,175.0,11.0,0.0,13.0,0.0,0.0,5.0,0.0,0.0,0.0,
14.37,102.64024757166266,83.08818717679544,-2.34,2.08,-2.25,93.0,11.0,0.0,13.0,0.0,0.0,4.0,0.0,0.0,0.0,
14.395,102.69402475716628,83.14381871767955,-1.87,0.92,-1.78,93.0,11.0,0.0,11.0,0.0,0.0,4.0,0.0,0.0,0.0,
14.418,102.77140247571663,83.23938187176795,0.18,0.56,-1.19,85.0,11.0,0.0,11.0,0.0,0.0,4.0,0.0,0.0,0.0,
14.443,102.75214024757167,83.4469381871768,0.18,0.98,-0.64,225.0,11.0,0.0,10.0,0.0,0.0,3.0,0.0,0.0,0.0,
14.468,102.82221402475716,83.48569381871766,0.34,1.21,-0.85,73.0,11.0,0.0,9.0,0.0,0.0,3.0,0.0,0.0,0.0,
14.491,102.89222140247573,83.66056938187178,-0.95,-0.06,-1.14,125.0,11.0,0.0,9.0,0.0,0.0,3.0,0.0,0.0,0.0,
14.516,102.92622214024759,83.80405693818717,-2.12,-0.87,-0.79,272.0,11.0,0.0,8.0,0.0,0.0,3.0,0.0,0.0,0.0,
14.54,103.01062221402476,83.89040569381872,-2.24,-1.11,-0.27,633.0,11.0,0.0,8.0,0.0,0.0,3.0,0.0,0.0,0.0,
14.565,103.07306222140248,83.89904056938188,-2.9,-1.72,-1.5,383.0,11.0,0.0,8.0,0.0,0.0,3.0,0.0,0.0,0.0,
14.589,103.13330622214025,83.9359040569382,-3.28,-2.08,-0.75,188.0,11.0,0.0,8.0,0.0,0.0,3.0,0.0,0.0,0.0,
14.613,103.08533062221403,83.94859040569382,-4.0,-2.48,-1.09,37.0,11.0,0.0,8.0,0.0,0.0,3.0,0.0,0.0,0.0,
14.638,103.0265330622214,84.01285904056938,-4.01,-2.97,-1.17,34.0,11.0,0.0,9.0,0.0,0.0,3.0,0.0,0.0,0.0,
14.662,102.96665330622214,84.05528590405694,-4.43,-3.72,-1.5,85.0,11.0,0.0,8.0,0.0,0.0,3.0,0.0,0.0,0.0,
14.687,102.8976653306222,84.1315285904057,-4.93,-3.57,-1.15,345.0,11.0,0.0,8.0,0.0,0.0,3.0,0.0,0.0,0.2,
14.711,102.90876653306222,84.12115285904058,-3.95,-2.02,-0.82,383.0,10.0,0.0,8.0,0.0,0.0,3.0,0.0,0.0,0.29,
14.735,102.90987665330621,84.08411528590405,-2.6,-0.78,-0.44,345.0,11.0,0.0,9.0,0.0,0.0,3.0,0.0,0.0,0.2,
14.759,102.85598766533062,84.0714115285904,-2.93,-0.89,-0.85,442.0,10.0,0.0,9.0,0.0,0.0,3.0,0.0,0.0,0.0,
14.784,102.87759876653305,84.07914115285904,-3.83,-2.71,-1.36,522.0,10.0,0.0,10.0,0.0,0.0,3.0,0.0,0.0,0.0,
14.809,102.84375987665331,84.0799141152859,-3.69,-2.63,-0.92,272.0,11.0,0.0,8.0,0.0,0.0,3.0,0.0,0.0,0.0,
14.833,102.82237598766532,84.05299141152858,-4.04,-1.94,-0.54,206.0,10.0,0.0,8.0,0.0,0.0,3.0,0.0,0.0,0.0,
14.858,102.81123759876654,84.03229914115286,-2.29,0.07,0.15,306.0,10.0,0.0,9.0,0.0,0.0,3.0,0.0,0.0,0.0,
14.881,102.76512375987666,84.15622991411529,-2.39,-0.95,-0.31,633.0,10.0,0.0,8.0,0.0,0.0,3.0,0.0,0.0,0.0,
14.906,102.80551237598768,84.13262299141152,-3.48,-1.43,-1.37,633.0,10.0,0.0,8.0,0.0,0.0,3.0,0.0,0.0,0.0,
14.93,102.91755123759879,84.10326229914115,-3.29,-1.62,-0.81,522.0,10.0,0.0,8.0,0.0,0.0,3.0,0.0,0.0,0.0,
14.955,102.78475512375988,84.12732622991412,-3.98,-2.24,-0.37,1077.0,10.0,0.0,8.0,0.0,0.0,3.0,0.0,0.0,0.0,
14.98,102.726475512376,84.04873262299142,-3.39,-1.35,-0.51,1077.0,10.0,0.0,8.0,0.0,0.0,3.0,0.0,0.0,0.0,
15.004,102.7296475512376,84.13087326229913,-2.36,-0.18,0.66,1633.0,10.0,0.0,8.0,0.0,0.0,3.0,0.0,0.0,0.0,
15.028,102.77496475512376,84.13908732622991,-3.2,-1.2,-0.6,1633.0,10.0,0.0,8.0,0.0,0.0,3.0,0.0,0.0,0.1,
15.052,102.76149647551239,84.10390873262298,-1.92,0.24,-0.35,1633.0,10.0,0.0,8.0,0.0,0.0,3.0,0.0,0.0,0.39,
15.077,102.76014964755124,84.11839087326231,-0.66,2.18,0.56,1077.0,10.0,0.0,7.0,0.0,0.0,3.0,0.0,0.0,0.0,
15.101,102.85001496475512,84.15583908732623,0.63,3.41,1.08,1633.0,10.0,0.0,6.0,0.0,0.0,3.0,0.0,0.0,0.0,
15.126,102.92200149647553,84.22258390873262,0.94,4.05,0.73,1633.0,10.0,0.0,5.0,0.0,0.0,2.0,0.0,0.0,0.0,
15.15,103.05520014964755,84.31925839087327,0.82,3.55,-0.7,1077.0,10.0,0.0,4.0,0.0,0.0,2.0,0.0,0.0,0.0,
15.174,103.17652001496475,84.42792583908732,1.06,4.15,-1.34,800.0,10.0,0.0,3.0,0.0,0.0,2.0,0.0,0.0,0.0,
15.199,103.37765200149647,84.51079258390872,0.6,2.6,-0.29,633.0,9.0,0.0,2.0,0.0,0.0,2.0,0.0,0.0,0.1,
15.222,103.55076520014964,84.71707925839087,-0.51,1.02,0.06,800.0,9.0,0.0,2.0,0.0,0.0,2.0,0.0,0.0,0.0,
15.247,103.57707652001496,84.72870792583909,-2.56,-0.05,-0.21,80.0,9.0,0.0,1.0,0.0,0.0,2.0,0.0,0.0,0.0,
15.27,103.63370765200149,84.70287079258391,-1.5,0.5,0.92,522.0,9.0,0.0,2.0,0.0,0.0,2.0,0.0,0.0,0.0,
15.295,103.73837076520014,84.70028707925839,-1.18,0.27,1.05,522.0,9.0,0.0,2.0,0.0,0.0,2.0,0.0,0.0,0.0,
15.32,103.69483707652,84.70002870792584,-2.87,-0.99,0.08,134.0,9.0,0.0,2.0,0.0,0.0,2.0,0.0,0.0,0.0,
15.343,103.69048370765199,84.71800287079259,-2.69,-0.89,0.22,272.0,9.0,0.0,2.0,0.0,0.0,2.0,0.0,0.0,0.2,
15.368,103.7170483707652,84.79180028707925,-3.45,-1.66,0.34,272.0,9.0,0.0,2.0,0.0,0.0,2.0,0.0,0.0,0.0,
15.392,103.64770483707652,84.79018002870794,-5.05,-2.66,-0.63,125.0,9.0,0.0,3.0,0.0,0.0,2.0,0.0,0.0,0.0,
15.416,103.67677048370766,84.7900180028708,-4.72,-3.08,-0.6,143.0,9.0,0.0,3.0,0.0,0.0,2.0,0.0,0.0,0.0,
15.44,103.59867704837077,84.78100180028709,-3.73,-2.26,0.01,89.0,10.0,0.0,4.0,0.0,0.0,2.0,0.0,0.0,0.0,
15.465,103.56386770483708,84.7981001800287,-3.24,-1.69,0.66,162.0,10.0,0.0,5.0,0.0,0.0,2.0,0.0,0.0,0.0,
15.49,103.5693867704837,84.79981001800286,-3.82,-2.5,-0.29,104.0,10.0,0.0,4.0,0.0,0.0,2.0,0.0,0.0,0.2,
15.513,103.51593867704838,84.79998100180028,-4.21,-2.96,0.2,98.0,10.0,0.0,5.0,0.0,0.0,2.0,0.0,0.0,0.0,
15.538,103.55559386770484,84.76399810018003,-3.76,-1.52,1.03,89.0,10.0,0.0,5.0,0.0,0.0,2.0,0.0,0.0,0.0,
15.562,103.54155938677049,84.751399810018,-3.87,-3.21,0.41,80.0,10.0,0.0,5.0,0.0,0.0,2.0,0.0,0.0,0.0,
15.586,103.48615593867706,84.75013998100181,-4.68,-4.01,0.11,80.0,10.0,0.0,6.0,0.0,0.0,2.0,0.0,0.0,0.0,
15.61,103.4626155938677,84.69601399810018,-5.05,-3.97,-0.54,80.0,10.0,0.0,6.0,0.0,0.0,2.0,0.0,0.0,0.0,
15.635,103.45126155938678,84.70860139981001,-4.35,-2.56,-0.23,80.0,10.0,0.0,6.0,0.0,0.0,2.0,0.0,0.0,0.0,
15.659,103.44112615593868,84.655860139981,-4.18,-2.54,-0.61,77.0,10.0,0.0,6.0,0.0,0.0,3.0,0.0,0.0,0.0,
15.683,103.38611261559387,84.6235860139981,-4.3,-1.82,0.28,110.0,10.0,0.0,6.0,0.0,0.0,3.0,0.0,0.0,0.1,
15.708,103.41661126155938,84.57535860139981,-2.38,-0.11,0.65,188.0,10.0,0.0,8.0,0.0,0.0,3.0,0.0,0.0,0.1,
15.732,103.42866112615594,84.53453586013998,-1.39,0.74,1.27,383.0,10.0,0.0,8.0,0.0,0.0,3.0,0.0,0.0,0.0,
15.756,103.3848661126156,84.54845358601399,-1.52,-0.05,1.31,383.0,10.0,0.0,8.0,0.0,0.0,3.0,0.0,0.0,0.0,
15.78,103.33548661126156,84.5048453586014,-1.5,-0.5,1.18,345.0,10.0,0.0,8.0,0.0,0.0,3.0,0.0,0.0,0.0,
15.805,103.37554866112616,84.57248453586014,-2.62,-1.96,0.77,345.0,10.0,0.0,8.0,0.0,0.0,3.0,0.0,0.0,0.29,
15.83,103.35255486611261,84.55224845358602,-2.91,-2.46,0.76,272.0,10.0,0.0,8.0,0.0,0.0,3.0,0.0,0.0,0.59,
15.853,103.31425548661126,84.46022484535861,-1.46,-0.24,1.56,345.0,10.0,0.0,8.0,0.0,0.0,3.0,0.0,0.0,0.49,
15.878,103.30142554866111,84.47802248453587,-0.21,1.33,1.66,272.0,10.0,0.0,8.0,0.0,0.0,3.0,0.0,0.0,0.2,
15.902,103.38114255486612,84.59680224845359,-0.42,1.12,2.1,188.0,10.0,0.0,8.0,0.0,0.0,2.0,0.0,0.0,0.0,
15.926,103.4521142554866,84.64468022484536,-1.61,0.56,0.31,125.0,10.0,0.0,8.0,0.0,0.0,2.0,0.0,0.0,0.0,
15.95,103.54021142554865,84.67646802248454,-0.08,2.24,1.98,93.0,10.0,0.0,8.0,0.0,0.0,2.0,0.0,0.0,0.0,
15.975,103.46802114255485,84.71564680224846,1.65,3.07,2.46,89.0,10.0,0.0,8.0,0.0,0.0,2.0,0.0,0.0,0.0,
15.998,103.46080211425547,84.78256468022485,0.96,3.73,0.18,77.0,10.0,0.0,8.0,0.0,0.0,2.0,0.0,0.0,0.0,
16.023,103.56808021142554,84.83425646802249,0.98,2.4,0.32,383.0,10.0,0.0,7.0,0.0,0.0,2.0,0.0,0.0,0.0,
16.047,103.65980802114255,84.93842564680224,0.89,2.73,-0.03,800.0,10.0,0.0,7.0,0.0,0.0,2.0,0.0,0.0,0.0,
16.071,103.71398080211425,84.95784256468022,2.31,4.83,2.35,442.0,10.0,0.0,7.0,0.0,0.0,1.0,0.0,0.0,0.0,
16.095,103.80039808021142,85.08578425646803,1.92,4.88,0.23,522.0,10.0,0.0,6.0,0.0,0.0,1.0,0.0,0.0,0.0,
16.119,103.92603980802114,85.31457842564681,0.42,3.39,-1.89,442.0,10.0,0.0,6.0,0.0,0.0,1.0,0.0,0.0,0.0,
16.144,104.24460398080211,85.58045784256468,-0.36,1.31,-1.55,633.0,10.0,0.0,6.0,0.0,0.0,1.0,0.0,0.0,0.0,
16.167,104.32146039808022,85.62504578425646,-0.47,1.9,-0.27,633.0,10.0,0.0,5.0,0.0,0.0,1.0,0.0,0.0,0.39,
16.192,104.33814603980802,85.58450457842565,-1.73,1.79,-4.29,800.0,10.0,0.0,5.0,0.0,0.0,1.0,0.0,0.0,0.49,
16.217,104.37581460398079,85.65245045784256,-2.58,0.7,-1.64,633.0,10.0,0.0,5.0,0.0,0.0,1.0,0.0,0.0,0.0,
16.241,104.47858146039808,85.72224504578426,-4.44,-0.74,-2.4,633.0,10.0,0.0,6.0,0.0,0.0,1.0,0.0,0.0,0.0,
16.266,104.5968581460398,85.70222450457844,-2.47,-0.18,0.04,522.0,10.0,0.0,6.0,0.0,0.0,1.0,0.0,0.0,0.2,
16.289,104.59068581460397,85.79922245045785,-2.73,-0.34,-0.19,383.0,10.0,0.0,6.0,0.0,0.0,1.0,0.0,0.0,0.29,
16.314,104.6260685814604,85.80892224504578,-3.56,-1.45,-1.99,442.0,10.0,0.0,6.0,0.0,0.0,1.0,0.0,0.0,0.0,
16.338,104.64760685814603,85.80989222450458,-4.17,-2.76,-0.03,383.0,10.0,0.0,6.0,0.0,0.0,1.0,0.0,0.0,0.0,
16.363,104.70376068581459,85.82798922245046,-6.76,-4.71,1.54,442.0,10.0,0.0,7.0,0.0,0.0,1.0,0.0,0.0,0.0,
16.388,104.65537606858146,85.78479892224505,-5.56,-4.03,1.36,633.0,10.0,0.0,8.0,0.0,0.0,2.0,0.0,0.0,0.0,
16.411,104.60553760685815,85.84347989222451,-4.65,-3.83,0.76,442.0,11.0,0.0,9.0,0.0,0.0,2.0,0.0,0.0,0.0,
16.436,104.42055376068582,85.67834798922244,-7.16,-5.6,-4.92,383.0,11.0,0.0,10.0,0.0,0.0,2.0,0.0,0.0,0.0,
16.46,104.39305537606859,85.73383479892225,-5.55,-5.37,0.27,345.0,11.0,0.0,10.0,0.0,0.0,2.0,0.0,0.0,0.0,
16.485,104.30930553760686,85.64038347989222,-6.47,-6.18,-0.15,345.0,11.0,0.0,11.0,0.0,0.0,2.0,0.0,0.0,0.29,
16.509,104.27393055376069,85.52303834798923,-6.38,-5.98,-1.91,306.0,11.0,0.0,11.0,0.0,0.0,2.0,0.0,0.0,0.1,
16.534,104.18939305537609,85.46630383479892,-5.84,-5.31,-1.2,442.0,11.0,0.0,11.0,0.0,0.0,2.0,0.0,0.0,0.0,
16.559,104.1359393055376,85.4696303834799,-5.5,-4.9,-1.54,522.0,11.0,0.0,11.0,0.0,0.0,3.0,0.0,0.0,0.0,
16.582,104.13059393055376,85.45196303834798,-6.24,-5.43,-1.17,442.0,11.0,0.0,12.0,0.0,0.0,3.0,0.0,0.0,0.0,
16.607,104.06705939305539,85.3691963038348,-6.31,-6.29,-0.94,383.0,11.0,0.0,13.0,0.0,0.0,3.0,0.0,0.0,0.39,
16.631,103.98870593930555,85.32491963038348,-5.61,-5.48,-0.14,383.0,11.0,0.0,13.0,0.0,0.0,3.0,0.0,0.0,0.49,
16.656,103.87287059393056,85.22149196303835,-5.69,-4.36,-0.15,383.0,11.0,0.0,13.0,0.0,0.0,3.0,0.0,0.0,0.0,
16.68,103.83428705939306,85.13914919630383,-4.7,-3.32,0.07,383.0,11.0,0.0,14.0,0.0,0.0,3.0,0.0,0.0,0.1,
16.705,103.75842870593931,85.13091491963038,-4.74,-4.34,0.11,383.0,11.0,0.0,14.0,0.0,0.0,3.0,0.0,0.0,0.2,
16.73,103.69684287059393,84.98609149196304,-5.53,-5.12,-0.24,442.0,12.0,0.0,14.0,0.0,0.0,3.0,0.0,0.0,0.0,
16.754,103.69068428705938,84.93560914919631,-4.31,-2.66,-0.47,383.0,12.0,0.0,14.0,0.0,0.0,3.0,0.0,0.0,0.0,
16.779,103.69006842870593,84.92156091491962,-3.29,-1.49,0.22,383.0,12.0,0.0,14.0,0.0,0.0,3.0,0.0,0.0,0.0,
16.802,103.61800684287059,84.94715609149196,-3.47,-1.56,0.25,345.0,12.0,0.0,15.0,0.0,0.0,3.0,0.0,0.0,0.1,
16.827,103.52980068428705,84.8777156091492,-4.29,-2.08,-0.37,306.0,12.0,0.0,14.0,0.0,0.0,3.0,0.0,0.0,0.1,
16.851,103.45798006842871,84.82577156091492,-3.04,-0.18,0.08,345.0,12.0,0.0,15.0,0.0,0.0,3.0,0.0,0.0,0.2,
16.876,103.45079800684287,84.77557715609149,-2.27,0.38,0.52,306.0,12.0,0.0,14.0,0.0,0.0,3.0,0.0,0.0,0.29,
16.901,103.43207980068429,84.83355771560916,-3.38,-1.44,-0.29,246.0,12.0,0.0,14.0,0.0,0.0,3.0,0.0,0.0,0.0,
16.925,103.40320798006843,84.89335577156092,-3.63,-1.68,-0.18,246.0,12.0,0.0,14.0,0.0,0.0,3.0,0.0,0.0,0.1,
16.95,103.32832079800684,84.89933557715611,-3.05,-0.68,-0.04,246.0,12.0,0.0,14.0,0.0,0.0,3.0,0.0,0.0,0.78,
16.973,103.31183207980068,84.9539335577156,-2.43,0.53,0.23,225.0,11.0,0.0,14.0,0.0,0.0,3.0,0.0,0.0,0.0,
16.998,103.38218320798006,84.99539335577155,-3.5,-1.48,-1.08,225.0,11.0,0.0,15.0,0.0,0.0,3.0,0.0,0.0,0.1,
17.022,103.37121832079801,84.97253933557715,-3.08,-1.43,-0.34,225.0,12.0,0.0,14.0,0.0,0.0,3.0,0.0,0.0,0.0,
17.047,103.3791218320798,84.92525393355771,-2.47,-0.89,-0.08,206.0,11.0,0.0,14.0,0.0,0.0,3.0,0.0,0.0,0.0,
17.072,103.43391218320798,84.91152539335576,-2.58,0.18,-0.12,162.0,11.0,0.0,11.0,0.0,0.0,3.0,0.0,0.0,0.0,
17.096,103.57439121832081,84.87415253933558,-1.97,0.24,-0.57,152.0,11.0,0.0,13.0,0.0,0.0,3.0,0.0,0.0,0.0,
17.121,103.72343912183209,84.81641525393357,-1.08,1.21,-1.11,134.0,11.0,0.0,12.0,0.0,0.0,3.0,0.0,0.0,0.0,
17.144,103.73834391218321,84.91864152539337,-2.73,-0.23,-1.15,85.0,11.0,0.0,11.0,0.0,0.0,2.0,0.0,0.0,0.0,
17.169,103.72183439121832,84.99186415253934,-3.46,-1.69,-0.74,80.0,11.0,0.0,12.0,0.0,0.0,2.0,0.0,0.0,0.0,
17.193,103.72918343912183,85.02618641525393,-3.87,-1.89,-0.78,80.0,11.0,0.0,11.0,0.0,0.0,2.0,0.0,0.0,0.59,
17.218,103.71191834391217,85.00261864152539,-3.78,-1.94,-1.01,80.0,11.0,0.0,11.0,0.0,0.0,2.0,0.0,0.0,0.0,
17.243,103.71919183439121,84.97326186415253,-3.4,-1.24,-0.73,80.0,11.0,0.0,11.0,0.0,0.0,2.0,0.0,0.0,0.2,
17.267,103.67491918343912,84.97032618641525,-3.24,-1.79,-0.14,80.0,11.0,0.0,11.0,0.0,0.0,2.0,0.0,0.0,0.49,
17.291,103.65249191834391,85.01503261864153,-3.11,-1.47,-0.01,162.0,11.0,0.0,12.0,0.0,0.0,2.0,0.0,0.0,0.78,
17.315,103.6232491918344,84.99250326186416,-3.64,-2.08,-0.5,188.0,11.0,0.0,11.0,0.0,0.0,2.0,0.0,0.0,0.49,
17.34,103.65632491918343,84.95425032618641,-3.5,-1.61,-0.27,188.0,11.0,0.0,12.0,0.0,0.0,2.0,0.0,0.0,0.2,
17.364,103.69563249191833,84.87842503261865,-3.98,-2.13,-0.47,206.0,11.0,0.0,12.0,0.0,0.0,2.0,0.0,0.0,0.29,
17.389,103.71756324919183,84.86184250326185,-3.7,-1.55,-0.5,225.0,11.0,0.0,12.0,0.0,0.0,2.0,0.0,0.0,0.1,
17.414,103.71075632491917,84.8691842503262,-2.98,-0.56,-0.19,225.0,11.0,0.0,12.0,0.0,0.0,2.0,0.0,0.0,0.0,
17.438,103.74607563249191,84.87891842503261,-2.86,-0.16,0.16,206.0,11.0,0.0,12.0,0.0,0.0,2.0,0.0,0.0,0.0,
17.463,103.73160756324918,84.88889184250326,-2.66,-0.28,-0.41,383.0,11.0,0.0,11.0,0.0,0.0,2.0,0.0,0.0,0.39,
17.487,103.61316075632492,84.90788918425032,-3.44,-1.29,-0.87,306.0,11.0,0.0,12.0,0.0,0.0,2.0,0.0,0.0,0.69,
17.511,103.60131607563248,84.93678891842502,-3.31,-0.5,-0.75,306.0,11.0,0.0,11.0,0.0,0.0,2.0,0.0,0.0,0.39,
17.536,103.67213160756326,84.9486788918425,-2.77,-0.66,-0.89,345.0,11.0,0.0,11.0,0.0,0.0,2.0,0.0,0.0,0.2,
17.56,103.67021316075632,84.97686788918425,-2.84,-0.97,-0.66,345.0,11.0,0.0,11.0,0.0,0.0,2.0,0.0,0.0,0.2,
17.585,103.69702131607562,84.89868678891843,-2.94,-0.66,-0.36,345.0,11.0,0.0,11.0,0.0,0.0,2.0,0.0,0.0,0.1,
17.609,103.67270213160756,84.89086867889183,-2.82,-0.79,-0.42,345.0,11.0,0.0,11.0,0.0,0.0,2.0,0.0,0.0,0.49,
17.634,103.72427021316075,84.89008686788918,-1.82,0.32,0.02,345.0,11.0,0.0,11.0,0.0,0.0,2.0,0.0,0.0,0.0,
17.658,103.75642702131607,84.87200868678893,-1.3,0.31,0.21,345.0,11.0,0.0,10.0,0.0,0.0,2.0,0.0,0.0,0.1,
17.683,103.7506427021316,84.9152008686789,-0.79,1.2,0.74,345.0,11.0,0.0,10.0,0.0,0.0,2.0,0.0,0.0,0.29,
17.707,103.81306427021316,84.95552008686789,-1.99,0.44,0.26,345.0,11.0,0.0,10.0,0.0,0.0,2.0,0.0,0.0,0.2,
17.731,103.84630642702132,84.94155200868678,-2.08,0.46,-0.55,306.0,11.0,0.0,10.0,0.0,0.0,2.0,0.0,0.0,0.1,
17.756,103.85863064270214,85.03915520086868,-1.69,0.25,-1.05,306.0,11.0,0.0,9.0,0.0,0.0,2.0,0.0,0.0,0.0,
17.78,103.96786306427022,85.08491552008687,-1.98,0.0,-0.78,272.0,11.0,0.0,9.0,0.0,0.0,2.0,0.0,0.0,0.0,
17.804,103.97878630642703,85.1254915520087,-3.29,-1.93,-0.33,383.0,11.0,0.0,9.0,0.0,0.0,2.0,0.0,0.0,0.29,
17.828,103.93487863064271,85.12954915520088,-3.73,-2.14,-0.37,383.0,11.0,0.0,8.0,0.0,0.0,2.0,0.0,0.0,0.98,
17.853,103.90348786306427,85.11195491552009,-3.35,-0.98,-0.08,442.0,11.0,0.0,9.0,0.0,0.0,2.0,0.0,0.0,0.78,
17.878,103.95434878630641,85.083195491552,-3.33,-1.24,-0.24,442.0,11.0,0.0,9.0,0.0,0.0,2.0,0.0,0.0,0.29,
17.902,103.96843487863065,85.0803195491552,-3.26,-1.1,0.26,442.0,11.0,0.0,9.0,0.0,0.0,2.0,0.0,0.0,0.1,
17.926,104.02384348786308,85.07103195491553,-2.46,-0.5,0.05,383.0,11.0,0.0,9.0,0.0,0.0,2.0,0.0,0.0,0.49,
17.95,104.0743843487863,85.02510319549155,-2.44,-0.29,-0.52,442.0,11.0,0.0,9.0,0.0,0.0,2.0,0.0,0.0,0.78,
17.975,104.11543843487864,85.04751031954916,-2.03,0.35,-0.02,383.0,11.0,0.0,9.0,0.0,0.0,2.0,0.0,0.0,1.08,
17.999,104.11954384348788,85.09475103195491,-1.87,0.61,-1.13,383.0,11.0,0.0,8.0,0.0,0.0,2.0,0.0,0.0,0.0,
18.024,104.0389543843488,85.19847510319548,-3.36,-1.75,-1.1,800.0,11.0,0.0,8.0,0.0,0.0,2.0,0.0,0.0,0.2,
18.048,104.00389543843488,85.15484751031956,-4.25,-1.27,-0.97,633.0,11.0,0.0,8.0,0.0,0.0,2.0,0.0,0.0,0.0,
18.072,104.04538954384348,85.15948475103195,-3.46,-1.31,-0.34,633.0,11.0,0.0,8.0,0.0,0.0,2.0,0.0,0.0,0.0,
18.097,104.12153895438435,85.1329484751032,-3.48,-1.24,-0.31,633.0,11.0,0.0,8.0,0.0,0.0,2.0,0.0,0.0,0.0,
18.121,104.12915389543844,85.09429484751033,-2.95,-0.95,-0.31,522.0,11.0,0.0,10.0,0.0,0.0,2.0,0.0,0.0,0.39,
18.146,104.09391538954385,85.15342948475103,-2.91,-0.86,-0.15,522.0,11.0,0.0,8.0,0.0,0.0,2.0,0.0,0.0,0.69,
18.17,104.1173915389544,85.10534294847511,-3.05,-0.62,-0.44,442.0,11.0,0.0,8.0,0.0,0.0,2.0,0.0,0.0,1.37,
18.194,104.22773915389544,85.1185342948475,-3.01,-0.85,-1.56,345.0,11.0,0.0,8.0,0.0,0.0,2.0,0.0,0.0,0.29,
18.219,104.22077391538954,85.10185342948475,-4.37,-1.85,-0.82,306.0,11.0,0.0,8.0,0.0,0.0,2.0,0.0,0.0,0.1,
18.243,104.27407739153895,85.08218534294848,-4.74,-1.58,-0.65,306.0,11.0,0.0,8.0,0.0,0.0,2.0,0.0,0.0,0.59,
18.268,104.3514077391539,85.08921853429484,-4.28,-2.45,-0.89,306.0,11.0,0.0,8.0,0.0,0.0,2.0,0.0,0.0,0.49,
18.292,104.37714077391539,85.05392185342949,-3.73,-2.0,-0.61,306.0,11.0,0.0,8.0,0.0,0.0,2.0,0.0,0.0,0.88,
18.317,104.28971407739154,85.06839218534294,-2.81,-1.16,-0.38,306.0,11.0,0.0,7.0,0.0,0.0,2.0,0.0,0.0,0.88,
18.34,104.31697140773915,85.0248392185343,-1.73,0.12,-0.46,272.0,10.0,0.0,6.0,0.0,0.0,2.0,0.0,0.0,0.2,
18.365,104.33769714077391,85.10148392185343,-0.73,-0.14,-0.66,77.0,10.0,0.0,5.0,0.0,0.0,2.0,0.0,0.0,0.0,
18.39,104.34876971407738,85.15414839218535,-1.85,-0.92,-0.24,73.0,10.0,0.0,5.0,0.0,0.0,1.0,0.0,0.0,0.0,
18.414,104.43087697140773,85.20441483921853,-1.53,-0.05,1.76,225.0,10.0,0.0,4.0,0.0,0.0,1.0,0.0,0.0,0.0,
18.438,104.41208769714076,85.18244148392186,-2.69,-1.47,0.69,134.0,10.0,0.0,4.0,0.0,0.0,1.0,0.0,0.0,0.0,
18.462,104.40120876971409,85.21624414839219,-3.07,-1.85,0.25,272.0,10.0,0.0,5.0,0.0,0.0,1.0,0.0,0.0,0.2,
18.487,104.36412087697141,85.21062441483922,-3.34,-2.28,-0.45,152.0,10.0,0.0,4.0,0.0,0.0,1.0,0.0,0.0,0.88,
18.511,104.33341208769714,85.23706244148391,-3.37,-2.28,-0.21,175.0,10.0,0.0,4.0,0.0,0.0,1.0,0.0,0.0,0.88,
18.536,104.28534120876972,85.23970624414838,-2.88,-1.87,-0.19,118.0,10.0,0.0,4.0,0.0,0.0,1.0,0.0,0.0,0.29,
18.56,104.25353412087698,85.23997062441484,-3.01,-1.4,-0.15,206.0,10.0,0.0,4.0,0.0,0.0,1.0,0.0,0.0,0.29,
18.584,104.2413534120877,85.25799706244149,-2.51,-1.14,-0.08,73.0,10.0,0.0,4.0,0.0,0.0,1.0,0.0,0.0,0.39,
18.609,104.23113534120877,85.24179970624414,-2.36,-0.47,0.01,69.0,10.0,0.0,4.0,0.0,0.0,1.0,0.0,0.0,0.98,
18.633,104.26611353412088,85.20417997062442,-1.66,-0.44,-0.12,66.0,10.0,0.0,4.0,0.0,0.0,1.0,0.0,0.0,0.49,
18.657,104.26061135341209,85.29041799706243,-1.89,-0.5,0.49,28.0,10.0,0.0,3.0,0.0,0.0,1.0,0.0,0.0,1.18,
18.681,104.2870611353412,85.32604179970625,-2.16,-0.48,-0.09,188.0,10.0,0.0,2.0,0.0,0.0,1.0,0.0,0.0,0.2,
18.706,104.30770611353412,85.33860417997063,-2.22,-0.75,-1.26,345.0,9.0,0.0,2.0,0.0,0.0,1.0,0.0,0.0,0.98,
18.731,104.26477061135341,85.39386041799708,-2.65,-1.08,-0.27,306.0,9.0,0.0,2.0,0.0,0.0,1.0,0.0,0.0,0.1,
18.754,104.29647706113535,85.3633860417997,-3.07,-1.71,-0.08,345.0,9.0,0.0,2.0,0.0,0.0,1.0,0.0,0.0,0.1,
18.779,104.29064770611353,85.37833860417997,-3.86,-2.05,0.1,152.0,10.0,0.0,2.0,0.0,0.0,1.0,0.0,0.0,0.0,
18.803,104.32606477061135,85.43383386041799,-3.73,-2.29,0.16,383.0,9.0,0.0,2.0,0.0,0.0,1.0,0.0,0.0,0.29,
18.828,104.34760647706112,85.4573833860418,-4.46,-2.7,-0.53,383.0,9.0,0.0,2.0,0.0,0.0,1.0,0.0,0.0,0.49,
18.851,104.30476064770612,85.3787383386042,-4.55,-2.92,-0.63,522.0,10.0,0.0,2.0,0.0,0.0,1.0,0.0,0.0,0.49,
18.876,104.2824760647706,85.34387383386043,-3.89,-2.43,-0.37,522.0,10.0,0.0,2.0,0.0,0.0,1.0,0.0,0.0,0.39,
18.9,104.24424760647706,85.31338738338606,-3.53,-1.62,0.06,442.0,10.0,0.0,3.0,0.0,0.0,1.0,0.0,0.0,0.1,
18.925,104.19542476064771,85.2743387383386,-3.5,-1.35,-0.23,442.0,10.0,0.0,3.0,0.0,0.0,1.0,0.0,0.0,0.29,
18.95,104.13654247606476,85.26143387383387,-2.76,-0.75,-0.14,442.0,10.0,0.0,3.0,0.0,0.0,1.0,0.0,0.0,0.69,
18.974,104.11265424760647,85.2331433873834,-2.19,-0.26,0.81,442.0,10.0,0.0,3.0,0.0,0.0,1.0,0.0,0.0,0.78,
18.998,104.13726542476064,85.25731433873835,-2.58,-0.73,0.08,800.0,10.0,0.0,3.0,0.0,0.0,1.0,0.0,0.0,0.49,
19.022,104.13972654247605,85.30473143387384,-2.66,-1.44,-0.37,272.0,10.0,0.0,3.0,0.0,0.0,1.0,0.0,0.0,0.39,
19.047,104.1129726542476,85.29147314338739,-3.24,-1.6,-0.08,272.0,10.0,0.0,3.0,0.0,0.0,1.0,0.0,0.0,0.2,
19.072,104.09229726542478,85.28114731433875,-3.03,-1.18,0.18,345.0,10.0,0.0,3.0,0.0,0.0,1.0,0.0,0.0,0.29,
19.095,104.12622972654248,85.28911473143388,-2.98,-1.11,0.5,306.0,10.0,0.0,3.0,0.0,0.0,1.0,0.0,0.0,0.0,
19.12,104.14762297265426,85.28991147314339,-3.09,-1.31,0.3,306.0,10.0,0.0,3.0,0.0,0.0,1.0,0.0,0.0,0.0,
19.144,104.13176229726542,85.29899114731434,-3.01,-1.27,-0.06,442.0,10.0,0.0,3.0,0.0,0.0,1.0,0.0,0.0,0.39,
19.169,104.10317622972654,85.31789911473143,-2.98,-1.18,-0.7,383.0,10.0,0.0,3.0,0.0,0.0,1.0,0.0,0.0,0.39,
19.193,104.16331762297266,85.26578991147315,-2.15,-0.44,-0.21,383.0,10.0,0.0,3.0,0.0,0.0,1.0,0.0,0.0,0.49,
19.217,104.19633176229726,85.26057899114733,-1.37,0.24,0.37,345.0,10.0,0.0,3.0,0.0,0.0,1.0,0.0,0.0,0.1,
19.241,104.19063317622972,85.31405789911473,-0.84,1.08,0.51,442.0,10.0,0.0,2.0,0.0,0.0,1.0,0.0,0.0,0.0,
19.266,104.21706331762297,85.33740578991149,0.14,1.42,0.61,633.0,10.0,0.0,2.0,0.0,0.0,1.0,0.0,0.0,0.39,
19.29,104.3277063317623,85.40274057899114,0.06,1.16,0.8,442.0,9.0,0.0,2.0,0.0,0.0,1.0,0.0,0.0,0.69,
19.314,104.39277063317624,85.5532740578991,-1.42,-0.3,0.7,800.0,9.0,0.0,2.0,0.0,0.0,1.0,0.0,0.0,0.98,
19.338,104.40827706331761,85.55032740578991,-1.88,-0.29,0.27,522.0,9.0,0.0,2.0,0.0,0.0,1.0,0.0,0.0,0.59,
19.362,104.45482770633176,85.487032740579,-1.46,-0.03,1.24,522.0,9.0,0.0,2.0,0.0,0.0,1.0,0.0,0.0,0.0,
19.387,104.51348277063317,85.56170327405789,-1.18,0.03,0.99,522.0,9.0,0.0,2.0,0.0,0.0,1.0,0.0,0.0,0.29,
19.41,104.48334827706333,85.6411703274058,-1.76,-0.01,0.08,522.0,9.0,0.0,1.0,0.0,0.0,1.0,0.0,0.0,0.69,
19.435,104.52533482770633,85.61311703274059,-1.99,-0.18,-0.05,633.0,9.0,0.0,1.0,0.0,0.0,1.0,0.0,0.0,1.08,
19.46,104.58353348277063,85.66431170327407,-1.89,0.19,0.66,633.0,9.0,0.0,1.0,0.0,0.0,1.0,0.0,0.0,1.08,
19.483,104.58935334827706,85.7144311703274,-1.77,-0.33,0.46,633.0,9.0,0.0,1.0,0.0,0.0,1.0,0.0,0.0,0.1,
19.508,104.5809353348277,85.71044311703274,-2.44,-0.9,0.37,800.0,9.0,0.0,1.0,0.0,0.0,1.0,0.0,0.0,0.0,
19.532,104.58009353348277,85.77304431170327,-2.35,-0.81,0.52,633.0,9.0,0.0,2.0,0.0,0.0,1.0,0.0,0.0,0.0,
19.557,104.59800935334827,85.82430443117033,-2.21,-0.69,0.44,633.0,9.0,0.0,1.0,0.0,0.0,1.0,0.0,0.0,0.0,
19.58,104.72580093533482,85.85643044311703,-2.05,-0.34,0.17,633.0,9.0,0.0,2.0,0.0,0.0,1.0,0.0,0.0,0.0,
19.605,104.77458009353349,85.94064304431171,-2.41,-0.89,-0.07,633.0,9.0,0.0,2.0,0.0,0.0,1.0,0.0,0.0,0.39,
19.63,104.78845800935335,85.94006430443117,-2.17,-1.18,-0.44,633.0,9.0,0.0,2.0,0.0,0.0,1.0,0.0,0.0,0.29,
19.653,104.78084580093534,85.96700643044312,-2.66,-0.38,-0.43,633.0,9.0,0.0,2.0,0.0,0.0,1.0,0.0,0.0,0.78,
19.678,104.86108458009355,85.95170064304432,-2.97,-0.73,0.56,522.0,9.0,0.0,2.0,0.0,0.0,1.0,0.0,0.0,0.49,
19.702,104.84210845800936,85.99517006430443,-2.86,-0.85,0.01,633.0,9.0,0.0,2.0,0.0,0.0,1.0,0.0,0.0,0.78,
19.726,104.86721084580094,86.00851700643045,-2.61,-1.24,-0.07,633.0,9.0,0.0,2.0,0.0,0.0,1.0,0.0,0.0,0.49,
19.75,104.8697210845801,86.00985170064305,-2.27,-0.46,0.66,633.0,9.0,0.0,2.0,0.0,0.0,1.0,0.0,0.0,0.88,
19.775,104.89697210845802,85.9649851700643,-1.38,-0.02,0.12,633.0,9.0,0.0,2.0,0.0,0.0,1.0,0.0,0.0,0.88,
19.8,104.9086972108458,86.10449851700643,-1.18,-0.3,0.4,522.0,9.0,0.0,2.0,0.0,0.0,1.0,0.0,0.0,0.39,
19.823,104.90986972108458,86.12744985170063,-1.34,-0.18,0.73,633.0,9.0,0.0,2.0,0.0,0.0,1.0,0.0,0.0,0.29,
19.848,104.88298697210845,86.18374498517007,-1.71,-0.63,0.68,633.0,9.0,0.0,1.0,0.0,0.0,1.0,0.0,0.0,0.0,
19.872,104.93429869721083,86.189374498517,-2.62,-0.85,0.27,1077.0,9.0,0.0,2.0,0.0,0.0,1.0,0.0,0.0,0.39,
19.896,104.96642986972108,86.2079374498517,-3.32,-1.1,0.24,800.0,9.0,0.0,2.0,0.0,0.0,1.0,0.0,0.0,0.0,
19.92,104.9876429869721,86.24579374498516,-3.96,-1.79,-0.18,633.0,9.0,0.0,2.0,0.0,0.0,1.0,0.0,0.0,0.0,
19.945,104.98976429869721,86.23157937449851,-4.35,-2.02,-0.11,633.0,9.0,0.0,2.0,0.0,0.0,1.0,0.0,0.0,0.1,
19.969,104.91797642986971,86.18515793744986,-3.69,-1.19,0.02,522.0,9.0,0.0,2.0,0.0,0.0,1.0,0.0,0.0,0.29,
19.993,104.87479764298698,86.19851579374499,-3.38,-0.66,0.58,522.0,10.0,0.0,2.0,0.0,0.0,1.0,0.0,0.0,0.2,
20.018,104.9154797642987,86.2268515793745,-3.21,-1.2,0.35,633.0,10.0,0.0,2.0,0.0,0.0,1.0,0.0,0.0,0.2,
20.042,104.89254797642987,86.22068515793745,-3.66,-1.68,-0.02,633.0,10.0,0.0,2.0,0.0,0.0,1.0,0.0,0.0,0.0,
20.066,104.899254797643,86.22006851579374,-3.6,-1.5,0.24,800.0,10.0,0.0,3.0,0.0,0.0,1.0,0.0,0.0,0.39,
20.09,104.92692547976431,86.14800685157937,-2.88,-1.11,0.59,633.0,10.0,0.0,3.0,0.0,0.0,1.0,0.0,0.0,0.69,
20.115,104.91169254797643,86.13180068515793,-3.08,-1.4,0.15,633.0,10.0,0.0,3.0,0.0,0.0,1.0,0.0,0.0,0.59,
20.14,104.91916925479764,86.03118006851578,-3.6,-1.63,0.08,800.0,10.0,0.0,3.0,0.0,0.0,1.0,0.0,0.0,0.49,
20.164,104.93791692547975,86.07511800685157,-3.66,-1.85,0.15,633.0,10.0,0.0,3.0,0.0,0.0,1.0,0.0,0.0,0.0,
20.188,104.90379169254798,86.14251180068517,-3.89,-2.18,0.37,633.0,10.0,0.0,3.0,0.0,0.0,1.0,0.0,0.0,0.2,
20.212,104.82837916925479,86.02325118006853,-3.73,-2.27,0.02,633.0,10.0,0.0,4.0,0.0,0.0,1.0,0.0,0.0,0.59,
20.237,104.78483791692548,85.95732511800685,-3.74,-2.24,0.64,800.0,10.0,0.0,4.0,0.0,0.0,1.0,0.0,0.0,0.88,
20.261,104.76248379169255,85.95073251180068,-3.8,-2.3,0.37,800.0,10.0,0.0,5.0,0.0,0.0,1.0,0.0,0.0,0.78,
20.285,104.71524837916924,85.94107325118007,-3.18,-1.37,0.79,633.0,10.0,0.0,5.0,0.0,0.0,1.0,0.0,0.0,0.49,
20.31,104.66552483791692,85.913107325118,-3.05,-1.62,0.49,633.0,10.0,0.0,5.0,0.0,0.0,1.0,0.0,0.0,0.29,
20.334,104.66955248379169,85.9103107325118,-3.73,-2.04,0.24,800.0,10.0,0.0,5.0,0.0,0.0,1.0,0.0,0.0,0.1,
20.359,104.65195524837917,85.88303107325117,-3.7,-2.11,0.32,800.0,10.0,0.0,5.0,0.0,0.0,1.0,0.0,0.0,0.0,
20.382,104.61419552483791,85.89830310732512,-4.24,-2.37,0.94,800.0,10.0,0.0,5.0,0.0,0.0,1.0,0.0,0.0,0.0,
20.407,104.61941955248379,85.96283031073251,-4.04,-2.12,0.46,800.0,10.0,0.0,6.0,0.0,0.0,1.0,0.0,0.0,0.29,
20.431,104.58394195524838,85.90628303107326,-3.35,-2.02,-0.01,800.0,10.0,0.0,6.0,0.0,0.0,1.0,0.0,0.0,0.49,
20.456,104.56239419552483,85.87362830310732,-3.51,-1.58,0.27,800.0,10.0,0.0,6.0,0.0,0.0,1.0,0.0,0.0,0.59,
20.48,104.56023941955247,85.78936283031072,-2.96,-0.98,0.02,800.0,10.0,0.0,6.0,0.0,0.0,1.0,0.0,0.0,0.2,
20.504,104.55102394195524,85.79893628303107,-2.92,-1.08,-0.05,800.0,10.0,0.0,6.0,0.0,0.0,1.0,0.0,0.0,0.0,
20.529,104.58610239419552,85.79989362830311,-2.84,-0.97,-0.13,3300.0,10.0,0.0,6.0,0.0,0.0,1.0,0.0,0.0,0.2,
20.553,104.58061023941954,85.79098936283032,-3.13,-1.27,0.27,800.0,10.0,0.0,6.0,0.0,0.0,1.0,0.0,0.0,1.28,
20.578,104.58006102394195,85.76309893628304,-3.5,-1.57,0.14,800.0,10.0,0.0,6.0,0.0,0.0,1.0,0.0,0.0,0.49,
20.602,104.55300610239419,85.7513098936283,-3.42,-1.4,-0.11,800.0,10.0,0.0,7.0,0.0,0.0,1.0,0.0,0.0,0.69,
20.627,104.52330061023942,85.73213098936284,-3.18,-0.93,0.59,800.0,10.0,0.0,7.0,0.0,0.0,1.0,0.0,0.0,0.0,
20.652,104.53833006102396,85.73921309893628,-2.65,-0.79,0.18,800.0,10.0,0.0,7.0,0.0,0.0,1.0,0.0,0.0,0.1,
20.675,104.5848330061024,85.79392130989362,-2.27,-0.82,0.14,800.0,10.0,0.0,7.0,0.0,0.0,1.0,0.0,0.0,0.2,
20.7,104.60748330061024,85.82639213098936,-2.6,-0.44,0.83,800.0,10.0,0.0,7.0,0.0,0.0,1.0,0.0,0.0,0.59,
20.724,104.60074833006102,85.89263921309893,-2.85,-1.3,0.0,800.0,10.0,0.0,7.0,0.0,0.0,1.0,0.0,0.0,0.1,
20.749,104.6270748330061,85.8452639213099,-2.52,-0.24,0.24,800.0,10.0,0.0,7.0,0.0,0.0,1.0,0.0,0.0,0.49,
20.772,104.6117074833006,85.85852639213098,-1.92,-0.05,0.72,800.0,10.0,0.0,7.0,0.0,0.0,1.0,0.0,0.0,0.98,
20.797,104.60117074833006,85.8418526392131,-2.44,-1.19,0.48,800.0,10.0,0.0,7.0,0.0,0.0,1.0,0.0,0.0,0.49,
20.822,104.59111707483301,85.86718526392131,-3.31,-1.44,-0.02,633.0,10.0,0.0,7.0,0.0,0.0,1.0,0.0,0.0,0.2,
20.846,104.6801117074833,85.86071852639213,-3.28,-1.55,0.02,633.0,10.0,0.0,7.0,0.0,0.0,1.0,0.0,0.0,0.1,
20.87,104.65301117074833,85.88707185263921,-3.02,-1.27,0.31,633.0,10.0,0.0,7.0,0.0,0.0,1.0,0.0,0.0,0.49,
20.894,104.65930111707483,85.91670718526392,-2.74,-1.4,0.48,633.0,10.0,0.0,7.0,0.0,0.0,1.0,0.0,0.0,0.98,
20.919,104.70493011170747,85.92867071852639,-2.66,-1.36,-0.08,633.0,10.0,0.0,7.0,0.0,0.0,1.0,0.0,0.0,0.88,
20.943,104.73649301117074,85.97486707185264,-2.96,-1.63,-0.04,633.0,10.0,0.0,7.0,0.0,0.0,1.0,0.0,0.0,0.88,
20.968,104.73964930111705,85.95248670718527,-2.92,-1.26,0.12,633.0,10.0,0.0,7.0,0.0,0.0,1.0,0.0,0.0,0.39,
20.992,104.75796493011171,85.97724867071852,-2.94,-1.56,0.16,633.0,10.0,0.0,7.0,0.0,0.0,1.0,0.0,0.0,0.29,
21.016,104.73279649301118,85.95272486707185,-3.37,-2.01,-0.14,633.0,10.0,0.0,7.0,0.0,0.0,1.0,0.0,0.0,0.0,
21.041,104.73027964930112,85.91427248670719,-3.75,-1.66,-0.51,522.0,10.0,0.0,7.0,0.0,0.0,1.0,0.0,0.0,0.0,
21.065,104.68502796493011,85.88342724867071,-3.23,-1.49,-0.37,633.0,10.0,0.0,8.0,0.0,0.0,1.0,0.0,0.0,0.0,
21.09,104.65350279649302,85.85334272486708,-2.92,-1.27,-0.23,633.0,10.0,0.0,7.0,0.0,0.0,1.0,0.0,0.0,0.39,
21.114,104.6773502796493,85.8413342724867,-2.81,-1.0,0.14,522.0,10.0,0.0,7.0,0.0,0.0,1.0,0.0,0.0,0.59,
21.138,104.70673502796492,85.84013342724867,-2.3,-0.72,-0.2,522.0,10.0,0.0,6.0,0.0,0.0,1.0,0.0,0.0,0.1,
21.163,104.68267350279649,85.87601334272486,-2.07,-0.1,0.53,633.0,10.0,0.0,6.0,0.0,0.0,1.0,0.0,0.0,0.29,
21.187,104.64426735027965,85.9246013342725,-2.24,-0.11,-0.15,633.0,10.0,0.0,6.0,0.0,0.0,1.0,0.0,0.0,0.29,
21.212,104.71242673502796,85.88446013342725,-2.21,-0.97,-0.1,633.0,10.0,0.0,8.0,0.0,0.0,1.0,0.0,0.0,0.39,
21.236,104.73724267350278,85.89844601334272,-2.91,-0.73,0.13,633.0,10.0,0.0,6.0,0.0,0.0,1.0,0.0,0.0,0.78,
21.26,104.73972426735027,85.91784460133428,-2.5,-0.37,0.3,633.0,10.0,0.0,6.0,0.0,0.0,1.0,0.0,0.0,0.88,
21.284,104.78497242673504,85.99178446013343,-2.08,-0.91,0.11,522.0,10.0,0.0,6.0,0.0,0.0,1.0,0.0,0.0,0.59,
21.309,104.7624972426735,85.99917844601335,-2.27,-0.69,0.05,522.0,10.0,0.0,6.0,0.0,0.0,1.0,0.0,0.0,0.29,
21.334,104.76924972426734,86.02691784460134,-2.46,-1.31,0.09,442.0,10.0,0.0,6.0,0.0,0.0,1.0,0.0,0.0,0.49,
21.358,104.76092497242674,86.08369178446014,-3.3,-1.55,0.05,522.0,10.0,0.0,6.0,0.0,0.0,1.0,0.0,0.0,0.0,
21.382,104.83209249724268,86.107369178446,-3.69,-1.47,-0.39,442.0,10.0,0.0,6.0,0.0,0.0,1.0,0.0,0.0,0.0,
21.406,104.85720924972426,86.0737369178446,-3.21,-1.38,-0.2,633.0,10.0,0.0,6.0,0.0,0.0,1.0,0.0,0.0,0.0,
21.431,104.81472092497243,86.08837369178447,-3.73,-1.57,-0.18,522.0,10.0,0.0,6.0,0.0,0.0,1.0,0.0,0.0,0.29,
21.455,104.81047209249725,86.05383736917844,-3.45,-1.6,-0.05,633.0,10.0,0.0,6.0,0.0,0.0,1.0,0.0,0.0,0.39,
21.48,104.83704720924973,86.04138373691785,-2.89,-1.24,0.22,800.0,10.0,0.0,6.0,0.0,0.0,1.0,0.0,0.0,0.2,
21.504,104.86670472092499,86.05813837369179,-2.98,-1.36,-0.14,800.0,10.0,0.0,6.0,0.0,0.0,1.0,0.0,0.0,0.1,
21.528,104.89667047209251,86.01481383736919,-3.23,-1.66,-0.04,633.0,10.0,0.0,6.0,0.0,0.0,1.0,0.0,0.0,0.2,
21.553,104.89066704720925,86.01948138373692,-3.26,-1.11,0.17,800.0,10.0,0.0,6.0,0.0,0.0,1.0,0.0,0.0,0.59,
21.577,104.86306670472092,85.96594813837368,-2.98,-1.44,0.05,800.0,10.0,0.0,6.0,0.0,0.0,1.0,0.0,0.0,0.88,
21.602,104.90530667047209,85.95159481383737,-3.32,-1.52,-0.36,800.0,10.0,0.0,6.0,0.0,0.0,1.0,0.0,0.0,0.59,
21.625,104.90053066704722,85.96815948138374,-3.35,-1.89,0.08,800.0,10.0,0.0,7.0,0.0,0.0,1.0,0.0,0.0,0.39,
21.65,104.87305306670473,85.94281594813837,-3.24,-1.42,-0.3,800.0,10.0,0.0,6.0,0.0,0.0,1.0,0.0,0.0,0.29,
21.675,104.85230530667046,85.94028159481384,-3.16,-1.0,-0.05,633.0,10.0,0.0,6.0,0.0,0.0,1.0,0.0,0.0,0.29,
21.699,104.88623053066704,85.90402815948138,-2.97,-0.98,-0.15,800.0,10.0,0.0,7.0,0.0,0.0,1.0,0.0,0.0,0.0,
21.724,104.8806230530667,85.95440281594813,-2.95,-1.23,0.15,800.0,10.0,0.0,6.0,0.0,0.0,1.0,0.0,0.0,0.0,
21.747,104.88006230530667,85.9594402815948,-3.04,-1.6,-0.06,1633.0,10.0,0.0,7.0,0.0,0.0,1.0,0.0,0.0,0.1,
21.772,104.84400623053067,85.96894402815948,-3.81,-1.91,-0.05,633.0,10.0,0.0,6.0,0.0,0.0,1.0,0.0,0.0,0.49,
21.796,104.84040062305307,85.93389440281595,-3.84,-1.84,-0.12,800.0,10.0,0.0,7.0,0.0,0.0,1.0,0.0,0.0,0.49,
21.821,104.8130400623053,85.9483894402816,-3.79,-1.73,0.18,800.0,10.0,0.0,6.0,0.0,0.0,1.0,0.0,0.0,0.2,
21.846,104.85530400623053,85.94083894402816,-3.82,-1.74,-0.15,1077.0,10.0,0.0,7.0,0.0,0.0,1.0,0.0,0.0,0.1,
21.87,104.82353040062304,85.94908389440282,-3.21,-1.41,-0.01,633.0,10.0,0.0,8.0,0.0,0.0,1.0,0.0,0.0,0.2,
21.894,104.8293530400623,85.96790838944028,-3.15,-1.1,0.01,800.0,10.0,0.0,7.0,0.0,0.0,1.0,0.0,0.0,0.49,
21.918,104.82993530400623,86.00579083894404,-2.8,-0.91,0.01,800.0,10.0,0.0,8.0,0.0,0.0,1.0,0.0,0.0,0.88,
21.943,104.86599353040063,85.9915790838944,-2.27,-0.87,0.12,800.0,11.0,0.0,8.0,0.0,0.0,1.0,0.0,0.0,0.78,
21.967,104.87859935304006,85.98115790838945,-2.57,-1.23,0.02,800.0,10.0,0.0,7.0,0.0,0.0,1.0,0.0,0.0,0.39,
21.991,104.906859935304,85.99811579083895,-2.61,-0.6,0.04,800.0,10.0,0.0,7.0,0.0,0.0,1.0,0.0,0.0,0.2,
22.016,104.91868599353039,86.0538115790839,-2.22,-0.94,0.12,800.0,10.0,0.0,7.0,0.0,0.0,1.0,0.0,0.0,0.49,
22.04,104.90186859935305,86.04138115790839,-3.08,-1.79,-0.11,800.0,10.0,0.0,7.0,0.0,0.0,1.0,0.0,0.0,0.98,
22.065,104.87318685993532,86.04913811579083,-3.29,-1.6,-0.02,800.0,10.0,0.0,7.0,0.0,0.0,1.0,0.0,0.0,0.2,
22.089,104.89731868599354,86.04091381157909,-3.25,-2.11,0.1,800.0,10.0,0.0,7.0,0.0,0.0,1.0,0.0,0.0,0.29,
22.113,104.81873186859936,86.03109138115792,-3.31,-1.54,0.03,800.0,10.0,0.0,7.0,0.0,0.0,1.0,0.0,0.0,0.39,
22.137,104.81087318685994,86.04810913811579,-3.47,-1.6,0.01,800.0,10.0,0.0,7.0,0.0,0.0,1.0,0.0,0.0,0.29,
22.162,104.810087318686,86.07681091381157,-3.78,-1.91,0.24,800.0,10.0,0.0,7.0,0.0,0.0,1.0,0.0,0.0,0.1,
22.187,104.77400873186859,86.04368109138116,-3.89,-2.08,-0.4,522.0,10.0,0.0,8.0,0.0,0.0,1.0,0.0,0.0,0.0,
22.21,104.74340087318684,86.0673681091381,-3.59,-2.12,0.07,800.0,11.0,0.0,8.0,0.0,0.0,1.0,0.0,0.0,0.29,
22.235,104.68634008731868,86.0787368109138,-3.32,-2.03,0.27,800.0,11.0,0.0,8.0,0.0,0.0,1.0,0.0,0.0,0.49,
22.259,104.67163400873187,86.05287368109137,-3.06,-1.28,0.08,800.0,11.0,0.0,8.0,0.0,0.0,1.0,0.0,0.0,0.59,
22.284,104.6971634008732,86.03228736810914,-3.08,-1.59,0.31,633.0,11.0,0.0,8.0,0.0,0.0,1.0,0.0,0.0,0.59,
22.308,104.69971634008732,86.03022873681093,-3.65,-1.73,0.02,633.0,11.0,0.0,8.0,0.0,0.0,1.0,0.0,0.0,0.29,
22.332,104.69997163400873,85.99402287368108,-3.58,-1.85,0.2,633.0,11.0,0.0,8.0,0.0,0.0,1.0,0.0,0.0,0.39,
22.356,104.68199716340088,85.95440228736811,-3.55,-2.13,0.28,633.0,11.0,0.0,8.0,0.0,0.0,1.0,0.0,0.0,0.69,
22.381,104.61719971634008,85.95044022873681,-3.6,-1.99,-0.02,800.0,11.0,0.0,8.0,0.0,0.0,1.0,0.0,0.0,0.98,
22.406,104.64671997163401,85.96804402287368,-3.24,-1.27,0.41,633.0,11.0,0.0,8.0,0.0,0.0,1.0,0.0,0.0,0.88,
22.429,104.6946719971634,85.98780440228735,-3.66,-1.75,0.17,633.0,11.0,0.0,8.0,0.0,0.0,1.0,0.0,0.0,0.39,
22.454,104.65446719971634,85.89078044022874,-3.31,-1.11,-0.04,800.0,11.0,0.0,8.0,0.0,0.0,1.0,0.0,0.0,0.2,
22.478,104.65944671997164,85.87207804402287,-2.96,-1.58,0.14,633.0,11.0,0.0,8.0,0.0,0.0,1.0,0.0,0.0,0.2,
22.503,104.62394467199717,85.83420780440228,-3.23,-1.32,0.16,800.0,11.0,0.0,9.0,0.0,0.0,2.0,0.0,0.0,0.0,
22.526,104.62039446719972,85.83042078044022,-3.26,-1.53,-0.02,633.0,11.0,0.0,8.0,0.0,0.0,2.0,0.0,0.0,0.0,
22.551,104.60203944671997,85.84804207804402,-3.2,-1.41,0.15,800.0,11.0,0.0,8.0,0.0,0.0,2.0,0.0,0.0,0.29,
22.576,104.60020394467199,85.79580420780441,-3.26,-1.37,0.28,633.0,11.0,0.0,9.0,0.0,0.0,2.0,0.0,0.0,0.59,
22.6,104.57302039446719,85.80858042078044,-3.18,-1.44,0.31,633.0,11.0,0.0,8.0,0.0,0.0,2.0,0.0,0.0,0.69,
22.625,104.60630203944672,85.82785804207805,-3.44,-1.45,-0.27,522.0,11.0,0.0,9.0,0.0,0.0,2.0,0.0,0.0,0.39,
22.648,104.60063020394468,85.79378580420781,-3.15,-1.28,0.27,633.0,11.0,0.0,8.0,0.0,0.0,2.0,0.0,0.0,0.29,
22.673,104.58206302039446,85.79937858042078,-2.9,-1.41,0.1,633.0,11.0,0.0,9.0,0.0,0.0,2.0,0.0,0.0,0.29,
22.697,104.61620630203944,85.82693785804207,-3.12,-1.27,0.08,633.0,11.0,0.0,9.0,0.0,0.0,2.0,0.0,0.0,0.69,
22.722,104.62862063020394,85.80269378580421,-3.35,-1.51,-0.06,633.0,11.0,0.0,9.0,0.0,0.0,2.0,0.0,0.0,0.98,
22.747,104.6298620630204,85.80926937858042,-3.59,-1.6,0.26,800.0,11.0,0.0,10.0,0.0,0.0,2.0,0.0,0.0,0.78,
22.771,104.62098620630204,85.76492693785805,-3.44,-1.73,-0.34,633.0,11.0,0.0,9.0,0.0,0.0,2.0,0.0,0.0,0.78,
22.795,104.6560986206302,85.80549269378581,-3.34,-1.44,0.05,633.0,11.0,0.0,9.0,0.0,0.0,2.0,0.0,0.0,0.59,
22.819,104.64160986206302,85.64754926937857,-2.82,-1.34,-0.69,633.0,11.0,0.0,9.0,0.0,0.0,2.0,0.0,0.0,0.1,
22.844,104.6041609862063,85.62275492693786,-3.02,-1.27,0.34,633.0,11.0,0.0,9.0,0.0,0.0,2.0,0.0,0.0,0.0,
22.868,104.65441609862063,85.65627549269378,-3.05,-1.4,0.32,633.0,11.0,0.0,9.0,0.0,0.0,2.0,0.0,0.0,0.1,
22.892,104.67744160986206,85.69562754926939,-2.8,-1.16,0.52,633.0,11.0,0.0,9.0,0.0,0.0,2.0,0.0,0.0,0.39,
22.917,104.6347441609862,85.70856275492693,-3.14,-1.97,0.24,633.0,11.0,0.0,9.0,0.0,0.0,2.0,0.0,0.0,0.49,
22.941,104.59447441609862,85.71885627549268,-2.87,-1.8,0.2,442.0,11.0,0.0,10.0,0.0,0.0,2.0,0.0,0.0,0.49,
22.966,104.61744744160985,85.69288562754926,-3.05,-1.95,0.61,633.0,11.0,0.0,10.0,0.0,0.0,2.0,0.0,0.0,0.2,
22.99,104.65574474416098,85.77128856275492,-3.21,-1.47,-0.11,442.0,11.0,0.0,9.0,0.0,0.0,2.0,0.0,0.0,0.2,
23.014,104.6415744744161,85.75212885627549,-3.33,-1.5,-0.38,633.0,11.0,0.0,10.0,0.0,0.0,2.0,0.0,0.0,0.39,
23.038,104.58615744744161,85.75021288562755,-3.04,-1.4,-0.05,633.0,11.0,0.0,10.0,0.0,0.0,2.0,0.0,0.0,0.59,
23.063,104.54461574474416,85.72302128856275,-3.27,-1.31,-0.05,633.0,11.0,0.0,10.0,0.0,0.0,2.0,0.0,0.0,0.88,
23.088,104.5044615744744,85.72030212885628,-3.51,-1.78,-0.32,633.0,11.0,0.0,10.0,0.0,0.0,2.0,0.0,0.0,0.69,
23.112,104.50944615744746,85.72003021288562,-3.56,-1.48,-0.5,633.0,11.0,0.0,10.0,0.0,0.0,2.0,0.0,0.0,0.69,
23.137,104.54594461574474,85.75600302128858,-3.0,-1.26,-0.14,522.0,11.0,0.0,10.0,0.0,0.0,2.0,0.0,0.0,0.59,
23.161,104.51359446157448,85.75960030212887,-3.18,-0.89,-0.21,633.0,11.0,0.0,8.0,0.0,0.0,2.0,0.0,0.0,0.0,
23.186,104.58235944615744,85.68796003021289,-2.69,-0.85,0.24,800.0,11.0,0.0,10.0,0.0,0.0,2.0,0.0,0.0,0.0,
23.211,104.54423594461575,85.6807960030213,-2.77,-1.12,0.15,633.0,11.0,0.0,10.0,0.0,0.0,2.0,0.0,0.0,0.0,
23.235,104.53142359446157,85.67107960030214,-2.86,-1.23,0.04,1077.0,11.0,0.0,10.0,0.0,0.0,2.0,0.0,0.0,0.39,
