time,pitch,roll,gyrx,gyry,gyrz,f1,f2,f3,f4,f5,f6,f7,g1,g2,g3
0.364,48.56,14.12,-3.0,0.0,0.0,0,2,0,0,0,0,0,0.00,0.00,0.00,
0.377,54.014,15.65,-4.0,-2.0,0.0,0,2,0,0,0,0,0,0.00,0.00,0.10,
0.391,59.5274,17.171,-5.0,-3.0,0.0,0,2,0,0,0,0,0,0.00,0.00,0.10,
0.404,64.45274,18.5561,-6.0,-4.0,0.0,0,2,0,0,0,0,0,0.00,0.00,0.10,
0.418,68.590274,19.80161,-6.0,-3.0,-3.0,0,2,0,0,0,0,0,0.00,0.00,0.10,
0.432,71.8210274,20.889161,-5.0,-1.0,-4.0,0,2,0,0,0,0,0,0.00,0.00,0.20,
0.445,74.57410274,21.744916099999998,-4.0,-1.0,-4.0,0,2,0,0,0,0,0,0.00,0.00,0.29,
0.458,76.991410274,22.50549161,-4.0,-1.0,-4.0,0,2,0,0,0,0,0,0.00,0.00,0.29,
0.472,79.28514102740002,23.112549161,-4.0,-2.0,-2.0,0,2,0,0,0,0,0,0.10,0.00,0.20,
0.486,81.31451410274,23.7042549161,-3.0,-1.0,-1.0,0,2,0,0,0,0,0,0.00,0.00,0.20,
0.499,82.89445141027399,24.41142549161,-3.0,0.0,0.0,0,2,0,0,0,0,0,0.00,0.00,0.20,
0.513,84.1504451410274,24.977142549161,-2.0,0.0,0.0,0,2,0,0,0,0,0,0.00,0.00,0.20,
0.526,85.31104451410275,25.402714254916102,-1.0,0.0,0.0,0,2,0,0,0,0,0,0.00,0.00,0.29,
0.539,86.39010445141028,25.643271425491612,-1.0,0.0,-1.0,0,2,0,0,0,0,0,0.00,0.00,0.29,
0.552,87.17301044514103,25.757327142549162,-1.0,0.0,-1.0,0,2,0,0,0,0,0,0.00,0.00,0.20,
0.566,87.3143010445141,25.885732714254914,-1.0,0.0,-1.0,0,2,0,0,0,0,0,0.00,0.00,0.20,
0.579,87.21143010445141,26.069573271425494,-2.0,0.0,-2.0,0,2,0,0,0,0,0,0.00,0.00,0.29,
0.592,87.28214301044514,26.26795732714255,-2.0,0.0,-1.0,0,2,0,0,0,0,0,0.00,0.00,0.29,
0.607,87.78421430104453,26.431795732714253,-1.0,-1.0,-1.0,0,2,0,0,0,0,0,0.00,0.00,0.29,
0.62,88.52742143010445,26.439179573271428,-1.0,0.0,-1.0,0,2,0,0,0,0,0,0.00,0.00,0.29,
0.633,88.99774214301044,26.49391795732714,0.0,0.0,-1.0,0,2,0,0,0,0,0,0.00,0.00,0.29,
0.647,89.10777421430106,26.391391795732716,0.0,0.0,-1.0,0,2,0,0,0,0,0,0.00,0.00,0.29,
0.66,88.9207774214301,26.29113917957327,-1.0,0.0,-1.0,0,2,0,0,0,0,0,0.00,0.00,0.29,
0.673,88.83907774214302,26.13711391795733,-2.0,0.0,0.0,0,2,0,0,0,0,0,0.00,0.00,0.29,
0.687,88.7589077742143,26.11271139179573,-4.0,0.0,0.0,0,2,0,0,0,0,0,0.00,0.00,0.20,
0.7,88.72389077742143,26.13727113917957,-4.0,0.0,0.0,0,2,0,0,0,0,0,0.00,0.00,0.10,
0.713,88.74738907774214,26.076727113917958,-4.0,-1.0,0.0,0,2,0,0,0,0,0,0.00,0.00,0.20,
0.727,88.88473890777422,25.989672711391798,-4.0,-2.0,-1.0,0,2,0,0,0,0,0,0.00,0.00,0.29,
0.74,89.06947389077743,25.82796727113918,-4.0,-2.0,-3.0,0,2,0,0,0,0,0,0.00,0.00,0.29,
0.754,89.28594738907775,25.74879672711392,-4.0,-1.0,-4.0,0,2,0,0,0,0,0,0.00,0.00,0.29,
0.768,89.33459473890778,25.767879672711395,-3.0,-1.0,-3.0,0,2,0,0,0,0,0,0.00,0.00,0.29,
0.781,89.58245947389078,25.796787967271143,-3.0,-1.0,-2.0,0,2,0,0,0,0,0,0.00,0.00,0.29,
0.794,89.78724594738908,25.799678796727115,-4.0,-1.0,0.0,0,2,0,0,0,0,0,0.00,0.00,0.20,
0.807,90.17672459473891,25.862967879672713,-4.0,-1.0,0.0,0,2,0,0,0,0,0,0.00,0.00,0.20,
0.821,90.71067245947388,26.094296787967274,-4.0,-1.0,0.0,0,2,0,0,0,0,0,0.00,0.00,0.20,
0.835,91.53806724594739,26.369429678796724,-3.0,0.0,0.0,0,2,0,0,0,0,0,0.00,0.00,0.29,
0.848,92.07080672459475,26.666942967879674,-2.0,0.0,-2.0,0,2,0,0,0,0,0,0.00,0.00,0.20,
0.862,92.06108067245947,26.83169429678797,-2.0,0.0,-3.0,0,2,0,0,0,0,0,0.00,0.00,0.29,
0.875,91.28610806724595,26.812169429678793,-2.0,1.0,-3.0,0,2,0,0,0,0,0,0.00,0.00,0.20,
0.888,89.86761080672458,26.747216942967878,-2.0,1.0,-2.0,0,2,0,0,0,0,0,0.00,0.00,0.20,
0.902,88.70876108067245,26.659721694296785,-2.0,-1.0,-2.0,0,2,0,0,0,0,0,0.10,0.00,0.29,
0.915,88.18787610806723,26.76797216942968,-2.0,-2.0,-1.0,0,2,0,0,0,0,0,0.00,0.00,0.29,
0.929,88.82878761080673,26.805797216942963,0.0,-3.0,-1.0,0,2,0,0,0,0,0,0.00,0.00,0.29,
0.943,89.56787876108068,26.863579721694297,0.0,-3.0,-1.0,0,2,0,0,0,0,0,0.00,0.00,0.29,
0.956,90.42478787610807,27.049357972169428,0.0,-1.0,-2.0,0,2,0,0,0,0,0,0.00,0.00,0.29,
0.969,90.9334787876108,27.121935797216942,0.0,0.0,-2.0,0,2,0,0,0,0,0,0.10,0.00,0.29,
0.983,91.46134787876107,27.012193579721693,0.0,1.0,-2.0,0,2,0,0,0,0,0,0.10,0.00,0.29,
0.996,91.88313478787612,26.91121935797217,-1.0,1.0,-3.0,0,2,0,0,0,0,0,0.10,0.00,0.20,
1.009,92.0153134787876,26.820121935797214,0.0,0.0,-4.0,0,2,0,0,0,0,0,0.00,0.00,0.20,
1.022,91.76753134787876,26.85601219357972,0.0,0.0,-4.0,0,2,0,0,0,0,0,0.10,0.00,0.20,
1.036,91.51775313478787,26.77860121935797,0.0,0.0,-3.0,0,2,0,0,0,0,0,0.00,0.00,0.10,
1.049,91.31277531347878,26.6808601219358,-2.0,-1.0,-2.0,0,2,0,0,0,0,0,0.10,0.00,0.20,
1.062,91.08527753134788,26.437086012193582,-3.0,-1.0,-1.0,0,2,0,0,0,0,0,0.00,0.00,0.20,
1.077,91.05352775313477,26.30470860121936,-2.0,-1.0,-1.0,0,2,0,0,0,0,0,0.00,0.00,0.10,
1.09,91.26635277531348,26.309470860121934,-1.0,0.0,-1.0,0,2,0,0,0,0,0,0.00,0.00,0.39,
1.103,91.70163527753135,26.255947086012192,0.0,0.0,-1.0,0,2,0,0,0,0,0,0.00,0.00,0.29,
1.117,91.91616352775313,26.115594708601222,-1.0,0.0,-1.0,0,2,0,0,0,0,0,0.10,0.00,0.20,
1.13,91.68561635277531,25.948559470860122,-1.0,0.0,0.0,0,2,0,0,0,0,0,0.00,0.00,0.29,
1.143,91.26656163527753,25.76985594708601,0.0,1.0,0.0,0,2,0,0,0,0,0,0.00,0.00,0.29,
1.157,90.71165616352776,25.6529855947086,-2.0,0.0,1.0,0,2,0,0,0,0,0,0.00,0.00,0.29,
1.17,90.57516561635278,25.542298559470858,-3.0,0.0,1.0,0,2,0,0,0,0,0,0.00,0.00,0.20,
1.183,90.69651656163526,25.594229855947088,-4.0,0.0,0.0,0,2,0,0,0,0,0,0.00,0.00,0.20,
1.197,90.75365165616354,25.725422985594708,-4.0,-1.0,0.0,0,2,0,0,0,0,0,0.10,0.00,0.20,
1.21,91.06536516561634,25.77454229855947,-4.0,0.0,0.0,0,2,0,0,0,0,0,0.00,0.00,0.20,
1.223,91.17753651656163,25.995454229855945,-4.0,0.0,-1.0,0,2,0,0,0,0,0,0.00,0.00,0.10,
1.236,91.17975365165617,26.071545422985594,-4.0,0.0,-1.0,0,2,0,0,0,0,0,0.00,0.00,0.20,
1.25,90.92797536516562,26.26815454229856,-5.0,0.0,-1.0,0,2,0,0,0,0,0,0.00,0.00,0.10,
1.264,90.70479753651657,26.395815454229858,-6.0,0.0,-1.0,0,2,0,0,0,0,0,0.00,0.00,0.20,
1.277,90.38547975365165,26.588581545422986,-6.0,0.0,-1.0,0,2,0,0,0,0,0,0.00,0.00,0.10,
1.291,90.16454797536517,26.6888581545423,-7.0,0.0,0.0,0,2,0,0,0,0,0,0.00,0.00,0.20,
1.304,89.82745479753652,26.635885815454227,-7.0,-1.0,0.0,0,2,0,0,0,0,0,0.00,0.00,0.10,
1.317,89.59574547975365,26.50458858154542,-6.0,-1.0,0.0,0,2,0,0,0,0,0,0.00,0.00,0.10,
1.331,89.37457454797536,26.53645885815454,-5.0,-1.0,0.0,0,2,0,0,0,0,0,0.00,0.00,0.10,
1.344,89.23545745479754,26.49464588581545,-4.0,-1.0,0.0,0,2,0,0,0,0,0,0.00,0.00,0.20,
1.357,89.22154574547976,26.382464588581545,-4.0,-2.0,1.0,0,2,0,0,0,0,0,0.00,0.00,0.20,
1.371,89.50815457454799,26.14624645885816,-4.0,-2.0,1.0,0,2,0,0,0,0,0,0.00,0.00,0.10,
1.385,89.90581545745479,25.978624645885816,-4.0,-2.0,1.0,0,2,0,0,0,0,0,0.10,0.00,0.10,
1.398,90.54858154574549,25.79086246458858,-5.0,-2.0,0.0,0,2,0,0,0,0,0,0.00,0.00,0.20,
1.412,90.98185815457455,25.745086246458857,-6.0,0.0,-1.0,0,2,0,0,0,0,0,0.00,0.00,0.20,
1.425,91.07918581545746,25.848508624645888,-5.0,0.0,-3.0,0,2,0,0,0,0,0,0.00,0.00,0.20,
1.438,90.97191858154574,25.921850862464588,-4.0,0.0,-4.0,0,2,0,0,0,0,0,0.00,0.00,0.20,
1.452,90.88919185815458,25.97418508624646,-3.0,0.0,-3.0,0,2,0,0,0,0,0,0.10,0.00,0.20,
1.465,90.77291918581547,25.934418508624645,-3.0,-1.0,-1.0,0,2,0,0,0,0,0,0.10,0.00,0.20,
1.479,90.69829191858153,25.894441850862467,-4.0,-1.0,0.0,0,2,0,0,0,0,0,0.00,0.00,0.29,
1.492,90.76282919185815,25.881444185086245,-4.0,0.0,1.0,0,2,0,0,0,0,0,0.00,0.00,0.20,
1.506,90.80528291918581,25.907144418508622,-4.0,0.0,0.0,0,2,0,0,0,0,0,0.00,0.00,0.29,
1.519,90.71052829191859,26.017714441850863,-4.0,1.0,-1.0,0,2,0,0,0,0,0,0.00,0.00,0.39,
1.532,90.74605282919185,26.019771444185086,-3.0,1.0,-2.0,0,2,0,0,0,0,0,0.00,0.00,0.39,
1.546,90.56060528291918,26.181977144418507,-3.0,0.0,-4.0,0,2,0,0,0,0,0,0.00,0.00,0.39,
1.559,90.08306052829192,26.33319771444185,-3.0,0.0,-4.0,0,2,0,0,0,0,0,0.00,0.00,0.29,
1.572,89.0633060528292,26.474319771444183,-2.0,0.0,-2.0,0,2,0,0,0,0,0,0.00,0.00,0.29,
1.586,88.25933060528293,26.326431977144416,-2.0,-1.0,0.0,0,2,0,0,0,0,0,0.00,0.00,0.29,
1.599,87.98093306052829,26.08664319771444,-2.0,-2.0,0.0,0,2,0,0,0,0,0,0.00,0.00,0.20,
1.612,88.10609330605283,25.828664319771445,-3.0,-3.0,0.0,0,2,0,0,0,0,0,0.00,0.00,0.29,
1.627,88.40660933060528,25.730866431977145,-3.0,-2.0,0.0,0,2,0,0,0,0,0,0.00,0.00,0.29,
1.64,88.87766093306053,25.613086643197718,-4.0,-2.0,-1.0,0,2,0,0,0,0,0,0.00,0.00,0.20,
1.653,89.24876609330606,25.52930866431977,-5.0,-1.0,-1.0,0,2,0,0,0,0,0,0.00,0.00,0.20,
1.667,89.28587660933061,25.376930866431977,-5.0,-1.0,-2.0,0,2,0,0,0,0,0,0.00,0.00,0.10,
1.68,89.25358766093306,25.2356930866432,-5.0,-1.0,-2.0,0,2,0,0,0,0,0,0.00,0.00,0.10,
1.694,89.3493587660933,25.113569308664324,-4.0,-2.0,-2.0,0,2,0,0,0,0,0,0.00,0.00,0.20,
1.708,89.72793587660932,25.12835693086643,-4.0,-2.0,-2.0,0,2,0,0,0,0,0,0.00,0.00,0.20,
1.721,90.12579358766094,25.183835693086646,-4.0,-1.0,-1.0,0,2,0,0,0,0,0,0.00,0.00,0.20,
1.734,90.55257935876608,25.198383569308664,-5.0,-1.0,-1.0,0,2,0,0,0,0,0,0.00,0.00,0.20,
1.747,90.61325793587662,25.199838356930865,-5.0,0.0,-1.0,0,2,0,0,0,0,0,0.00,0.00,0.29,
1.762,90.33132579358765,25.217983835693087,-5.0,0.0,-1.0,0,2,0,0,0,0,0,0.00,0.00,0.29,
1.775,90.14113257935877,25.24679838356931,-4.0,0.0,-1.0,0,2,0,0,0,0,0,0.00,0.00,0.20,
1.788,90.36511325793587,25.30367983835693,-2.0,-1.0,-2.0,0,2,0,0,0,0,0,0.00,0.00,0.20,
1.802,90.90951132579359,25.444367983835694,-2.0,-2.0,-2.0,0,2,0,0,0,0,0,0.00,0.00,0.29,
1.815,91.54895113257936,25.55743679838357,-2.0,-2.0,-2.0,0,2,0,0,0,0,0,0.10,0.00,0.29,
1.828,91.90089511325793,25.73074367983836,-1.0,0.0,-3.0,0,2,0,0,0,0,0,0.00,0.00,0.29,
1.843,92.00808951132579,25.955074367983837,0.0,0.0,-3.0,0,2,0,0,0,0,0,0.00,0.00,0.39,
1.856,92.00980895113258,25.98650743679838,0.0,1.0,-3.0,0,2,0,0,0,0,0,0.00,0.00,0.39,
1.869,92.11798089511326,25.872650743679838,1.0,1.0,-3.0,0,2,0,0,0,0,0,0.00,0.00,0.29,
1.883,92.06579808951132,25.753265074367985,1.0,1.0,-2.0,0,2,0,0,0,0,0,0.00,0.00,0.29,
1.896,91.67357980895113,25.705326507436798,0.0,1.0,-2.0,0,2,0,0,0,0,0,0.00,0.00,0.20,
1.909,91.2743579808951,25.80853265074368,1.0,1.0,-1.0,0,2,0,0,0,0,0,0.00,0.00,0.20,
1.923,91.06343579808951,25.818853265074367,1.0,1.0,-1.0,0,2,0,0,0,0,0,0.00,0.00,0.29,
1.936,91.06934357980894,25.80188532650744,2.0,1.0,-1.0,0,2,0,0,0,0,0,0.00,0.00,0.10,
1.949,91.0609343579809,25.791188532650743,3.0,1.0,-1.0,0,2,0,0,0,0,0,0.00,0.00,0.20,
1.963,91.07809343579808,25.80811885326507,4.0,1.0,-2.0,0,2,0,0,0,0,0,0.00,0.00,0.20,
2.295,96.0748093435798,28.896811885326507,11.0,10.0,-8.0,0,2,0,0,0,0,0,0.00,0.00,0.00,
2.309,97.59148093435799,29.45768118853265,12.0,12.0,-11.0,0,2,0,0,0,0,0,0.00,0.00,0.00,
2.323,98.9221480934358,29.891768118853264,13.0,13.0,-16.0,0,2,0,0,0,0,0,0.00,0.00,0.00,
2.336,100.56721480934357,30.718176811885325,15.0,14.0,-23.0,0,2,0,0,0,0,0,0.00,0.00,0.00,
2.35,102.51372148093436,32.06981768118853,19.0,16.0,-30.0,0,2,0,0,0,0,0,0.00,0.00,0.10,
2.364,104.55337214809344,33.57298176811886,26.0,19.0,-36.0,0,2,0,0,0,0,0,0.00,0.00,0.00,
2.377,106.18833721480935,35.334298176811885,33.0,24.0,-41.0,0,2,0,0,0,0,0,0.00,0.00,0.00,
2.391,107.42283372148094,36.82442981768119,40.0,30.0,-44.0,0,2,0,0,0,0,0,0.00,0.00,0.00,
2.404,108.2842833721481,38.05344298176812,45.0,36.0,-46.0,0,2,0,0,0,0,0,0.00,0.00,0.00,
2.417,108.8114283372148,39.05834429817681,47.0,38.0,-45.0,0,2,0,0,0,0,0,0.00,0.00,0.00,
2.432,109.24214283372149,40.193834429817684,48.0,39.0,-44.0,0,2,0,0,0,0,0,0.00,0.00,0.00,
2.445,110.02321428337216,41.72038344298177,50.0,39.0,-43.0,0,2,0,0,0,0,0,0.00,0.00,0.00,
2.458,111.07332142833721,43.34903834429818,54.0,39.0,-44.0,0,2,0,0,0,0,0,0.00,0.00,0.00,
2.471,112.0963321428337,45.185903834429816,60.0,42.0,-47.0,0,2,0,0,0,0,0,0.00,0.00,0.00,
2.486,112.85563321428337,46.530590383442984,69.0,45.0,-51.0,0,2,0,0,0,0,0,0.00,0.00,0.00,
2.499,113.14756332142835,47.7450590383443,75.0,49.0,-55.0,0,2,0,0,0,0,0,0.00,0.00,0.00,
2.512,113.05975633214284,48.82950590383444,77.0,51.0,-56.0,0,2,0,0,0,0,0,0.00,0.00,0.00,
2.526,112.79897563321427,49.85595059038344,78.0,50.0,-54.0,0,2,0,0,0,0,0,0.00,0.00,0.00,
2.539,112.63789756332143,50.98459505903835,80.0,46.0,-49.0,0,2,0,0,0,0,0,0.00,0.00,0.00,
2.553,112.80178975633214,51.73645950590383,85.0,43.0,-45.0,0,2,0,0,0,0,0,0.00,0.00,0.00,
2.567,112.9351789756332,52.03664595059038,91.0,43.0,-44.0,0,2,0,0,0,0,0,0.00,0.00,0.00,
2.58,113.12851789756333,52.00366459505904,92.0,43.0,-47.0,0,2,0,0,0,0,0,0.00,0.00,0.00,
2.593,113.20185178975632,51.991366459505905,89.0,41.0,-47.0,0,2,0,0,0,0,0,0.00,0.00,0.00,
2.608,113.29918517897563,52.22413664595059,84.0,39.0,-47.0,0,2,0,0,0,0,0,0.00,0.00,0.00,
2.621,113.32691851789755,52.787413664595064,83.0,36.0,-46.0,0,2,0,0,0,0,0,0.00,0.00,0.00,
2.634,113.45569185178975,53.9237413664595,85.0,33.0,-45.0,0,2,0,0,0,0,0,0.00,0.00,0.00,
2.648,113.63056918517898,55.10837413664595,91.0,32.0,-42.0,0,2,0,0,0,0,0,0.00,0.00,0.00,
2.661,113.57605691851789,56.297837413664595,96.0,33.0,-38.0,0,2,0,0,0,0,0,0.00,0.00,0.00,
2.675,113.5616056918518,57.28078374136646,98.0,35.0,-36.0,0,2,0,0,0,0,0,0.00,0.00,0.00,
2.689,113.65916056918518,57.98207837413665,96.0,35.0,-35.0,0,2,0,0,0,0,0,0.00,0.00,0.00,
2.702,113.89391605691853,58.47520783741366,93.0,33.0,-34.0,0,2,0,0,0,0,0,0.00,0.00,0.00,
2.715,114.17839160569186,58.92052078374137,91.0,29.0,-35.0,0,2,0,0,0,0,0,0.00,0.00,0.00,
2.728,114.52183916056919,59.118052078374134,91.0,26.0,-35.0,0,2,0,0,0,0,0,0.00,0.00,0.00,
2.743,114.83518391605692,59.20080520783741,91.0,23.0,-35.0,0,2,0,0,0,0,0,0.00,0.00,0.00,
2.756,115.01951839160569,59.038080520783744,90.0,22.0,-35.0,0,2,0,0,0,0,0,0.00,0.00,0.00,
2.769,114.92995183916057,58.976808052078376,85.0,20.0,-33.0,0,2,0,0,0,0,0,0.00,0.00,0.00,
2.783,114.60599518391605,58.93468080520783,81.0,17.0,-29.0,0,2,0,0,0,0,0,0.00,0.00,0.00,
2.796,114.5285995183916,58.66946808052079,77.0,13.0,-25.0,0,2,0,0,0,0,0,0.00,0.00,0.00,
2.81,114.42185995183915,58.534946808052084,72.0,10.0,-21.0,0,2,0,0,0,0,0,0.00,0.00,0.00,
2.824,114.32118599518392,58.4764946808052,67.0,8.0,-17.0,0,2,0,0,0,0,0,0.00,0.00,0.00,
2.837,114.02311859951838,58.81264946808052,64.0,7.0,-14.0,0,2,0,0,0,0,0,0.00,0.00,0.00,
2.85,113.59731185995183,59.60226494680805,62.0,5.0,-9.0,0,2,0,0,0,0,0,0.00,0.00,0.00,
2.864,113.24873118599518,60.26622649468081,60.0,4.0,-6.0,0,2,0,0,0,0,0,0.00,0.00,0.00,
2.877,113.27687311859951,60.917622649468086,57.0,1.0,-4.0,0,2,0,0,0,0,0,0.00,0.00,0.00,
2.891,113.57668731185994,61.40576226494681,53.0,-1.0,-3.0,0,2,0,0,0,0,0,0.00,0.00,0.00,
2.905,114.09266873118601,61.769576226494685,49.0,-4.0,-3.0,0,2,0,0,0,0,0,0.00,0.00,0.00,
2.918,114.5852668731186,62.02195762264947,43.0,-6.0,-4.0,0,2,0,0,0,0,0,0.00,0.00,0.00,
2.931,115.03952668731186,62.42519576226494,38.0,-6.0,-6.0,0,2,0,0,0,0,0,0.00,0.00,0.00,
2.945,115.3639526687312,63.20351957622649,34.0,-4.0,-5.0,0,2,0,0,0,0,0,0.00,0.00,0.00,
2.958,115.66639526687312,64.20835195762264,30.0,-3.0,-4.0,0,2,0,0,0,0,0,0.00,0.00,0.00,
2.972,115.83163952668731,65.78483519576226,27.0,-2.0,-3.0,0,2,0,0,0,0,0,0.00,0.00,0.00,
2.985,116.12716395266872,67.34648351957622,25.0,-1.0,-3.0,0,2,0,0,0,0,0,0.00,0.00,0.00,
2.999,116.42671639526687,68.94264835195763,24.0,-2.0,-3.0,0,2,0,0,0,0,0,0.00,0.00,0.00,
3.012,116.74467163952669,70.52426483519577,24.0,-4.0,-4.0,0,2,0,0,0,0,0,0.00,0.00,0.00,
3.025,117.03746716395267,71.92442648351957,25.0,-5.0,-7.0,0,2,0,0,0,0,0,0.00,0.00,0.00,
3.039,117.24674671639525,73.09944264835197,24.0,-7.0,-10.0,0,2,0,0,0,0,0,0.00,0.00,0.00,
3.053,117.39367467163952,74.0809442648352,24.0,-8.0,-12.0,0,2,0,0,0,0,0,0.00,0.00,0.00,
3.066,117.45336746716394,74.82709442648351,23.0,-7.0,-14.0,0,2,0,0,0,0,0,0.00,0.00,0.00,
3.08,117.36933674671639,75.28870944264835,21.0,-6.0,-14.0,0,2,0,0,0,0,0,0.00,0.00,0.00,
3.093,117.20793367467164,75.48787094426484,20.0,-4.0,-13.0,0,2,0,0,0,0,0,0.00,0.00,0.00,
3.107,116.95779336746718,75.7057870944265,18.0,-3.0,-11.0,0,2,0,0,0,0,0,0.00,0.00,0.00,
3.121,116.77977933674671,75.93457870944263,17.0,-3.0,-9.0,0,2,0,0,0,0,0,0.00,0.00,0.00,
3.134,116.76197793367467,76.14645787094426,15.0,-2.0,-8.0,0,2,0,0,0,0,0,0.00,0.00,0.00,
3.147,116.86819779336746,76.38364578709442,12.0,-1.0,-8.0,0,2,0,0,0,0,0,0.00,0.00,0.00,
3.161,117.08581977933675,76.76736457870945,11.0,-1.0,-8.0,0,2,0,0,0,0,0,0.00,0.00,0.00,
3.174,117.27858197793367,77.17473645787095,10.0,-1.0,-8.0,0,2,0,0,0,0,0,0.00,0.00,0.00,
3.188,117.45085819779337,77.75547364578709,10.0,-1.0,-7.0,0,2,0,0,0,0,0,0.00,0.00,0.00,
3.202,117.64808581977934,78.50654736457872,10.0,-1.0,-7.0,0,2,0,0,0,0,0,0.00,0.00,0.00,
3.215,117.86580858197793,79.39165473645787,11.0,-1.0,-6.0,0,2,0,0,0,0,0,0.00,0.00,0.00,
3.228,118.2205808581978,80.25416547364578,12.0,-1.0,-6.0,0,2,0,0,0,0,0,0.00,0.00,0.00,
3.241,118.66105808581977,81.10541654736457,11.0,0.0,-6.0,0,2,0,0,0,0,0,0.00,0.00,0.00,
3.255,119.35310580858199,81.84754165473646,3.0,-3.0,0.0,0,2,0,0,0,0,0,0.00,0.00,0.00,
3.268,119.6203105808582,81.01275416547365,-8.0,-8.0,13.0,0,2,0,0,0,0,0,0.00,0.00,0.00,
3.282,120.45703105808582,79.86727541654736,-9.0,-7.0,1.0,0,2,0,0,0,0,0,0.00,0.00,0.10,
3.296,120.51370310580859,78.69972754165472,-9.0,0.0,-6.0,0,2,0,0,0,0,0,0.00,0.00,0.49,
3.309,120.16837031058085,78.07897275416548,-8.0,1.0,-11.0,0,2,0,0,0,0,0,0.00,0.00,1.18,
3.322,119.21583703105809,78.70089727541655,-8.0,3.0,-16.0,0,2,0,0,0,0,0,0.00,0.00,1.47,
3.337,118.04958370310581,80.34708972754166,-9.0,3.0,-13.0,0,2,0,0,0,0,0,0.00,0.00,1.47,
3.35,116.97895837031058,82.41070897275416,-8.0,2.0,-8.0,0,2,0,0,0,0,0,0.00,0.00,1.47,
3.363,116.16989583703105,84.65107089727543,-4.0,0.0,-2.0,0,2,0,0,0,0,0,0.00,0.00,1.47,
3.377,115.80098958370311,86.01810708972754,-3.0,-2.0,4.0,0,2,0,0,0,0,0,0.00,0.00,1.37,
3.39,116.20509895837031,86.28981070897275,-4.0,-4.0,7.0,0,2,0,0,0,0,0,0.00,0.00,1.47,
3.404,116.99250989583703,85.67798107089727,-6.0,-5.0,7.0,0,2,0,0,0,0,0,0.00,0.00,1.57,
3.418,117.94425098958371,84.80679810708972,-8.0,-5.0,4.0,0,2,0,0,0,0,0,0.00,0.00,1.77,
3.431,118.77742509895837,84.26067981070898,-12.0,-7.0,2.0,0,2,0,0,0,0,0,0.00,0.00,2.45,
3.445,119.25674250989584,83.98106798107091,-13.0,-8.0,0.0,0,2,0,0,0,0,0,0.00,0.00,2.84,
3.459,119.26867425098959,83.9351067981071,-14.0,-8.0,0.0,0,2,0,0,0,0,0,0.00,0.00,3.14,
3.472,118.84686742509896,83.7865106798107,-14.0,-8.0,1.0,0,2,0,0,0,0,0,0.00,0.00,3.43,
3.486,118.1926867425099,83.54665106798106,-14.0,-8.0,1.0,0,2,0,0,0,0,0,0.00,0.00,3.92,
3.5,117.452268674251,83.34266510679811,-13.0,-8.0,1.0,0,2,0,0,0,0,0,0.00,0.00,4.22,
3.514,117.00022686742511,83.1782665106798,-12.0,-8.0,1.0,0,2,0,0,0,0,0,0.00,0.00,4.61,
3.527,116.88302268674252,82.96382665106798,-12.0,-7.0,0.0,0,2,0,0,0,0,0,0.00,0.00,4.91,
3.54,117.19530226867425,81.34938266510679,-11.0,-5.0,-4.0,0,2,0,0,0,0,0,0.00,0.00,5.30,
3.555,118.22553022686742,80.88193826651067,-9.0,-7.0,-2.0,0,2,0,0,0,0,0,0.00,0.00,5.79,
3.569,118.11255302268673,80.53819382665107,-5.0,-3.0,-6.0,0,2,0,0,0,0,0,0.00,0.00,6.08,
3.582,117.59725530226868,80.88181938266511,-3.0,-1.0,-6.0,0,2,0,0,0,0,0,0.00,0.00,6.38,
3.597,117.04172553022687,81.33918193826652,-2.0,-1.0,-5.0,0,2,0,0,0,0,0,0.00,0.00,6.67,
3.61,116.79717255302269,81.67291819382665,-2.0,-1.0,-5.0,0,2,0,0,0,0,0,0.00,0.00,6.87,
3.624,116.76371725530227,81.96729181938267,-3.0,0.0,-4.0,0,2,0,0,0,0,0,0.00,0.00,7.06,
3.639,116.96737172553023,81.97872918193828,-4.0,-1.0,-4.0,0,2,0,0,0,0,0,0.00,0.00,7.26,
3.652,117.14073717255302,82.06987291819382,-4.0,-1.0,-4.0,0,2,0,0,0,0,0,0.00,0.00,7.46,
3.666,117.22107371725531,82.14198729181939,-5.0,-1.0,-4.0,0,2,0,0,0,0,0,0.00,0.00,7.65,
3.68,117.04910737172553,82.15819872918195,-5.0,-1.0,-3.0,0,2,0,0,0,0,0,0.00,0.00,7.95,
3.694,116.85191073717256,82.2138198729182,-4.0,-1.0,-3.0,0,2,0,0,0,0,0,0.00,0.00,8.24,
3.708,116.67019107371726,82.16538198729182,-4.0,0.0,-3.0,0,2,0,0,0,0,0,0.00,0.00,8.53,
3.722,116.55301910737174,82.11553819872918,-2.0,0.0,-3.0,0,2,0,0,0,0,0,0.00,0.00,8.63,
3.736,116.61330191073718,82.09255381987292,-2.0,0.0,-3.0,0,2,0,0,0,0,0,0.00,0.00,8.63,
3.749,116.69133019107372,82.11725538198729,-1.0,0.0,-3.0,0,2,0,0,0,0,0,0.00,0.00,8.93,
3.764,116.73513301910737,82.04772553819873,0.0,0.0,-3.0,0,2,0,0,0,0,0,0.00,0.00,9.12,
3.777,116.76651330191073,82.13077255381987,0.0,0.0,-2.0,0,2,0,0,0,0,0,0.00,0.00,9.22,
4.222,117.34565133019106,82.49007725538199,-2.0,0.0,-2.0,0,2,0,0,0,0,1,0.00,0.00,12.56,
4.237,117.4305651330191,82.49900772553819,-2.0,0.0,-1.0,0,2,0,0,0,0,1,0.00,0.00,12.46,
4.251,117.4480565133019,82.49090077255381,-2.0,0.0,-1.0,0,2,0,0,0,0,1,0.00,0.00,12.56,
4.264,117.46780565133018,82.52609007725538,-2.0,0.0,-1.0,0,2,0,0,0,0,1,0.00,0.00,12.56,
4.279,117.442780565133,82.54760900772554,-2.0,0.0,-1.0,0,2,0,0,0,0,1,0.00,0.00,12.56,
4.293,117.41327805651329,82.54076090077255,-2.0,0.0,-1.0,0,2,0,0,0,0,1,0.00,0.00,12.56,
4.306,117.65332780565133,82.18907609007725,-2.0,-1.0,-1.0,0,2,0,0,0,0,1,0.00,0.00,12.46,
4.321,117.74933278056514,81.91090760900772,-2.0,-2.0,-1.0,0,2,0,0,0,0,1,0.00,0.00,12.36,
4.335,117.58793327805651,81.93709076090076,-1.0,-1.0,-1.0,0,2,0,0,0,0,1,0.00,0.00,12.26,
4.348,117.55379332780565,82.00270907609008,-1.0,-1.0,-1.0,0,2,0,0,0,0,1,0.00,0.00,12.16,
4.363,117.55037933278057,82.09927090760901,-2.0,-1.0,-1.0,0,2,0,0,0,0,1,0.00,0.00,11.97,
4.377,117.55003793327805,82.1809270907609,-2.0,0.0,-1.0,0,2,0,0,0,0,1,0.00,0.00,11.97,
4.39,117.4690037933278,82.20709270907608,-2.0,0.0,-1.0,0,2,0,0,0,0,1,0.00,0.00,11.87,
4.405,117.47890037933277,82.2097092709076,-2.0,0.0,-1.0,0,2,0,0,0,0,1,0.00,0.00,11.67,
4.419,117.49789003793327,82.24597092709077,-2.0,0.0,-1.0,0,2,0,0,0,0,1,0.00,0.00,11.58,
4.432,117.46378900379332,82.29459709270907,-3.0,0.0,-1.0,0,2,0,0,0,0,1,0.00,0.00,11.58,
4.447,117.44237890037932,82.3174597092709,-2.0,0.0,-1.0,0,2,0,0,0,0,1,0.00,0.00,11.58,
4.46,117.42223789003793,82.30174597092709,-2.0,0.0,-1.0,0,2,0,0,0,0,1,0.00,0.00,11.48,
4.474,117.43822378900379,82.29117459709272,-2.0,0.0,-1.0,0,2,0,0,0,0,1,0.00,0.00,11.28,
4.489,117.46682237890037,82.29911745970927,-2.0,0.0,-1.0,0,2,0,0,0,0,1,0.00,0.00,11.28,
4.502,117.44268223789004,82.38991174597093,-2.0,0.0,-1.0,0,2,0,0,0,0,1,0.00,0.00,11.38,
4.516,117.440268223789,82.38999117459709,-3.0,0.0,-1.0,0,2,0,0,0,0,1,0.00,0.00,11.48,
4.531,117.4400268223789,82.46199911745971,-3.0,0.0,-1.0,0,2,0,0,0,0,1,0.00,0.00,11.48,
4.544,117.4310026822379,82.37019991174597,-2.0,0.0,-1.0,0,2,0,0,0,0,1,0.00,0.00,11.58,
4.558,117.45710026822378,82.44201999117459,-2.0,0.0,-1.0,0,2,0,0,0,0,1,0.00,0.00,11.58,
4.572,117.52271002682238,82.40420199911748,-3.0,1.0,-1.0,0,2,0,0,0,0,1,0.00,0.00,11.67,
4.586,117.63727100268224,82.31942019991175,-3.0,1.0,-2.0,0,2,0,0,0,0,1,0.00,0.00,11.67,
4.6,117.69372710026823,82.32894201999116,-3.0,1.0,-2.0,0,2,0,0,0,0,1,0.00,0.00,11.67,
4.614,117.60937271002682,82.37489420199911,-3.0,1.0,-1.0,0,2,0,0,0,0,1,0.00,0.00,11.48,
4.628,117.60093727100268,82.4424894201999,-3.0,1.0,-2.0,0,2,0,0,0,0,1,0.00,0.00,11.48,
4.642,117.59109372710027,82.45824894201999,-3.0,1.0,-1.0,0,2,0,0,0,0,1,0.00,0.00,11.48,
4.656,117.58110937271003,82.450824894202,-3.0,1.0,-1.0,0,2,0,0,0,0,1,0.00,0.00,11.48,
4.67,117.625110937271,82.28808248942019,-4.0,1.0,-1.0,0,2,0,0,0,0,1,0.00,0.00,11.38,
4.684,117.6655110937271,82.18180824894202,-3.0,1.0,-1.0,0,2,0,0,0,0,1,0.00,0.00,11.28,
4.698,117.72355110937272,82.1441808248942,-3.0,1.0,-1.0,0,2,0,0,0,0,1,0.00,0.00,11.09,
4.712,117.78335511093728,82.09541808248942,-3.0,0.0,-1.0,0,2,0,0,0,0,1,0.00,0.00,11.09,
4.725,117.78933551109374,82.05454180824894,-2.0,0.0,-2.0,0,2,0,0,0,0,1,0.00,0.00,10.99,
4.74,117.78993355110939,82.18545418082489,-2.0,0.0,-1.0,0,2,0,0,0,0,1,0.00,0.00,10.89,
4.754,117.79899335511094,82.30654541808248,-2.0,0.0,-1.0,0,2,0,0,0,0,1,0.00,0.00,10.79,
4.767,117.8358993355111,82.26465454180826,-2.0,0.0,-1.0,0,2,0,0,0,0,1,0.00,0.00,10.79,
4.782,117.81258993355112,82.23346545418083,-2.0,0.0,-1.0,0,2,0,0,0,0,1,0.00,0.00,10.79,
4.796,117.8012589933551,82.29334654541807,-2.0,0.0,-1.0,0,2,0,0,0,0,1,0.00,0.00,10.79,
4.809,117.79112589933551,82.2723346545418,-2.0,0.0,-1.0,0,2,0,0,0,0,1,0.00,0.00,10.69,
4.824,117.72711258993355,82.27923346545418,-2.0,0.0,-1.0,0,2,0,0,0,0,1,0.00,0.00,10.59,
4.837,117.72971125899336,82.23492334654543,-2.0,0.0,-1.0,0,2,0,0,0,0,1,0.00,0.00,10.59,
4.851,117.73897112589933,82.31149233465453,-2.0,0.0,-1.0,0,2,0,0,0,0,1,0.00,0.00,10.59,
4.866,117.71289711258993,82.30114923346545,-2.0,0.0,-1.0,0,2,0,0,0,0,1,0.00,0.00,10.50,
4.879,117.71028971125898,82.28211492334655,-2.0,0.0,-1.0,0,2,0,0,0,0,1,0.00,0.00,10.50,
4.893,117.69202897112591,82.27121149233464,-2.0,0.0,-1.0,0,2,0,0,0,0,1,0.00,0.00,10.50,
4.908,117.7442028971126,82.23412114923347,-2.0,0.0,-1.0,0,2,0,0,0,0,1,0.00,0.00,10.50,
4.921,117.72242028971127,82.24841211492335,-1.0,0.0,-1.0,0,2,0,0,0,0,1,0.00,0.00,10.59,
4.935,117.76524202897112,82.21384121149232,-1.0,0.0,-1.0,0,2,0,0,0,0,1,0.00,0.00,10.50,
4.948,117.77852420289712,82.20138412114923,-1.0,0.0,-1.0,0,2,0,0,0,0,1,0.00,0.00,10.50,
4.963,117.7978524202897,82.23613841211491,-1.0,-1.0,-1.0,0,2,0,0,0,0,1,0.00,0.00,10.59,
4.977,117.80878524202897,82.2846138412115,-1.0,-1.0,-1.0,0,2,0,0,0,0,1,0.00,0.00,10.50,
4.99,117.81887852420289,82.33446138412116,-1.0,-1.0,-1.0,0,2,0,0,0,0,1,0.00,0.00,10.50,
5.005,117.76588785242029,82.38444613841212,-1.0,-1.0,-1.0,0,2,0,0,0,0,1,0.00,0.00,10.50,
5.019,117.77858878524204,82.42544461384122,-2.0,-1.0,0.0,0,2,0,0,0,0,1,0.00,0.00,10.40,
5.033,117.71685887852419,82.44754446138413,-2.0,-1.0,0.0,0,2,0,0,0,0,1,0.00,0.00,10.40,
5.047,117.67468588785242,82.44975444613841,-3.0,0.0,0.0,0,2,0,0,0,0,1,0.00,0.00,10.30,
5.061,117.67046858878524,82.34197544461384,-3.0,0.0,-1.0,0,2,0,0,0,0,1,0.00,0.00,10.30,
5.074,117.66104685887852,82.27719754446137,-3.0,0.0,-1.0,0,2,0,0,0,0,1,0.00,0.00,10.30,
5.089,117.66910468588786,82.24371975444613,-3.0,0.0,-1.0,0,2,0,0,0,0,1,0.00,0.00,10.30,
5.103,117.67891046858878,82.2133719754446,-3.0,0.0,-1.0,0,2,0,0,0,0,1,0.00,0.00,10.40,
5.116,117.67089104685888,82.21033719754445,-2.0,0.0,-1.0,0,2,0,0,0,0,1,0.00,0.00,10.30,
5.131,117.75108910468589,82.20103371975445,-2.0,0.0,-1.0,0,2,0,0,0,0,1,0.00,0.00,10.40,
5.144,117.81310891046859,82.20010337197544,-2.0,0.0,-1.0,0,2,0,0,0,0,1,0.00,0.00,10.50,
5.158,117.75631089104687,82.25401033719754,-2.0,0.0,-1.0,0,2,0,0,0,0,1,0.00,0.00,10.50,
5.173,117.73263108910469,82.28640103371976,-2.0,0.0,-1.0,0,2,0,0,0,0,1,0.00,0.00,10.59,
5.186,117.69426310891048,82.37964010337197,-2.0,0.0,-1.0,0,2,0,0,0,0,1,0.00,0.00,10.59,
5.2,117.68142631089106,82.3709640103372,-2.0,0.0,-1.0,0,2,0,0,0,0,1,0.00,0.00,10.59,
5.215,117.64414263108911,82.36109640103372,-3.0,0.0,-1.0,0,2,0,0,0,0,1,0.00,0.00,10.50,
5.228,117.64041426310891,82.33310964010336,-3.0,0.0,-1.0,0,2,0,0,0,0,1,0.00,0.00,10.50,
5.242,117.67604142631089,82.29431096401034,-3.0,0.0,-1.0,0,2,0,0,0,0,1,0.00,0.00,10.40,
5.256,117.68860414263109,82.27243109640102,-2.0,0.0,-1.0,0,2,0,0,0,0,1,0.00,0.00,10.40,
5.27,117.65386041426311,82.2522431096401,-2.0,0.0,-1.0,0,2,0,0,0,0,1,0.00,0.00,10.50,
5.284,117.64138604142632,82.295224310964,-3.0,0.0,-1.0,0,2,0,0,0,0,1,0.00,0.00,10.50,
5.298,117.62213860414263,82.2815224310964,-2.0,0.0,-1.0,0,2,0,0,0,0,1,0.00,0.00,10.40,
5.312,117.66521386041427,82.23515224310964,-2.0,0.0,-1.0,0,2,0,0,0,0,1,0.00,0.00,10.40,
5.326,117.68752138604142,82.16751522431096,-2.0,0.0,-1.0,0,2,0,0,0,0,1,0.00,0.00,10.30,
5.34,117.79775213860415,82.1787515224311,-2.0,0.0,-1.0,0,2,0,0,0,0,1,0.00,0.00,10.40,
5.354,117.86277521386043,82.14387515224311,-2.0,0.0,-1.0,0,2,0,0,0,0,1,0.00,0.00,10.40,
5.367,117.86027752138604,82.2033875152243,-2.0,0.0,-1.0,0,2,0,0,0,0,1,0.00,0.00,10.30,
5.382,117.8690277521386,82.22733875152244,-2.0,0.0,-1.0,0,2,0,0,0,0,1,0.00,0.00,10.40,
5.396,117.80690277521386,82.28373387515225,-2.0,0.0,-1.0,0,2,0,0,0,0,1,0.00,0.00,10.40,
5.409,117.77369027752138,82.24437338751521,-2.0,0.0,-1.0,0,2,0,0,0,0,1,0.00,0.00,10.40,
5.424,117.81536902775213,82.20443733875152,-2.0,0.0,-1.0,0,2,0,0,0,0,1,0.00,0.00,10.50,
5.438,117.81053690277523,82.13744373387516,-2.0,0.0,-1.0,0,2,0,0,0,0,1,0.00,0.00,10.50,
5.451,117.88205369027752,82.09474437338751,-1.0,0.0,-1.0,0,2,0,0,0,0,1,0.00,0.00,10.59,
5.466,117.92520536902776,82.09047443733876,-1.0,0.0,-1.0,0,2,0,0,0,0,1,0.00,0.00,10.69,
5.479,117.92952053690279,82.15304744373388,-1.0,-1.0,-1.0,0,2,0,0,0,0,1,0.00,0.00,10.59,
5.493,117.86695205369027,82.15930474437339,-1.0,-1.0,0.0,0,2,0,0,0,0,1,0.00,0.00,10.59,
5.508,117.78869520536904,82.24093047443735,-1.0,-1.0,0.0,0,2,0,0,0,0,1,0.00,0.00,10.59,
5.521,117.80786952053691,82.18609304744373,-1.0,0.0,0.0,0,2,0,0,0,0,1,0.00,0.00,10.69,
5.535,117.77378695205368,82.11760930474438,-1.0,0.0,0.0,0,2,0,0,0,0,1,0.00,0.00,10.69,
5.549,117.77037869520537,82.10176093047444,-1.0,0.0,-1.0,0,2,0,0,0,0,1,0.00,0.00,10.79,
5.563,117.76103786952055,82.14517609304744,-1.0,0.0,-1.0,0,2,0,0,0,0,1,0.00,0.00,10.89,
5.577,117.76010378695206,82.19451760930474,-1.0,0.0,-1.0,0,2,0,0,0,0,1,0.00,0.00,10.89,
5.591,117.7960103786952,82.23545176093046,-1.0,0.0,-1.0,0,2,0,0,0,0,1,0.00,0.00,10.99,
5.605,117.7456010378695,82.32054517609303,-2.0,0.0,-1.0,0,2,0,0,0,0,1,0.00,0.00,10.99,
5.618,117.76756010378695,82.3740545176093,-2.0,0.0,-1.0,0,2,0,0,0,0,1,0.00,0.00,10.99,
5.633,117.7607560103787,82.40640545176092,-2.0,0.0,-1.0,0,2,0,0,0,0,1,0.00,0.00,11.09,
5.647,117.69707560103788,82.41864054517609,-2.0,0.0,0.0,0,2,0,0,0,0,1,0.00,0.00,11.09,
5.661,117.65470756010379,82.3658640545176,-3.0,0.0,0.0,0,2,0,0,0,0,1,0.00,0.00,11.09,
5.675,117.65947075601038,82.30658640545175,-2.0,0.0,-1.0,0,2,0,0,0,0,1,0.00,0.00,11.28,
5.689,117.72294707560104,82.23765864054518,-2.0,1.0,-1.0,0,2,0,0,0,0,1,0.00,0.00,11.38,
5.703,117.78329470756012,82.15876586405452,-2.0,1.0,-1.0,0,2,0,0,0,0,1,0.00,0.00,11.48,
5.716,117.816329470756,82.09687658640544,-2.0,1.0,-1.0,0,2,0,0,0,0,1,0.00,0.00,11.48,
5.731,117.8646329470756,82.06368765864055,-1.0,0.0,-1.0,0,2,0,0,0,0,1,0.00,0.00,11.58,
5.745,117.96846329470756,82.07836876586406,-1.0,0.0,-1.0,0,2,0,0,0,0,1,0.00,0.00,11.67,
5.76,118.03284632947076,82.1428368765864,-2.0,0.0,-1.0,0,2,0,0,0,0,1,0.00,0.00,11.67,
5.773,118.04828463294707,82.19428368765864,-2.0,0.0,-1.0,0,2,0,0,0,0,1,0.00,0.00,11.87,
5.787,118.0408284632947,82.22642836876587,-2.0,0.0,-1.0,0,2,0,0,0,0,1,0.00,0.00,11.87,
5.801,118.00408284632947,82.2296428368766,-2.0,0.0,-1.0,0,2,0,0,0,0,1,0.00,0.00,11.77,
5.816,117.94640828463295,82.29296428368765,-2.0,0.0,-1.0,0,2,0,0,0,0,1,0.00,0.00,11.77,
5.829,117.94964082846329,82.34429642836876,-2.0,0.0,-1.0,0,2,0,0,0,0,1,0.00,0.00,11.87,
5.843,117.97696408284632,82.38542964283687,-2.0,0.0,-1.0,0,2,0,0,0,0,1,0.00,0.00,11.87,
5.858,118.01569640828464,82.38954296428368,-2.0,-1.0,-1.0,0,2,0,0,0,0,1,0.00,0.00,11.87,
5.872,117.99256964082846,82.36295429642836,-2.0,-1.0,-1.0,0,2,0,0,0,0,1,0.00,0.00,11.77,
5.885,117.99025696408285,82.33329542964283,-2.0,-1.0,-1.0,0,2,0,0,0,0,1,0.00,0.00,11.67,
5.9,117.96302569640828,82.28532954296429,-2.0,-1.0,-1.0,0,2,0,0,0,0,1,0.00,0.00,11.58,
5.914,117.87030256964083,82.34353295429642,-3.0,-1.0,-1.0,0,2,0,0,0,0,1,0.00,0.00,11.58,
5.928,117.8700302569641,82.34935329542964,-3.0,-1.0,-1.0,0,2,0,0,0,0,1,0.00,0.00,11.38,
5.943,117.8790030256964,82.35893532954296,-3.0,-1.0,-1.0,0,2,0,0,0,0,1,0.00,0.00,11.38,
5.956,117.85290030256964,82.3148935329543,-2.0,0.0,-1.0,0,2,0,0,0,0,1,0.00,0.00,11.38,
5.97,117.83229003025696,82.27448935329542,-3.0,0.0,-1.0,0,2,0,0,0,0,1,0.00,0.00,11.28,
5.985,117.8752290030257,82.27944893532955,-3.0,0.0,-2.0,0,2,0,0,0,0,1,0.00,0.00,10.99,
5.998,117.88852290030256,82.30694489353296,-3.0,-1.0,-1.0,0,2,0,0,0,0,1,0.00,0.00,10.99,
6.012,117.87185229003026,82.3366944893533,-3.0,-1.0,-1.0,0,2,0,0,0,0,0,0.00,0.00,10.89,
6.027,117.85218522900303,82.35766944893533,-4.0,-1.0,-1.0,0,2,0,0,0,0,1,0.00,0.00,10.89,
6.04,117.80521852290029,82.28776694489353,-4.0,-1.0,-1.0,0,2,0,0,0,0,0,0.00,0.00,10.69,
6.054,117.82752185229002,82.21777669448934,-4.0,-1.0,-1.0,0,2,0,0,0,0,0,0.00,0.00,10.59,
6.069,117.856752185229,82.08477766944893,-4.0,-1.0,-1.0,0,2,0,0,0,0,0,0.00,0.00,10.59,
6.083,117.84167521852291,82.0534777669449,-4.0,0.0,-1.0,0,2,0,0,0,0,0,0.00,0.00,10.59,
6.096,117.79516752185229,81.9603477766945,-4.0,0.0,-1.0,0,2,0,0,0,0,0,0.00,0.00,10.50,
6.111,117.79051675218524,81.93303477766946,-3.0,0.0,-1.0,0,2,0,0,0,0,0,0.00,0.00,10.50,
6.124,117.81705167521852,81.89430347776695,-3.0,0.0,-1.0,0,2,0,0,0,0,0,0.00,0.00,10.50,
6.138,117.92770516752185,81.88143034777669,-3.0,0.0,0.0,0,2,0,0,0,0,0,0.00,0.00,10.59,
6.153,117.93877051675219,81.88014303477766,-3.0,0.0,-1.0,0,2,0,0,0,0,0,0.00,0.00,10.50,
6.166,117.89487705167521,81.85301430347775,-2.0,0.0,-1.0,0,2,0,0,0,0,0,0.00,0.00,10.50,
6.18,117.83648770516751,81.84130143034778,-2.0,0.0,-1.0,0,2,0,0,0,0,0,0.00,0.00,10.50,
6.194,117.85764877051675,81.83113014303478,-2.0,0.0,-1.0,0,2,0,0,0,0,0,0.00,0.00,10.40,
6.208,117.85076487705167,81.83911301430348,-2.0,-1.0,-1.0,0,2,0,0,0,0,0,0.00,0.00,10.50,
6.222,117.86807648770518,81.76791130143035,-2.0,0.0,-1.0,0,2,0,0,0,0,0,0.00,0.00,10.59,
6.236,117.85180764877052,81.81479113014302,-2.0,0.0,-1.0,0,2,0,0,0,0,0,0.00,0.00,10.50,
6.25,117.82318076487705,81.8194791130143,-2.0,0.0,-1.0,0,2,0,0,0,0,0,0.00,0.00,10.50,
6.264,117.74831807648769,81.87394791130143,-2.0,0.0,-1.0,0,2,0,0,0,0,0,0.00,0.00,10.50,
6.278,117.69583180764877,81.87039479113015,-2.0,0.0,-1.0,0,2,0,0,0,0,0,0.00,0.00,10.50,
6.292,117.62758318076487,81.879039479113,-2.0,0.0,0.0,0,2,0,0,0,0,0,0.00,0.00,10.40,
6.305,117.64775831807648,81.8349039479113,-2.0,0.0,0.0,0,2,0,0,0,0,0,0.00,0.00,10.01,
6.743,116.78577583180764,80.96649039479112,-6.0,-7.0,-1.0,0,2,0,0,0,0,0,0.00,0.00,3.92,
6.757,116.65457758318075,80.9876490394791,-7.0,-8.0,-1.0,0,2,0,0,0,0,0,0.00,0.00,4.02,
6.77,116.56945775831808,80.6387649039479,-8.0,-8.0,0.0,0,2,0,0,0,0,0,0.00,0.00,4.02,
6.784,116.64194577583181,80.1808764903948,-7.0,-8.0,-2.0,0,2,0,0,0,0,0,0.00,0.00,4.12,
6.798,116.64019457758317,79.48708764903947,-5.0,-7.0,-5.0,0,2,0,0,0,0,0,0.00,0.00,4.32,
6.811,116.48701945775832,79.42670876490395,-2.0,-6.0,-7.0,0,2,0,0,0,0,0,0.00,0.00,4.71,
6.825,116.20170194577582,79.4836708764904,-1.0,-3.0,-7.0,0,2,0,0,0,0,0,0.00,0.00,5.20,
6.839,115.64217019457759,79.71436708764902,0.0,0.0,-7.0,0,2,0,0,0,0,0,0.00,0.00,6.18,
6.853,115.39721701945777,79.7464367087649,1.0,3.0,-9.0,0,2,0,0,0,0,0,0.00,0.00,6.77,
6.866,115.25572170194577,79.95664367087649,1.0,7.0,-11.0,0,2,0,0,0,0,0,0.00,0.00,7.65,
6.881,115.30457217019459,79.77066436708765,0.0,8.0,-14.0,1,2,0,0,0,0,1,0.00,0.00,8.73,
6.894,115.65145721701946,79.64406643670877,0.0,8.0,-16.0,1,2,0,0,0,0,1,0.00,0.00,12.36,
6.908,115.98314572170193,79.82040664367088,1.0,8.0,-16.0,1,2,0,0,0,0,1,0.00,0.00,15.21,
6.922,116.3403145721702,80.17104066436708,3.0,4.0,-15.0,1,2,0,0,0,0,1,0.00,0.00,18.25,
6.936,116.28603145721702,80.7371040664367,4.0,5.0,-13.0,1,3,1,0,0,0,1,0.00,0.00,21.68,
6.95,116.2266031457217,81.17171040664367,6.0,4.0,-12.0,1,3,1,0,0,0,1,0.00,0.00,29.43,
6.964,115.98666031457216,82.01617104066436,5.0,3.0,-11.0,1,3,1,0,0,0,1,0.00,0.00,33.84,
6.978,115.73766603145721,82.60461710406643,2.0,4.0,-9.0,1,3,1,0,0,0,1,0.00,0.00,38.26,
6.992,115.82976660314571,83.02346171040664,0.0,3.0,-8.0,1,3,1,0,0,0,1,0.00,0.00,42.08,
7.006,116.02797666031456,83.29034617104067,-1.0,2.0,-6.0,1,3,1,0,0,0,1,0.00,0.00,47.97,
7.02,116.19179766603145,83.28103461710407,-2.0,0.0,-4.0,1,3,1,0,0,0,1,0.00,0.00,50.13,
7.034,116.32517976660314,83.2531034617104,0.0,1.0,-3.0,1,3,1,0,0,0,1,0.00,0.00,51.70,
7.049,116.4735179766603,82.92631034617104,4.0,1.0,-2.0,1,3,1,0,0,0,1,0.00,0.00,52.97,
7.062,116.58735179766603,83.0196310346171,6.0,0.0,-1.0,1,3,1,0,0,0,1,0.00,0.00,55.03,
7.076,116.7067351797666,83.1459631034617,5.0,-1.0,0.0,1,3,1,0,0,0,1,0.00,0.00,56.60,
7.09,116.72767351797665,83.05959631034617,6.0,-2.0,0.0,1,3,1,0,0,0,1,0.00,0.00,57.78,
7.104,116.74776735179766,82.95195963103461,8.0,-2.0,0.0,1,4,1,0,0,0,1,0.00,0.00,58.66,
7.118,116.74977673517976,83.04919596310347,7.0,-1.0,-1.0,1,4,1,0,0,0,1,0.00,0.00,59.25,
7.133,116.48897767351797,83.40091959631035,6.0,-1.0,-2.0,1,4,1,0,0,0,1,0.00,0.00,59.35,
7.146,116.4808977673518,83.34609195963104,6.0,0.0,-1.0,1,4,1,1,0,0,1,0.00,0.00,59.15,
7.16,116.47108977673518,83.5926091959631,6.0,1.0,0.0,1,4,1,1,1,0,1,0.00,0.00,57.98,
7.175,116.63210897767352,83.72526091959631,5.0,0.0,0.0,1,4,1,1,1,0,2,0.00,0.00,57.19,
7.188,116.68421089776734,83.95452609195964,2.0,0.0,0.0,1,4,1,1,1,1,2,0.00,0.00,56.41,
7.202,116.71642108977673,83.99545260919597,1.0,-1.0,-1.0,1,4,1,1,2,1,2,0.00,0.00,55.82,
7.216,116.52164210897767,84.01754526091959,0.0,-1.0,-1.0,1,5,1,1,2,1,2,0.00,0.00,55.03,
7.23,116.84416421089776,83.76775452609196,2.0,-1.0,-1.0,1,5,1,1,2,1,2,0.00,0.00,54.84,
7.244,116.83141642108978,83.8597754526092,2.0,-1.0,-3.0,1,4,1,1,2,1,3,0.00,0.00,54.64,
7.259,117.06414164210898,83.65297754526091,2.0,-3.0,-3.0,1,5,1,1,3,1,3,0.00,0.00,54.15,
7.272,117.0244141642109,83.7582977545261,0.0,-3.0,-4.0,1,5,1,1,3,1,3,0.00,0.00,51.99,
7.286,116.77744141642108,83.66082977545261,0.0,-3.0,-4.0,1,5,1,1,3,1,3,0.00,0.00,51.31,
7.301,116.64474414164211,84.07408297754527,-1.0,-4.0,-4.0,1,4,1,1,3,1,3,0.00,0.00,50.72,
7.315,116.7034744141642,84.06140829775454,-1.0,-5.0,-5.0,1,5,1,1,3,1,3,0.00,0.00,50.52,
7.329,116.59234744141642,84.23114082977546,-1.0,-6.0,-5.0,1,5,1,1,3,1,3,0.00,0.00,49.54,
7.343,116.58123474414164,84.53611408297755,-2.0,-7.0,-4.0,1,4,1,1,3,1,3,0.00,0.00,48.76,
7.357,116.58012347441417,84.62061140829775,-3.0,-8.0,-3.0,1,4,1,1,3,1,3,0.00,0.00,47.87,
7.371,116.53501234744142,84.68306114082978,-4.0,-9.0,-3.0,1,4,1,1,3,1,3,0.00,0.00,46.50,
7.386,116.40450123474415,84.73430611408297,-5.0,-10.0,-3.0,1,4,1,1,3,1,3,0.00,0.00,45.81,
7.4,116.29245012347441,84.98243061140829,-8.0,-9.0,-2.0,1,4,1,1,3,1,3,0.00,0.00,45.32,
7.414,116.01124501234744,84.88124306114084,-9.0,-7.0,-1.0,1,4,1,1,3,1,3,0.00,0.00,45.22,
7.428,115.58712450123474,84.83512430611408,-10.0,-6.0,-2.0,1,4,1,1,3,1,3,0.00,0.00,46.50,
7.442,115.48171245012347,84.83951243061142,-11.0,-4.0,-2.0,1,4,1,1,2,1,3,0.00,0.00,47.09,
7.456,115.40817124501235,84.72295124306113,-11.0,-4.0,-2.0,1,4,1,1,2,1,3,0.00,0.00,47.48,
7.471,115.31081712450123,84.56729512430611,-10.0,-3.0,-2.0,1,4,1,1,2,1,3,0.00,0.00,47.77,
7.485,115.32808171245011,84.38072951243062,-9.0,-3.0,-3.0,1,4,1,1,2,1,3,0.00,0.00,48.07,
7.499,115.23080817124502,84.20907295124306,-8.0,-1.0,-3.0,1,4,1,1,2,1,2,0.00,0.00,48.46,
7.514,115.26608081712449,84.00290729512432,-6.0,-3.0,-4.0,1,4,1,1,1,1,2,0.00,0.00,49.05,
7.527,115.24260808171243,83.89229072951244,-5.0,-2.0,-2.0,1,4,1,1,1,1,2,0.00,0.00,50.52,
7.541,115.04226080817124,83.98922907295125,-4.0,-2.0,-1.0,1,4,1,1,1,1,2,0.00,0.00,51.40,
7.556,115.09422608081712,83.91792290729512,-3.0,-2.0,0.0,1,4,1,1,1,1,2,0.00,0.00,52.39,
7.57,115.1984226080817,83.69479229072951,-1.0,-3.0,-1.0,1,4,1,1,1,1,2,0.00,0.00,53.27,
7.584,115.12784226080817,83.72647922907295,-2.0,-4.0,-2.0,1,4,1,1,1,1,2,0.00,0.00,55.62,
7.599,115.24678422608082,83.72964792290729,-3.0,-5.0,-3.0,1,4,1,1,1,0,2,0.00,0.00,56.90,
7.612,115.27667842260809,83.69396479229073,-3.0,-5.0,-4.0,1,4,1,1,1,0,2,0.00,0.00,58.17,
7.626,115.12666784226082,83.66339647922906,-4.0,-5.0,-4.0,1,4,1,1,1,0,2,0.00,0.00,59.45,
7.641,114.87766678422608,83.8403396479229,-5.0,-5.0,-4.0,1,4,1,1,1,0,2,0.00,0.00,61.41,
7.655,114.76276667842261,83.9840339647923,-7.0,-5.0,-3.0,1,4,1,1,1,0,1,0.00,0.00,62.00,
7.669,114.64327666784226,83.62940339647923,-4.0,-2.0,-1.0,1,3,1,1,0,0,1,0.00,0.00,62.49,
7.683,114.56832766678423,83.48594033964793,-1.0,-1.0,-1.0,1,3,1,1,0,0,1,0.00,0.00,63.18,
7.697,114.51583276667843,83.5795940339648,-1.0,-1.0,0.0,1,3,1,1,0,0,1,0.00,0.00,63.96,
7.711,114.59158327666785,83.71495940339648,-2.0,-1.0,0.0,1,3,1,1,0,0,1,0.00,0.00,65.14,
7.726,114.68915832766679,83.79149594033964,-4.0,0.0,0.0,1,4,1,1,0,0,1,0.00,0.00,66.51,
7.739,114.75291583276669,83.71814959403396,-4.0,-2.0,-2.0,1,3,1,1,0,0,1,0.00,0.00,68.28,
7.753,114.77729158327668,83.56681495940339,-4.0,-2.0,-4.0,1,4,1,1,0,0,1,0.00,0.00,68.38,
7.768,114.89672915832766,83.30868149594033,-3.0,-2.0,-4.0,1,4,1,1,0,0,1,0.00,0.00,68.18,
7.782,114.93567291583275,83.18386814959405,0.0,-2.0,-4.0,1,4,1,1,0,0,1,0.00,0.00,67.30,
7.796,114.75956729158327,83.23438681495941,1.0,-1.0,-3.0,1,3,1,1,0,0,1,0.00,0.00,64.84,
7.81,114.60695672915833,83.46443868149593,2.0,0.0,-2.0,1,3,1,1,0,0,1,0.00,0.00,64.06,
7.824,114.54669567291585,83.6314438681496,0.0,0.0,-1.0,1,4,1,1,0,0,1,0.00,0.00,63.47,
7.838,114.61266956729159,83.74714438681497,0.0,-1.0,-2.0,1,3,1,1,0,0,1,0.00,0.00,63.27,
7.852,114.65526695672916,83.7947144386815,0.0,-2.0,-1.0,1,3,1,1,0,0,1,0.00,0.00,62.88,
7.866,114.62352669567292,83.81747144386816,0.0,-3.0,-1.0,1,3,1,1,0,0,1,0.00,0.00,62.29,
7.88,114.5213526695673,83.88274714438683,-1.0,-3.0,-1.0,1,4,1,1,0,0,1,0.00,0.00,61.70,
7.895,114.36713526695672,83.97927471443867,-2.0,-2.0,-1.0,1,4,1,1,0,0,1,0.00,0.00,60.33,
7.908,114.21671352669567,84.06992747144386,-2.0,-2.0,-1.0,1,3,1,1,0,0,1,0.00,0.00,59.64,
7.922,114.16567135266956,84.0159927471444,-2.0,-2.0,-1.0,1,3,1,1,0,0,1,0.00,0.00,59.06,
7.937,114.17856713526697,83.99259927471444,-3.0,-2.0,-1.0,1,3,1,1,0,0,1,0.00,0.00,58.57,
7.951,114.21585671352669,83.88225992747145,-3.0,-2.0,-2.0,1,3,1,1,0,0,1,0.00,0.00,57.68,
7.964,114.17458567135267,83.89822599274714,-3.0,-2.0,-2.0,1,3,1,1,0,0,1,0.00,0.00,57.29,
7.979,114.16145856713527,83.9538225992747,-3.0,-2.0,-2.0,1,3,1,1,0,0,1,0.00,0.00,56.80,
7.993,114.20514585671353,83.79738225992747,-1.0,-1.0,-1.0,1,3,1,1,0,0,1,0.00,0.00,56.31,
8.006,114.20051458567136,83.79973822599274,0.0,0.0,-1.0,1,3,1,1,0,0,1,0.00,0.00,55.92,
8.02,114.20905145856713,83.72797382259927,0.0,0.0,-1.0,1,3,1,1,0,0,1,0.00,0.00,56.21,
8.034,114.1199051458567,83.82879738225992,0.0,0.0,-1.0,1,3,1,1,0,0,1,0.00,0.00,56.60,
8.048,114.12899051458567,83.829879738226,0.0,0.0,-2.0,1,4,1,1,0,0,1,0.00,0.00,56.90,
8.061,114.27389905145857,83.7399879738226,0.0,0.0,-2.0,1,4,1,1,0,0,1,0.00,0.00,57.39,
8.076,114.29738990514586,83.81199879738226,0.0,-1.0,-2.0,1,4,1,1,0,0,1,0.00,0.00,57.29,
8.09,114.23673899051458,83.95419987973823,0.0,-1.0,-2.0,1,4,1,1,0,0,1,0.00,0.00,57.09,
8.103,114.14067389905145,84.14841998797382,-1.0,0.0,-1.0,1,4,1,1,0,0,1,0.00,0.00,56.51,
8.118,114.07706738990514,84.1768419987974,-1.0,0.0,0.0,1,4,1,1,0,0,1,0.00,0.00,56.51,
8.132,114.05270673899051,84.15268419987976,-1.0,0.0,0.0,1,4,1,1,0,0,1,0.00,0.00,56.90,
8.146,113.96927067389905,84.22226841998798,-1.0,0.0,-1.0,1,3,1,1,0,0,1,0.00,0.00,57.68,
8.16,113.98792706738989,84.2652268419988,-2.0,0.0,0.0,1,4,1,1,0,0,1,0.00,0.00,59.15,
8.174,114.079792706739,84.26952268419988,-2.0,0.0,-1.0,1,4,1,1,0,0,1,0.00,0.00,59.55,
8.188,114.0889792706739,84.16195226842,-2.0,0.0,-1.0,1,4,1,1,0,0,1,0.00,0.00,59.94,
8.202,114.0898979270674,84.10619522684199,-1.0,0.0,-1.0,1,4,1,1,0,0,1,0.00,0.00,60.33,
8.216,114.08998979270675,84.04661952268421,-1.0,0.0,-2.0,1,4,1,1,0,0,1,0.00,0.00,61.31,
8.23,114.18899897927068,84.04966195226842,0.0,0.0,-2.0,1,4,1,1,0,0,2,0.00,0.00,62.10,
8.244,114.27089989792707,84.14896619522685,-1.0,0.0,-2.0,1,4,1,1,0,0,2,0.00,0.00,62.98,
8.258,114.35108998979271,84.14089661952268,-1.0,0.0,-1.0,1,4,1,1,0,0,2,0.00,0.00,63.86,
8.272,114.44010899897928,84.08608966195226,-1.0,0.0,-2.0,1,4,1,1,0,0,2,0.00,0.00,65.73,
8.287,114.40401089989794,84.07160896619521,-2.0,-1.0,-2.0,1,4,1,1,0,0,2,0.00,0.00,66.51,
8.3,114.2924010899898,84.12416089661951,-2.0,-1.0,-3.0,1,4,1,1,0,0,2,0.00,0.00,67.20,
8.314,114.20024010899898,84.26441608966195,-2.0,-1.0,-3.0,1,4,1,1,0,0,2,0.00,0.00,67.69,
8.329,114.1460240108999,84.30544160896619,-3.0,-1.0,-3.0,1,4,1,1,0,0,2,0.00,0.00,67.89,
8.343,114.14960240109,84.39954416089661,-3.0,0.0,-3.0,1,4,1,1,0,0,2,0.00,0.00,67.69,
8.357,114.167960240109,84.45395441608966,-4.0,0.0,-2.0,1,4,1,1,0,0,2,0.00,0.00,67.49,
8.371,114.1877960240109,84.38739544160896,-4.0,0.0,-1.0,1,4,1,1,0,0,2,0.00,0.00,67.39,
8.385,114.24377960240109,84.3357395441609,-4.0,0.0,-2.0,1,4,1,1,0,0,2,0.00,0.00,67.69,
8.399,114.24937796024011,84.32157395441608,-3.0,0.0,-2.0,1,4,1,1,0,0,1,0.00,0.00,67.79,
8.414,114.15993779602402,84.26615739544161,-3.0,-1.0,-2.0,1,4,1,1,0,0,1,0.00,0.00,67.79,
8.427,114.1419937796024,84.24261573954416,-3.0,-1.0,-2.0,1,4,1,1,0,0,1,0.00,0.00,66.90,
8.441,114.11319937796023,84.3122615739544,-2.0,-1.0,-2.0,1,4,1,1,0,0,1,0.00,0.00,65.92,
8.456,114.11931993779604,84.32822615739545,-2.0,-2.0,-1.0,1,4,1,1,0,0,1,0.00,0.00,64.75,
8.47,114.1289319937796,84.26682261573954,-2.0,-1.0,-1.0,1,4,1,1,0,0,1,0.00,0.00,63.77,
8.484,114.20189319937796,84.21568226157396,-2.0,-2.0,-1.0,1,4,1,1,0,0,1,0.00,0.00,61.80,
8.498,114.20018931993779,84.0215682261574,-1.0,-2.0,0.0,1,4,1,1,0,0,1,0.00,0.00,61.12,
8.512,114.1820189319938,84.01115682261575,0.0,-2.0,-1.0,1,4,1,1,0,0,1,0.00,0.00,60.43,
8.526,114.13520189319938,84.05511568226159,0.0,-2.0,-1.0,1,4,1,1,0,0,1,0.00,0.00,59.74,
8.541,114.08552018931994,84.08651156822617,0.0,-2.0,-1.0,1,4,1,1,0,0,1,0.00,0.00,59.35,
8.554,114.07155201893198,84.08065115682261,-1.0,-2.0,-1.0,1,4,1,1,0,0,1,0.00,0.00,59.06,
8.568,113.99815520189318,84.13406511568226,-1.0,-2.0,-2.0,1,4,1,1,0,0,1,0.00,0.00,58.76,
9.005,113.93681552018933,84.40940651156822,1.0,-2.0,-3.0,1,4,1,1,1,0,2,0.00,0.00,51.99,
9.019,113.84068155201894,84.56294065115682,0.0,-2.0,-3.0,1,4,1,1,1,0,2,0.00,0.00,52.09,
9.033,113.74106815520189,84.75829406511569,0.0,-2.0,-3.0,1,4,1,1,1,0,2,0.00,0.00,52.09,
9.048,113.74010681552019,84.85882940651157,-1.0,-3.0,-2.0,1,4,1,1,1,0,2,0.00,0.00,51.89,
9.061,113.65901068155203,84.83288294065115,-1.0,-2.0,-2.0,1,4,1,1,1,0,2,0.00,0.00,51.80,
9.075,113.6509010681552,84.81228829406513,-1.0,-2.0,-2.0,1,4,1,1,1,0,2,0.00,0.00,51.70,
9.09,113.58709010681551,84.78322882940651,0.0,-1.0,-3.0,1,4,1,1,1,0,2,0.00,0.00,51.70,
9.104,113.54470901068156,84.78032288294065,0.0,0.0,-3.0,1,4,1,1,1,0,2,0.00,0.00,52.48,
9.117,113.52247090106815,84.73503228829406,0.0,0.0,-4.0,1,4,1,1,1,0,2,0.00,0.00,53.17,
9.132,113.42124709010682,84.7665032288294,0.0,1.0,-5.0,1,4,1,1,1,0,2,0.00,0.00,53.96,
9.146,113.35712470901068,84.84165032288293,0.0,0.0,-6.0,1,4,1,2,2,0,2,0.00,0.00,54.74,
9.159,113.30571247090106,85.1371650322883,0.0,0.0,-6.0,1,4,1,2,2,0,2,0.00,0.00,55.72,
9.174,113.3545712470901,85.21171650322884,0.0,0.0,-5.0,1,4,1,2,2,0,2,0.00,0.00,55.82,
9.187,113.48545712470901,85.16517165032289,0.0,0.0,-4.0,1,4,1,2,2,0,2,0.00,0.00,56.02,
9.201,113.6065457124709,85.18751716503229,0.0,-1.0,-4.0,1,4,1,2,2,0,2,0.00,0.00,56.11,
9.216,113.66365457124708,85.17175171650324,0.0,-2.0,-4.0,1,4,1,2,2,0,2,0.00,0.00,55.82,
9.23,113.62436545712471,85.29617517165033,0.0,-2.0,-5.0,1,3,1,2,2,0,2,0.00,0.00,55.52,
9.243,113.61143654571246,85.52461751716504,-1.0,-2.0,-5.0,1,3,1,2,2,0,2,0.00,0.00,55.03,
9.257,113.70014365457124,85.57446175171651,-2.0,-3.0,-6.0,1,3,1,2,2,0,2,0.00,0.00,54.45,
9.272,113.82601436545713,85.60644617517165,-2.0,-5.0,-6.0,1,3,1,2,1,0,2,0.00,0.00,53.37,
9.286,113.84760143654572,85.56464461751717,-1.0,-6.0,-7.0,1,3,1,1,1,0,2,0.00,0.00,52.78,
9.3,113.78676014365458,85.48846446175172,0.0,-7.0,-6.0,1,3,1,1,1,0,2,0.00,0.00,51.99,
9.314,113.66367601436546,85.54384644617518,0.0,-8.0,-6.0,1,3,1,1,1,0,2,0.00,0.00,49.34,
9.328,113.52536760143656,85.69338464461751,0.0,-9.0,-7.0,1,3,0,1,1,0,2,0.00,0.00,47.38,
9.342,113.38553676014365,85.93333846446174,-2.0,-9.0,-7.0,1,2,0,1,1,0,2,0.00,0.00,44.83,
9.357,113.27255367601437,86.07433384644618,-3.0,-10.0,-7.0,1,2,0,1,1,0,1,0.00,0.00,41.99,
9.37,113.18025536760145,85.96243338464463,-4.0,-10.0,-8.0,1,2,0,1,0,0,1,0.00,0.00,35.51,
9.384,113.19802553676016,85.75324333846447,-4.0,-10.0,-7.0,0,2,0,1,0,0,1,0.00,0.00,32.08,
9.399,113.29880255367601,85.29132433384643,-3.0,-11.0,-9.0,0,2,0,0,0,0,1,0.00,0.00,28.84,
9.413,113.5698802553676,84.60613243338464,-3.0,-12.0,-9.0,0,2,0,0,0,0,1,0.00,0.00,25.41,
9.427,114.12798802553675,84.03361324333846,-2.0,-14.0,-12.0,0,2,0,0,0,0,1,0.00,0.00,18.84,
9.442,115.35379880255367,84.12936132433384,0.0,-12.0,-20.0,0,1,0,0,0,0,1,0.00,0.00,16.09,
9.456,116.25937988025537,82.8609361324334,-5.0,-13.0,-20.0,0,1,0,0,0,0,1,0.00,0.00,13.64,
9.469,116.88993798802554,82.18509361324334,-9.0,-11.0,-31.0,0,1,0,0,0,0,1,0.00,0.00,9.03,
9.484,117.02499379880257,82.21650936132434,-9.0,-11.0,-32.0,0,1,0,0,0,0,0,0.00,0.00,6.87,
9.498,117.22749937988026,82.93965093613244,-11.0,-11.0,-33.0,0,1,0,0,0,0,0,0.00,0.00,4.91,
9.511,117.50874993798803,83.34496509361324,-12.0,-12.0,-32.0,0,1,0,0,0,0,0,0.00,-2180.37,3.63,
9.534,116.92487499379881,83.72749650936132,-14.0,-8.0,-28.0,0,1,0,0,0,0,0,0.00,0.00,1.67,
9.547,115.66948749937988,84.40474965093614,-16.0,7.0,-9.0,0,1,0,0,0,0,0,0.00,0.00,0.49,
9.562,114.391948749938,84.75147496509362,-17.0,16.0,2.0,0,1,0,0,0,0,0,0.00,0.00,0.20,
9.575,113.3821948749938,84.94814749650936,-20.0,22.0,14.0,0,1,0,0,0,0,0,0.00,0.00,0.10,
9.588,112.63321948749937,84.94981474965093,-22.0,26.0,19.0,0,1,0,0,0,0,0,0.00,0.00,0.00,
9.602,112.14432194874993,84.63498147496509,-17.0,26.0,14.0,0,1,0,0,0,0,0,0.00,0.00,0.00,
9.615,111.141432194875,83.91949814749651,-2.0,19.0,-3.0,0,2,0,0,0,0,0,0.00,0.00,0.39,
9.629,108.6651432194875,84.07294981474966,10.0,-5.0,-34.0,0,2,0,0,0,0,0,0.00,0.00,1.08,
9.643,106.06851432194874,85.28529498147496,9.0,-5.0,-19.0,0,2,0,0,0,0,0,0.00,0.00,2.16,
9.657,104.71985143219487,87.94452949814749,0.0,-5.0,-23.0,0,2,0,0,0,0,0,0.00,0.00,3.53,
9.671,106.41198514321948,90.42445294981476,-11.0,5.0,-10.0,0,2,0,0,0,0,1,0.00,0.00,6.67,
9.684,107.58919851432195,89.82644529498148,-18.0,9.0,1.0,1,2,0,0,0,0,1,0.00,0.00,8.73,
9.699,108.8409198514322,89.41564452949815,-20.0,14.0,0.0,1,2,0,0,0,0,1,0.00,0.00,10.99,
9.713,110.21709198514323,87.97056445294982,-16.0,16.0,3.0,1,2,1,0,0,0,1,0.00,0.00,13.64,
9.728,111.52470919851432,86.88105644529499,-7.0,6.0,1.0,1,2,1,0,0,0,1,0.00,0.00,18.25,
9.741,112.31247091985144,86.3761056445295,-4.0,2.0,0.0,1,3,1,0,0,0,1,0.00,0.00,20.21,
9.755,112.44524709198514,86.29861056445296,-2.0,1.0,0.0,1,3,1,0,0,0,1,0.00,0.00,21.58,
9.769,112.31452470919851,86.10186105644529,-3.0,1.0,2.0,1,3,1,0,0,0,1,0.00,0.00,23.05,
9.783,112.00445247091984,86.01918610564454,-3.0,3.0,2.0,1,3,1,0,0,0,1,0.00,0.00,22.96,
9.797,111.98244524709199,85.84891861056445,-4.0,3.0,3.0,1,3,1,0,0,0,1,0.00,0.00,22.56,
9.811,112.0252445247092,85.73289186105644,-5.0,4.0,2.0,1,3,1,0,0,0,1,0.00,0.00,22.17,
9.825,112.47952445247091,85.58628918610563,-5.0,3.0,3.0,1,3,1,0,0,0,1,0.00,0.00,21.19,
9.839,113.16395244524709,85.12162891861057,-4.0,0.0,2.0,1,3,1,0,0,0,1,0.00,0.00,20.60,
9.853,113.75439524452472,84.85916289186105,-3.0,-1.0,-1.0,1,3,1,0,0,0,1,0.00,0.00,20.11,
9.867,113.79543952445248,84.73391628918611,-3.0,-3.0,-2.0,1,3,1,0,0,0,1,0.00,0.00,19.42,
9.881,113.43954395244525,84.8113916289186,-3.0,-1.0,-1.0,1,3,1,0,0,0,1,0.00,0.00,17.76,
9.895,113.04395439524453,84.64813916289187,-2.0,2.0,0.0,1,3,1,0,0,0,1,0.00,0.00,17.17,
9.91,112.76139543952446,84.70381391628918,-1.0,5.0,0.0,1,3,1,0,0,0,1,0.00,0.00,16.97,
9.923,112.66113954395244,84.59238139162892,0.0,7.0,1.0,1,3,1,0,0,0,1,0.00,0.00,17.56,
9.937,112.99311395439524,84.55423813916289,0.0,9.0,1.0,1,3,1,0,0,0,1,0.00,0.00,20.60,
9.952,113.44931139543952,84.37942381391629,0.0,8.0,0.0,1,3,1,1,0,0,1,0.00,0.00,22.56,
9.965,113.86393113954395,84.34394238139163,0.0,9.0,0.0,1,3,1,1,1,0,1,0.00,0.00,24.72,
9.979,113.97739311395439,84.13339423813916,3.0,13.0,0.0,1,3,1,1,1,0,1,0.00,0.00,26.88,
9.993,114.11473931139544,84.3283394238139,3.0,14.0,0.0,1,3,1,1,1,0,2,0.00,0.00,32.08,
10.007,114.11047393113954,84.5728339423814,1.0,16.0,1.0,1,3,1,1,2,0,2,0.00,0.00,35.61,
10.021,114.04704739311396,84.58828339423813,1.0,20.0,4.0,1,4,1,1,2,1,2,0.00,0.00,39.73,
10.035,114.4547047393114,84.38282833942382,2.0,24.0,4.0,1,4,1,1,3,1,3,0.00,0.00,44.34,
10.049,114.74747047393114,84.56928283394238,2.0,23.0,3.0,1,5,1,2,3,1,3,0.00,0.00,56.51,
10.063,115.2177470473931,84.63292828339424,0.0,21.0,4.0,1,5,1,2,3,1,3,0.00,0.00,64.06,
10.078,115.70577470473933,84.45929282833941,0.0,18.0,2.0,1,6,1,2,4,2,4,0.00,0.00,71.91,
10.091,116.33957747047394,84.00092928283395,1.0,14.0,1.0,1,6,2,2,4,2,4,0.00,0.00,86.43,
10.105,116.8169577470474,83.8650929282834,3.0,10.0,0.0,1,6,2,3,4,2,4,0.00,0.00,92.70,
10.12,117.16169577470474,83.85150929282834,5.0,6.0,0.0,1,7,2,3,4,2,4,0.00,0.00,97.51,
10.133,117.25916957747046,84.12015092928284,5.0,4.0,-1.0,1,7,2,3,5,2,5,0.00,0.00,100.94,
10.147,117.18791695774705,84.35401509292828,4.0,4.0,-1.0,1,7,2,3,5,3,5,0.59,0.00,104.57,
10.162,117.0097916957747,84.61140150929283,2.0,3.0,-1.0,1,7,2,3,5,3,5,1.18,0.00,105.36,
10.176,116.96497916957746,84.81714015092929,0.0,2.0,0.0,1,7,2,3,5,3,5,1.77,0.00,105.56,
10.19,116.97849791695775,85.04471401509294,-2.0,0.0,-1.0,1,7,2,3,5,3,5,1.96,0.00,105.36,
10.205,116.96184979169577,85.0494714015093,-4.0,0.0,-1.0,1,7,2,3,5,3,5,1.86,0.00,103.99,
10.218,117.01418497916957,84.96894714015093,-5.0,1.0,-2.0,1,7,2,3,5,3,5,1.67,0.00,103.10,
10.232,116.96541849791694,85.04189471401509,-6.0,1.0,-3.0,1,7,2,3,5,3,5,1.08,0.00,102.42,
10.247,117.04154184979168,85.0851894714015,-7.0,1.0,-3.0,1,7,2,3,4,2,5,0.98,0.00,102.12,
10.261,116.95015418497916,85.15251894714015,-8.0,1.0,-4.0,2,7,2,3,4,2,4,0.98,0.00,102.71,
10.275,117.00401541849793,85.08725189471402,-8.0,1.0,-4.0,2,7,2,3,4,2,4,0.98,0.00,103.89,
10.29,117.0094015418498,84.9007251894714,-7.0,0.0,-4.0,2,7,2,3,4,2,4,1.08,0.00,105.26,
10.304,117.20794015418498,84.62107251894714,-4.0,0.0,-4.0,2,6,2,3,4,2,4,1.18,0.00,108.30,
10.318,117.38979401541849,84.35910725189471,-1.0,-1.0,-4.0,2,6,2,3,4,2,4,1.18,0.00,109.58,
10.333,117.32697940154183,84.34191072518948,1.0,-3.0,-4.0,2,7,2,3,4,2,4,1.28,0.00,110.07,
10.347,117.23069794015419,84.46619107251895,2.0,-4.0,-4.0,2,7,2,3,4,2,4,1.37,0.00,108.40,
10.361,117.16706979401542,84.60461910725189,2.0,-5.0,-4.0,2,7,2,3,4,2,4,1.47,0.00,106.63,
10.376,117.16070697940154,84.69046191072519,2.0,-6.0,-4.0,2,7,2,3,4,2,4,1.28,0.00,104.48,
10.389,117.16907069794016,84.79804619107253,1.0,-7.0,-5.0,2,6,2,3,4,2,4,1.08,0.00,102.02,
10.403,117.09790706979402,84.89880461910725,0.0,-8.0,-5.0,2,6,2,3,4,2,4,0.49,0.00,96.43,
10.418,116.88379070697941,85.07088046191073,-1.0,-8.0,-5.0,2,6,2,3,4,2,4,0.00,0.00,93.10,
10.432,116.69137907069793,85.34008804619108,-3.0,-9.0,-6.0,2,6,2,3,4,2,4,0.00,0.00,89.66,
10.446,116.5461379070698,85.61000880461911,-6.0,-10.0,-5.0,1,6,2,3,3,2,4,0.00,0.00,85.94,
10.461,116.50461379070698,85.64600088046191,-8.0,-11.0,-5.0,1,5,2,2,3,1,3,0.00,0.00,78.38,
10.475,116.4734613790707,85.44260008804619,-10.0,-13.0,-6.0,1,5,1,2,3,1,3,0.00,0.00,74.36,
10.489,116.29934613790707,85.27826000880462,-8.0,-14.0,-7.0,1,4,1,2,2,1,3,0.00,0.00,70.24,
10.504,116.35393461379071,85.09982600088047,-5.0,-13.0,-5.0,1,4,1,1,2,1,3,0.00,0.00,61.90,
10.518,116.39539346137907,84.81198260008806,-1.0,-13.0,-3.0,1,4,1,1,2,0,2,0.00,0.00,58.27,
10.532,116.1925393461379,84.95419826000881,0.0,-12.0,-3.0,1,4,1,1,2,0,2,0.00,0.00,54.74,
10.547,115.80325393461379,85.07641982600089,0.0,-10.0,-1.0,1,4,1,1,2,0,2,0.00,0.00,48.46,
10.561,115.55732539346138,85.2866419826001,0.0,-9.0,0.0,1,4,1,1,2,0,2,0.00,0.00,45.91,
10.575,115.26273253934615,85.37066419826,-2.0,-7.0,0.0,1,4,1,1,2,0,2,0.00,0.00,43.85,
10.589,115.0352732539346,85.388066419826,-3.0,-6.0,-1.0,1,4,1,1,2,0,2,0.00,0.00,42.18,
10.603,114.77852732539347,85.31780664198261,-4.0,-5.0,-2.0,1,4,1,1,2,0,2,0.00,0.00,39.14,
10.617,114.62685273253935,85.30178066419826,-4.0,-4.0,-2.0,1,3,1,1,1,0,2,0.00,0.00,37.67,
10.632,114.41368527325395,85.39917806641982,-4.0,-3.0,-1.0,1,3,1,1,1,0,2,0.00,0.00,36.40,
10.646,114.3653685273254,85.44491780664198,-5.0,-4.0,0.0,1,3,1,1,1,0,2,0.00,0.00,35.32,
10.66,114.41453685273254,85.5034917806642,-5.0,-5.0,1.0,1,3,1,1,1,0,2,0.00,0.00,33.55,
10.675,114.29345368527325,85.39234917806641,-4.0,-2.0,2.0,1,3,1,1,1,0,2,0.00,0.00,32.57,
10.688,114.30834536852733,85.30023491780665,-1.0,-1.0,1.0,1,3,1,1,1,0,2,0.00,0.00,31.78,
10.702,114.18383453685273,85.26402349178068,-2.0,-1.0,1.0,1,3,1,1,1,0,2,0.00,0.00,31.88,
10.717,114.18038345368528,85.29640234917807,-2.0,0.0,0.0,1,3,1,1,1,0,2,0.00,0.00,32.37,
10.731,114.17103834536853,85.2456402349178,-3.0,0.0,0.0,1,4,1,1,1,0,2,0.00,0.00,32.86,
10.744,114.12510383453686,85.23156402349179,-3.0,0.0,0.0,1,3,1,1,1,0,2,0.00,0.00,33.16,
10.759,114.11151038345368,85.14915640234918,-2.0,0.0,0.0,1,3,1,1,1,0,2,0.00,0.00,33.35,
10.773,114.13715103834537,85.05991564023492,-1.0,0.0,0.0,1,3,1,1,1,0,2,0.00,0.00,33.06,
10.787,114.15771510383453,85.1139915640235,-1.0,0.0,1.0,1,3,1,1,1,0,2,0.00,0.00,32.67,
10.801,114.17777151038347,85.29939915640234,-2.0,0.0,2.0,1,3,1,1,1,0,1,5,2,1,
11.125,116.86177715103835,83.64393991564022,-5.0,4.0,3.0,1,5,2,1,3,1,3,0.00,0.00,77.11,
11.139,117.28317771510383,83.21739399156402,0.0,4.0,4.0,1,6,2,1,4,1,3,0.00,0.00,77.89,
11.153,117.50531777151038,82.8957393991564,5.0,4.0,8.0,1,6,2,1,4,1,3,0.00,0.00,78.58,
11.167,117.44653177715104,83.15157393991565,7.0,4.0,11.0,1,6,2,1,4,1,4,0.00,0.00,78.87,
11.181,117.5666531777151,83.34815739399157,8.0,2.0,13.0,1,7,2,1,4,1,4,0.00,0.00,77.70,
11.195,117.75866531777152,83.20581573939916,7.0,0.0,13.0,1,7,2,1,5,1,4,0.00,0.00,75.34,
11.209,117.52586653177715,83.44358157393992,7.0,0.0,10.0,1,7,2,1,5,0,4,0.00,0.00,71.91,
11.224,117.43058665317771,83.71035815739398,6.0,-1.0,11.0,1,8,2,1,5,0,4,0.00,0.00,67.79,
11.238,117.19605866531776,83.9980358157394,4.0,-2.0,10.0,1,8,2,1,5,0,4,0.00,0.00,59.45,
11.251,116.93860586653177,84.15280358157393,2.0,-1.0,8.0,1,8,2,1,5,0,4,0.00,0.00,55.23,
11.266,116.73286058665317,84.2672803581574,0.0,-1.0,6.0,1,8,2,1,5,0,4,0.00,0.00,51.31,
11.28,116.88328605866532,84.09872803581574,0.0,-2.0,4.0,1,8,2,0,5,0,4,0.00,0.00,45.13,
11.294,116.93432860586653,83.93787280358158,0.0,-3.0,3.0,1,8,2,0,5,0,4,0.00,0.00,42.77,
11.308,116.93943286058665,83.82278728035816,1.0,-3.0,3.0,1,8,2,0,5,0,4,0.00,0.00,40.71,
11.322,116.91294328605866,83.4962787280358,2.0,-4.0,1.0,1,8,2,0,5,0,4,0.00,0.00,38.95,
11.336,117.00029432860588,83.30162787280358,4.0,-5.0,0.0,1,8,2,0,5,0,4,0.00,0.00,36.30,
11.35,116.74802943286059,83.39916278728036,7.0,-4.0,0.0,1,9,2,0,5,0,4,0.00,0.00,35.41,
11.364,116.57880294328606,83.57091627872805,7.0,-4.0,-2.0,1,9,2,1,6,0,4,0.00,0.00,34.83,
11.378,116.39988029432861,83.5970916278728,7.0,-3.0,-4.0,1,9,2,1,6,0,5,0.00,0.00,34.53,
11.393,116.35498802943286,83.66270916278728,7.0,-3.0,-7.0,1,9,2,1,6,0,5,0.00,0.00,34.92,
11.407,116.34149880294329,83.93027091627872,7.0,-4.0,-9.0,1,9,2,1,6,0,5,0.00,0.00,35.32,
11.421,116.40314988029434,84.22702709162787,6.0,-4.0,-8.0,1,9,2,1,6,1,5,1.18,0.00,35.90,
11.435,116.37331498802943,84.3017027091628,6.0,-5.0,-10.0,1,9,2,1,6,1,5,4.51,0.00,37.08,
11.449,116.36133149880294,84.52517027091628,6.0,-6.0,-9.0,1,10,2,1,7,1,5,6.18,0.00,37.57,
11.463,116.2881331498803,84.77251702709162,7.0,-7.0,-9.0,1,10,2,1,7,1,5,7.75,0.00,37.77,
11.478,115.99281331498801,85.23825170270916,7.0,-8.0,-9.0,1,10,2,2,7,1,5,9.22,0.00,37.77,
11.492,115.8642813314988,85.47382517027091,7.0,-8.0,-12.0,1,10,2,2,7,1,5,11.67,0.00,37.57,
11.506,115.63542813314989,85.47938251702709,4.0,-7.0,-19.0,1,10,2,2,7,2,5,12.65,0.00,37.57,
11.521,115.33354281331498,85.6959382517027,1.0,-6.0,-26.0,1,10,2,2,7,2,5,13.44,0.00,37.77,
11.535,115.0603542813315,86.23959382517027,-1.0,-5.0,-29.0,1,10,2,2,7,2,5,11.87,0.00,40.71,
11.549,115.39303542813316,86.16795938251703,1.0,-6.0,-19.0,1,9,2,2,7,2,5,9.42,0.00,43.26,
11.564,115.43530354281332,86.5297959382517,5.0,-9.0,-14.0,1,9,2,2,7,2,5,6.87,0.00,46.30,
11.578,115.70953035428133,86.45797959382517,9.0,-12.0,-7.0,1,9,2,2,6,3,5,5.59,0.00,49.05,
11.592,115.77295303542813,86.56779795938252,11.0,-15.0,-7.0,1,9,2,2,6,3,5,6.47,0.00,52.39,
11.607,115.72529530354281,86.66877979593826,12.0,-15.0,-7.0,1,9,2,2,6,3,5,7.55,0.00,52.78,
11.621,115.30652953035428,87.35387797959383,10.0,-14.0,-6.0,1,9,2,2,6,3,5,8.73,0.00,52.68,
11.635,114.72465295303543,87.46738779795938,8.0,-13.0,-8.0,1,9,2,3,6,3,5,10.01,0.00,52.09,
11.65,113.95546529530354,87.68573877979593,5.0,-9.0,-16.0,1,9,2,3,6,3,5,11.48,0.00,52.39,
11.664,114.32854652953036,87.0055738779796,6.0,-6.0,-8.0,1,9,2,3,5,4,5,11.18,0.00,53.46,
11.678,114.63585465295304,85.07455738779795,10.0,-10.0,-22.0,1,9,2,3,5,4,5,10.50,0.00,55.52,
11.693,114.8195854652953,85.4574557387798,11.0,-13.0,-10.0,1,9,2,3,5,4,5,10.99,0.00,57.29,
11.707,114.67595854652953,86.16174557387798,13.0,-14.0,-12.0,1,10,2,3,6,4,5,14.72,0.00,56.70,
11.722,114.46359585465295,86.7451745573878,14.0,-15.0,-14.0,1,10,2,3,6,5,5,16.87,0.00,55.52,
11.737,113.72235958546528,87.45151745573878,13.0,-14.0,-17.0,1,10,2,3,6,5,5,18.93,0.00,52.78,
11.751,113.04523595854653,87.70215174557389,14.0,-11.0,-20.0,1,10,2,3,6,5,6,24.13,0.00,51.50,
11.765,112.64452359585465,88.26721517455739,13.0,-7.0,-23.0,1,10,2,3,6,6,6,27.57,0.00,50.72,
11.78,112.00145235958547,88.46772151745573,12.0,-2.0,-33.0,1,10,2,4,6,7,6,31.49,0.00,50.62,
11.795,112.08114523595854,88.23577215174556,15.0,0.0,-33.0,1,10,2,4,7,8,6,35.71,0.00,51.89,
11.809,112.52111452359586,89.35557721517456,23.0,1.0,-38.0,1,10,2,4,7,9,7,44.93,0.00,54.15,
11.824,113.42911145235959,92.15855772151745,28.0,3.0,-28.0,1,9,1,4,7,10,7,51.11,0.00,56.21,
11.838,112.85391114523597,91.90785577215173,35.0,7.0,-44.0,1,9,1,5,6,11,7,57.88,0.00,54.94,
11.852,113.07539111452358,91.48678557721517,39.0,7.0,-47.0,0,8,1,5,4,11,8,70.24,0.00,52.88,
11.867,112.74653911145235,91.8676785577215,48.0,13.0,-50.0,0,7,0,5,3,12,8,74.95,0.00,50.82,
11.881,112.47065391114523,91.76176785577215,51.0,20.0,-56.0,0,6,0,5,3,12,8,78.48,0.00,47.97,
11.895,112.62306539111452,91.92217678557721,62.0,25.0,-60.0,0,5,0,5,3,12,8,80.34,0.00,47.09,
11.91,112.78230653911145,91.9112176785577,74.0,25.0,-61.0,0,5,0,5,3,12,8,79.26,0.00,45.91,
11.924,112.69923065391114,92.23412176785575,86.0,29.0,-63.0,0,4,0,5,3,12,8,77.60,0.00,41.30,
11.938,112.61892306539112,92.20341217678558,99.0,33.0,-69.0,0,4,0,5,3,11,8,75.24,0.00,37.67,
11.953,112.70989230653912,91.80434121767856,111.0,40.0,-74.0,0,4,0,5,3,11,8,72.01,0.00,33.06,
11.967,112.45798923065392,92.42143412176785,123.0,51.0,-70.0,0,3,0,5,3,10,8,62.10,0.00,27.66,
11.981,112.31579892306539,93.9771434121768,138.0,53.0,-68.0,0,3,0,5,4,9,8,54.84,0.00,16.19,
11.996,112.39157989230655,96.51771434121768,148.0,65.0,-76.0,0,2,0,3,3,8,7,45.32,0.00,11.48,
12.01,113.09215798923066,98.17577143412177,148.0,59.0,-72.0,0,2,0,1,3,6,7,34.04,0.00,8.14,
12.023,114.66521579892307,100.31257714341218,155.0,57.0,-49.0,0,2,0,2,3,4,7,13.83,0.00,4.61,
12.038,116.9015215798923,100.76925771434122,162.0,51.0,-49.0,0,2,0,2,3,2,6,9.32,0.00,3.73,
12.052,120.07715215798925,100.16692577143412,169.0,47.0,-40.0,0,1,0,2,2,1,6,6.47,0.00,2.84,
12.066,124.18371521579893,102.0326925771434,152.0,44.0,-48.0,0,1,0,1,3,0,5,4.02,0.00,1.86,
12.081,128.5003715215799,106.93526925771434,130.0,50.0,-37.0,0,1,0,0,3,0,5,0.00,0.00,0.00,
12.094,133.99003715215798,114.29252692577144,117.0,6.0,-28.0,0,1,0,0,3,0,3,0.00,0.00,0.00,
12.108,135.9340037152158,108.51225269257715,35.0,-27.0,-33.0,0,1,0,0,3,0,3,0.00,0.00,0.00,
12.122,132.6994003715216,105.36922526925771,3.0,-48.0,-38.0,0,2,0,0,3,0,3,0.00,0.00,0.00,
12.136,130.25194003715217,99.88892252692577,-22.0,-38.0,-15.0,0,2,0,0,3,0,3,0.00,0.00,0.00,
12.149,127.5411940037152,94.12989225269257,-11.0,-7.0,-21.0,0,2,0,0,3,0,2,0.00,0.00,0.00,
12.164,126.46911940037153,91.49298922526926,-2.0,-10.0,-25.0,0,1,0,0,3,0,2,0.00,0.00,0.00,
12.177,123.42791194003715,89.64529892252692,-11.0,13.0,7.0,0,1,0,0,3,0,1,0.00,0.00,0.00,
12.19,121.6837911940037,85.92352989225269,-27.0,6.0,10.0,0,2,0,0,3,0,1,0.00,0.00,0.00,
12.205,118.15237911940038,83.94935298922526,-40.0,1.0,31.0,0,1,0,0,3,0,1,0.00,0.00,0.00,
12.218,113.75823791194003,82.56393529892252,-59.0,-3.0,49.0,0,1,0,0,3,0,0,0.00,0.00,0.00,
12.231,109.94382379119399,80.90439352989225,-76.0,-6.0,66.0,0,1,0,0,3,0,0,0.00,0.00,0.00,
12.246,107.3213823791194,80.51343935298922,-89.0,-11.0,86.0,0,1,0,0,3,0,0,0.00,0.00,0.00,
12.259,105.76313823791195,80.33034393529893,-101.0,-16.0,98.0,0,1,0,0,3,0,0,0.00,0.00,0.00,
12.272,105.7333138237912,80.6090343935299,-111.0,-19.0,109.0,0,1,0,0,3,0,0,0.00,0.00,0.00,
12.286,106.44133138237912,81.05090343935298,-121.0,-22.0,111.0,0,1,0,0,3,0,0,0.00,0.00,0.00,
12.3,108.0421331382379,81.6350903439353,-129.0,-30.0,115.0,0,2,0,0,3,0,0,0.00,0.00,0.00,
12.314,109.36321331382379,82.13450903439353,-136.0,-38.0,115.0,0,1,0,0,3,0,0,0.00,0.00,0.00,
12.327,110.43132133138238,82.91345090343935,-141.0,-44.0,115.0,0,1,0,0,3,0,0,0.00,0.00,0.00,
12.342,111.62713213313823,84.63834509034393,-139.0,-52.0,121.0,0,2,0,0,3,0,0,0.00,0.00,0.00,
12.355,112.54771321331383,86.0528345090344,-138.0,-58.0,128.0,0,2,0,0,3,0,0,0.00,0.00,0.00,
12.369,113.53977132133139,86.68928345090345,-138.0,-61.0,131.0,0,1,0,0,3,0,0,0.00,0.00,0.00,
12.383,114.40397713213314,86.68092834509036,-140.0,-65.0,130.0,0,2,0,0,3,0,0,0.00,0.00,0.00,
12.397,115.05739771321332,86.05009283450904,-143.0,-67.0,125.0,0,1,0,0,3,0,0,0.00,0.00,0.00,
12.41,115.60873977132134,85.34800928345089,-145.0,-66.0,118.0,0,1,0,0,3,0,0,0.00,0.00,0.00,
12.424,116.26687397713214,84.4048009283451,-147.0,-67.0,107.0,0,2,0,0,3,0,0,0.00,0.00,0.00,
12.438,116.8456873977132,83.4644800928345,-153.0,-67.0,94.0,0,1,0,0,3,0,0,0.00,0.00,0.00,
12.451,117.25456873977132,82.37144800928345,-158.0,-65.0,79.0,0,2,0,0,3,0,0,0.00,0.00,0.00,
12.466,117.64645687397713,81.60514480092834,-157.0,-58.0,59.0,0,2,0,0,3,0,0,0.00,0.00,0.00,
12.479,117.99164568739772,81.82551448009282,-151.0,-44.0,43.0,0,2,0,0,3,0,0,0.00,0.00,0.00,
12.492,118.26016456873978,82.94555144800927,-150.0,-32.0,29.0,0,2,0,0,3,0,0,0.00,0.00,0.00,
12.507,118.61101645687398,84.74055514480092,-151.0,-26.0,15.0,0,2,0,0,3,0,0,0.00,0.00,0.00,
12.52,117.80010164568739,86.96305551448008,-150.0,-24.0,-3.0,0,2,0,0,3,0,0,0.00,0.00,0.00,
12.533,116.54001016456874,89.57930555144802,-132.0,-25.0,-5.0,0,2,0,0,3,0,0,0.00,0.00,0.00,
12.548,115.15400101645687,91.71293055514481,-106.0,-23.0,0.0,0,2,0,0,3,0,0,0.00,0.00,0.00,
12.561,114.70940010164568,94.37429305551449,-83.0,-17.0,3.0,0,2,0,0,3,0,0,0.00,0.00,0.00,
12.574,114.92594001016457,97.54742930555146,-69.0,-14.0,2.0,0,2,0,0,3,0,0,0.00,0.00,0.00,
12.589,114.87559400101647,99.88074293055514,-64.0,-11.0,-5.0,0,2,0,0,3,0,0,0.00,0.00,0.00,
12.602,113.88055940010165,101.65307429305551,-54.0,-4.0,1.0,0,2,0,0,3,0,0,0.00,0.00,0.00,
12.615,113.05205594001016,102.82030742930556,-37.0,2.0,16.0,0,2,0,0,3,0,0,0.00,0.00,0.00,
12.63,111.98820559400102,102.72103074293055,-14.0,2.0,30.0,0,2,0,0,3,0,0,0.00,0.00,0.00,
12.643,111.3778205594001,101.47810307429306,0.0,4.0,41.0,0,2,0,0,3,0,0,0.00,0.00,0.00,
12.656,111.29878205594001,99.71581030742931,12.0,7.0,39.0,0,2,0,0,3,0,0,0.00,0.00,0.00,
12.669,110.921878205594,97.56858103074292,14.0,12.0,37.0,0,2,0,0,3,0,0,0.00,0.00,0.00,
12.684,111.6671878205594,95.0318581030743,18.0,20.0,35.0,0,2,0,0,3,0,0,0.00,0.00,0.00,
12.697,112.98371878205593,92.41118581030743,17.0,34.0,27.0,0,2,0,0,3,0,0,0.00,0.00,0.00,
12.71,114.36637187820558,91.56411858103075,14.0,40.0,16.0,0,2,0,0,3,0,0,0.00,0.00,0.00,
12.724,114.65763718782055,91.55141185810307,7.0,38.0,5.0,0,2,0,0,3,0,0,0.00,0.00,0.00,
12.737,115.46976371878206,93.4041411858103,24.0,53.0,10.0,0,1,0,0,3,0,0,0.00,0.00,0.00,
12.751,118.1249763718782,95.76741411858103,41.0,40.0,-5.0,0,1,0,0,3,0,0,0.00,0.00,0.00,
12.765,119.61449763718782,98.40674141185809,68.0,43.0,-21.0,0,1,0,0,3,0,0,0.00,0.00,0.00,
13.202,119.50244976371877,85.40467414118581,2.0,2.0,-9.0,1,9,2,3,4,2,5,19.42,0.00,68.77,
13.215,119.53624497637189,83.83446741411858,2.0,2.0,-13.0,1,9,2,3,5,3,5,20.60,0.00,69.26,
13.23,119.37762449763719,83.93844674141187,1.0,2.0,-14.0,1,9,2,3,5,3,5,21.88,0.00,69.26,
13.244,119.38876244976372,84.2188446741412,0.0,3.0,-15.0,1,9,2,3,5,3,5,23.35,0.00,69.85,
13.258,119.16487624497637,84.29188446741412,-3.0,6.0,-21.0,1,8,2,3,5,3,5,26.00,0.00,70.63,
13.273,118.83648762449764,84.5421884467414,-9.0,9.0,-31.0,1,8,2,4,5,4,5,26.49,0.00,72.01,
13.287,118.65064876244976,84.77421884467414,-10.0,10.0,-25.0,1,7,2,4,5,4,5,25.70,0.00,75.24,
13.301,119.14506487624497,84.31142188446742,-5.0,8.0,-22.0,1,7,2,4,5,5,6,23.54,0.00,88.00,
13.316,119.7705064876245,84.28314218844675,-3.0,7.0,-21.0,1,7,2,4,5,5,6,21.48,0.00,93.69,
13.33,120.22905064876245,83.93831421884468,-3.0,7.0,-23.0,1,7,1,4,5,5,6,22.46,0.00,97.51,
13.344,120.42790506487624,83.44483142188447,-4.0,8.0,-28.0,1,7,1,4,6,6,6,23.84,0.00,103.79,
13.359,120.69079050648762,83.39548314218845,-7.0,7.0,-32.0,1,6,1,5,6,6,6,25.41,0.00,107.42,
13.373,121.08607905064875,83.03054831421885,-11.0,7.0,-39.0,1,6,1,5,6,7,7,28.25,0.00,111.74,
13.388,121.67460790506487,83.1830548314219,-15.0,7.0,-45.0,1,6,1,5,5,8,7,28.65,0.00,115.95,
13.403,122.07546079050648,83.6303054831422,-13.0,4.0,-43.0,1,5,1,5,4,8,7,28.55,0.00,124.00,
13.417,121.92654607905064,84.44903054831423,-7.0,-4.0,-36.0,1,5,1,5,4,8,7,28.65,0.00,126.65,
13.431,121.82165460790506,85.08890305483143,-1.0,-7.0,-25.0,1,5,1,5,4,8,7,29.33,0.00,127.82,
13.446,122.2341654607905,85.84589030548315,4.0,-11.0,-20.0,1,5,1,5,4,8,7,30.21,0.00,125.47,
13.46,122.62641654607906,86.20058903054831,5.0,-12.0,-21.0,1,5,1,5,4,8,7,30.90,0.00,122.23,
13.475,122.3776416546079,86.65905890305483,5.0,-13.0,-22.0,1,5,1,5,3,8,7,31.78,0.00,118.60,
13.49,121.57876416546078,87.45190589030548,3.0,-12.0,-20.0,1,5,1,5,3,8,7,31.98,0.00,111.15,
13.504,120.64387641654608,88.40419058903055,0.0,-12.0,-18.0,1,5,1,5,3,8,7,32.08,0.00,108.01,
13.518,119.7133876416546,89.48041905890305,-2.0,-12.0,-12.0,2,5,1,5,3,8,7,31.98,0.00,105.65,
13.533,119.02633876416546,89.7680419058903,-5.0,-15.0,-3.0,2,5,1,5,3,8,7,31.29,0.00,104.18,
13.547,119.65963387641655,90.40880419058902,-6.0,-15.0,6.0,2,5,1,5,2,8,7,30.12,0.00,104.48,
13.562,119.74996338764166,90.40088041905892,-6.0,-14.0,7.0,1,5,1,5,2,8,7,28.65,0.00,105.16,
13.577,119.69599633876416,89.65308804190589,-3.0,-16.0,7.0,1,5,1,5,2,8,7,26.78,0.00,106.54,
13.591,119.39359963387642,89.05630880419058,-2.0,-21.0,10.0,1,5,1,5,3,8,7,26.68,0.00,111.15,
13.605,118.85935996338765,88.21363088041906,-3.0,-23.0,8.0,1,6,1,4,4,8,7,26.68,0.00,113.01,
13.62,118.32893599633876,88.06636308804191,-4.0,-24.0,13.0,1,6,1,4,4,8,7,26.59,0.00,113.99,
13.634,118.09589359963387,88.50163630880418,-7.0,-24.0,16.0,1,6,1,4,4,7,6,24.23,0.00,112.03,
13.648,117.72158935996339,88.12216363088042,-7.0,-23.0,7.0,1,5,1,4,4,6,5,21.88,0.00,108.60,
13.663,117.22515893599633,86.91421636308804,2.0,-18.0,1.0,1,5,1,4,4,6,5,18.93,0.00,103.79,
13.677,116.81551589359964,87.2344216363088,2.0,-14.0,4.0,1,5,1,4,4,6,5,13.93,0.00,94.27,
13.691,116.56755158935997,87.52744216363088,1.0,-12.0,-1.0,1,5,1,4,4,6,5,12.85,0.00,90.45,
13.706,116.299755158936,87.84474421636308,-1.0,-10.0,0.0,1,5,1,4,3,5,4,11.97,0.00,86.52,
13.72,116.3539755158936,87.9664744216363,-3.0,-10.0,-1.0,1,4,1,4,2,5,4,10.89,0.00,82.40,
13.734,116.25139755158935,88.09564744216364,-4.0,-9.0,-1.0,1,4,1,4,1,4,4,8.44,0.00,74.85,
13.749,116.32213975515893,88.09056474421637,-5.0,-8.0,0.0,1,4,1,4,1,4,3,7.26,0.00,71.81,
13.763,116.3022139755159,87.93705647442164,-5.0,-8.0,0.0,1,4,1,4,0,3,3,6.08,0.00,69.16,
13.777,116.22822139755158,87.75070564744217,-4.0,-8.0,1.0,1,4,1,4,0,3,3,5.10,0.00,65.33,
13.792,116.13982213975515,87.66907056474422,-3.0,-7.0,0.0,1,4,1,4,0,3,3,3.53,0.00,64.16,
13.806,116.04998221397553,87.40890705647442,-2.0,-6.0,0.0,1,4,1,4,0,3,2,3.04,0.00,63.47,
13.819,115.93299822139755,87.14889070564745,-1.0,-6.0,-1.0,1,4,1,3,0,3,2,2.55,0.00,63.08,
13.834,115.72329982213977,87.01488907056473,-2.0,-5.0,-2.0,1,4,1,3,0,3,2,2.45,0.00,62.29,
13.848,115.38732998221397,87.00148890705647,-2.0,-4.0,-3.0,1,4,1,3,0,2,2,2.35,0.00,61.61,
13.862,115.2097329982214,86.99114889070565,-3.0,-2.0,-3.0,1,4,1,3,0,2,3,2.26,0.00,60.92,
13.877,115.07497329982213,87.07111488907056,-3.0,-2.0,-3.0,1,4,1,3,0,2,3,2.26,0.00,60.04,
13.891,115.10649732998222,87.09711148890706,-3.0,-1.0,-2.0,1,4,1,3,0,2,3,2.26,0.00,58.27,
13.905,115.18164973299822,87.18971114889071,-3.0,-1.0,-2.0,1,4,1,3,0,2,3,1.96,0.00,57.49,
13.92,115.09916497329982,87.34297111488907,-3.0,-2.0,-1.0,1,4,1,3,1,2,3,1.77,0.00,56.80,
13.934,115.16291649732999,87.31329711148891,-5.0,-1.0,-2.0,1,4,1,3,1,2,3,1.67,0.00,55.43,
13.948,115.142291649733,87.24732971114888,-5.0,-1.0,-3.0,1,4,1,3,1,2,3,1.47,0.00,54.74,
13.962,115.0412291649733,87.24073297111488,-6.0,0.0,-3.0,1,3,1,3,1,2,3,0.88,0.00,54.15,
13.976,115.06712291649733,87.18607329711149,-5.0,0.0,-4.0,1,3,1,3,1,2,3,0.78,0.00,53.76,
13.99,115.15071229164974,87.18960732971115,-5.0,0.0,-3.0,1,3,1,3,1,2,3,0.69,0.00,53.96,
14.005,115.30307122916497,87.17196073297112,-4.0,0.0,-2.0,1,3,1,3,1,1,3,0.49,0.00,54.35,
14.019,115.3183071229165,87.1431960732971,-3.0,0.0,0.0,1,3,1,3,1,1,3,0.49,0.00,54.74,
14.032,115.25683071229166,87.07731960732971,-2.0,0.0,0.0,1,3,1,3,1,2,3,0.59,0.00,55.72,
14.047,115.18768307122917,87.01673196073298,-2.0,0.0,0.0,1,4,1,3,1,2,3,0.69,0.00,56.51,
14.061,115.16276830712292,86.9656731960733,-1.0,-1.0,0.0,1,4,1,3,1,2,3,0.78,0.00,57.09,
14.075,115.23227683071228,86.96056731960732,-1.0,-1.0,0.0,1,4,1,3,1,2,3,0.98,0.00,57.49,
14.09,115.33822768307122,87.03205673196075,-1.0,-1.0,0.0,1,4,1,3,1,2,3,0.88,0.00,57.78,
14.103,115.37582276830712,87.12020567319607,-2.0,-1.0,0.0,1,4,1,3,1,2,3,0.78,0.00,57.78,
14.117,115.37058227683072,87.15602056731962,-3.0,-1.0,0.0,1,4,1,3,1,2,3,0.78,0.00,57.58,
14.132,115.31605822768307,87.20460205673194,-3.0,-1.0,0.0,1,4,1,3,1,1,3,0.59,0.00,57.39,
14.146,115.36460582276831,87.23646020567318,-4.0,-2.0,0.0,1,4,1,3,1,1,3,0.49,0.00,57.00,
14.16,115.33346058227683,87.05064602056731,-3.0,-2.0,1.0,1,4,1,2,1,1,3,0.29,0.00,57.19,
14.174,115.18634605822768,86.87906460205673,-4.0,-2.0,1.0,1,4,1,2,1,1,3,0.20,0.00,57.78,
14.188,115.11763460582277,86.69990646020568,-3.0,-2.0,0.0,1,4,1,2,1,1,3,0.00,0.00,58.96,
14.202,115.04776346058227,86.59199064602056,-3.0,-2.0,0.0,1,4,1,2,1,1,2,0.00,0.00,59.45,
14.217,115.02277634605822,86.51819906460206,-3.0,-2.0,0.0,1,4,1,2,1,1,3,0.00,0.00,59.94,
14.231,114.90327763460581,86.5738199064602,-3.0,-1.0,0.0,1,4,1,2,1,1,3,0.00,0.00,60.23,
14.245,114.76532776346059,86.64238199064603,-4.0,0.0,0.0,1,4,1,2,1,1,2,0.00,0.00,60.82,
14.259,114.67953277634606,86.6402381990646,-5.0,0.0,0.0,1,4,1,2,1,1,2,0.00,0.00,61.12,
14.273,114.65295327763461,86.58602381990646,-6.0,0.0,0.0,1,4,1,2,1,1,2,0.00,0.00,61.12,
14.287,114.63229532776346,86.57160238199064,-6.0,0.0,0.0,1,4,1,2,1,1,2,0.00,0.00,61.02,
14.301,114.69322953277634,86.54316023819908,-6.0,0.0,0.0,1,4,1,2,1,1,2,0.00,0.00,60.63,
14.315,114.78032295327763,86.4683160238199,-6.0,0.0,0.0,1,4,1,2,1,1,2,0.00,0.00,60.63,
14.329,114.88803229532778,86.334831602382,-6.0,0.0,0.0,1,4,1,2,0,1,2,0.00,0.00,60.72,
14.344,114.93480322953278,86.2224831602382,-5.0,0.0,0.0,1,4,1,2,0,1,2,0.00,0.00,61.02,
14.357,114.98448032295327,86.13924831602381,-5.0,0.0,0.0,1,4,1,2,0,1,2,0.00,0.00,62.10,
14.371,114.99844803229533,85.99592483160238,-4.0,0.0,0.0,1,4,1,2,0,1,2,0.00,0.00,62.59,
14.386,114.99984480322954,85.89159248316024,-3.0,0.0,0.0,1,4,1,2,0,1,2,0.00,0.00,63.08,
14.4,114.99098448032295,85.82715924831602,-2.0,0.0,0.0,1,4,1,2,1,1,2,0.00,0.00,63.57,
14.413,114.9630984480323,85.8027159248316,-2.0,0.0,-1.0,1,4,1,2,1,1,2,0.00,0.00,63.77,
14.428,114.96030984480322,85.82727159248316,-2.0,0.0,-1.0,1,4,1,2,1,1,2,0.00,0.00,63.96,
14.442,115.02303098448031,85.80272715924832,-2.0,0.0,-2.0,1,4,1,2,1,1,2,0.00,0.00,64.16,
14.456,115.03830309844803,85.85427271592484,-2.0,1.0,-2.0,1,4,1,2,1,1,2,0.00,0.00,64.65,
14.47,115.0488303098448,85.93142727159248,-2.0,1.0,-2.0,1,4,1,2,1,1,2,0.00,0.00,65.04,
14.484,114.98688303098447,85.99314272715925,-2.0,1.0,-1.0,1,4,1,2,1,1,2,0.00,0.00,65.53,
14.498,114.96268830309845,85.97231427271593,-2.0,1.0,-2.0,1,4,1,2,1,1,2,0.10,0.00,66.02,
14.513,114.97826883030984,85.9252314272716,-3.0,1.0,-1.0,1,4,1,2,1,1,2,0.29,0.00,67.30,
14.527,115.08782688303098,85.88452314272716,-3.0,1.0,-2.0,1,4,1,2,1,1,2,0.49,0.00,67.79,
14.541,115.1527826883031,85.84445231427271,-2.0,0.0,-2.0,1,4,1,2,1,1,2,0.98,0.00,68.28,
14.555,115.21327826883032,85.93044523142727,-2.0,0.0,-2.0,1,4,1,2,1,1,2,1.08,0.00,69.06,
14.569,115.25532782688303,85.93904452314273,-2.0,0.0,-1.0,1,4,1,2,1,2,2,1.28,0.00,69.55,
14.583,115.19653278268831,85.88590445231428,-2.0,0.0,-1.0,1,4,1,3,1,2,2,1.37,0.00,69.95,
14.598,115.20865327826883,85.85359044523143,-1.0,0.0,-1.0,1,4,1,3,1,2,2,1.47,0.00,70.24,
14.612,115.22786532782689,85.86835904452315,-1.0,0.0,-2.0,1,4,1,3,1,2,3,1.57,0.00,71.12,
14.625,115.2207865327827,85.93283590445232,-1.0,0.0,-2.0,1,4,1,3,2,1,2,1.77,0.00,71.42,
14.64,115.27407865327828,85.91228359044523,-2.0,0.0,-2.0,1,4,1,3,2,1,3,1.96,0.00,71.61,
14.654,115.28840786532784,85.88322835904452,-1.0,0.0,-2.0,1,4,1,2,2,1,3,1.96,0.00,71.61,
14.668,115.3078407865328,86.02432283590446,-2.0,0.0,-2.0,1,4,1,3,2,2,3,2.06,0.00,71.61,
14.683,115.2827840786533,86.16443228359046,-2.0,0.0,-1.0,1,4,1,2,2,1,3,2.16,0.00,71.51,
14.697,115.32527840786533,86.18744322835904,-3.0,0.0,-1.0,1,4,1,2,2,1,3,2.26,0.00,71.61,
14.71,115.32952784078653,86.1177443228359,-2.0,0.0,0.0,1,4,1,2,2,1,3,2.26,0.00,72.20,
14.725,115.25795278407865,86.11077443228359,-2.0,0.0,0.0,1,4,1,2,2,1,3,2.26,0.00,72.59,
14.739,115.20579527840786,86.14607744322836,-2.0,0.0,0.0,1,4,1,2,2,2,3,2.26,0.00,72.79,
14.753,115.26357952784078,86.14960774432285,-2.0,-1.0,0.0,1,4,1,2,2,1,3,2.26,0.00,72.89,
14.767,115.27835795278409,86.11396077443229,-2.0,-1.0,0.0,1,4,1,2,2,2,3,2.06,0.00,72.89,
14.781,115.3518357952784,86.14639607744324,-1.0,-1.0,0.0,1,4,1,2,2,2,3,1.96,0.00,72.79,
14.795,115.41318357952784,86.22163960774432,-1.0,-1.0,0.0,1,4,1,2,2,2,3,1.96,0.00,72.69,
14.81,115.34731835795279,86.18416396077444,-1.0,-2.0,0.0,1,4,1,2,2,2,3,1.96,0.00,72.59,
14.824,115.31373183579528,86.18041639607745,-2.0,-2.0,0.0,1,4,1,2,2,2,3,1.57,0.00,72.20,
14.838,115.25637318357954,86.18004163960775,-1.0,-2.0,0.0,1,4,1,2,2,2,3,1.47,0.00,71.81,
14.852,115.14263731835796,86.19800416396077,-2.0,-1.0,0.0,1,4,1,2,2,2,3,1.37,0.00,71.51,
14.866,115.0862637318358,86.17280041639607,-2.0,-1.0,0.0,1,4,1,2,2,2,3,1.18,0.00,70.83,
14.88,115.07162637318358,86.1882800416396,-3.0,-1.0,0.0,1,4,1,2,2,2,3,0.78,0.00,70.44,
14.895,115.10616263731836,86.18082800416397,-3.0,-1.0,0.0,1,4,1,2,2,2,3,0.69,0.00,70.14,
14.909,115.03761626373183,86.19808280041639,-3.0,-1.0,0.0,1,4,1,2,2,1,3,0.59,0.00,70.04,
14.922,115.11176162637318,86.17280828004164,-3.0,-1.0,0.0,1,4,1,2,2,1,2,0.49,0.00,70.04,
14.937,115.14617616263732,86.12528082800418,-4.0,-1.0,0.0,1,4,1,2,2,1,2,0.29,0.00,70.04,
14.951,115.11361761626374,86.07552808280042,-4.0,-2.0,0.0,1,4,1,2,2,1,2,0.10,0.00,70.04,
14.965,115.11036176162638,85.98955280828005,-4.0,-2.0,0.0,1,4,1,2,2,1,2,0.00,0.00,69.55,
14.98,115.03803617616263,85.92695528082801,-4.0,-1.0,0.0,1,4,1,2,1,1,2,0.00,0.00,69.26,
14.994,114.95880361761625,85.8486955280828,-4.0,-1.0,0.0,1,4,1,2,1,1,2,0.00,0.00,68.96,
15.007,114.93288036176163,85.75086955280827,-4.0,-1.0,0.0,1,4,1,2,1,1,2,0.00,0.00,68.67,
15.022,114.95728803617615,85.64208695528082,-3.0,-2.0,-1.0,1,4,1,2,1,1,2,0.00,0.00,68.47,
15.036,115.01372880361761,85.58620869552809,-3.0,-2.0,-1.0,1,4,1,2,1,1,2,0.00,0.00,68.38,
15.05,114.93837288036177,85.5986208695528,-3.0,-2.0,0.0,1,4,1,2,1,1,2,0.00,0.00,68.08,
15.065,114.89483728803617,85.58186208695528,-3.0,-2.0,0.0,1,4,1,2,1,1,2,0.00,0.00,67.69,
15.079,114.82748372880361,85.53518620869554,-3.0,-2.0,-1.0,1,4,1,2,1,1,2,0.00,0.00,66.81,
15.093,114.82974837288035,85.45851862086955,-3.0,-1.0,-1.0,1,4,1,2,1,1,2,0.00,0.00,66.41,
15.107,114.81197483728803,85.39685186208695,-2.0,-1.0,-1.0,1,4,1,2,1,1,2,0.00,0.00,66.02,
15.121,114.8191974837288,85.3816851862087,-2.0,-1.0,-1.0,1,4,1,2,1,1,2,0.00,0.00,65.63,
15.135,114.81091974837288,85.40716851862086,-2.0,-1.0,-2.0,1,4,1,2,1,1,2,0.00,0.00,65.33,
15.15,114.81009197483729,85.44571685186209,-2.0,-1.0,-1.0,1,4,1,2,1,1,2,0.00,0.00,65.04,
15.164,114.76500919748374,85.51257168518622,-2.0,-1.0,-1.0,1,4,1,2,1,1,2,0.00,0.00,64.65,
15.178,114.68850091974838,85.51025716851862,-2.0,-1.0,0.0,1,4,1,2,1,1,2,0.00,0.00,64.06,
15.193,114.62685009197483,85.50102571685187,-1.0,-1.0,0.0,1,4,1,2,1,1,2,0.00,0.00,63.77,
15.207,114.57568500919749,85.49110257168519,-1.0,-1.0,0.0,1,4,1,2,1,1,2,0.00,0.00,63.27,
15.22,114.60656850091975,85.47211025716852,0.0,-1.0,0.0,1,4,1,2,1,1,2,0.00,0.00,62.78,
15.235,114.58265685009198,85.48821102571685,0.0,-1.0,0.0,1,4,1,2,1,1,2,0.00,0.00,62.69,
15.249,114.5532656850092,85.55282110257168,0.0,-1.0,-1.0,1,4,1,2,1,1,2,0.00,0.00,62.49,
15.263,114.57732656850092,85.52328211025717,-1.0,-1.0,-1.0,1,4,1,2,1,1,2,0.00,0.00,62.29,
15.278,114.57073265685008,85.5653282110257,0.0,-1.0,-2.0,1,4,1,2,1,1,2,0.00,0.00,62.10,
15.291,114.56107326568501,85.56053282110257,0.0,-1.0,-2.0,1,4,1,2,1,1,2,0.00,0.00,62.00,
15.305,114.5331073265685,85.63205328211026,0.0,-1.0,-1.0,1,4,1,2,1,1,2,0.00,0.00,61.80,
15.32,114.53931073265686,85.67520532821104,0.0,-1.0,0.0,1,4,1,2,2,1,2,0.00,0.00,61.51,
15.334,114.47693107326567,85.7065205328211,0.0,0.0,0.0,1,4,1,2,2,1,2,0.00,0.00,61.21,
15.347,114.44369310732657,85.7096520532821,-1.0,0.0,0.0,1,4,1,2,2,1,2,0.00,0.00,61.12,
15.362,114.42236931073266,85.7099652053282,-2.0,0.0,-1.0,1,4,1,2,2,1,2,0.00,0.00,61.12,
15.376,114.39323693107328,85.74599652053281,-2.0,0.0,-1.0,1,4,1,2,2,1,2,0.00,0.00,61.02,
15.39,114.39932369310733,85.68659965205329,-2.0,0.0,-1.0,1,4,1,2,2,1,2,0.00,0.00,60.82,
15.404,114.43593236931072,85.67165996520534,-2.0,0.0,-1.0,1,4,1,2,2,1,2,0.00,85.53,-4,
15.842,114.43959323693106,85.45416599652054,-3.0,-1.0,0.0,1,4,1,2,2,1,2,0.00,0.00,57.58,
15.856,114.4399593236931,85.43241659965207,-3.0,-1.0,0.0,1,4,1,2,2,1,2,0.00,0.00,57.09,
15.87,114.42199593236931,85.3672416599652,-3.0,-1.0,0.0,1,4,1,2,2,1,2,0.00,0.00,56.90,
15.885,114.51019959323693,85.37872416599652,-3.0,-2.0,0.0,1,4,1,2,2,1,2,0.00,0.00,56.60,
15.899,114.54601995932369,85.39787241659967,-4.0,-2.0,0.0,1,4,1,2,2,1,2,0.00,0.00,56.02,
15.912,114.52260199593236,85.50778724165997,-4.0,-1.0,0.0,1,4,1,2,2,1,2,0.00,0.00,55.72,
15.927,114.38526019959323,85.473778724166,-5.0,-1.0,0.0,1,4,1,2,2,1,2,0.00,0.00,55.43,
15.941,114.29952601995933,85.30837787241661,-5.0,0.0,0.0,1,4,1,2,2,1,2,0.00,0.00,55.23,
15.955,114.31795260199593,85.18383778724167,-5.0,0.0,0.0,1,4,1,2,2,1,2,0.00,0.00,55.03,
15.969,114.3017952601996,85.23438377872417,-4.0,-1.0,0.0,1,4,1,2,1,1,2,0.00,0.00,54.84,
15.983,114.31817952601995,85.10443837787241,-4.0,-1.0,0.0,1,4,1,2,1,1,2,0.00,0.00,54.54,
15.997,114.517817952602,85.08244383778724,-3.0,-1.0,0.0,1,4,1,2,1,1,2,0.00,0.00,54.15,
16.012,114.5197817952602,85.00824438377872,-2.0,-1.0,-1.0,1,4,1,2,1,1,2,0.00,0.00,53.17,
16.026,114.44797817952602,85.09082443837788,-2.0,-1.0,-1.0,1,4,1,2,1,1,2,0.00,0.00,52.78,
16.04,114.34179781795261,85.10808244383779,-2.0,-1.0,-1.0,1,4,1,2,1,1,2,0.00,0.00,52.39,
16.055,114.29517978179527,85.11880824438379,-2.0,-1.0,0.0,1,4,1,2,1,1,2,0.00,0.00,51.99,
16.068,114.30851797817952,85.04788082443838,-2.0,-1.0,-1.0,1,4,1,2,1,1,2,0.00,0.00,51.70,
16.082,114.27385179781795,85.06778808244384,-2.0,-1.0,0.0,1,4,1,2,1,1,2,0.00,0.00,51.80,
16.097,114.31538517978179,85.06077880824438,-2.0,-1.0,-1.0,1,4,1,2,1,1,2,0.00,0.00,51.70,
16.111,114.34653851797816,85.06907788082444,-2.0,-1.0,-2.0,1,4,1,2,1,1,2,0.00,0.00,51.60,
16.125,114.30465385179782,85.04290778808245,-2.0,0.0,-2.0,1,4,1,2,1,1,2,0.00,0.00,51.40,
16.14,114.18346538517977,85.01329077880824,-2.0,0.0,-2.0,1,4,1,2,1,1,2,0.00,0.00,51.11,
16.154,114.11734653851798,85.11832907788083,-2.0,0.0,-2.0,1,4,1,2,1,1,2,0.00,0.00,50.62,
16.167,114.00273465385179,85.17383290778808,-1.0,0.0,-1.0,1,4,1,2,1,1,2,0.00,0.00,50.23,
16.182,114.01827346538516,85.15238329077881,-1.0,0.0,0.0,1,4,1,2,1,1,2,0.00,0.00,50.03,
16.196,114.0198273465385,85.14123832907788,-1.0,0.0,-1.0,1,4,1,2,1,1,2,0.00,0.00,49.93,
16.21,114.07398273465384,85.11312383290779,-1.0,0.0,-1.0,1,4,1,2,1,1,2,0.00,0.00,50.13,
16.224,114.15139827346538,85.06531238329077,-1.0,0.0,-1.0,1,4,1,2,2,1,2,0.00,0.00,50.23,
16.238,114.18613982734654,85.06053123832908,-1.0,0.0,-2.0,1,4,1,2,2,1,2,0.00,0.00,50.33,
16.252,114.18061398273467,85.07805312383292,-1.0,0.0,-2.0,1,4,1,2,2,1,2,0.00,0.00,50.52,
16.267,114.18906139827347,85.1068053123833,-1.0,0.0,-2.0,1,4,1,2,2,1,2,0.00,0.00,50.52,
16.281,114.14490613982734,85.18168053123833,-1.0,0.0,-1.0,1,4,1,2,2,1,2,0.00,0.00,50.42,
16.295,114.17649061398275,85.21616805312384,-1.0,0.0,-1.0,1,4,1,2,2,1,2,0.00,0.00,50.33,
16.309,114.22464906139828,85.15661680531238,0.0,0.0,-1.0,1,4,1,2,2,1,2,0.00,0.00,50.23,
16.323,114.21146490613982,85.20466168053123,0.0,0.0,-2.0,1,4,1,2,2,1,2,0.00,0.00,50.23,
16.337,114.23714649061398,85.29046616805311,0.0,0.0,-2.0,1,4,1,2,2,1,3,0.00,0.00,50.23,
16.351,114.1947146490614,85.3170466168053,0.0,0.0,-2.0,1,4,1,2,2,1,3,0.00,0.00,50.13,
16.365,114.20847146490614,85.38270466168052,0.0,0.0,-1.0,1,4,1,2,2,1,3,0.00,0.00,50.23,
16.379,114.26384714649062,85.37127046616806,0.0,0.0,-1.0,1,4,1,2,3,1,3,0.00,0.00,50.23,
16.394,114.24238471464906,85.3881270466168,-1.0,0.0,-1.0,1,4,1,2,3,1,3,0.00,0.00,50.23,
16.407,114.2492384714649,85.41681270466168,0.0,0.0,-1.0,1,4,1,2,3,1,3,0.00,0.00,50.13,
16.421,114.31292384714648,85.41068127046617,0.0,0.0,-1.0,1,4,1,2,3,2,3,0.00,0.00,50.03,
16.436,114.27429238471464,85.39206812704661,0.0,0.0,-1.0,1,4,1,2,3,2,3,0.00,0.00,50.13,
16.449,114.20742923847146,85.45320681270466,0.0,0.0,-1.0,1,4,1,2,3,2,3,0.00,0.00,50.03,
16.463,114.23674292384715,85.46832068127047,0.0,0.0,-1.0,1,4,1,2,3,2,3,0.00,0.00,50.03,
16.478,114.29367429238472,85.53283206812705,-1.0,0.0,-1.0,1,4,1,2,3,2,3,0.00,0.00,49.74,
16.492,114.36236742923847,85.57528320681271,-1.0,0.0,-1.0,1,4,1,2,3,2,3,0.00,0.00,49.44,
16.505,114.35123674292383,85.59752832068126,-1.0,0.0,-1.0,1,4,1,2,3,2,3,0.00,0.00,49.25,
16.52,114.34112367429239,85.68075283206812,-1.0,0.0,-1.0,1,4,1,2,3,2,3,0.00,0.00,49.05,
16.534,114.39411236742924,85.72507528320682,-1.0,0.0,-1.0,1,4,1,2,3,2,3,0.00,0.00,48.95,
16.548,114.40841123674292,85.69350752832068,-1.0,0.0,-1.0,1,4,1,2,3,2,3,0.00,0.00,48.95,
16.563,114.4188411236743,85.76235075283206,-1.0,0.0,-1.0,1,4,1,2,3,2,3,0.00,0.00,48.95,
16.577,114.42888411236744,85.7962350752832,-2.0,0.0,-1.0,1,4,1,2,3,2,3,0.00,0.00,48.95,
16.59,114.39388841123674,85.81762350752832,-2.0,0.0,-1.0,1,4,1,2,3,2,3,0.00,0.00,48.85,
16.605,114.38138884112367,85.81076235075282,-2.0,0.0,-1.0,1,4,1,2,3,2,3,0.00,0.00,48.76,
16.619,114.38013888411236,85.77407623507528,-2.0,0.0,-1.0,1,4,1,2,3,2,3,0.00,0.00,48.66,
16.633,114.39801388841124,85.77040762350752,-2.0,0.0,-1.0,1,4,1,2,3,2,3,0.00,0.00,48.76,
16.648,114.41780138884113,85.77004076235075,-2.0,0.0,-1.0,1,4,1,2,3,2,3,0.00,0.00,48.85,
16.661,114.39278013888412,85.77000407623507,-2.0,0.0,-1.0,1,4,1,2,3,2,3,0.00,0.00,49.15,
16.675,114.44427801388842,85.76100040762351,-2.0,0.0,-1.0,1,4,1,2,3,2,3,0.00,0.00,49.44,
16.69,114.47642780138885,85.76010004076237,-2.0,0.0,-1.0,1,4,1,2,3,2,3,0.00,0.00,49.64,
16.704,114.47064278013887,85.76001000407625,-3.0,0.0,-1.0,1,4,1,2,3,2,3,0.00,0.00,49.83,
16.718,114.54206427801388,85.69700100040762,-2.0,0.0,-1.0,1,4,1,2,3,2,3,0.00,0.00,50.13,
16.732,114.51320642780139,85.71770010004076,-2.0,0.0,0.0,1,4,1,2,3,2,3,0.00,0.00,50.62,
16.746,114.50132064278013,85.66577001000407,-3.0,0.0,0.0,1,4,1,2,3,2,3,0.00,0.00,50.91,
16.76,114.50913206427802,85.6335770010004,-3.0,0.0,-1.0,1,4,1,2,3,2,3,0.00,0.00,51.11,
16.775,114.6089132064278,85.62135770010005,-3.0,0.0,-1.0,1,4,1,2,3,2,3,0.00,0.00,51.40,
16.789,114.62789132064277,85.60213577001,-3.0,0.0,-1.0,1,4,1,2,3,2,3,0.00,0.00,51.80,
16.802,114.62978913206427,85.62721357700099,-3.0,0.0,-1.0,1,4,1,2,3,2,3,0.00,0.00,51.89,
16.817,114.55797891320643,85.65672135770009,-3.0,0.0,-1.0,1,4,1,2,3,2,3,0.00,0.00,51.99,
16.831,114.47879789132064,85.65967213577,-3.0,0.0,-1.0,1,4,1,2,3,2,3,0.00,0.00,52.48,
16.845,114.48887978913206,85.60596721357699,-3.0,0.0,-1.0,1,4,1,2,3,2,3,0.00,0.00,52.88,
16.86,114.5798879789132,85.5825967213577,-3.0,0.0,0.0,1,4,1,2,3,2,3,0.00,0.00,53.27,
16.873,114.59798879789132,85.58025967213578,-3.0,0.0,-1.0,1,4,1,2,3,2,3,0.00,0.00,53.56,
16.887,114.61779887978913,85.54402596721359,-3.0,0.0,-1.0,1,4,1,2,3,2,3,0.00,0.00,54.05,
16.902,114.67377988797891,85.53140259672136,-3.0,0.0,-1.0,1,4,1,2,3,1,3,0.00,0.00,54.25,
16.916,114.6973779887979,85.56614025967212,-3.0,0.0,-1.0,1,4,1,2,3,1,3,0.00,0.00,54.45,
16.93,114.6907377988798,85.58761402596721,-3.0,0.0,0.0,1,4,1,2,3,1,3,0.00,0.00,54.64,
16.944,114.61807377988798,85.54476140259672,-3.0,0.0,-1.0,1,4,1,2,3,1,3,0.00,0.00,54.74,
16.958,114.60180737798879,85.52247614025967,-3.0,0.0,0.0,1,4,1,2,3,1,3,0.00,0.00,54.84,
16.972,114.61818073779888,85.49324761402596,-3.0,0.0,0.0,1,4,1,2,2,1,3,0.00,0.00,55.03,
16.986,114.57481807377988,85.39132476140259,-3.0,0.0,0.0,1,4,1,2,2,1,3,0.00,0.00,55.23,
17.0,114.67848180737799,85.35413247614025,-2.0,0.0,0.0,1,4,1,2,2,1,3,0.00,0.00,55.52,
17.014,114.66184818073779,85.32341324761401,-2.0,0.0,0.0,1,4,1,2,2,1,3,0.00,0.00,55.82,
17.029,114.65118481807377,85.3023413247614,-2.0,0.0,-1.0,1,4,1,2,2,1,3,0.00,0.00,56.02,
17.042,114.58711848180738,85.29123413247615,-2.0,0.0,-1.0,1,4,1,2,2,1,3,0.00,0.00,56.21,
17.056,114.59871184818074,85.32612341324761,-2.0,0.0,-1.0,1,4,1,2,2,1,3,0.00,0.00,56.31,
17.071,114.59087118481807,85.34761234132476,-2.0,0.0,-1.0,1,4,1,2,2,1,3,0.00,0.00,56.41,
17.085,114.5900871184818,85.37676123413247,-2.0,0.0,-1.0,1,4,1,2,2,1,3,0.00,0.00,56.51,
17.099,114.62600871184819,85.40667612341325,-3.0,0.0,-1.0,1,4,1,2,2,1,3,0.00,0.00,56.80,
17.113,114.64760087118482,85.35566761234132,-3.0,0.0,-2.0,1,4,1,2,2,1,3,0.00,0.00,56.80,
17.127,114.68576008711848,85.34156676123415,-3.0,0.0,-1.0,1,4,1,2,2,1,3,0.00,0.00,56.80,
17.141,114.65357600871185,85.29515667612343,-2.0,0.0,-1.0,1,4,1,2,2,1,3,0.00,0.00,56.80,
17.156,114.59635760087119,85.24551566761234,-2.0,0.0,-1.0,1,4,1,2,2,1,3,0.00,0.00,56.80,
17.17,114.65363576008711,85.24055156676123,-2.0,0.0,-1.0,1,4,1,2,2,1,3,0.00,0.00,56.90,
17.183,114.69536357600872,85.20405515667613,-2.0,0.0,-1.0,1,4,1,2,2,1,3,0.00,0.00,57.00,
17.198,114.76253635760087,85.28140551566761,-1.0,0.0,-1.0,1,4,1,2,2,1,3,0.00,0.00,57.09,
17.212,114.74225363576008,85.27114055156676,-2.0,0.0,-1.0,1,4,1,2,2,1,3,0.00,0.00,57.19,
17.226,114.74922536357602,85.31511405515667,-2.0,0.0,-1.0,1,4,1,2,2,1,3,0.00,0.00,57.19,
17.241,114.7319225363576,85.32851140551566,-2.0,0.0,-1.0,1,4,1,2,2,1,3,0.00,0.00,57.09,
17.254,114.73019225363576,85.35685114055156,-2.0,0.0,-1.0,1,4,1,2,2,1,3,0.00,0.00,57.29,
17.268,114.74801922536358,85.35068511405515,-2.0,0.0,-1.0,1,4,1,2,2,1,3,0.00,0.00,57.29,
17.283,114.73180192253636,85.37706851140551,-2.0,0.0,-2.0,1,4,1,2,2,1,3,0.00,0.00,57.29,
17.297,114.73018019225364,85.37970685114055,-2.0,0.0,-1.0,1,4,1,2,2,1,3,0.00,0.00,57.00,
17.311,114.71201801922535,85.37997068511405,-2.0,0.0,-1.0,1,4,1,2,2,1,3,0.00,0.00,56.70,
17.326,114.73720180192252,85.31699706851141,-2.0,0.0,-1.0,1,4,1,2,2,1,3,0.00,0.00,56.51,
17.339,114.72172018019225,85.42769970685114,-2.0,0.0,-1.0,1,4,1,2,2,1,3,0.00,0.00,56.41,
17.353,114.72917201801923,85.42076997068511,-2.0,0.0,-1.0,1,4,1,2,2,1,3,0.00,0.00,56.41,
17.368,114.76591720180191,85.3930769970685,-2.0,0.0,-1.0,1,4,1,2,2,1,3,0.00,0.00,56.51,
17.382,114.71559172018019,85.28230769970685,-2.0,0.0,-1.0,1,4,1,2,2,1,3,0.00,0.00,56.51,
17.396,114.71055917201801,85.31623076997067,-2.0,0.0,-1.0,1,4,1,2,2,1,3,0.00,0.00,56.51,
17.41,114.7460559172018,85.30162307699706,-1.0,0.0,-1.0,1,4,1,2,2,1,3,0.00,0.00,56.51,
17.424,114.68660559172018,85.40816230769971,-2.0,0.0,-1.0,1,4,1,2,2,1,3,0.00,0.00,56.60,
17.438,114.68966055917201,85.42781623076999,-2.0,0.0,-1.0,1,4,1,2,2,1,3,0.00,0.00,56.60,
17.453,114.6359660559172,85.46578162307699,-2.0,0.0,-1.0,1,4,1,2,2,1,3,0.00,0.00,56.60,
17.467,114.69359660559172,85.3885781623077,-3.0,0.0,-1.0,1,4,1,2,2,1,3,0.00,0.00,56.60,
17.48,114.76235966055916,85.36285781623077,-3.0,0.0,-1.0,1,4,1,2,2,1,3,0.00,0.00,56.60,
17.495,114.75123596605592,85.36028578162308,-3.0,-1.0,-1.0,1,4,1,2,2,1,3,0.00,0.00,56.60,
17.509,114.75012359660559,85.3600285781623,-3.0,-1.0,-1.0,1,4,1,2,2,1,3,0.00,0.00,56.41,
17.523,114.72301235966056,85.36000285781623,-3.0,-1.0,-1.0,1,4,1,2,2,1,2,0.00,0.00,56.41,
17.538,114.72030123596606,85.34200028578164,-3.0,-1.0,-1.0,1,4,1,2,2,1,2,0.00,0.00,56.31,
17.552,114.64803012359661,85.34920002857817,-2.0,-1.0,-1.0,1,4,1,2,2,1,2,0.00,0.00,56.02,
17.566,114.70380301235964,85.28692000285783,-3.0,-1.0,-1.0,1,4,1,2,2,1,2,0.00,0.00,55.82,
17.581,114.70038030123597,85.3346920002858,-3.0,-1.0,-1.0,1,4,1,2,2,1,2,0.00,0.00,55.62,
17.594,114.6910380301236,85.31246920002859,-2.0,-1.0,-1.0,1,4,1,2,2,1,2,0.00,0.00,55.43,
17.608,114.64510380301236,85.24724692000285,-2.0,-1.0,-1.0,1,4,1,2,2,1,2,0.00,0.00,55.13,
17.936,114.23551038030124,85.3847246920003,-2.0,-1.0,-1.0,1,4,1,2,2,1,2,0.00,0.00,52.09,
17.95,114.15855103803014,85.29947246920004,-2.0,0.0,-2.0,1,4,1,2,2,1,2,0.00,0.00,51.99,
17.965,114.13285510380301,85.29094724692001,-2.0,0.0,-1.0,1,4,1,2,2,1,2,0.00,0.00,51.89,
17.978,114.1842855103803,85.30809472469201,-3.0,-1.0,-1.0,1,4,1,2,2,1,2,0.00,0.00,51.80,
17.992,114.19842855103803,85.3458094724692,-3.0,-1.0,-1.0,1,4,1,2,2,1,2,0.00,0.00,51.60,
18.007,114.2178428551038,85.31358094724693,-3.0,-1.0,-1.0,1,4,1,2,1,1,2,0.00,0.00,51.40,
18.021,114.17478428551038,85.36435809472471,-4.0,-1.0,-2.0,1,4,1,2,1,1,2,0.00,0.00,51.01,
18.035,114.12547842855105,85.18043580947247,-3.0,-1.0,-1.0,1,4,1,2,1,1,2,0.00,0.00,50.91,
18.05,114.1565478428551,85.27904358094726,-2.0,0.0,-1.0,1,4,1,2,1,1,2,0.00,0.00,50.82,
18.064,114.21365478428551,85.20790435809474,-1.0,0.0,-2.0,1,4,1,2,1,1,2,0.00,0.00,51.11,
18.077,114.23736547842856,85.33579043580947,-1.0,0.0,-1.0,1,4,1,2,1,1,2,0.00,0.00,51.50,
18.092,114.24873654784285,85.36657904358096,-1.0,0.0,-1.0,1,4,1,2,2,1,2,0.00,0.00,51.70,
18.106,114.19587365478428,85.4326579043581,-1.0,0.0,-1.0,1,4,1,2,2,1,2,0.00,0.00,51.99,
18.12,114.15458736547843,85.43026579043583,-1.0,0.0,-1.0,1,4,1,2,2,1,2,0.00,0.00,52.58,
18.135,114.18645873654785,85.52002657904359,-2.0,0.0,-1.0,1,4,1,2,2,1,2,0.00,0.00,52.97,
18.148,114.1806458736548,85.50200265790436,-2.0,0.0,0.0,1,4,1,2,2,1,2,0.00,0.00,53.07,
18.162,114.22506458736548,85.52720026579044,-3.0,0.0,0.0,1,4,1,2,2,1,2,0.00,0.00,53.27,
18.177,114.22050645873655,85.56572002657903,-3.0,0.0,0.0,1,4,1,2,1,1,2,0.00,0.00,53.66,
18.191,114.17505064587365,85.5335720026579,-3.0,0.0,0.0,1,4,1,2,1,1,2,0.00,0.00,53.86,
18.204,114.16150506458736,85.4763572002658,-3.0,0.0,-1.0,1,4,2,2,1,1,2,0.00,0.00,54.15,
18.219,114.09715050645875,85.41663572002658,-3.0,0.0,0.0,1,4,2,2,1,1,2,0.00,0.00,54.64,
18.233,114.09971505064587,85.39266357200266,-3.0,0.0,0.0,1,4,2,2,1,1,2,0.00,0.00,55.03,
18.247,114.0369715050646,85.28226635720026,-3.0,1.0,0.0,1,4,2,2,1,1,2,0.00,0.00,55.43,
18.26,114.10269715050646,85.22622663572002,-2.0,1.0,0.0,1,4,2,2,1,1,2,0.00,0.00,55.62,
18.275,114.16326971505065,85.229622663572,-2.0,1.0,-1.0,1,4,2,2,1,1,2,0.00,0.00,56.31,
18.289,114.16032697150506,85.2479622663572,-2.0,1.0,0.0,1,4,2,2,1,1,2,0.00,0.00,56.60,
18.304,114.1870326971505,85.21379622663571,-2.0,1.0,0.0,1,4,2,2,1,1,2,0.00,0.00,56.80,
18.317,114.18970326971505,85.23737962266357,-2.0,1.0,0.0,1,4,2,2,1,1,2,0.00,0.00,57.09,
18.331,114.2439703269715,85.23973796226635,-2.0,1.0,0.0,1,4,2,2,2,1,2,0.00,0.00,57.39,
18.345,114.25839703269715,85.24897379622664,-2.0,1.0,0.0,1,4,2,2,2,1,2,0.00,0.00,57.68,
18.36,114.29583970326972,85.24989737962267,-2.0,0.0,0.0,1,4,2,2,2,1,2,0.00,0.00,57.88,
18.373,114.32658397032698,85.24998973796227,-2.0,0.0,-1.0,1,4,2,2,2,1,2,0.00,0.00,58.08,
18.387,114.3566583970327,85.22299897379624,-3.0,0.0,-1.0,1,4,2,2,2,1,2,0.00,0.00,58.57,
18.402,114.36866583970327,85.18429989737963,-3.0,0.0,-1.0,1,4,2,2,2,1,2,0.00,0.00,58.66,
18.416,114.41486658397034,85.15342998973797,-3.0,0.0,-1.0,1,4,2,2,1,1,2,0.00,0.00,58.86,
18.43,114.43748665839702,85.0963429989738,-3.0,0.0,0.0,1,4,2,2,1,1,2,0.00,0.00,59.15,
18.444,114.4487486658397,85.08163429989739,-4.0,0.0,0.0,1,4,2,2,1,1,2,0.00,0.00,59.25,
18.458,114.43187486658398,85.08016342998974,-4.0,0.0,0.0,1,4,2,2,1,1,2,0.00,0.00,59.35,
18.472,114.44818748665841,85.03501634299897,-4.0,0.0,0.0,1,4,2,2,1,1,2,0.00,0.00,59.45,
18.486,114.46781874866583,84.95850163429989,-4.0,0.0,0.0,1,4,2,2,1,1,2,0.00,0.00,59.94,
18.5,114.51478187486657,84.90585016343,-3.0,0.0,-1.0,1,4,2,2,1,1,2,0.00,0.00,60.04,
18.514,114.54647818748666,84.864585016343,-3.0,0.0,-1.0,1,4,2,2,1,1,2,0.00,0.00,60.04,
18.529,114.57664781874867,84.92345850163431,-3.0,0.0,-1.0,1,4,2,2,1,1,2,0.00,0.00,60.14,
18.543,114.59766478187487,84.95634585016343,-3.0,0.0,-1.0,1,4,2,2,1,1,2,0.00,0.00,60.14,
18.556,114.62676647818749,84.88763458501634,-3.0,0.0,-1.0,1,4,2,2,1,1,2,0.00,0.00,60.14,
18.571,114.62967664781874,84.85376345850163,-2.0,0.0,-1.0,1,4,2,2,1,1,2,0.00,0.00,60.33,
18.585,114.60296766478187,84.83237634585015,-2.0,0.0,-1.0,1,4,2,2,1,1,2,0.00,0.00,60.63,
18.599,114.60929676647818,84.848237634585,-1.0,0.0,-1.0,1,3,2,2,1,1,2,0.00,0.00,60.92,
18.614,114.60992967664782,84.87682376345849,-1.0,0.0,-1.0,1,3,2,2,1,1,2,0.00,0.00,61.02,
18.627,114.61899296766478,84.92468237634586,-2.0,0.0,-1.0,1,3,2,2,1,1,2,0.00,0.00,61.31,
18.641,114.58389929676648,84.95646823763458,-1.0,1.0,-1.0,1,3,2,2,1,1,2,0.00,0.00,61.70,
18.656,114.57138992967664,84.89664682376345,-1.0,0.0,-1.0,1,3,2,2,1,1,2,0.00,0.00,61.90,
18.67,114.56113899296766,84.87266468237635,-1.0,0.0,-1.0,1,3,2,2,1,1,2,0.00,0.00,62.10,
18.684,114.60511389929677,84.94226646823763,-1.0,0.0,-1.0,1,3,2,2,1,1,2,0.00,0.00,62.29,
18.698,114.62751138992968,84.94922664682376,-1.0,0.0,-1.0,1,3,2,2,2,1,2,0.00,0.00,62.59,
18.712,114.67475113899297,84.94992266468238,-1.0,0.0,-1.0,1,3,2,2,2,1,2,0.00,0.00,62.69,
18.726,114.5894751138993,84.98599226646823,-1.0,0.0,-1.0,1,3,2,2,2,1,2,0.00,0.00,62.78,
18.741,114.61694751138992,85.02559922664682,-1.0,0.0,-1.0,1,3,2,2,2,1,2,0.00,0.00,62.98,
18.755,114.673694751139,85.06555992266468,-2.0,0.0,-1.0,1,3,2,2,2,1,2,0.00,0.00,63.08,
18.768,114.70636947511389,85.09655599226647,-2.0,0.0,-1.0,1,3,2,2,2,1,2,0.00,0.00,62.98,
18.783,114.70063694751138,85.11765559922665,-2.0,0.0,-1.0,1,3,2,2,2,1,2,0.00,0.00,62.98,
18.797,114.69106369475114,85.13776555992267,-3.0,0.0,-1.0,1,3,2,2,2,1,2,0.00,0.00,63.08,
18.811,114.69910636947512,85.06777655599227,-3.0,0.0,-1.0,1,3,2,2,2,1,2,0.00,0.00,62.98,
18.826,114.6819106369475,85.07877765559923,-2.0,0.0,-1.0,1,3,2,2,2,1,2,0.00,0.00,62.78,
18.839,114.69819106369475,85.08887776555993,-2.0,0.0,0.0,1,3,2,2,2,1,2,0.00,0.00,62.78,
18.853,114.68181910636947,85.035887776556,-2.0,0.0,-1.0,1,3,2,2,2,1,2,0.00,0.00,62.78,
18.868,114.65318191063695,84.9945887776556,-2.0,0.0,-1.0,1,3,2,2,2,1,2,0.00,0.00,62.78,
18.882,114.66831819106369,84.99045887776556,-2.0,0.0,-1.0,1,3,2,2,2,1,2,0.00,0.00,62.78,
18.896,114.69683181910636,84.98104588777656,-2.0,0.0,-1.0,1,3,2,2,2,1,2,0.00,0.00,62.59,
18.91,114.69968318191064,85.03410458877765,-2.0,0.0,-1.0,1,3,2,2,2,1,2,0.00,0.00,62.59,
18.924,114.69996831819107,85.02141045887777,-2.0,0.0,-1.0,1,3,2,2,2,1,2,0.00,0.00,62.39,
18.938,114.6279968318191,85.06514104588777,-2.0,0.0,-1.0,1,3,2,2,2,1,2,0.00,0.00,62.20,
18.953,114.67479968318192,85.06951410458878,-2.0,0.0,0.0,1,3,2,2,2,1,2,0.00,0.00,61.51,
18.967,114.66147996831819,85.05195141045888,-2.0,0.0,0.0,1,3,2,2,2,1,2,0.00,0.00,61.41,
18.98,114.59714799683182,85.05919514104589,-2.0,0.0,0.0,1,3,2,2,2,1,2,0.00,0.00,61.31,
18.995,114.61771479968318,85.04191951410459,-2.0,0.0,0.0,1,3,2,2,2,1,2,0.00,0.00,61.12,
19.009,114.65577147996832,85.03119195141046,-2.0,0.0,0.0,1,3,2,2,2,1,2,0.00,0.00,61.21,
19.022,114.72257714799683,84.99411919514104,-2.0,0.0,0.0,1,3,2,2,2,1,2,0.00,0.00,61.21,
19.037,114.75625771479969,84.9814119195141,-3.0,-1.0,0.0,1,3,2,2,2,1,2,0.00,0.00,61.21,
19.051,114.74162577147996,84.9891411919514,-3.0,-1.0,0.0,1,3,2,2,2,1,2,0.00,0.00,61.21,
19.065,114.776162577148,84.95391411919513,-3.0,-1.0,-1.0,1,3,2,2,2,1,2,0.00,0.00,61.21,
19.08,114.7256162577148,84.90539141191952,-3.0,0.0,0.0,1,3,2,2,1,1,2,0.00,0.00,61.12,
19.093,114.66656162577148,84.88253914119194,-3.0,0.0,0.0,1,3,2,2,1,1,2,0.00,0.00,61.02,
19.107,114.71465616257714,84.83525391411919,-3.0,0.0,0.0,1,3,2,2,1,1,2,0.00,0.00,60.92,
19.122,114.73746561625771,84.82152539141191,-3.0,-1.0,0.0,1,3,2,2,1,1,2,0.00,0.00,60.82,
19.136,114.75774656162578,84.82915253914118,-3.0,-1.0,0.0,1,3,2,2,1,1,2,0.00,0.00,60.72,
19.149,114.64277465616257,84.76691525391412,-2.0,0.0,-1.0,1,3,2,2,1,1,2,0.00,0.00,60.53,
19.164,114.57727746561625,84.7156915253914,-3.0,0.0,0.0,1,3,2,2,1,1,2,0.00,0.00,60.14,
19.178,114.50772774656161,84.83656915253914,-3.0,0.0,0.0,1,3,2,2,1,1,2,0.00,0.00,59.94,
19.192,114.51877277465616,84.81265691525392,-3.0,0.0,0.0,1,3,2,2,1,1,2,0.00,0.00,59.74,
19.206,114.52887727746561,84.6932656915254,-3.0,0.0,0.0,1,3,2,2,1,1,2,0.00,0.00,59.64,
19.22,114.46688772774655,84.63632656915254,-3.0,0.0,0.0,1,3,2,2,1,1,2,0.00,0.00,59.25,
19.234,114.44268877277464,84.63963265691525,-2.0,0.0,0.0,1,3,2,2,1,1,2,0.00,0.00,59.06,
19.249,114.38626887727746,84.64896326569152,-3.0,0.0,0.0,1,3,2,2,1,1,2,0.00,0.00,58.96,
19.262,114.43462688772775,84.64089632656915,-3.0,-1.0,0.0,1,3,2,2,1,1,2,0.00,0.00,58.76,
19.276,114.45746268877276,84.63108963265691,-2.0,-1.0,0.0,1,3,2,2,1,1,2,0.00,0.00,58.66,
19.291,114.52274626887727,84.55810896326568,-2.0,0.0,-1.0,1,3,2,2,1,1,2,0.00,0.00,58.57,
19.305,114.51127462688774,84.53281089632657,-1.0,0.0,-1.0,1,3,2,2,1,1,2,0.00,0.00,58.37,
19.319,114.57312746268877,84.53928108963267,-1.0,0.0,-1.0,1,3,2,2,1,1,2,0.00,0.00,58.17,
19.333,114.60631274626887,84.58492810896327,-1.0,0.0,-1.0,1,3,2,2,1,1,2,0.00,0.00,58.17,
19.347,114.57363127462688,84.62549281089633,-1.0,0.0,-1.0,1,3,2,2,1,1,2,0.00,0.00,58.17,
19.361,114.55236312746268,84.61154928108964,-2.0,0.0,0.0,1,3,2,2,1,1,2,0.00,0.00,58.17,
19.376,114.57723631274627,84.59215492810897,-2.0,0.0,-1.0,1,3,2,2,1,1,2,0.00,0.00,58.08,
19.39,114.66072363127462,84.5542154928109,-3.0,0.0,0.0,1,3,2,2,1,1,2,0.00,0.00,58.08,
19.403,114.64207236312745,84.55042154928108,-3.0,0.0,-1.0,1,3,2,2,1,1,2,0.00,0.00,57.88,
19.418,114.64020723631275,84.56804215492811,-3.0,-1.0,-1.0,1,3,2,2,1,1,2,0.00,0.00,57.49,
19.432,114.58602072363126,84.57880421549281,-3.0,0.0,-1.0,1,3,2,2,1,1,2,0.00,0.00,57.39,
19.446,114.54460207236313,84.55288042154928,-3.0,0.0,-1.0,1,3,2,2,1,1,2,0.00,0.00,57.19,
19.461,114.4504602072363,84.51428804215493,-2.0,0.0,-1.0,1,3,2,2,1,1,2,0.00,0.00,57.19,
19.474,114.42304602072363,84.4834288042155,-2.0,0.0,-1.0,1,3,2,2,1,1,2,0.00,0.00,57.19,
19.488,114.45630460207235,84.50734288042156,-2.0,0.0,0.0,1,3,2,2,1,1,2,0.00,0.00,57.29,
19.503,114.43263046020724,84.55473428804216,-2.0,0.0,0.0,1,3,2,2,1,1,2,0.00,0.00,57.39,
19.517,114.42126304602073,84.55947342880421,-2.0,0.0,0.0,1,3,2,2,1,1,2,0.00,0.00,57.39,
19.53,114.39312630460208,84.47894734288042,-2.0,0.0,-1.0,1,3,2,2,1,1,2,0.00,0.00,57.39,
19.545,114.37231263046021,84.54289473428804,-2.0,0.0,0.0,1,3,2,2,1,1,2,0.00,0.00,57.39,
19.559,114.39723126304602,84.5222894734288,-3.0,0.0,-1.0,1,3,2,2,1,1,2,0.00,0.00,57.39,
19.573,114.4087231263046,84.52922894734287,-2.0,0.0,-1.0,1,3,2,2,1,1,2,0.00,0.00,57.39,
19.588,114.40987231263045,84.50292289473428,-3.0,0.0,-1.0,1,3,2,2,1,1,2,0.00,0.00,57.49,
19.601,114.37398723126304,84.51829228947342,-2.0,0.0,-1.0,1,3,2,2,1,1,2,0.00,0.00,57.58,
19.615,114.3793987231263,84.54682922894735,-3.0,0.0,-1.0,1,3,2,2,1,1,2,0.00,0.00,57.49,
19.63,114.37993987231262,84.55868292289473,-2.0,0.0,-1.0,1,3,2,2,1,1,2,0.00,0.00,57.58,
19.644,114.36199398723127,84.53286829228946,-2.0,0.0,-1.0,1,3,2,2,1,1,2,0.00,0.00,57.58,
19.658,114.35119939872311,84.54828682922894,-3.0,0.0,-1.0,1,3,2,2,1,1,2,0.00,0.00,57.39,
19.672,114.3501199398723,84.52282868292289,-3.0,0.0,-1.0,1,3,2,2,1,1,2,0.00,0.00,57.29,
19.686,114.23301199398723,84.61928286829229,-3.0,0.0,-1.0,1,3,2,2,1,1,2,0.00,0.00,57.29,
19.7,114.32030119939873,84.56592828682923,-3.0,0.0,-1.0,1,3,2,2,1,1,2,0.00,0.00,57.19,
19.715,114.32003011993986,84.60559282868292,-2.0,0.0,-1.0,1,3,2,2,1,1,2,0.00,0.00,57.00,
19.729,114.33800301199399,84.5465592828683,-2.0,0.0,-1.0,1,3,2,2,1,1,2,0.00,0.00,56.90,
19.743,114.3398003011994,84.41465592828683,-1.0,0.0,-1.0,1,3,2,2,1,1,2,0.00,0.00,56.90,
19.757,114.38498003011995,84.39246559282869,-1.0,0.0,-1.0,1,3,2,2,1,1,2,0.00,0.00,56.90,
20.196,114.28149800301199,84.61524655928287,-1.0,0.0,-1.0,1,4,2,2,2,1,2,0.00,0.00,55.13,
20.209,114.3071498003012,84.63752465592829,-1.0,0.0,-1.0,1,4,2,2,2,1,2,0.00,0.00,55.23,
20.224,114.30071498003012,84.69375246559284,-1.0,0.0,-1.0,1,4,2,2,2,1,2,0.00,0.00,55.23,
20.238,114.300071498003,84.68137524655928,-1.0,0.0,-1.0,1,4,2,2,2,1,2,0.00,0.00,55.23,
20.252,114.28200714980031,84.72513752465593,-1.0,0.0,-1.0,1,4,2,2,2,1,2,0.00,0.00,55.23,
20.267,114.32520071498003,84.71151375246558,-1.0,0.0,-1.0,1,4,2,2,2,1,2,0.00,0.00,55.13,
20.28,114.31152007149801,84.77315137524656,-1.0,0.0,-1.0,1,4,2,2,2,1,2,0.00,0.00,55.13,
20.294,114.32815200714981,84.78831513752466,-2.0,0.0,-1.0,1,4,2,2,2,1,2,0.00,0.00,55.03,
20.308,114.34781520071498,84.80783151375248,-2.0,0.0,-1.0,1,4,2,2,2,1,2,0.00,0.00,55.03,
20.323,114.37678152007149,84.83678315137526,-2.0,0.0,-1.0,1,4,2,2,2,1,2,0.00,0.00,55.13,
20.337,114.36167815200716,84.82167831513752,-2.0,0.0,-1.0,1,4,2,2,2,1,2,0.00,0.00,55.13,
20.352,114.29716781520072,84.81116783151376,-2.0,0.0,-1.0,1,4,2,2,2,1,2,0.00,0.00,54.94,
20.365,114.27271678152007,84.78311678315139,-2.0,0.0,-1.0,1,4,2,2,2,1,2,0.00,0.00,54.94,
20.379,114.24327167815201,84.78931167831514,-2.0,0.0,-1.0,1,4,2,2,1,1,2,0.00,0.00,54.94,
20.393,114.2493271678152,84.76293116783152,-2.0,0.0,-1.0,1,4,2,2,1,1,2,0.00,0.00,55.03,
20.408,114.22293271678151,84.74229311678315,-2.0,0.0,-1.0,1,4,2,2,1,1,2,0.00,0.00,54.84,
20.422,114.18429327167816,84.83922931167831,-2.0,0.0,-1.0,1,4,2,2,2,1,2,0.00,0.00,54.64,
20.435,114.15342932716783,84.83992293116783,-2.0,0.0,-1.0,1,4,2,2,2,1,2,0.00,0.00,54.54,
20.45,114.1233429327168,84.81299229311679,-2.0,0.0,-1.0,1,4,2,2,2,1,2,0.00,0.00,54.54,
20.464,114.16533429327168,84.77429922931167,-2.0,0.0,-1.0,1,4,2,2,2,1,2,0.00,0.00,54.45,
20.478,114.20553342932716,84.78842992293117,-2.0,0.0,-1.0,1,4,2,2,2,1,2,0.00,0.00,54.35,
20.493,114.20055334293272,84.73584299229312,-2.0,0.0,-1.0,1,4,2,2,2,1,2,0.00,0.00,54.35,
20.507,114.18205533429328,84.75758429922932,-2.0,0.0,-1.0,1,4,2,2,2,1,2,0.00,0.00,54.15,
20.52,114.20720553342933,84.75975842992294,-2.0,0.0,-1.0,1,4,2,2,2,1,2,0.00,0.00,54.05,
20.535,114.15572055334295,84.76897584299229,-2.0,0.0,-1.0,1,4,2,2,1,1,2,0.00,0.00,54.05,
20.549,114.17757205533431,84.82389758429922,-2.0,0.0,-1.0,1,4,2,2,1,1,2,0.00,0.00,54.05,
20.563,114.18875720553343,84.85638975842991,-3.0,0.0,-1.0,1,4,2,2,1,1,2,0.00,0.00,53.96,
20.578,114.16287572055334,84.85063897584298,-3.0,0.0,-1.0,1,4,2,2,1,1,2,0.00,0.00,53.96,
20.591,114.19628757205533,84.83206389758429,-3.0,0.0,-1.0,1,4,2,2,1,1,2,0.00,0.00,53.96,
20.605,114.16362875720553,84.78520638975843,-3.0,0.0,-1.0,1,4,2,2,1,1,2,0.00,0.00,53.96,
20.62,114.11536287572055,84.78952063897584,-3.0,0.0,-1.0,1,4,2,2,1,1,2,0.00,0.00,53.96,
20.634,114.08353628757204,84.74495206389757,-2.0,0.0,-1.0,1,4,2,2,1,1,2,0.00,0.00,53.86,
20.648,114.1073536287572,84.74049520638975,-2.0,0.0,0.0,1,4,2,2,1,1,2,0.00,0.00,53.96,
20.662,114.10073536287571,84.71304952063896,-2.0,0.0,-1.0,1,4,2,2,1,1,2,0.00,0.00,54.15,
20.676,114.18107353628757,84.7013049520639,-2.0,0.0,-1.0,1,4,2,2,1,1,2,0.00,0.00,54.15,
