time,pitch,roll,gyrx,gyry,gyrz,f1,f2,f3,f4,f5,f6,f7,g1,g2,g3
0.325,35.94,13.83,-2.0,1.0,0.0,0,0,0,0,0,0,0,0.00,0.00,0.00,
0.338,48.657000000000004,18.672,-2.0,0.0,0.0,0,0,0,0,0,0,0,0.00,0.49,0.10,
0.352,60.7557,23.278200000000002,-1.0,0.0,-1.0,0,0,0,0,0,0,0,0.10,3.04,0.29,
0.364,71.32557,27.131819999999998,-1.0,-1.0,-1.0,0,0,0,0,0,0,0,0.10,1.18,0.20,
0.377,80.18555699999999,30.406182,-1.0,-2.0,-1.0,0,0,0,0,0,0,0,0.10,1.08,0.20,
0.391,87.7045557,33.1186182,-1.0,0.0,-2.0,0,0,0,0,0,0,0,0.10,0.39,0.20,
0.404,94.05445557,35.55886182,-1.0,1.0,-2.0,0,0,0,0,0,0,0,0.10,0.00,0.20,
0.417,99.468445557,37.746886182000004,-2.0,0.0,0.0,0,0,0,0,0,0,0,0.10,0.10,0.29,
0.43,103.97884455570001,39.7566886182,-1.0,1.0,0.0,0,0,0,0,0,0,0,0.00,0.10,0.20,
0.443,107.85888445557,41.48766886182,0.0,0.0,0.0,0,0,0,0,0,0,0,0.00,0.00,0.20,
0.456,111.162888445557,42.965766886181996,0.0,0.0,-1.0,0,0,0,0,0,0,0,0.10,0.69,0.29,
0.47,113.9232888445557,44.17557668861821,0.0,0.0,-1.0,0,0,0,0,0,0,0,0.00,0.00,0.29,
0.482,116.13432888445557,45.29555766886182,0.0,0.0,-1.0,0,0,0,0,0,0,0,0.10,0.00,0.20,
0.495,118.20043288844556,45.96555576688618,0.0,0.0,-1.0,0,0,0,0,0,0,0,0.10,0.29,0.39,
0.508,120.03604328884455,46.54555557668861,-1.0,0.0,-1.0,0,0,0,0,0,0,0,0.10,0.00,0.39,
0.522,121.68660432888446,46.828555557668864,-1.0,0.0,-1.0,0,0,0,0,0,0,0,0.10,0.39,0.39,
0.535,123.11166043288844,47.00985555576689,-1.0,0.0,-3.0,0,0,0,0,0,0,0,0.10,0.59,0.29,
0.548,124.28916604328884,47.072985555576686,-1.0,0.0,-4.0,0,0,0,0,0,0,0,0.10,0.20,0.10,
0.561,125.08191660432888,47.23229855555766,-2.0,1.0,-3.0,0,0,0,0,0,0,0,0.20,0.00,0.10,
0.574,125.83619166043289,47.24822985555576,-3.0,1.0,-2.0,0,0,0,0,0,0,0,0.20,0.59,0.10,
0.587,126.5146191660433,47.30382298555558,-4.0,1.0,-2.0,0,0,0,0,0,0,0,0.10,0.00,0.10,
0.601,127.02346191660433,47.44438229855555,-4.0,0.0,-2.0,0,0,0,0,0,0,0,0.00,0.29,0.20,
0.614,127.28134619166043,47.83643822985556,-4.0,1.0,-3.0,0,0,0,0,0,0,0,0.00,0.00,0.10,
0.627,127.43313461916604,48.21764382298555,-4.0,0.0,-2.0,0,0,0,0,0,0,0,0.00,0.00,0.10,
0.641,127.4483134619166,48.58876438229856,-3.0,0.0,-1.0,0,0,0,0,0,0,0,0.00,0.00,0.10,
0.653,127.56683134619166,48.91387643822986,-3.0,0.0,0.0,0,0,0,0,0,0,0,0.10,0.39,0.20,
0.666,127.78568313461918,49.23438764382299,-3.0,-1.0,0.0,0,0,0,0,0,0,0,0.00,0.00,0.20,
0.679,128.29356831346192,49.293438764382294,-2.0,-1.0,0.0,0,0,0,0,0,0,0,0.10,0.00,0.20,
0.693,128.71335683134618,49.40734387643823,-2.0,-2.0,0.0,0,0,0,0,0,0,0,0.10,0.39,0.29,
0.706,128.90833568313462,49.679734387643826,-2.0,-1.0,-1.0,0,0,0,0,0,0,0,0.10,0.00,0.29,
0.719,129.2878335683135,49.66197343876438,-2.0,0.0,-2.0,0,0,0,0,0,0,0,0.10,0.29,0.39,
0.733,129.48778335683136,49.58819734387644,-3.0,0.0,-1.0,0,0,0,0,0,0,0,0.20,0.00,0.29,
0.746,129.61577833568313,49.60781973438765,-4.0,0.0,-1.0,0,0,0,0,0,0,0,0.20,0.49,0.10,
0.758,129.6825778335683,49.618781973438765,-4.0,-1.0,-1.0,0,0,0,0,0,0,0,0.10,0.00,0.00,
0.772,129.66225778335684,49.55687819734388,-2.0,-1.0,-2.0,0,0,0,0,0,0,0,0.20,1.08,0.00,
0.785,129.73222577833567,49.586687819734394,-2.0,-1.0,-1.0,0,0,0,0,0,0,0,0.20,0.29,0.20,
0.798,129.79322257783357,49.49066878197343,-2.0,-1.0,0.0,0,0,0,0,0,0,0,0.10,0.00,0.10,
0.812,129.90732225778336,49.427066878197344,-2.0,0.0,0.0,0,0,0,0,0,0,0,0.20,0.00,0.10,
0.825,130.06273222577835,49.38470668781973,-3.0,0.0,0.0,0,0,0,0,0,0,0,0.20,0.00,0.00,
0.838,130.28527322257784,49.29947066878197,-3.0,0.0,-1.0,0,0,0,0,0,0,0,0.10,0.00,0.00,
0.851,130.3525273222578,49.2819470668782,-2.0,0.0,-2.0,0,0,0,0,0,0,0,0.10,0.29,0.10,
0.864,130.18825273222578,49.43319470668782,-3.0,-1.0,-2.0,0,0,0,0,0,0,0,0.20,0.00,0.10,
0.877,130.0638252732226,49.57431947066879,-2.0,0.0,-1.0,0,0,0,0,0,0,0,0.20,0.20,0.00,
0.89,130.06038252732225,49.723431947066885,-2.0,0.0,0.0,0,0,0,0,0,0,0,0.20,0.29,0.10,
0.904,130.2400382527322,49.78334319470669,-2.0,0.0,0.0,0,0,0,0,0,0,0,0.10,0.00,0.10,
0.917,130.33000382527322,49.96933431947067,0.0,0.0,0.0,0,0,0,0,0,0,0,0.10,0.00,0.00,
0.93,130.55500038252734,49.91593343194706,1.0,0.0,0.0,0,0,0,0,0,0,0,0.10,0.00,0.00,
0.943,130.55050003825275,49.97359334319471,1.0,0.0,-1.0,0,0,0,0,0,0,0,0.10,0.00,0.00,
0.956,130.3520500038253,50.114359334319474,0.0,0.0,0.0,0,0,0,0,0,0,0,0.10,0.00,0.00,
0.969,130.2422050003825,50.12843593343195,0.0,1.0,0.0,0,0,0,0,0,0,0,0.10,0.29,0.00,
0.982,130.34822050003825,50.00384359334319,0.0,0.0,0.0,0,0,0,0,0,0,0,0.10,0.00,0.00,
0.995,130.54782205000382,49.73938435933432,0.0,0.0,0.0,0,0,0,0,0,0,0,0.10,0.69,0.00,
1.008,130.6937822050004,49.49693843593344,0.0,0.0,-3.0,0,0,0,0,0,0,0,0.10,0.00,0.00,
1.021,130.76237822050004,49.211693843593345,-2.0,-1.0,-4.0,0,0,0,0,0,0,0,0.20,0.49,0.00,
1.034,130.55323782205,49.12916938435933,-3.0,-1.0,-3.0,0,0,0,0,0,0,0,0.20,0.20,0.00,
1.047,130.307323782205,49.210916938435936,-4.0,-1.0,-2.0,0,0,0,0,0,0,0,0.20,0.00,0.00,
1.06,130.2377323782205,49.237091693843595,-3.0,0.0,0.0,0,0,0,0,0,0,0,0.29,0.00,0.00,
1.074,130.15877323782206,49.31170916938436,-3.0,0.0,0.0,0,0,0,0,0,0,0,0.20,0.00,0.00,
1.087,130.0878773237822,49.373170916938435,-2.0,0.0,0.0,0,0,0,0,0,0,0,0.10,0.00,0.00,
1.1,130.10778773237823,49.478317091693846,-1.0,-1.0,0.0,0,0,0,0,0,0,0,0.00,0.00,0.00,
1.114,129.99277877323783,49.758831709169385,0.0,-1.0,0.0,0,0,0,0,0,0,0,0.10,0.00,0.00,
1.126,129.8552778773238,49.948883170916936,-1.0,-2.0,0.0,0,0,0,0,0,0,0,0.10,0.00,0.00,
1.139,129.86852778773238,49.77888831709169,-3.0,0.0,0.0,0,0,0,0,0,0,0,0.10,0.00,0.00,
1.153,129.93285277877322,49.51888883170917,-3.0,0.0,0.0,0,0,0,0,0,0,0,0.00,0.20,0.00,
1.166,130.14628527787733,49.06988888317092,-4.0,0.0,-1.0,0,0,0,0,0,0,0,0.10,0.00,0.00,
1.179,130.23962852778774,48.82698888831709,-4.0,-1.0,-2.0,0,0,0,0,0,0,0,0.10,0.00,0.00,
1.191,130.40196285277875,48.5056988888317,-4.0,-1.0,-2.0,0,0,0,0,0,0,0,0.10,0.39,0.00,
1.205,130.4001962852779,48.32956988888318,-4.0,0.0,-3.0,0,0,0,0,0,0,0,0.20,0.00,0.00,
1.218,130.14801962852778,48.275956988888325,-5.0,1.0,-1.0,0,0,0,0,0,0,0,0.20,0.20,0.10,
1.231,130.0868019628528,48.20759569888884,-6.0,0.0,1.0,0,0,0,0,0,0,0,0.20,0.00,0.10,
1.245,130.05368019628528,48.20975956988889,-6.0,0.0,2.0,0,0,0,0,0,0,0,0.20,0.00,0.10,
1.258,130.11336801962852,48.18297595698889,-5.0,0.0,1.0,0,0,0,0,0,0,0,0.10,0.49,0.29,
1.271,130.09233680196286,48.24329759569889,-4.0,0.0,0.0,0,0,0,0,0,0,0,0.10,0.49,0.00,
1.284,129.79323368019627,48.61832975956989,-4.0,-1.0,0.0,0,0,0,0,0,0,0,0.20,0.00,0.00,
1.297,129.52932336801962,49.04283297595699,-3.0,-2.0,0.0,0,0,0,0,0,0,0,0.20,0.10,0.00,
1.31,129.52093233680196,49.319283297595696,-4.0,-2.0,1.0,0,0,0,0,0,0,0,0.10,0.00,0.00,
1.324,129.6910932336802,49.50892832975957,-4.0,-1.0,1.0,0,0,0,0,0,0,0,0.10,0.00,0.10,
1.337,130.02310932336803,49.671892832975956,-4.0,0.0,0.0,0,0,0,0,0,0,0,0.29,0.00,0.00,
1.35,130.24531093233682,49.93118928329759,-3.0,-1.0,0.0,0,0,0,0,0,0,0,0.29,0.00,0.00,
1.362,130.25853109323367,50.317118928329755,-1.0,0.0,-2.0,0,0,0,0,0,0,0,0.29,0.00,0.00,
1.376,130.11585310932338,50.78771189283298,0.0,0.0,-3.0,0,0,0,0,0,0,0,0.20,0.39,0.00,
1.389,129.91258531093234,51.36577118928329,1.0,0.0,-3.0,0,0,0,0,0,0,0,0.20,0.00,0.00,
1.402,129.68525853109324,51.85557711892833,2.0,0.0,-2.0,0,0,0,0,0,0,0,0.10,0.00,0.00,
1.416,129.61752585310933,52.282557711892835,4.0,0.0,-2.0,0,0,0,0,0,0,0,0.20,0.10,0.10,
1.428,129.73675258531094,52.66725577118928,6.0,0.0,-2.0,0,0,0,0,0,0,0,0.20,0.00,0.10,
1.441,129.78467525853108,53.13772557711893,7.0,-1.0,-3.0,0,0,0,0,0,0,0,0.10,0.00,0.10,
1.455,129.6904675258531,53.778772557711896,9.0,-1.0,-5.0,0,0,0,0,0,0,0,0.00,0.00,0.20,
1.468,129.3840467525853,54.71587725577119,14.0,-1.0,-8.0,0,0,0,0,0,0,0,0.10,0.00,0.29,
1.481,129.10140467525852,55.871587725577115,21.0,0.0,-9.0,0,0,0,0,0,0,0,0.20,0.00,0.20,
1.495,128.83014046752587,56.91415877255771,29.0,0.0,-9.0,0,0,0,0,0,0,0,0.10,1.18,0.29,
1.508,128.79401404675258,58.16141587725577,36.0,0.0,-10.0,0,0,0,0,0,0,0,0.10,1.57,0.39,
1.521,128.93440140467524,59.49214158772558,42.0,-1.0,-12.0,0,0,0,0,0,0,0,0.10,0.10,0.00,
1.534,129.09244014046755,60.82221415877255,54.0,-1.0,-16.0,0,0,0,0,0,0,0,0.00,0.00,0.00,
1.548,129.21624401404674,62.440221415877254,69.0,1.0,-22.0,0,0,0,0,0,0,0,0.00,0.10,0.00,
1.561,129.19262440140466,64.01502214158772,85.0,5.0,-27.0,0,0,0,0,0,0,0,0.00,0.00,0.20,
1.574,129.16326244014047,65.44150221415877,94.0,7.0,-36.0,0,0,0,0,0,0,0,0.00,0.00,0.39,
1.588,129.06132624401405,67.51015022141587,96.0,14.0,-33.0,0,0,0,0,0,0,0,0.00,0.00,0.39,
1.601,129.03313262440142,69.13001502214159,94.0,11.0,-30.0,0,0,0,0,0,0,0,0.00,2.94,0.39,
1.614,128.98531326244014,70.40800150221415,99.0,13.0,-30.0,0,0,0,0,0,0,0,0.00,4.81,0.29,
1.628,129.511531326244,71.65180015022142,101.0,16.0,-30.0,0,0,0,0,0,0,0,0.00,6.77,0.39,
1.641,129.1501531326244,72.76618001502214,105.0,10.0,-16.0,0,0,0,0,0,0,0,0.00,7.36,0.59,
1.654,129.11401531326246,73.69661800150222,103.0,2.0,-13.0,0,0,0,0,0,0,0,0.00,5.79,0.49,
1.668,129.08340153132625,73.96066180015022,96.0,-3.0,-13.0,0,0,0,0,0,0,0,0.00,5.89,0.59,
1.681,128.55834015313263,74.13106618001504,90.0,-5.0,-10.0,0,0,0,0,0,0,0,0.00,4.71,0.29,
1.694,128.18183401531326,74.47210661800152,83.0,-3.0,-18.0,0,0,0,0,0,0,0,0.00,5.30,0.29,
1.709,127.67618340153133,75.26221066180015,75.0,0.0,-22.0,0,0,0,0,0,0,0,0.00,8.44,0.39,
1.722,127.46361834015313,75.22422106618002,66.0,0.0,-29.0,0,0,0,0,0,0,0,0.00,17.85,0.,
2.161,125.9933618340153,85.174422106618,1.0,-3.0,-12.0,0,0,0,0,0,0,0,3.14,0.88,4.22,
2.174,125.99033618340152,86.9704422106618,0.0,-4.0,2.0,0,0,0,0,0,0,0,3.24,0.00,4.41,
2.188,125.92703361834015,87.66304422106617,-1.0,-2.0,0.0,0,0,0,0,0,0,0,3.43,0.00,4.71,
2.201,126.010703361834,87.72330442210662,-1.0,-2.0,0.0,0,0,0,0,0,0,0,3.53,0.00,4.81,
2.214,125.8930703361834,87.72933044221067,0.0,-4.0,0.0,0,0,0,0,0,0,0,3.53,0.00,4.71,
2.228,125.59330703361834,87.73893304422106,0.0,-4.0,0.0,0,0,0,0,0,0,0,3.43,0.00,4.71,
2.241,125.62633070336183,87.8208933044221,0.0,-4.0,1.0,0,0,0,0,0,0,0,3.43,0.00,4.51,
2.254,125.74663307033619,87.8470893304422,-1.0,-3.0,0.0,0,0,0,0,0,0,0,3.34,0.00,4.51,
2.268,125.69566330703361,87.79570893304422,-1.0,-3.0,-1.0,0,0,0,0,0,0,0,3.34,0.00,4.81,
2.281,125.51956633070336,87.74557089330442,-2.0,-3.0,-2.0,0,0,0,0,0,0,0,3.34,0.00,4.71,
2.294,125.42095663307033,87.77655708933045,-3.0,-2.0,-2.0,0,0,0,0,0,0,0,3.34,0.00,4.71,
2.308,125.22209566330704,87.84265570893304,-3.0,-2.0,-1.0,0,0,0,0,0,0,0,3.24,0.00,4.71,
2.322,125.0672095663307,87.89426557089331,-3.0,-2.0,0.0,0,0,0,0,0,0,0,3.34,0.00,4.61,
2.335,125.03372095663306,87.80942655708932,-3.0,-1.0,-1.0,0,0,0,0,0,0,0,3.34,0.00,4.41,
2.349,125.08437209566331,87.71994265570892,-3.0,-1.0,-1.0,0,0,0,0,0,0,0,3.34,0.10,4.32,
2.362,125.13443720956633,87.4949942655709,-2.0,-1.0,-1.0,0,0,0,0,0,0,0,3.34,0.20,4.12,
2.375,125.13044372095663,87.4814994265571,-2.0,-1.0,-1.0,0,0,0,0,0,0,0,3.34,0.88,3.73,
2.388,124.95004437209568,87.4531499426557,-2.0,-1.0,-1.0,0,0,0,0,0,0,0,3.24,0.00,3.83,
2.403,124.87800443720957,87.39631499426557,-3.0,0.0,-1.0,0,0,0,0,0,0,0,3.34,0.00,4.02,
2.416,124.80780044372095,87.48963149942655,-2.0,0.0,-1.0,0,0,0,0,0,0,0,3.43,0.00,4.12,
2.429,124.8997800443721,87.42696314994265,-2.0,0.0,-1.0,0,0,0,0,0,0,0,3.43,0.00,4.22,
2.443,124.87297800443721,87.45669631499426,-2.0,0.0,-2.0,0,0,0,0,0,0,0,3.53,0.00,4.22,
2.456,124.74429780044372,87.50466963149943,-2.0,0.0,-1.0,0,0,0,0,0,0,0,3.53,0.00,3.43,
2.469,124.66842978004438,87.57246696314995,-2.0,0.0,-1.0,0,0,0,0,0,0,0,3.63,0.00,3.24,
2.483,124.69684297800444,87.606246696315,-2.0,0.0,-1.0,0,0,0,0,0,0,0,3.63,0.00,3.34,
2.496,124.69068429780044,87.5916246696315,-2.0,0.0,-1.0,0,0,0,0,0,0,0,3.53,0.00,3.43,
2.509,124.70806842978003,87.68916246696315,-2.0,0.0,-1.0,0,0,0,0,0,0,0,3.63,0.00,3.24,
2.523,124.77280684297801,87.67191624669633,-2.0,0.0,-1.0,0,0,0,0,0,0,0,3.63,0.00,3.14,
2.536,124.8062806842978,87.60719162466964,-2.0,0.0,-1.0,0,0,0,0,0,0,0,3.63,0.00,3.63,
2.549,124.75562806842979,87.58271916246696,-2.0,0.0,-1.0,0,0,0,0,0,0,0,3.73,0.00,3.73,
2.564,124.72356280684298,87.6072719162467,-2.0,-1.0,-1.0,0,0,0,0,0,0,0,3.73,0.00,3.34,
2.577,124.6393562806843,87.69072719162467,-2.0,-1.0,0.0,0,0,0,0,0,0,0,3.83,0.00,3.24,
2.59,124.59493562806843,87.75307271916247,-2.0,-2.0,0.0,0,0,0,0,0,0,0,3.73,0.00,3.14,
2.604,124.47349356280684,87.82230727191624,-2.0,-1.0,-2.0,0,0,0,0,0,0,0,3.73,0.00,3.24,
2.617,124.47034935628068,87.73923072719163,-2.0,0.0,0.0,0,0,0,0,0,0,0,3.73,0.00,3.14,
2.63,124.38903493562806,87.66792307271916,-2.0,-1.0,0.0,0,0,0,0,0,0,0,3.73,0.00,3.24,
2.643,124.3539034935628,87.64279230727192,-2.0,-1.0,0.0,0,0,0,0,0,0,0,3.53,0.00,3.53,
2.657,124.32339034935627,87.6762792307272,-2.0,-1.0,0.0,0,0,0,0,0,0,0,3.63,0.88,3.34,
2.671,124.25733903493563,87.64362792307273,-2.0,-1.0,0.0,0,0,0,0,0,0,0,3.53,2.94,3.34,
2.684,124.30473390349357,87.65836279230727,-3.0,1.0,0.0,0,0,0,0,0,0,0,3.53,2.65,3.04,
2.698,124.21947339034935,87.75883627923072,-3.0,1.0,0.0,0,0,0,0,0,0,0,3.53,3.04,2.84,
2.711,124.21094733903493,87.77788362792307,-3.0,2.0,0.0,0,0,0,0,0,0,0,3.53,1.28,2.75,
2.723,124.44409473390348,87.7167883627923,-2.0,0.0,1.0,0,0,0,0,0,0,0,3.63,0.10,2.45,
2.737,124.53040947339036,87.74667883627924,-2.0,1.0,1.0,0,0,0,0,0,0,0,3.73,1.86,2.26,
2.75,124.62004094733904,87.66866788362793,-1.0,0.0,2.0,0,0,0,0,0,0,0,3.73,2.45,2.26,
2.763,124.6920040947339,87.6698667883628,-1.0,1.0,1.0,0,0,0,0,0,0,0,3.73,2.06,2.55,
2.777,124.72620040947339,87.74198667883628,-2.0,1.0,0.0,0,0,0,0,0,0,0,3.83,1.77,2.65,
2.79,124.60362004094733,87.76719866788362,-2.0,2.0,1.0,0,0,0,0,0,0,0,3.73,1.37,2.16,
2.803,124.47436200409473,87.72471986678836,-2.0,2.0,1.0,0,0,0,0,0,0,0,3.73,0.20,2.16,
2.817,124.45243620040948,87.59447198667884,-2.0,2.0,1.0,0,0,0,0,0,0,0,3.92,1.96,1.96,
2.83,124.71124362004093,87.3924471986679,-1.0,2.0,0.0,0,0,0,0,0,0,0,4.12,1.28,1.96,
2.843,124.8811243620041,87.25524471986678,-1.0,1.0,0.0,0,0,0,0,0,0,0,4.12,2.26,1.96,
2.855,125.05111243620041,87.18752447198668,-1.0,1.0,0.0,0,0,0,0,0,0,0,4.12,1.37,2.16,
2.869,125.20311124362004,87.13575244719867,-1.0,0.0,0.0,0,0,0,0,0,0,0,4.12,1.57,2.16,
2.882,125.29031112436199,87.07657524471986,-2.0,0.0,-1.0,0,0,0,0,0,0,0,4.12,0.59,2.35,
2.895,125.29003111243621,87.09765752447198,-2.0,0.0,-1.0,0,0,0,0,0,0,0,4.22,0.88,2.35,
2.909,125.16400311124363,87.1537657524472,-2.0,0.0,-1.0,0,0,0,0,0,0,0,4.12,0.00,2.45,
2.922,125.08840031112436,87.14137657524472,-2.0,0.0,0.0,0,0,0,0,0,0,0,4.12,0.00,2.26,
2.935,125.07184003111243,87.14913765752448,-2.0,0.0,0.0,0,0,0,0,0,0,0,4.12,0.00,2.35,
2.949,125.14218400311124,87.08691376575244,-1.0,0.0,0.0,0,0,0,0,0,0,0,4.12,0.00,2.45,
2.962,125.16721840031113,87.17069137657525,-2.0,0.0,-1.0,0,0,0,0,0,0,0,4.12,0.00,2.55,
2.975,125.09772184003111,87.12506913765752,-2.0,-1.0,-1.0,0,0,0,0,0,0,0,4.12,0.00,2.45,
2.989,125.07277218400311,87.06650691376575,-2.0,-1.0,-1.0,0,0,0,0,0,0,0,4.12,0.10,2.35,
3.002,125.0702772184003,87.0426506913766,-2.0,-1.0,-1.0,0,0,0,0,0,0,0,4.02,0.00,2.45,
3.015,125.07002772184003,87.05826506913766,-2.0,-1.0,-2.0,0,0,0,0,0,0,0,4.02,0.29,2.16,
3.028,125.115002772184,87.02382650691376,-2.0,-1.0,-2.0,0,0,0,0,0,0,0,4.02,0.00,1.86,
3.042,125.12850027721841,87.05638265069138,-2.0,-2.0,-2.0,0,0,0,0,0,0,0,4.02,0.00,2.06,
3.055,124.97685002772184,87.07763826506914,-2.0,-2.0,-2.0,0,0,0,0,0,0,0,3.92,0.00,3.04,
3.068,124.89868500277218,87.12476382650692,-2.0,-1.0,-2.0,0,0,0,0,0,0,0,3.73,0.00,3.43,
3.083,124.8368685002772,87.1564763826507,-2.0,-1.0,-1.0,0,0,0,0,0,0,0,3.73,0.00,3.83,
3.096,124.84868685002772,87.19564763826507,-2.0,-1.0,-2.0,0,0,0,0,0,0,0,3.73,0.00,3.92,
3.109,124.90386868500276,87.18156476382651,-2.0,-1.0,-2.0,0,0,0,0,0,0,0,3.83,0.00,3.83,
3.123,124.86438686850028,87.24315647638265,-2.0,-1.0,-2.0,0,0,0,0,0,0,0,3.63,0.00,3.63,
3.136,124.81543868685003,87.24931564763827,-2.0,-1.0,-2.0,0,0,0,0,0,0,0,3.73,0.00,3.53,
3.149,124.77454386868499,87.29493156476381,-2.0,-1.0,-2.0,0,0,0,0,0,0,0,3.63,0.00,3.63,
3.163,124.6984543868685,87.33549315647639,-2.0,0.0,-2.0,0,0,0,0,0,0,0,3.63,0.00,3.83,
3.176,124.68184543868685,87.33954931564764,-2.0,0.0,-2.0,0,0,0,0,0,0,0,3.73,0.00,3.83,
3.189,124.67118454386869,87.42095493156478,-2.0,0.0,-2.0,0,0,0,0,0,0,0,3.63,0.00,4.02,
3.203,124.67911845438687,87.41109549315647,-2.0,0.0,-1.0,0,0,0,0,0,0,0,3.53,0.00,4.12,
3.216,124.65291184543868,87.49110954931564,-2.0,0.0,-2.0,0,0,0,0,0,0,0,3.63,0.00,4.41,
3.229,124.65929118454386,87.44511095493156,-2.0,0.0,-1.0,0,0,0,0,0,0,0,3.83,0.00,4.51,
3.243,124.65992911845439,87.40451109549316,-2.0,0.0,-1.0,0,0,0,0,0,0,0,3.92,0.00,4.41,
3.256,124.66899291184544,87.40045110954932,-2.0,0.0,-1.0,0,0,0,0,0,0,0,3.92,0.00,4.81,
3.269,124.75089929118455,87.38204511095492,-2.0,0.0,-2.0,0,0,0,0,0,0,0,3.92,0.00,4.71,
3.282,124.78608992911846,87.36220451109548,-2.0,0.0,-2.0,0,0,0,0,0,0,0,3.92,0.00,4.71,
3.296,124.74460899291184,87.42322045110956,-2.0,0.0,-2.0,0,0,0,0,0,0,0,4.02,0.00,4.51,
3.309,124.69546089929119,87.43832204511095,-2.0,0.0,-2.0,0,0,0,0,0,0,0,4.12,0.00,4.41,
3.322,124.66354608992911,87.4038322045111,-2.0,0.0,-1.0,0,0,0,0,0,0,0,4.12,0.00,4.61,
3.336,124.6513546089929,87.3913832204511,-2.0,0.0,-1.0,0,0,0,0,0,0,0,4.12,0.00,4.71,
3.349,124.60513546089929,87.4531383220451,-2.0,0.0,-1.0,0,0,0,0,0,0,0,4.02,0.00,4.91,
3.362,124.57351354608993,87.45931383220451,-2.0,0.0,-1.0,0,0,0,0,0,0,0,4.12,0.00,4.91,
3.376,124.59735135460899,87.37893138322046,-2.0,0.0,-1.0,0,0,0,0,0,0,0,4.12,0.49,4.91,
3.388,124.6267351354609,87.38889313832205,-2.0,0.0,-1.0,0,0,0,0,0,0,0,4.12,0.69,5.20,
3.401,124.6116735135461,87.42588931383222,-2.0,0.0,-1.0,0,0,0,0,0,0,0,4.12,0.00,5.30,
3.415,124.6371673513546,87.42058893138322,-2.0,0.0,-1.0,0,0,0,0,0,0,0,4.22,0.29,5.30,
3.428,124.60371673513546,87.42005889313832,-2.0,0.0,-1.0,0,0,0,0,0,0,0,4.12,0.00,5.30,
3.441,124.63637167351355,87.38400588931383,-2.0,0.0,-1.0,0,0,0,0,0,0,0,4.22,0.00,5.20,
3.454,124.71163716735136,87.3984005889314,-2.0,0.0,-1.0,0,0,0,0,0,0,0,4.22,0.00,4.91,
3.468,124.72816371673514,87.47184005889314,-2.0,-1.0,-1.0,0,0,0,0,0,0,0,4.22,0.00,4.81,
3.481,124.72981637167352,87.48818400588931,-2.0,0.0,-1.0,0,0,0,0,0,0,0,4.12,0.00,4.81,
3.494,124.71198163716734,87.46281840058893,-2.0,0.0,-1.0,0,0,0,0,0,0,0,4.22,0.00,4.71,
3.508,124.73719816371673,87.40628184005891,-2.0,0.0,-1.0,0,0,0,0,0,0,0,4.12,0.00,4.91,
3.949,124.65871981637167,87.47262818400588,-2.0,0.0,-1.0,0,0,0,0,0,0,0,4.12,0.00,5.59,
3.962,124.56987198163716,87.50626281840059,-2.0,0.0,-1.0,0,0,0,0,0,0,0,4.12,0.00,5.49,
3.976,124.51598719816373,87.59062628184006,-2.0,0.0,0.0,0,0,0,0,0,0,0,4.22,0.00,5.49,
3.989,124.54659871981637,87.54506262818401,-2.0,0.0,-1.0,0,0,0,0,0,0,0,4.22,0.20,5.20,
4.002,124.59465987198163,87.5135062628184,-2.0,0.0,-1.0,0,0,0,0,0,0,0,4.22,0.00,5.20,
4.016,124.63546598719816,87.52835062628183,-2.0,0.0,-1.0,0,0,0,0,0,0,0,4.22,0.20,5.30,
4.029,124.67554659871982,87.47583506262818,-2.0,0.0,-1.0,0,0,0,0,0,0,0,4.22,0.00,5.20,
4.042,124.67055465987198,87.48858350626281,-2.0,0.0,-1.0,0,0,0,0,0,0,0,4.32,0.00,5.30,
4.057,124.6070554659872,87.50785835062628,-2.0,0.0,-1.0,0,0,0,0,0,0,0,4.32,0.00,5.40,
4.07,124.59170554659872,87.50078583506263,-2.0,0.0,-1.0,0,0,0,0,0,0,0,4.41,0.00,5.30,
4.083,124.60817055465986,87.52707858350627,-2.0,0.0,-1.0,0,0,0,0,0,0,0,4.41,0.00,5.30,
4.097,124.66381705546598,87.44870785835062,-2.0,0.0,-1.0,0,0,0,0,0,0,0,4.41,0.49,5.20,
4.11,124.6603817055466,87.46787078583506,-2.0,0.0,-1.0,0,0,0,0,0,0,0,4.41,0.00,5.00,
4.123,124.65103817055466,87.51478707858351,-2.0,0.0,-1.0,0,0,0,0,0,0,0,4.41,0.00,4.91,
4.136,124.66810381705547,87.55547870785836,-2.0,0.0,-1.0,0,0,0,0,0,0,0,4.32,1.37,5.00,
4.15,124.68781038170555,87.55054787078583,-2.0,0.0,-1.0,0,0,0,0,0,0,0,4.41,3.43,5.00,
4.163,124.71678103817055,87.54105478707858,-2.0,0.0,-1.0,0,0,0,0,0,0,0,4.32,1.96,4.61,
4.176,124.71967810381706,87.53110547870786,-2.0,0.0,-1.0,0,0,0,0,0,0,0,4.32,0.00,4.02,
4.191,124.7019678103817,87.52111054787079,-2.0,0.0,-1.0,0,0,0,0,0,0,0,4.41,0.00,3.73,
4.204,124.64619678103817,87.54711105478708,-2.0,0.0,-1.0,0,0,0,0,0,0,0,4.41,0.00,4.12,
4.217,124.62261967810382,87.59471110547871,-2.0,0.0,-1.0,0,0,0,0,0,0,0,4.32,0.78,4.32,
4.231,124.67426196781038,87.60847111054787,-2.0,0.0,-1.0,0,0,0,0,0,0,0,4.22,0.00,4.41,
4.244,124.63442619678104,87.62784711105479,-2.0,0.0,-1.0,0,0,0,0,0,0,0,4.41,0.00,3.53,
4.257,124.64844261967811,87.53078471110548,-2.0,0.0,-1.0,0,0,0,0,0,0,0,4.32,0.00,3.73,
4.271,124.64984426196781,87.52107847111054,-2.0,0.0,-1.0,0,0,0,0,0,0,0,4.32,0.00,3.73,
4.284,124.67698442619678,87.48410784711105,-2.0,0.0,-1.0,0,0,0,0,0,0,0,4.41,0.00,3.73,
4.297,124.64369844261968,87.4804107847111,-2.0,0.0,-1.0,0,0,0,0,0,0,0,4.41,0.00,3.73,
4.311,124.58636984426197,87.4710410784711,-2.0,0.0,-1.0,0,0,0,0,0,0,0,4.41,0.00,3.83,
4.324,124.6076369844262,87.4611041078471,-2.0,0.0,-1.0,0,0,0,0,0,0,0,4.41,0.00,3.83,
4.338,124.60976369844262,87.51411041078471,-2.0,0.0,0.0,0,0,0,0,0,0,0,4.32,0.00,4.12,
4.352,124.61897636984426,87.47441104107847,-2.0,0.0,-1.0,0,0,0,0,0,0,0,4.32,0.00,4.12,
4.365,124.63789763698442,87.47044110410785,-2.0,0.0,-1.0,0,0,0,0,0,0,0,4.41,0.00,3.83,
4.378,124.67578976369845,87.52404411041078,-2.0,0.0,-1.0,0,0,0,0,0,0,0,4.51,0.00,3.73,
4.391,124.77857897636984,87.45740441104107,-2.0,0.0,-1.0,0,0,0,0,0,0,0,4.41,0.10,3.83,
4.405,124.73485789763699,87.3877404411041,-2.0,0.0,-1.0,0,0,0,0,0,0,0,4.22,0.00,4.02,
4.418,124.71248578976369,87.43477404411041,-2.0,0.0,-1.0,0,0,0,0,0,0,0,4.32,0.29,3.92,
4.431,124.70124857897638,87.45747740441104,-2.0,0.0,-1.0,0,0,0,0,0,0,0,4.32,0.00,4.12,
4.445,124.70912485789762,87.5227477404411,-2.0,0.0,-1.0,0,0,0,0,0,0,0,4.32,0.00,4.12,
4.458,124.66491248578976,87.56527477404411,-2.0,0.0,-1.0,0,0,0,0,0,0,0,4.41,0.29,4.12,
4.471,124.65149124857898,87.5695274774044,-2.0,0.0,-1.0,0,0,0,0,0,0,0,4.41,0.00,4.02,
4.486,124.55114912485791,87.49795274774044,-2.0,0.0,-1.0,0,0,0,0,0,0,0,4.32,0.00,4.12,
4.499,124.52311491248578,87.48179527477404,-2.0,0.0,-1.0,0,0,0,0,0,0,0,4.41,0.00,4.02,
4.512,124.58331149124858,87.5161795274774,-2.0,0.0,-1.0,0,0,0,0,0,0,0,4.51,0.00,3.92,
4.526,124.62533114912486,87.58261795274774,-2.0,0.0,-1.0,0,0,0,0,0,0,0,4.51,0.00,4.02,
4.539,124.60253311491249,87.54426179527478,-2.0,0.0,-1.0,0,0,0,0,0,0,0,4.51,0.00,4.22,
4.552,124.59125331149124,87.54942617952747,-2.0,0.0,-1.0,0,0,0,0,0,0,0,4.51,0.00,4.22,
4.566,124.58112533114912,87.54994261795275,-2.0,0.0,-1.0,0,0,0,0,0,0,0,4.51,0.00,4.32,
4.579,124.58011253311491,87.54999426179528,-2.0,0.0,-1.0,0,0,0,0,0,0,0,4.51,0.00,4.12,
4.592,124.59801125331148,87.54999942617953,-2.0,0.0,-1.0,0,0,0,0,0,0,0,4.51,0.00,4.12,
4.606,124.59080112533114,87.48699994261796,-2.0,0.0,-1.0,0,0,0,0,0,0,0,4.51,0.00,4.12,
4.62,124.64408011253312,87.5346999942618,-2.0,0.0,-1.0,0,0,0,0,0,0,0,4.61,0.00,4.12,
4.633,124.62240801125331,87.54846999942617,-2.0,0.0,-1.0,0,0,0,0,0,0,0,4.61,0.00,4.32,
4.646,124.66524080112534,87.53184699994262,-2.0,0.0,-1.0,0,0,0,0,0,0,0,4.51,0.00,4.32,
4.66,124.63352408011254,87.50318469999426,-2.0,0.0,-1.0,0,0,0,0,0,0,0,4.41,0.00,4.32,
4.673,124.63035240801125,87.51831846999943,-2.0,0.0,-1.0,0,0,0,0,0,0,0,4.41,0.00,4.32,
4.686,124.66603524080112,87.55583184699995,-2.0,0.0,-1.0,0,0,0,0,0,0,0,4.51,0.00,4.32,
4.7,124.66060352408012,87.59558318469999,-2.0,0.0,-1.0,0,0,0,0,0,0,0,4.51,0.00,4.22,
4.713,124.61506035240801,87.61755831847,-2.0,0.0,-1.0,0,0,0,0,0,0,0,4.51,0.00,4.22,
4.726,124.6555060352408,87.574755831847,-2.0,0.0,0.0,0,0,0,0,0,0,0,4.51,0.00,4.32,
4.74,124.65055060352408,87.6064755831847,-2.0,0.0,-1.0,0,0,0,0,0,0,0,4.41,0.00,4.32,
4.754,124.67705506035242,87.59164755831847,-2.0,0.0,-1.0,0,0,0,0,0,0,0,4.51,0.00,4.32,
4.767,124.67970550603525,87.58116475583185,-2.0,0.0,-1.0,0,0,0,0,0,0,0,4.61,0.00,4.32,
4.781,124.67097055060353,87.54411647558318,-2.0,0.0,-1.0,0,0,0,0,0,0,0,4.61,0.00,4.51,
4.794,124.64309705506035,87.55841164755832,-2.0,0.0,-1.0,0,0,0,0,0,0,0,4.51,0.00,4.61,
4.807,124.63130970550603,87.52384116475584,-2.0,0.0,-1.0,0,0,0,0,0,0,0,4.41,0.00,4.51,
4.82,124.6481309705506,87.52938411647558,-2.0,0.0,-1.0,0,0,0,0,0,0,0,4.41,0.00,4.41,
4.834,124.63181309705506,87.52993841164756,-2.0,0.0,-1.0,0,0,0,0,0,0,0,4.51,0.00,4.22,
4.847,124.7021813097055,87.50299384116475,-2.0,0.0,-1.0,0,0,0,0,0,0,0,4.41,0.00,4.32,
4.86,124.70021813097055,87.51829938411647,-2.0,0.0,-1.0,0,0,0,0,0,0,0,4.41,0.00,4.32,
4.874,124.68202181309705,87.58282993841165,-2.0,0.0,-1.0,0,0,0,0,0,0,0,4.51,0.00,4.41,
4.887,124.69820218130971,87.59828299384117,-2.0,0.0,-1.0,0,0,0,0,0,0,0,4.51,0.00,4.51,
4.901,124.73582021813095,87.56382829938411,-2.0,0.0,-1.0,0,0,0,0,0,0,0,4.41,0.00,4.32,
4.915,124.75758202181309,87.56038282993842,-2.0,0.0,-1.0,0,0,0,0,0,0,0,4.41,0.00,4.32,
4.928,124.78675820218132,87.56903828299384,-2.0,0.0,-1.0,0,0,0,0,0,0,0,4.51,0.00,4.41,
4.941,124.72667582021813,87.56090382829939,-2.0,0.0,-1.0,0,0,0,0,0,0,0,4.51,0.10,4.51,
4.955,124.70266758202182,87.56009038282994,-2.0,0.0,-1.0,0,0,0,0,0,0,0,4.51,0.00,4.32,
4.968,124.68226675820219,87.542009038283,-2.0,0.0,-1.0,0,0,0,0,0,0,0,4.51,0.00,4.51,
4.981,124.78822667582021,87.54920090382831,-2.0,0.0,-1.0,0,0,0,0,0,0,0,4.51,0.00,4.61,
4.995,124.83482266758203,87.51392009038283,-2.0,0.0,-1.0,0,0,0,0,0,0,0,4.51,0.00,4.81,
5.008,124.86648226675821,87.47439200903828,-2.0,0.0,-1.0,0,0,0,0,0,0,0,4.51,0.00,4.61,
5.021,124.86964822667582,87.47943920090383,-2.0,0.0,-1.0,0,0,0,0,0,0,0,4.51,0.00,4.61,
5.036,124.89696482266758,87.47094392009038,-2.0,0.0,-1.0,0,0,0,0,0,0,0,4.51,0.00,4.51,
5.049,124.92669648226676,87.44309439200903,-2.0,0.0,-1.0,0,0,0,0,0,0,0,4.61,0.00,4.41,
5.062,124.89366964822668,87.40430943920092,-2.0,0.0,-1.0,0,0,0,0,0,0,0,4.51,0.00,4.51,
5.075,124.91736696482266,87.39143094392008,-2.0,0.0,-1.0,0,0,0,0,0,0,0,4.51,0.00,4.61,
5.089,124.87473669648227,87.381143094392,-2.0,0.0,-1.0,0,0,0,0,0,0,0,4.51,0.00,4.61,
5.102,124.86147366964822,87.4341143094392,-2.0,0.0,-1.0,0,0,0,0,0,0,0,4.51,0.00,4.71,
5.115,124.81514736696482,87.45741143094392,-2.0,0.0,-1.0,0,0,0,0,0,0,0,4.61,0.00,4.81,
5.129,124.77451473669647,87.5317411430944,-2.0,0.0,-1.0,0,0,0,0,0,0,0,4.51,0.00,4.51,
5.142,124.76145147366965,87.53017411430943,-2.0,0.0,-1.0,0,0,0,0,0,0,0,4.51,0.00,4.32,
5.155,124.68814514736697,87.53001741143095,-2.0,0.0,-1.0,0,0,0,0,0,0,0,4.51,0.00,4.41,
5.169,124.6988145147367,87.4940017411431,-2.0,0.0,-1.0,0,0,0,0,0,0,0,4.61,0.00,4.61,
5.183,124.73588145147366,87.51740017411431,-2.0,0.0,-1.0,0,0,0,0,0,0,0,4.51,0.00,4.51,
5.196,124.75758814514737,87.51974001741144,-2.0,0.0,-1.0,0,0,0,0,0,0,0,4.51,0.00,4.12,
5.21,124.78675881451474,87.45697400174114,-2.0,0.0,-1.0,0,0,0,0,0,0,0,4.51,0.00,3.92,
5.223,124.76267588145147,87.45969740017411,-2.0,0.0,-1.0,0,0,0,0,0,0,0,4.61,0.00,3.92,
5.236,124.77826758814516,87.45096974001741,-2.0,0.0,-1.0,0,0,0,0,0,0,0,4.51,0.00,4.02,
5.25,124.76182675881452,87.46809697400174,-2.0,0.0,-1.0,0,0,0,0,0,0,0,4.51,0.00,3.73,
5.263,124.76018267588145,87.47880969740017,-2.0,0.0,-1.0,0,0,0,0,0,0,0,4.51,0.00,3.43,
5.276,124.76001826758815,87.50688096974001,-2.0,0.0,-1.0,0,0,0,0,0,0,0,4.51,0.00,3.63,
5.289,124.77800182675882,87.563688096974,-2.0,0.0,-1.0,0,0,0,0,0,0,0,4.71,0.00,3.63,
5.303,124.75280018267588,87.58736880969741,-2.0,0.0,0.0,0,0,0,0,0,0,0,4.71,0.00,3.83,
5.316,124.76828001826757,87.58073688096974,-2.0,0.0,-1.0,0,0,0,0,0,0,0,4.61,0.00,3.92,
5.33,124.83282800182677,87.54407368809697,-2.0,0.0,-1.0,0,0,0,0,0,0,0,4.61,0.00,4.02,
5.344,124.83928280018269,87.6034073688097,-2.0,0.0,-1.0,0,0,0,0,0,0,0,4.71,0.00,4.02,
5.357,124.78592828001827,87.60934073688097,-2.0,0.0,-1.0,0,0,0,0,0,0,0,4.71,0.00,3.92,
5.37,124.83459282800183,87.52893407368809,-2.0,0.0,-1.0,0,0,0,0,0,0,0,4.61,0.00,4.22,
5.384,124.85745928280018,87.5478934073688,-2.0,0.0,-1.0,0,0,0,0,0,0,0,4.61,0.00,4.22,
5.397,124.86874592828002,87.54978934073688,-2.0,0.0,-1.0,0,0,0,0,0,0,0,4.71,0.00,4.12,
5.41,124.905874592828,87.52297893407369,-2.0,0.0,-1.0,0,0,0,0,0,0,0,4.61,0.59,4.32,
5.424,124.91858745928279,87.56529789340738,-2.0,0.0,-1.0,0,0,0,0,0,0,0,4.71,0.00,4.22,
5.437,124.89285874592827,87.59652978934074,-2.0,0.0,-1.0,0,0,0,0,0,0,0,4.71,0.00,3.92,
5.45,124.88128587459282,87.59965297893407,-2.0,0.0,-1.0,0,0,0,0,0,0,0,4.61,0.00,4.02,
5.465,124.8441285874593,87.5189652978934,-2.0,0.0,-1.0,0,0,0,0,0,0,0,4.71,0.39,3.92,
5.478,124.84041285874594,87.51989652978934,-2.0,0.0,-1.0,0,0,0,0,0,0,0,4.61,0.00,3.92,
5.491,124.84904128587459,87.51998965297894,-2.0,0.0,-1.0,0,0,0,0,0,0,0,4.51,0.00,4.12,
5.505,124.82290412858745,87.50199896529789,-2.0,0.0,-1.0,0,0,0,0,0,0,0,4.61,0.00,4.22,
5.518,124.82929041285874,87.5001998965298,-2.0,0.0,-1.0,0,0,0,0,0,0,0,4.71,0.00,4.02,
5.531,124.79392904128588,87.48201998965298,-2.0,0.0,-1.0,0,0,0,0,0,0,0,4.61,0.00,4.22,
5.544,124.7903929041286,87.4532019989653,-2.0,0.0,-1.0,0,0,0,0,0,0,0,4.61,0.00,4.12,
5.558,124.73603929041286,87.45932019989652,-2.0,0.0,-1.0,0,0,0,0,0,0,0,4.61,0.00,4.02,
5.571,124.7486039290413,87.45993201998965,-2.0,0.0,-1.0,0,0,0,0,0,0,0,4.61,0.00,4.02,
5.584,124.74986039290414,87.54099320199896,-2.0,0.0,-1.0,0,0,0,0,0,0,0,4.71,0.00,4.12,
5.598,124.73198603929042,87.5040993201999,-2.0,0.0,-1.0,0,0,0,0,0,0,0,4.61,0.00,4.22,
5.612,124.73919860392903,87.47340993201999,-2.0,0.0,-1.0,0,0,0,0,0,0,0,4.71,0.00,4.02,
5.625,124.79391986039289,87.425340993202,-2.0,0.0,-1.0,0,0,0,0,0,0,0,4.71,0.00,4.32,
5.639,124.84439198603928,87.39353409932019,-2.0,0.0,-1.0,0,0,0,0,0,0,0,4.71,0.00,4.32,
5.652,124.86743919860393,87.36335340993202,-2.0,0.0,-1.0,0,0,0,0,0,0,0,4.71,0.00,4.32,
5.665,124.7707439198604,87.40533534099319,-2.0,0.0,-1.0,0,0,0,0,0,0,0,4.71,0.00,4.51,
5.679,124.74307439198603,87.36453353409931,-2.0,0.0,-1.0,0,0,0,0,0,0,0,4.61,0.00,4.41,
5.692,124.74030743919859,87.37845335340992,-2.0,0.0,-1.0,0,0,0,0,0,0,0,4.71,0.00,4.32,
5.705,124.77603074391986,87.40684533534099,-2.0,0.0,-1.0,0,0,0,0,0,0,0,4.71,0.00,4.32,
6.148,124.86060307439199,87.41868453353409,-2.0,0.0,-1.0,0,0,0,0,0,0,0,4.61,0.00,3.92,
6.161,124.8600603074392,87.4468684533534,-2.0,0.0,-1.0,0,0,0,0,0,0,0,4.81,0.00,4.02,
6.175,124.94100603074392,87.51268684533534,-2.0,0.0,-1.0,0,0,0,0,0,0,0,4.71,0.00,4.41,
6.189,124.89510060307438,87.43826868453354,-2.0,0.0,-1.0,0,0,0,0,0,0,0,4.61,0.00,4.71,
6.202,124.84551006030745,87.37682686845336,-2.0,0.0,-1.0,0,0,0,0,0,0,0,4.61,0.00,4.61,
6.215,124.93055100603074,87.27168268684534,-2.0,0.0,-1.0,0,0,0,0,0,0,0,4.71,0.00,4.61,
6.228,124.94805510060307,87.22516826868454,-2.0,0.0,-1.0,0,0,0,0,0,0,0,4.71,0.00,4.71,
6.242,124.87780551006031,87.41851682686845,-1.0,0.0,0.0,0,0,0,0,0,0,0,4.71,0.00,4.61,
6.255,124.94278055100602,87.41085168268684,-1.0,0.0,-1.0,0,0,0,0,0,0,0,4.71,0.00,4.61,
6.268,124.8772780551006,87.45508516826868,-1.0,0.0,-2.0,0,0,0,0,0,0,0,4.71,0.00,4.61,
6.282,124.81672780551007,87.48650851682686,-3.0,0.0,-1.0,0,0,0,0,0,0,0,4.71,0.00,4.71,
6.295,124.801672780551,87.58865085168269,-3.0,0.0,-2.0,0,0,0,0,0,0,0,4.71,0.00,4.91,
6.309,124.6561672780551,88.48086508516826,-4.0,0.0,0.0,0,0,0,0,0,0,0,4.71,0.00,4.61,
6.323,124.7586167278055,89.02008650851683,-1.0,0.0,-1.0,0,0,0,0,0,0,0,4.71,0.00,4.32,
6.336,124.97586167278055,88.98400865085169,-1.0,0.0,-1.0,0,0,0,0,0,0,0,4.71,0.00,4.12,
6.349,125.03358616727806,88.60240086508517,-2.0,-1.0,-1.0,0,0,0,0,0,0,0,4.61,0.00,4.32,
6.363,124.99435861672781,88.43824008650851,-2.0,-1.0,-1.0,0,0,0,0,0,0,0,4.71,0.39,4.12,
6.376,124.98143586167278,88.35882400865086,-2.0,0.0,0.0,0,0,0,0,0,0,0,4.61,0.00,4.12,
6.389,125.00714358616727,88.1438824008651,-2.0,0.0,0.0,0,0,0,0,0,0,0,4.51,0.00,4.02,
6.403,124.99171435861672,87.9783882400865,-2.0,0.0,-1.0,0,0,0,0,0,0,0,4.51,0.00,4.22,
6.416,124.92717143586167,87.95283882400865,-2.0,0.0,0.0,0,0,0,0,0,0,0,4.61,0.00,4.41,
6.429,124.86671714358616,87.90528388240088,-2.0,-1.0,0.0,0,0,0,0,0,0,0,4.61,0.00,3.92,
6.443,124.78867171435861,87.86452838824009,-2.0,-1.0,0.0,0,0,0,0,0,0,0,4.51,0.00,4.02,
6.457,124.73586717143587,87.833452838824,-2.0,-1.0,0.0,0,0,0,0,0,0,0,4.51,0.00,4.12,
6.47,124.6855867171436,87.7853452838824,-2.0,-1.0,0.0,0,0,0,0,0,0,0,4.41,0.00,4.12,
6.483,124.69855867171437,87.69953452838824,-2.0,-1.0,0.0,0,0,0,0,0,0,0,4.22,0.00,4.12,
6.497,124.69085586717144,87.72695345283883,-3.0,-1.0,0.0,0,0,0,0,0,0,0,4.12,0.20,3.92,
6.51,124.62708558671714,87.71169534528387,-3.0,-1.0,-1.0,0,0,0,0,0,0,0,3.83,0.98,3.83,
6.523,124.61170855867171,87.57516953452838,-3.0,-1.0,0.0,0,0,0,0,0,0,0,3.83,1.08,3.73,
6.537,124.44817085586718,87.60651695345284,-3.0,-1.0,0.0,0,0,0,0,0,0,0,3.73,1.57,3.63,
6.55,124.39581708558673,87.57365169534529,-3.0,-1.0,0.0,0,0,0,0,0,0,0,3.63,0.59,3.43,
6.564,124.51658170855868,87.57036516953453,-3.0,-1.0,0.0,0,0,0,0,0,0,0,3.43,0.69,3.34,
6.578,124.54665817085586,87.46203651695345,-3.0,-1.0,0.0,0,0,0,0,0,0,0,3.43,1.18,3.24,
6.591,124.61266581708558,87.34320365169533,-2.0,0.0,0.0,0,0,0,0,0,0,0,3.14,2.16,3.53,
6.604,124.59226658170856,87.34032036516955,-3.0,0.0,0.0,0,0,0,0,0,0,0,2.94,1.57,3.43,
6.618,124.69822665817084,87.16003203651695,-3.0,0.0,-1.0,0,0,0,0,0,0,0,2.94,2.16,3.24,
6.631,124.71782266581708,87.1600032036517,-3.0,0.0,-1.0,0,0,0,0,0,0,0,2.75,3.14,3.04,
6.644,124.79178226658169,87.12400032036517,-3.0,0.0,-1.0,0,0,0,0,0,0,0,2.65,1.47,2.94,
6.658,124.88917822665817,87.04840003203653,-3.0,0.0,-1.0,0,0,0,0,0,0,0,2.65,1.57,2.84,
6.671,124.8359178226658,87.02284000320365,-2.0,0.0,-2.0,0,0,0,0,0,0,0,2.65,0.78,2.94,
6.684,124.83059178226657,86.98428400032037,-2.0,1.0,-2.0,0,0,0,0,0,0,0,2.65,0.88,3.04,
6.697,124.74005917822666,86.99842840003203,-2.0,1.0,-1.0,0,0,0,0,0,0,0,2.75,0.00,3.14,
6.711,124.71300591782266,86.9728428400032,-2.0,1.0,-1.0,0,0,0,0,0,0,0,2.84,0.00,3.24,
6.725,124.76430059178226,86.96128428400031,-2.0,2.0,-2.0,0,0,0,0,0,0,0,2.94,0.00,3.43,
6.738,124.80543005917824,86.98712842840003,-2.0,2.0,-1.0,0,0,0,0,0,0,0,3.14,0.00,3.53,
6.752,125.02554300591783,86.99871284283999,-2.0,4.0,-2.0,0,0,0,0,0,0,0,3.34,0.00,3.24,
6.765,125.18255430059179,86.92787128428401,-3.0,4.0,-3.0,0,0,0,0,0,0,0,3.43,0.00,3.24,
6.778,125.36025543005917,86.85778712842838,-2.0,4.0,-4.0,0,0,0,0,0,0,0,3.63,0.69,3.24,
6.792,125.43202554300592,86.83277871284284,-2.0,5.0,-6.0,0,0,0,0,0,0,0,3.92,0.00,3.43,
6.805,125.4302025543006,86.89327787128428,-3.0,5.0,-6.0,0,0,0,0,0,0,0,4.61,0.00,3.43,
6.818,125.52902025543005,86.83632778712843,-4.0,5.0,-7.0,0,0,0,0,0,0,0,4.81,0.00,3.34,
6.832,125.466902025543,86.90263277871284,-5.0,5.0,-8.0,0,0,0,0,0,0,0,5.20,0.00,3.34,
6.846,125.30769020255431,87.03526327787128,-6.0,5.0,-9.0,0,0,0,0,0,0,0,5.40,0.00,3.43,
6.859,125.45376902025544,87.12052632778713,-6.0,4.0,-9.0,0,0,0,0,0,0,0,5.69,43.07,3.63,
6.873,125.42337690202554,86.94905263277872,-6.0,2.0,-8.0,0,0,0,0,0,0,0,6.57,69.75,3.53,
6.886,125.41133769020254,86.62590526327789,-3.0,5.0,-14.0,0,0,0,0,0,0,0,6.97,0.00,3.73,
6.9,125.61713376902026,86.7645905263278,-3.0,3.0,-19.0,0,0,0,0,0,0,0,7.26,0.00,3.83,
6.914,125.61971337690203,86.77845905263278,-1.0,-2.0,-11.0,0,0,0,0,0,0,0,7.65,0.00,3.92,
6.927,125.8359713376902,87.26584590526328,-1.0,-4.0,-12.0,0,0,0,0,0,0,0,7.85,0.00,3.83,
6.941,126.28959713376902,86.90958459052634,-2.0,-8.0,-11.0,0,0,0,0,0,0,0,8.34,0.00,4.12,
6.955,126.47895971337691,87.21595845905264,0.0,-6.0,-14.0,0,0,0,0,0,0,0,8.44,0.00,4.22,
6.969,126.31789597133769,87.52559584590526,4.0,-9.0,-18.0,0,0,0,0,0,0,0,8.63,0.00,4.51,
6.982,125.96878959713376,87.52055958459053,2.0,-10.0,-8.0,0,0,0,0,0,1,0,8.93,0.00,4.91,
6.996,125.39387895971338,87.61005595845906,3.0,-11.0,-4.0,0,0,0,0,0,1,0,9.12,0.00,5.30,
7.01,124.98538789597133,87.7990055958459,3.0,-11.0,-5.0,0,0,0,0,1,1,0,9.32,20.21,5.30,
7.024,124.45853878959714,88.1869005595846,-1.0,-2.0,-13.0,0,0,0,0,1,1,0,9.81,33.75,5.30,
7.037,124.4148538789597,88.24369005595845,0.0,-2.0,-8.0,0,0,0,0,1,1,0,10.40,19.03,5.20,
7.052,124.49148538789596,88.11436900559583,-1.0,0.0,-5.0,0,0,0,0,1,1,0,11.09,9.12,5.40,
7.065,124.38214853878961,88.38043690055959,-2.0,2.0,-9.0,0,0,0,0,2,1,0,12.95,2.84,5.40,
7.079,124.15521485387896,88.99204369005597,-3.0,1.0,-3.0,0,0,0,0,2,1,0,13.83,7.55,5.49,
7.094,124.2135214853879,89.01720436900558,-3.0,3.0,-5.0,0,0,0,0,2,1,0,14.72,10.30,5.79,
7.108,124.4803521485388,89.00172043690057,-3.0,2.0,-4.0,0,0,0,0,2,1,0,15.40,4.51,6.47,
7.121,124.47103521485387,88.91917204369005,-2.0,0.0,-6.0,0,0,0,0,2,1,0,16.48,2.16,6.87,
7.136,124.4791035214854,89.14491720436901,-1.0,-1.0,-4.0,0,0,0,0,2,1,0,16.97,0.00,7.36,
7.15,124.53391035214855,89.5184917204369,0.0,-2.0,-5.0,0,0,0,0,2,1,0,17.56,0.00,7.85,
7.164,124.75539103521486,89.2678491720437,0.0,-6.0,-6.0,0,0,0,0,3,1,0,17.95,12.85,8.24,
7.179,124.84953910352148,89.42278491720437,1.0,-8.0,-6.0,0,0,0,0,3,1,0,18.44,14.62,8.73,
7.192,124.86795391035216,89.35727849172042,1.0,-9.0,-6.0,0,0,0,0,3,1,0,18.54,12.26,8.93,
7.206,124.59079539103521,89.27872784917204,2.0,-10.0,-6.0,0,0,0,0,3,1,0,18.34,9.03,9.32,
7.221,124.63507953910351,89.39687278491719,2.0,-11.0,-5.0,0,0,0,0,4,1,0,18.15,0.00,9.32,
7.235,124.45050795391036,89.74168727849172,2.0,-9.0,-5.0,0,0,0,0,4,1,0,17.66,0.59,9.71,
7.249,124.28805079539103,89.66816872784918,3.0,-7.0,-6.0,0,0,0,0,4,2,0,17.66,2.55,10.10,
7.264,124.1818050795391,89.80481687278491,3.0,-5.0,-6.0,0,0,0,0,4,2,0,17.46,0.00,10.69,
7.277,124.1171805079539,89.88148168727848,3.0,-3.0,-5.0,0,0,0,0,4,2,0,17.46,0.00,10.89,
7.291,124.61471805079539,89.07914816872784,12.0,0.0,-6.0,0,0,0,0,5,2,0,17.36,0.00,11.28,
7.306,124.43947180507955,89.18791481687279,2.0,0.0,-5.0,0,0,0,0,5,2,0,17.46,0.00,11.58,
7.32,124.17894718050796,89.54079148168728,0.0,2.0,-5.0,0,0,0,0,5,2,0,17.56,0.00,12.26,
7.333,123.9548947180508,89.84607914816873,-3.0,5.0,-5.0,0,0,0,0,5,2,0,17.66,0.00,12.46,
7.348,123.97748947180509,90.03860791481688,-4.0,5.0,-3.0,0,0,0,0,5,2,0,17.76,0.00,12.75,
7.362,123.9887489471805,90.2288607914817,-5.0,5.0,-2.0,0,0,0,0,5,2,0,17.95,0.00,12.46,
7.375,123.86387489471805,90.37388607914816,-6.0,6.0,-1.0,0,0,0,0,4,2,0,17.95,0.00,12.26,
7.39,123.9233874894718,90.48738860791482,-6.0,5.0,0.0,0,0,0,0,4,2,0,18.05,0.00,12.07,
7.403,123.90233874894719,90.50773886079148,-7.0,4.0,0.0,0,0,0,0,4,2,0,18.05,0.00,12.07,
7.417,124.06223387489472,90.55477388607915,-6.0,2.0,1.0,0,0,0,0,4,2,0,17.56,0.00,11.38,
7.432,124.11422338748949,90.47847738860791,-5.0,0.0,1.0,0,0,0,0,4,2,0,17.07,0.00,10.89,
7.445,124.10142233874895,90.4258477388608,-4.0,0.0,2.0,0,0,0,0,4,2,0,16.48,0.00,10.59,
7.458,124.1541422338749,90.48358477388608,-4.0,0.0,3.0,0,0,0,0,4,2,0,15.99,0.00,10.50,
7.473,124.15941422338749,90.40835847738862,-5.0,-1.0,2.0,0,0,0,0,4,2,0,15.70,0.00,10.50,
7.486,123.88994142233875,90.39183584773886,-6.0,0.0,3.0,0,0,0,0,4,1,0,14.91,0.00,10.50,
7.5,123.85399414223387,89.97618358477389,-5.0,0.0,3.0,0,0,0,0,4,1,0,14.42,0.00,10.01,
7.514,123.91339941422339,89.75461835847739,-6.0,2.0,4.0,0,0,0,0,3,1,0,14.03,0.00,9.81,
7.528,123.95533994142232,89.84046183584773,-7.0,3.0,3.0,0,0,0,0,3,1,0,13.83,0.00,9.52,
7.541,124.10353399414224,89.86704618358478,-7.0,0.0,6.0,0,0,0,0,3,1,0,13.64,0.00,9.32,
7.555,124.14535339941423,89.88770461835847,-8.0,4.0,4.0,0,0,0,0,3,1,0,13.73,0.00,9.22,
7.569,124.31153533994143,89.73677046183585,-8.0,2.0,3.0,0,0,0,0,3,1,0,13.73,0.00,9.22,
7.582,124.44515353399413,89.5326770461836,-7.0,2.0,3.0,0,0,0,0,3,1,0,13.93,0.00,8.93,
7.596,124.7105153533994,89.28726770461836,-6.0,0.0,2.0,0,0,0,0,3,1,0,14.13,0.00,9.03,
7.61,125.22305153533995,89.05572677046185,-4.0,-1.0,0.0,0,0,0,0,3,1,0,14.72,7.85,9.03,
7.623,125.61630515353399,88.80757267704618,-2.0,-6.0,-1.0,0,0,0,0,3,1,0,14.91,12.75,9.12,
7.638,125.67363051535341,88.80075726770463,-2.0,-7.0,-4.0,0,0,0,0,3,1,0,15.30,17.85,9.42,
7.651,125.68836305153533,88.82707572677046,-2.0,-8.0,-3.0,0,0,0,0,3,1,0,15.70,18.93,9.71,
7.665,125.34783630515354,88.93770757267706,-2.0,-9.0,-4.0,0,0,0,0,4,2,0,16.09,12.16,10.10,
7.678,124.78278363051535,89.02977075726771,-1.0,-6.0,-3.0,0,0,0,0,4,2,0,17.07,10.89,10.69,
7.693,124.23127836305153,89.02997707572678,-1.0,-4.0,-2.0,0,0,0,0,4,2,0,17.46,6.67,11.18,
7.707,123.81612783630516,89.20099770757268,-2.0,0.0,-2.0,0,0,0,0,4,2,0,18.15,6.38,12.26,
7.721,123.74761278363052,89.31709977075727,-2.0,0.0,0.0,0,0,0,0,4,2,0,18.93,0.00,12.75,
8.159,123.67776127836305,89.62570997707573,-3.0,-2.0,-2.0,0,0,0,0,4,2,0,20.90,1.08,15.60,
8.173,123.57177612783632,89.66557099770758,-3.0,-2.0,-2.0,0,0,0,0,4,2,0,20.70,0.00,15.40,
8.186,123.49817761278362,89.62455709977075,-3.0,-2.0,-2.0,0,0,0,0,4,2,0,20.31,0.69,15.30,
8.201,123.34681776127836,89.60245570997708,-3.0,-2.0,-2.0,0,0,0,0,4,2,0,20.11,1.28,15.21,
8.215,123.26868177612785,89.5912455709977,-2.0,-1.0,-1.0,0,0,0,0,4,2,0,20.01,0.78,15.11,
8.229,123.20686817761279,89.59912455709977,-2.0,-1.0,-1.0,0,0,0,0,4,2,0,20.01,0.00,15.11,
8.244,123.22768681776128,89.59991245570998,-2.0,-1.0,-1.0,0,0,0,0,4,2,0,20.01,0.00,14.91,
8.258,123.20276868177613,89.581991245571,-1.0,-2.0,-1.0,0,0,0,0,4,2,0,20.01,0.39,15.01,
8.271,123.14627686817762,89.6071991245571,-1.0,-1.0,-1.0,0,0,0,0,4,2,0,20.01,0.00,15.30,
8.286,123.21262768681775,89.62771991245572,-1.0,-1.0,-1.0,0,0,0,0,4,2,0,20.01,0.00,15.30,
8.3,123.24626276868177,89.65677199124558,-1.0,-2.0,-1.0,0,0,0,0,4,2,0,20.01,0.00,15.30,
8.314,123.26762627686817,89.60567719912456,-2.0,-2.0,-1.0,0,0,0,0,4,2,0,19.91,0.00,15.40,
8.329,123.14376262768681,89.62756771991246,-2.0,-2.0,-1.0,0,0,0,0,4,2,0,19.72,0.00,15.40,
8.343,123.05037626276868,89.68375677199126,-2.0,-1.0,-1.0,0,0,0,0,4,2,0,19.62,0.00,15.30,
8.356,122.98703762627687,89.73437567719911,-2.0,-1.0,-1.0,0,0,0,0,4,2,0,19.52,0.00,15.30,
8.371,122.9357037626277,89.8114375677199,-2.0,-1.0,0.0,0,0,0,0,4,2,0,19.33,0.00,15.30,
8.384,122.97557037626277,89.72914375677199,-3.0,-1.0,0.0,0,0,0,0,4,2,0,19.23,0.00,15.21,
8.407,122.94355703762628,89.71191437567718,-3.0,0.0,-1.0,0,0,0,0,4,2,0,19.13,1.57,15.21,
8.421,122.97635570376262,89.66519143756771,-3.0,0.0,-1.0,0,0,0,0,4,2,0,18.84,3.53,15.11,
8.434,122.94363557037626,89.58851914375677,-4.0,0.0,-1.0,0,0,0,0,4,2,0,18.74,4.22,14.91,
8.449,122.91336355703763,89.58985191437567,-4.0,-1.0,-1.0,0,0,0,0,4,2,0,18.64,0.00,14.81,
8.462,122.86533635570376,89.65298519143757,-4.0,-1.0,0.0,0,0,0,0,4,2,0,18.54,0.00,14.13,
8.476,122.67153363557038,89.55129851914377,-4.0,-1.0,-1.0,0,0,0,0,4,2,0,18.25,0.98,13.83,
8.489,122.62515336355705,89.50512985191438,-5.0,0.0,-2.0,0,0,0,0,3,2,0,18.15,0.00,13.64,
8.504,122.5755153363557,89.54551298519144,-5.0,0.0,-1.0,0,0,0,0,3,1,0,17.95,0.00,13.44,
8.517,122.60655153363557,89.51355129851916,-5.0,0.0,-2.0,0,0,0,0,3,1,0,17.76,0.00,12.95,
8.531,122.53765515336356,89.43835512985193,-5.0,0.0,-1.0,0,0,0,0,3,1,0,17.66,0.00,12.65,
8.545,122.63876551533636,89.3768355129852,-4.0,0.0,-1.0,0,0,0,0,3,1,0,17.46,0.00,12.56,
8.558,122.63087655153363,89.34368355129853,-4.0,-1.0,-1.0,0,0,0,0,3,1,0,17.36,6.18,12.36,
8.572,122.70208765515335,89.32236835512984,-4.0,-1.0,-1.0,0,0,0,0,3,1,0,17.07,8.63,11.67,
8.586,122.68220876551534,89.33823683551299,-5.0,0.0,-2.0,0,0,0,0,3,1,0,16.87,0.00,11.48,
8.6,122.68922087655153,89.2948236835513,-4.0,0.0,-1.0,0,0,0,0,3,1,0,16.68,0.00,11.38,
8.613,122.69892208765516,89.25448236835513,-4.0,-1.0,-1.0,0,0,0,0,3,1,0,16.58,0.00,11.09,
8.628,122.7088922087655,89.23244823683551,-3.0,-1.0,-1.0,0,0,0,0,3,1,0,16.38,0.00,10.50,
8.641,122.71888922087655,89.17624482368355,-3.0,-2.0,-1.0,0,0,0,0,3,1,0,15.89,0.00,10.30,
8.655,122.63888892208766,89.12562448236837,-3.0,-2.0,-1.0,0,0,0,0,3,1,0,15.70,0.39,10.20,
8.669,122.68488889220878,89.05756244823684,-3.0,-1.0,-1.0,0,0,0,0,3,1,0,15.60,0.00,10.01,
8.683,122.68948888922088,89.07775624482368,-3.0,-1.0,0.0,0,0,0,0,3,1,0,15.50,0.20,10.01,
8.696,122.68094888892209,89.12477562448237,-3.0,-1.0,-1.0,0,0,0,0,3,1,0,15.30,0.00,9.81,
8.71,122.65309488889221,89.09347756244824,-3.0,-1.0,-1.0,0,0,0,0,3,1,0,15.01,0.00,9.61,
8.724,122.67730948888922,89.02734775624482,-3.0,0.0,-1.0,0,0,0,0,3,1,0,14.91,0.39,9.42,
8.737,122.75173094888893,89.02973477562449,-3.0,0.0,-1.0,0,0,0,0,3,1,0,14.91,1.28,9.32,
8.751,122.7501730948889,88.93997347756246,-2.0,-1.0,-1.0,0,0,0,0,3,1,0,14.81,0.00,9.03,
8.765,122.6960173094889,88.97599734775625,-2.0,0.0,-1.0,0,0,0,0,3,1,0,14.72,0.00,9.03,
8.778,122.6456017309489,88.91659973477563,-2.0,0.0,-1.0,0,0,0,0,3,1,0,14.62,0.00,9.12,
8.792,122.6135601730949,88.92865997347756,-2.0,0.0,-1.0,0,0,0,0,3,1,0,14.62,0.00,9.03,
8.806,122.59235601730948,88.93886599734776,-2.0,0.0,0.0,0,0,0,0,3,1,0,14.62,0.00,8.83,
8.819,122.61723560173095,88.90388659973478,-2.0,-1.0,0.0,0,0,0,0,3,1,0,14.62,0.00,8.83,
8.833,122.6737235601731,88.98138865997348,-2.0,-1.0,0.0,0,0,0,0,3,1,0,14.52,0.00,8.93,
8.846,122.66137235601731,89.01613886599733,-2.0,-1.0,0.0,0,0,0,0,3,1,0,14.62,0.00,9.03,
8.86,122.66913723560174,88.95661388659974,-1.0,-1.0,0.0,0,0,0,0,3,1,0,14.52,0.00,9.12,
8.873,122.64291372356017,88.90566138865998,-1.0,-1.0,0.0,0,0,0,0,3,1,0,14.52,0.00,9.32,
8.887,122.64929137235602,88.891566138866,0.0,-1.0,0.0,0,0,0,0,3,1,0,14.52,0.00,9.42,
8.901,122.6229291372356,88.9441566138866,0.0,-1.0,0.0,0,0,0,0,3,1,0,961.67,0.39,9.52,
8.914,122.62029291372356,88.92241566138867,0.0,-1.0,0.0,0,0,0,0,3,1,0,0.00,1.67,9.81,
8.928,122.55702929137236,88.96524156613887,0.0,-1.0,0.0,0,0,0,0,3,1,0,14.81,2.55,10.50,
8.941,122.51470292913723,89.1045241566139,0.0,-1.0,0.0,0,0,0,0,3,1,0,14.91,0.00,10.50,
8.955,122.44747029291372,89.1634524156614,0.0,0.0,0.0,0,0,0,0,3,1,0,15.01,0.00,10.59,
8.969,122.45874702929137,89.17834524156615,-1.0,0.0,0.0,0,0,0,0,3,1,0,15.11,0.00,10.79,
8.982,122.47787470292913,89.19783452415662,-1.0,0.0,0.0,0,0,0,0,3,1,0,15.30,1.28,10.89,
8.995,122.4617874702929,89.15478345241567,-1.0,0.0,0.0,0,0,0,0,3,1,0,15.50,0.00,10.89,
9.01,122.42417874702929,89.18647834524157,-1.0,0.0,0.0,0,0,0,0,3,1,0,15.60,0.00,11.18,
9.023,122.35741787470292,89.16264783452415,-1.0,0.0,0.0,0,0,0,0,3,1,0,15.79,0.00,11.28,
9.037,122.3687417874703,89.1332647834524,-1.0,0.0,0.0,0,0,0,0,3,1,0,15.99,0.00,11.38,
9.051,122.37887417874703,89.15732647834524,-1.0,0.0,0.0,0,0,0,0,3,1,0,16.09,5.20,11.48,
9.065,122.4068874178747,89.20473264783452,-2.0,0.0,0.0,0,0,0,0,3,1,0,16.19,2.35,11.38,
9.078,122.43668874178746,89.16447326478345,-2.0,0.0,0.0,0,0,0,0,3,1,0,16.19,0.59,11.38,
9.092,122.43066887417875,89.16944732647835,-2.0,0.0,0.0,0,0,0,0,3,1,0,16.19,0.00,11.38,
9.105,122.41206688741786,89.15194473264785,-2.0,0.0,-1.0,0,0,0,0,3,1,0,16.38,0.00,11.28,
9.119,122.45520668874178,89.19519447326479,-2.0,0.0,-1.0,0,0,0,0,3,1,0,16.48,9.91,11.38,
9.133,122.48652066887418,89.19951944732648,-2.0,0.0,-1.0,0,0,0,0,3,1,0,16.58,5.89,11.48,
9.147,122.48065206688742,89.14595194473264,-2.0,0.0,-1.0,0,0,0,0,3,1,0,16.68,1.47,11.28,
9.16,122.51606520668874,89.14059519447326,-2.0,0.0,-1.0,0,0,0,0,3,1,0,16.68,1.67,11.58,
9.175,122.48360652066887,89.17605951944734,-2.0,0.0,0.0,0,0,0,0,3,1,0,16.68,1.57,11.48,
9.188,122.48036065206688,89.21560595194474,-2.0,0.0,0.0,0,0,0,0,3,1,0,16.68,0.00,11.18,
9.202,122.51603606520669,89.26456059519447,-2.0,0.0,0.0,0,0,0,0,3,1,0,16.78,0.00,11.18,
9.216,122.54660360652066,89.21545605951945,-2.0,0.0,0.0,0,0,0,0,3,1,0,16.87,0.00,11.09,
9.23,122.58566036065207,89.23754560595195,-2.0,0.0,0.0,0,0,0,0,3,1,0,16.87,0.00,11.18,
9.243,122.5715660360652,89.21275456059519,-2.0,0.0,0.0,0,0,0,0,3,1,0,16.87,0.00,11.28,
9.256,122.60615660360652,89.23727545605952,-2.0,0.0,0.0,0,0,0,0,3,1,0,16.78,0.00,11.28,
9.271,122.61861566036066,89.24872754560596,-2.0,0.0,0.0,0,0,0,0,3,1,0,16.78,0.00,11.28,
9.284,122.65586156603607,89.2408727545606,-2.0,0.0,0.0,0,0,0,0,3,1,0,16.78,0.00,11.28,
9.298,122.65058615660361,89.26708727545606,-2.0,0.0,0.0,0,0,0,0,3,1,0,16.97,0.00,11.18,
9.312,122.65905861566037,89.2787087275456,-2.0,0.0,0.0,0,0,0,0,3,1,0,17.07,0.00,11.18,
9.325,122.65990586156605,89.26187087275456,-2.0,0.0,0.0,0,0,0,0,3,1,0,17.27,0.10,11.18,
9.339,122.68699058615661,89.26018708727545,-2.0,0.0,0.0,0,0,0,0,3,1,0,17.36,0.59,11.09,
9.353,122.68969905861566,89.24201870872754,-2.0,0.0,0.0,0,0,0,0,3,1,0,17.46,0.69,10.99,
9.367,122.73496990586156,89.15920187087276,-2.0,0.0,0.0,0,0,0,0,3,1,0,17.56,0.00,10.89,
9.38,122.73049699058616,89.10592018708726,-2.0,0.0,0.0,0,0,0,0,3,1,0,17.56,0.39,10.89,
9.395,122.69404969905862,89.09159201870874,-2.0,0.0,0.0,0,0,0,0,3,1,0,17.66,0.00,10.79,
9.408,122.69040496990587,89.04515920187089,-2.0,0.0,0.0,0,0,0,0,3,1,0,17.76,0.20,10.89,
9.421,122.67204049699059,89.0315159201871,-2.0,0.0,0.0,0,0,0,0,3,1,0,17.76,0.00,10.69,
9.436,122.65220404969907,88.93115159201872,-2.0,0.0,0.0,0,0,0,0,3,1,0,17.85,0.00,10.89,
9.449,122.68622040496992,88.90311515920187,-2.0,0.0,0.0,0,0,0,0,3,1,0,18.05,0.00,10.89,
9.463,122.743622040497,88.8733115159202,-2.0,0.0,0.0,0,0,0,0,3,1,0,18.05,0.00,10.89,
9.477,122.7853622040497,88.86133115159203,-2.0,0.0,0.0,0,0,0,0,3,1,0,18.05,0.59,10.79,
9.49,122.81653622040497,88.8961331151592,-2.0,0.0,0.0,0,0,0,0,3,1,0,18.25,0.00,10.89,
9.504,122.8376536220405,88.89961331151592,-2.0,0.0,0.0,0,0,0,0,3,1,0,18.44,0.20,10.89,
9.518,122.81276536220406,88.8909613311516,-2.0,0.0,0.0,0,0,0,0,3,1,0,18.44,0.00,10.79,
9.532,122.8732765362204,88.88109613311516,-2.0,0.0,0.0,0,0,0,0,3,1,0,18.54,0.00,10.89,
9.545,122.87932765362204,88.84410961331152,-2.0,0.0,0.0,0,0,0,0,3,1,0,18.54,0.00,10.69,
9.56,122.8619327653622,88.80441096133114,-2.0,0.0,0.0,0,0,0,0,3,1,0,18.64,0.00,10.59,
9.573,122.78819327653622,88.84544109613311,-2.0,0.0,0.0,0,0,0,0,3,1,0,18.64,0.00,10.69,
9.586,122.79881932765362,88.85854410961332,-2.0,0.0,0.0,0,0,0,0,3,1,0,18.74,0.00,10.89,
9.601,122.86288193276538,88.84185441096133,-2.0,0.0,0.0,0,0,0,0,3,1,0,18.74,0.00,10.89,
9.614,122.90528819327653,88.84018544109614,-2.0,0.0,0.0,0,0,0,0,3,1,0,18.84,0.00,10.89,
9.628,122.98152881932765,88.77701854410961,-2.0,0.0,-1.0,0,0,0,0,3,1,0,18.93,0.00,10.89,
9.641,122.93515288193278,88.71670185441096,-2.0,0.0,0.0,0,0,0,0,3,1,0,18.93,0.00,10.99,
9.656,122.93951528819328,88.71067018544109,-2.0,0.0,-1.0,0,0,0,0,3,1,0,19.03,0.78,11.18,
9.669,123.01195152881932,88.65606701854412,-2.0,0.0,-1.0,0,0,0,0,3,1,0,19.13,0.00,11.09,
9.683,123.00119515288193,88.65060670185443,-1.0,0.0,-1.0,0,0,0,0,3,1,0,19.23,0.69,11.48,
9.697,122.99111951528819,88.70406067018544,-1.0,0.0,-1.0,0,0,0,0,3,1,0,19.23,0.39,11.48,
9.711,122.91811195152881,88.73640606701855,-1.0,0.0,-1.0,0,0,0,0,3,1,0,19.23,0.00,11.48,
9.724,122.91081119515287,88.76664060670186,-1.0,0.0,0.0,0,0,0,0,3,1,0,19.33,0.00,11.48,
9.738,122.9010811195153,88.82366406067018,-1.0,0.0,-1.0,0,0,0,0,3,1,0,19.52,0.00,11.48,
9.752,122.91810811195153,88.87436640606703,-2.0,0.0,-1.0,0,0,0,0,3,1,0,19.52,0.00,11.58,
9.765,122.93781081119515,88.8704366406067,-2.0,0.0,-1.0,0,0,0,0,3,1,0,19.62,rx,,
10.098,123.12878108111951,88.88804366406067,-2.0,0.0,-1.0,0,0,0,0,3,1,0,19.23,0.00,10.99,
10.112,123.16587810811195,88.85380436640607,-2.0,0.0,-1.0,0,0,0,0,3,1,0,19.23,0.00,11.28,
10.126,123.1785878108112,88.8503804366406,-2.0,0.0,-1.0,0,0,0,0,3,1,0,19.13,0.00,11.09,
10.139,123.17085878108112,88.86803804366406,-2.0,0.0,-1.0,0,0,0,0,3,1,0,19.13,0.00,11.09,
10.153,123.22408587810813,88.85180380436641,-2.0,0.0,-1.0,0,0,0,0,3,1,0,19.03,0.00,11.09,
10.168,123.23840858781081,88.87718038043664,-2.0,0.0,-1.0,0,0,0,0,3,1,0,19.03,0.00,11.18,
10.181,123.18584085878109,88.86171803804366,-2.0,0.0,-1.0,0,0,0,0,3,1,0,18.93,0.00,11.09,
10.195,123.18058408587811,88.83317180380436,-2.0,0.0,-1.0,0,0,0,0,3,1,0,18.93,0.00,10.89,
10.209,123.17105840858781,88.75831718038043,-2.0,0.0,-1.0,0,0,0,0,3,1,0,18.84,0.00,10.99,
10.223,123.17010584085878,88.71483171803804,-2.0,0.0,-1.0,0,0,0,0,3,1,0,18.84,0.00,11.09,
10.237,123.17001058408589,88.7194831718038,-2.0,0.0,-1.0,0,0,0,0,3,1,0,18.74,0.20,10.99,
10.251,123.17000105840859,88.67494831718038,-2.0,0.0,-1.0,0,0,0,0,3,1,0,18.64,0.00,10.89,
10.265,123.16100010584086,88.67049483171803,-2.0,0.0,-1.0,0,0,0,0,3,1,0,18.54,0.00,11.09,
10.278,123.14210001058409,88.62504948317181,-2.0,0.0,-1.0,0,0,0,0,3,1,0,18.64,0.00,11.28,
10.293,123.08621000105842,88.57550494831717,-2.0,0.0,-1.0,0,0,0,0,3,1,0,18.54,0.00,11.09,
10.306,123.05362100010585,88.62455049483171,-2.0,0.0,-1.0,0,0,0,0,3,1,0,18.54,0.00,11.18,
10.32,123.03236210001059,88.66545504948317,-2.0,0.0,-1.0,0,0,0,0,3,1,0,18.54,0.00,11.18,
10.335,123.08423621000107,88.71454550494832,-2.0,0.0,-1.0,0,0,0,0,3,1,0,18.54,0.00,11.09,
10.348,123.0984236210001,88.70145455049483,-2.0,0.0,-1.0,0,0,0,0,3,1,0,18.54,0.00,11.09,
10.362,122.97384236210002,88.74514545504948,-3.0,0.0,-2.0,0,0,0,0,3,1,0,18.54,0.00,11.09,
10.376,122.97938423621,88.68651454550496,-3.0,2.0,-5.0,0,0,0,0,3,1,0,18.54,0.00,11.28,
10.39,122.97093842362099,88.77065145455049,-3.0,1.0,-4.0,0,0,0,0,3,1,0,18.64,0.00,11.09,
10.404,122.8980938423621,88.82406514545505,-4.0,2.0,-5.0,0,0,0,0,3,1,0,18.74,0.00,10.59,
10.418,122.97180938423621,88.74840651454551,-4.0,2.0,-3.0,0,0,0,0,3,1,0,18.74,0.00,10.20,
10.432,123.11418093842362,88.75884065145455,-4.0,0.0,0.0,0,0,0,0,3,1,0,18.74,0.00,9.71,
10.445,123.36241809384236,88.68788406514547,-3.0,0.0,-2.0,0,0,0,0,2,1,0,18.64,0.00,9.22,
10.46,123.35124180938423,88.68978840651454,-2.0,-2.0,-3.0,0,0,0,0,2,1,0,18.34,0.00,8.34,
10.474,123.28712418093842,88.63597884065145,0.0,-2.0,-3.0,0,0,0,0,2,1,0,18.05,0.00,8.04,
10.487,123.26271241809386,88.58559788406514,0.0,-1.0,-2.0,0,0,0,0,2,1,0,17.27,0.00,7.85,
10.502,123.16127124180939,88.64355978840652,0.0,-1.0,-2.0,0,0,0,0,2,1,0,17.07,0.00,7.46,
10.515,123.16912712418095,88.63135597884065,0.0,0.0,-1.0,0,0,0,0,3,1,0,16.78,0.00,7.26,
10.529,123.0979127124181,88.61213559788406,2.0,0.0,0.0,0,0,0,0,3,1,0,16.68,0.00,7.26,
10.543,122.9377912712418,88.47521355978839,4.0,0.0,0.0,0,0,0,0,4,1,0,16.68,0.00,7.46,
10.557,122.94877912712418,88.56052135597884,5.0,0.0,1.0,0,0,0,0,4,1,0,17.27,4.41,7.85,
10.57,122.94087791271241,88.79405213559788,4.0,-1.0,1.0,0,0,0,0,4,2,0,17.85,2.94,9.03,
10.585,122.92208779127124,89.00640521355979,3.0,-1.0,2.0,0,0,0,0,5,2,0,18.34,0.00,9.71,
10.598,122.85720877912712,89.18064052135598,1.0,0.0,1.0,0,0,0,0,5,2,0,18.64,2.65,10.40,
10.612,122.94972087791271,89.2700640521356,0.0,0.0,0.0,0,0,0,0,5,2,0,18.84,2.16,10.99,
10.626,123.05797208779126,89.35100640521357,0.0,1.0,0.0,0,0,0,0,5,2,0,19.23,1.47,11.97,
10.64,123.14079720877913,89.51210064052135,0.0,1.0,0.0,0,0,0,0,5,2,0,19.52,0.00,12.26,
10.653,123.23007972087791,89.64521006405214,-1.0,1.0,-1.0,0,0,0,0,5,2,0,19.72,0.88,12.65,
10.668,123.3110079720878,89.67652100640521,-1.0,1.0,-1.0,0,0,0,0,5,2,0,20.01,0.29,12.85,
10.682,123.34610079720878,89.69765210064052,-1.0,1.0,0.0,0,0,0,0,5,2,0,20.40,0.78,13.64,
10.695,123.34061007972088,89.63676521006406,-1.0,0.0,-1.0,0,0,0,0,5,2,0,20.60,0.39,13.73,
10.71,123.38506100797208,89.5676765210064,-1.0,0.0,0.0,0,0,0,0,5,2,0,20.80,0.00,13.83,
10.724,123.4165061007972,89.55176765210064,-1.0,0.0,0.0,0,0,0,0,5,2,0,20.99,0.00,14.03,
10.737,123.39265061007973,89.57717676521006,-1.0,0.0,0.0,0,0,0,0,5,2,0,21.19,0.00,14.22,
10.752,123.38126506100797,89.615717676521,-2.0,0.0,0.0,0,0,0,0,5,2,0,21.19,0.00,14.42,
10.766,123.3711265061008,89.5925717676521,-2.0,0.0,0.0,0,0,0,0,5,2,0,21.19,0.10,14.62,
10.779,123.35211265061008,89.62625717676521,-3.0,0.0,-1.0,0,0,0,0,5,2,0,21.29,0.00,14.62,
10.793,123.323211265061,89.61162571767652,-3.0,1.0,-1.0,0,0,0,0,5,2,0,21.29,0.00,14.42,
10.808,123.3293211265061,89.59216257176764,-3.0,0.0,-1.0,0,0,0,0,5,2,0,21.29,0.00,14.42,
10.822,123.27593211265061,89.56321625717676,-4.0,1.0,-2.0,0,0,0,0,5,2,0,21.29,1.77,14.22,
10.836,123.23459321126506,89.56032162571768,-5.0,2.0,-3.0,0,0,0,0,4,2,0,21.19,1.77,14.22,
10.85,123.23045932112652,89.54203216257179,-5.0,3.0,-3.0,0,0,0,0,4,2,0,21.09,0.78,13.64,
10.864,123.23004593211266,89.47720321625718,-5.0,2.0,-4.0,0,0,0,0,4,2,0,20.99,0.00,13.24,
10.878,123.37400459321127,89.42572032162573,-5.0,1.0,-3.0,0,0,0,0,4,2,0,20.90,2.26,12.65,
10.893,123.52340045932112,89.37557203216258,-5.0,0.0,-4.0,0,0,0,0,4,1,0,20.80,0.98,11.77,
10.906,123.70034004593211,89.29855720321626,-4.0,0.0,-4.0,0,0,0,0,3,1,0,20.60,2.94,11.28,
10.92,123.86203400459321,89.22785572032163,-4.0,-2.0,-5.0,0,0,0,0,3,1,0,19.72,2.45,10.69,
10.935,123.86920340045933,89.15778557203217,-4.0,-4.0,-5.0,0,0,0,0,3,1,0,19.13,0.00,9.91,
10.949,123.67192034004594,89.14177855720321,-3.0,-5.0,-5.0,0,0,0,0,3,1,0,18.44,0.00,8.24,
10.962,123.47219203400459,89.13117785572032,-3.0,-6.0,-4.0,0,0,0,0,3,1,0,17.46,0.00,7.46,
10.977,123.27221920340045,89.16611778557203,-3.0,-5.0,-4.0,0,0,0,0,3,1,0,15.89,0.00,6.87,
10.991,123.10822192034004,89.15161177855721,-2.0,-5.0,-3.0,0,0,0,0,3,1,0,15.21,0.00,6.18,
11.004,123.046822192034,89.01516117785573,0.0,-5.0,-2.0,0,0,0,0,3,1,0,14.62,0.00,5.20,
11.019,122.83368221920341,89.16351611778559,0.0,-4.0,-1.0,0,0,0,0,3,1,0,14.03,0.00,4.81,
11.032,122.73136822192035,89.28635161177856,0.0,-3.0,0.0,0,0,0,0,3,1,0,13.05,0.00,4.71,
11.046,122.76613682219202,89.43363516117786,1.0,-2.0,1.0,0,0,0,0,3,1,0,12.65,2.84,4.51,
11.06,122.73361368221921,89.55636351611778,0.0,0.0,0.0,0,0,0,0,3,1,0,12.46,4.51,4.22,
11.074,122.7123613682219,89.80263635161177,0.0,0.0,1.0,0,0,0,0,3,1,0,12.36,2.26,4.12,
11.087,122.53023613682218,90.01626363516118,0.0,3.0,0.0,0,0,0,0,3,1,0,12.36,3.14,4.12,
11.102,122.31402361368222,90.30762636351614,-2.0,6.0,1.0,0,0,0,0,3,1,0,12.65,2.84,4.12,
11.115,122.09440236136822,90.41776263635163,-2.0,9.0,1.0,0,0,0,0,3,1,0,12.95,2.06,3.92,
11.129,122.03644023613681,90.49177626363516,-2.0,9.0,4.0,0,0,0,0,3,1,0,13.54,2.84,4.12,
11.143,122.07564402361368,90.44517762636352,-1.0,11.0,7.0,0,0,0,0,3,1,0,14.13,3.83,4.22,
11.157,122.23256440236138,90.51251776263635,0.0,14.0,7.0,0,0,0,0,3,1,0,15.60,2.65,4.51,
11.171,122.69825644023615,90.35725177626364,0.0,15.0,7.0,0,0,0,0,4,1,0,16.58,2.55,5.49,
11.186,123.4828256440236,90.47672517762636,-1.0,17.0,5.0,0,0,0,0,4,1,0,17.56,0.49,6.08,
11.199,124.27228256440236,90.43467251776265,-3.0,16.0,7.0,0,0,0,0,4,1,0,19.03,1.18,6.87,
11.213,124.30622825644024,89.60246725177628,-2.0,16.0,2.0,0,0,0,0,4,1,0,22.66,0.00,7.26,
11.228,124.60662282564402,89.30324672517763,-3.0,15.0,4.0,0,0,0,0,4,2,0,25.51,0.00,8.24,
11.242,124.9876622825644,88.86832467251776,-3.0,15.0,1.0,0,0,0,0,4,2,0,28.45,0.49,8.83,
11.256,125.20576622825645,88.67183246725179,-2.0,13.0,1.0,0,0,0,0,4,1,0,31.10,2.26,9.03,
11.271,125.74957662282564,88.36418324672518,-3.0,7.0,1.0,0,1,0,0,3,1,0,34.34,0.00,9.42,
11.284,126.16395766228256,88.09041832467253,-2.0,3.0,0.0,0,1,0,0,4,1,0,35.32,0.00,9.61,
11.298,126.37639576622826,87.82904183246725,-2.0,0.0,-1.0,0,1,0,0,4,1,0,35.61,0.00,9.71,
11.313,126.37963957662282,87.91090418324673,-1.0,-2.0,-2.0,0,1,0,0,4,1,0,35.41,0.00,9.61,
11.327,126.29896395766228,87.86509041832467,-1.0,-3.0,-2.0,0,1,0,0,4,1,0,33.45,0.00,9.52,
11.341,126.13789639576623,87.91450904183246,0.0,-3.0,-2.0,0,1,0,0,4,1,0,32.18,0.00,9.52,
11.356,126.13978963957662,87.92845090418326,0.0,-2.0,-2.0,0,1,0,0,4,1,0,31.00,0.00,9.61,
11.37,126.12197896395767,88.11884509041833,0.0,-2.0,-2.0,0,1,0,0,4,1,0,30.12,0.00,10.01,
11.383,126.26419789639577,88.39888450904184,1.0,-5.0,-3.0,0,1,0,0,4,1,0,29.23,0.00,10.40,
11.398,126.26941978963957,88.56188845090418,0.0,-6.0,-4.0,0,1,0,1,4,2,0,29.14,0.00,10.89,
11.412,126.18894197896397,88.69518884509041,0.0,-6.0,-6.0,0,1,0,1,4,2,0,29.33,0.00,11.28,
11.426,125.9378941978964,88.77151888450904,1.0,-7.0,-7.0,0,1,0,1,4,2,0,29.72,0.00,12.56,
11.441,125.54378941978965,89.0131518884509,0.0,-6.0,-6.0,0,1,0,1,4,2,0,30.71,0.00,13.05,
11.455,125.27037894197896,89.12731518884509,0.0,-5.0,-5.0,0,1,0,1,4,2,0,31.29,0.00,13.64,
11.469,124.92803789419789,89.2107315188845,1.0,-3.0,-5.0,1,1,0,1,4,2,0,32.27,0.00,15.11,
11.484,124.89380378941978,89.12907315188846,1.0,-4.0,-4.0,1,1,0,1,4,2,0,33.45,0.00,15.79,
11.498,124.90838037894197,89.12990731518885,2.0,-5.0,-5.0,0,1,0,1,5,2,0,36.40,0.00,16.68,
11.512,124.89183803789419,89.08499073151887,4.0,-6.0,-5.0,1,1,0,1,5,3,0,37.77,0.00,17.76,
11.527,125.03418380378942,89.02649907315188,5.0,-8.0,-7.0,1,1,0,1,5,3,0,39.14,0.00,19.42,
11.541,124.76041838037895,89.0026499073152,7.0,-9.0,-8.0,1,1,0,1,5,3,0,40.42,0.00,20.21,
11.555,124.4360418380379,89.27926499073152,8.0,-8.0,-9.0,1,1,0,1,5,4,0,43.26,2.94,21.19,
11.57,124.0976041838038,89.49592649907315,10.0,-9.0,-10.0,1,1,0,1,5,4,0,45.13,5.10,23.35,
11.584,123.55076041838036,89.59859264990732,13.0,-10.0,-11.0,1,1,0,1,5,5,0,47.58,0.00,24.82,
11.598,123.02807604183803,89.50085926499072,20.0,-9.0,-19.0,0,1,0,1,5,5,0,53.86,0.00,26.88,
11.613,122.6968076041838,91.34508592649907,23.0,-18.0,-23.0,0,1,0,1,5,6,0,57.58,0.00,29.33,
11.627,122.21368076041838,91.73650859264991,30.0,-23.0,-29.0,0,1,0,1,6,7,0,61.31,0.00,34.63,
11.641,121.45436807604185,90.82165085926499,44.0,-38.0,-30.0,0,1,0,1,6,7,0,64.55,0.00,37.57,
11.656,121.5314368076042,93.8621650859265,55.0,-51.0,-4.0,0,0,0,1,6,8,0,64.26,0.00,40.91,
11.67,120.56714368076042,94.76021650859265,77.0,-30.0,-39.0,0,0,0,1,6,9,0,60.33,0.00,47.38,
11.684,118.49071436807606,96.47902165085927,102.0,-28.0,-53.0,0,0,0,1,6,9,1,55.13,0.00,50.13,
11.699,116.53707143680761,96.77690216508593,106.0,15.0,-57.0,0,0,0,1,7,10,1,48.46,0.00,52.78,
11.713,116.81870714368075,96.23069021650859,103.0,-7.0,-49.0,0,0,0,1,7,11,1,27.86,0.00,54.74,
12.145,123.89387071436808,78.55406902165086,-109.0,18.0,136.0,0,0,0,0,1,1,0,0.59,17.07,6.08,
12.16,123.8723870714368,80.25140690216509,-98.0,34.0,125.0,0,0,0,0,1,1,0,0.29,12.16,6.67,
12.174,123.51923870714369,85.02914069021651,-93.0,66.0,108.0,0,0,0,0,1,1,0,0.29,8.04,7.65,
12.187,123.34892387071437,89.73691406902165,-109.0,81.0,108.0,0,0,0,0,1,1,0,0.29,4.41,8.34,
12.2,123.61089238707143,95.03169140690217,-125.0,76.0,91.0,0,0,0,0,1,1,0,0.49,18.34,8.14,
12.215,124.53708923870714,100.08816914069023,-119.0,35.0,77.0,0,0,0,0,1,1,0,0.49,22.46,7.16,
12.229,125.58370892387072,104.31081691406902,-52.0,20.0,74.0,0,0,0,0,1,1,0,0.49,12.65,7.06,
12.242,125.42737089238707,108.6210816914069,9.0,-16.0,60.0,0,0,0,0,1,1,0,0.78,12.36,6.97,
12.256,125.0157370892387,113.91210816914068,49.0,-25.0,39.0,0,0,0,0,1,1,0,1.37,14.03,8.53,
12.27,123.92157370892387,119.13021081691406,55.0,3.0,17.0,0,0,0,0,0,1,0,1.08,14.91,8.34,
12.283,123.5241573708924,123.64802108169141,37.0,17.0,21.0,0,0,0,0,0,1,0,0.98,0.00,7.55,
12.298,121.56741573708923,127.45680210816914,37.0,59.0,-10.0,0,0,0,0,0,1,0,0.88,0.00,7.65,
12.311,119.72474157370891,130.8346802108169,91.0,48.0,-22.0,0,0,0,0,0,1,0,0.98,6.67,7.75,
12.325,116.67847415737089,130.26346802108168,155.0,-25.0,57.0,0,0,0,0,0,1,0,1.47,10.79,9.03,
12.339,117.97584741573709,118.97434680210817,248.0,-36.0,64.0,0,0,0,0,0,1,0,2.06,26.88,9.81,
12.353,123.42458474157371,124.24443468021082,142.0,35.0,-75.0,0,0,0,0,0,1,0,3.73,34.34,10.59,
12.366,127.18245847415737,128.2364434680211,15.0,-10.0,-28.0,0,0,0,0,0,1,0,7.55,0.00,11.48,
12.381,124.57924584741573,123.07364434680211,-21.0,6.0,-40.0,0,0,0,0,0,1,0,18.34,0.00,13.24,
12.395,124.18392458474158,119.76736443468022,5.0,-7.0,-2.0,0,0,0,0,0,1,0,20.11,0.00,12.36,
12.409,127.05139245847417,115.93573644346802,58.0,-5.0,33.0,0,0,0,0,0,1,0,19.91,0.00,13.83,
12.423,126.92413924584741,112.10557364434682,38.0,9.0,16.0,0,0,0,0,0,1,0,20.31,0.00,15.60,
12.437,126.20041392458475,107.98755736443468,28.0,12.0,10.0,0,0,0,0,1,0,0,23.64,0.00,16.68,
12.451,126.54204139245847,104.98375573644347,21.0,14.0,7.0,0,0,0,0,1,1,0,26.68,12.75,17.27,
12.466,127.02620413924585,102.24437557364433,16.0,16.0,3.0,0,0,0,0,1,2,0,31.59,17.95,17.85,
12.48,127.68662041392459,99.69343755736443,13.0,12.0,-3.0,0,0,0,1,2,3,0,37.28,10.59,20.21,
12.494,127.62666204139246,97.79134375573645,13.0,9.0,-6.0,0,0,0,1,2,3,0,48.27,0.00,21.97,
12.509,127.48566620413925,96.06213437557365,10.0,6.0,-7.0,0,0,0,1,3,4,0,53.66,0.00,23.64,
12.523,127.30056662041393,94.67421343755736,9.0,4.0,-5.0,0,1,0,1,3,4,0,58.66,0.00,24.92,
12.537,127.38105666204139,93.57242134375574,9.0,1.0,-6.0,0,1,0,1,3,4,0,62.69,0.00,27.17,
12.551,127.37110566620414,92.68824213437557,7.0,-1.0,-6.0,0,1,0,2,4,4,0,66.41,0.00,28.25,
12.565,127.28011056662041,91.98782421343755,6.0,-1.0,-9.0,0,1,0,2,4,5,0,66.41,0.00,28.94,
12.579,126.52401105666205,91.24278242134375,2.0,-2.0,2.0,0,1,0,2,4,5,0,65.53,0.00,29.04,
12.594,126.0974011056662,90.98827824213436,2.0,-7.0,-9.0,0,1,0,2,4,5,0,64.16,0.78,28.94,
12.607,126.05474011056661,90.60282782421343,0.0,-6.0,-13.0,0,1,0,2,5,6,0,60.14,0.00,28.55,
12.621,126.59947401105666,90.75328278242134,-1.0,-4.0,-13.0,0,1,0,2,5,6,0,58.08,0.00,27.66,
12.636,126.18594740110566,90.59732827824214,-3.0,-2.0,-15.0,0,1,0,2,5,6,0,56.21,0.00,26.00,
12.65,125.80259474011058,90.55473282782421,-5.0,-2.0,-13.0,0,1,0,2,5,6,0,54.94,0.00,25.80,
12.664,125.51225947401106,90.70347328278241,-6.0,0.0,-9.0,0,1,0,2,4,6,0,54.25,0.00,25.51,
12.679,125.2942259474011,90.70034732827824,-6.0,0.0,-8.0,0,1,0,2,4,6,0,54.84,0.00,24.82,
12.693,125.20042259474012,90.31303473282782,-5.0,0.0,-5.0,0,1,0,2,3,6,0,55.72,0.00,24.82,
12.707,125.209042259474,90.13030347328278,-4.0,0.0,-6.0,0,1,0,2,2,6,0,56.90,0.00,24.82,
12.722,125.2189042259474,89.95903034732828,-3.0,0.0,-6.0,0,1,0,2,0,6,0,60.43,0.00,24.62,
12.735,125.11189042259474,89.91490303473282,-1.0,-3.0,-10.0,0,1,0,2,0,6,0,62.98,4.91,24.62,
12.749,125.24518904225948,89.73949030347329,0.0,-5.0,-9.0,0,1,0,2,0,7,0,65.63,0.00,24.92,
12.764,124.46651890422594,90.66694903034733,1.0,-9.0,-28.0,0,1,0,1,0,7,0,67.89,1.47,25.41,
12.778,124.0556518904226,89.49069490303474,0.0,-11.0,-11.0,1,1,0,1,0,7,0,72.01,0.00,26.19,
12.792,123.39356518904225,89.18406949030349,2.0,-10.0,-10.0,1,1,0,1,0,8,0,73.38,0.00,26.29,
12.806,122.71535651890423,89.70240694903035,3.0,-9.0,-9.0,1,1,0,1,0,7,0,74.46,0.00,26.49,
12.82,122.36853565189041,89.85324069490304,2.0,-11.0,-4.0,1,1,0,1,0,7,0,74.95,0.00,26.88,
12.834,122.84685356518905,89.39132406949031,2.0,-17.0,-4.0,1,1,0,1,0,7,0,74.26,0.00,27.37,
12.849,123.1736853565189,89.30013240694903,3.0,-22.0,-9.0,0,1,0,1,0,7,0,70.93,0.00,27.66,
12.863,123.4673685356519,89.1560132406949,2.0,-23.0,-10.0,0,0,0,1,0,6,0,65.63,0.00,27.57,
12.877,122.7137368535652,89.8256013240695,0.0,-17.0,-13.0,0,0,0,1,0,6,0,59.45,0.00,26.88,
12.892,122.09837368535652,90.58556013240695,-2.0,-11.0,-10.0,0,0,0,1,0,6,0,48.27,0.00,25.90,
12.906,121.83883736853565,91.3635560132407,-4.0,-3.0,-8.0,0,0,0,1,0,6,0,44.05,0.00,25.02,
12.92,121.54288373685357,91.46835560132408,-3.0,0.0,-3.0,0,0,0,1,0,5,0,40.42,0.00,23.74,
12.934,122.03528837368535,91.63183556013242,-3.0,0.0,-5.0,0,0,0,1,0,5,0,37.28,0.00,22.56,
12.948,122.57952883736854,91.19818355601325,-5.0,-5.0,-3.0,0,0,0,1,0,5,0,32.47,0.00,20.60,
12.962,122.97595288373685,90.93881835560133,-1.0,-13.0,-7.0,0,0,0,1,0,5,0,30.51,0.00,20.01,
12.977,123.03359528837369,90.48988183556013,2.0,-15.0,-7.0,0,0,0,2,0,5,0,28.55,0.00,19.42,
12.991,122.42735952883736,90.741988183556,1.0,-17.0,-5.0,0,0,0,2,0,5,0,26.78,0.00,18.74,
13.004,121.62873595288374,90.8391988183556,0.0,-13.0,-2.0,0,0,0,2,0,5,0,23.54,0.00,18.44,
13.019,121.17087359528838,90.58791988183556,0.0,-12.0,-2.0,0,0,0,2,0,5,0,22.37,0.00,18.44,
13.033,120.96308735952884,90.41879198818357,0.0,-11.0,0.0,0,0,0,2,0,4,0,21.09,0.00,18.44,
13.047,121.10430873595288,90.28487919881835,2.0,-11.0,1.0,0,0,0,1,0,4,0,19.82,0.00,18.64,
13.061,121.1454308735953,90.43348791988183,2.0,-9.0,-2.0,0,0,0,1,0,4,0,17.46,0.00,18.54,
13.075,121.41054308735953,90.35834879198818,2.0,-9.0,-3.0,0,0,0,1,0,4,0,16.38,0.00,18.54,
13.089,121.53605430873594,90.61183487919882,1.0,-9.0,-6.0,0,0,0,1,0,4,0,15.40,0.00,18.05,
13.103,121.4856054308736,91.06918348791989,0.0,-9.0,-6.0,0,0,0,1,0,4,0,14.52,0.00,17.36,
13.117,121.30956054308736,91.47491834879199,-3.0,-8.0,-6.0,0,0,0,1,0,4,0,13.34,0.00,17.17,
13.131,121.00395605430873,91.5784918348792,-4.0,-6.0,-6.0,0,0,0,1,0,4,0,13.05,0.00,16.97,
13.146,120.72139560543087,91.54384918348794,-4.0,-6.0,-5.0,0,0,0,1,0,4,0,12.65,0.00,16.97,
13.16,120.49513956054308,91.7293849183488,-5.0,-5.0,-2.0,0,0,0,1,0,3,0,12.36,0.00,16.87,
13.173,120.31051395605431,91.89193849183488,-6.0,-4.0,0.0,0,0,0,1,0,3,0,11.67,0.00,17.07,
13.188,120.19305139560544,91.79119384918349,-5.0,-3.0,1.0,0,0,0,1,0,3,0,11.38,0.39,16.78,
13.202,120.36130513956054,91.59211938491835,-5.0,-2.0,3.0,0,0,0,1,0,3,0,10.99,4.12,16.28,
13.216,120.39613051395607,91.57221193849183,-5.0,-2.0,1.0,0,0,0,1,0,2,0,10.69,10.59,15.60,
13.23,120.4176130513956,91.6152211938492,-7.0,-1.0,0.0,0,0,0,1,0,2,0,10.20,12.16,15.01,
13.244,120.41976130513956,91.55652211938491,-8.0,-1.0,0.0,0,0,0,1,0,2,0,9.61,10.99,14.81,
13.258,120.52797613051396,91.36165221193849,-8.0,-1.0,0.0,0,0,0,1,0,2,0,9.42,6.87,14.03,
13.272,120.4487976130514,91.25216522119385,-9.0,1.0,-2.0,0,0,0,1,0,2,0,9.12,6.97,13.83,
13.286,120.47687976130514,91.0252165221194,-8.0,0.0,0.0,0,0,0,1,0,2,0,8.93,5.98,14.03,
13.3,120.46168797613052,90.79552165221193,-6.0,0.0,0.0,0,0,0,1,0,2,0,8.73,9.52,14.13,
13.314,120.43316879761306,90.64655216522118,-4.0,0.0,0.0,0,0,0,1,0,2,0,8.73,10.50,13.93,
13.328,120.3943168797613,90.66765521652212,-4.0,0.0,0.0,0,0,0,1,0,2,0,8.93,4.61,13.64,
13.341,120.28243168797613,90.78676552165221,-6.0,0.0,0.0,0,0,0,0,0,2,0,8.93,4.91,13.54,
13.356,120.28924316879763,90.55567655216522,-6.0,0.0,0.0,0,0,0,0,0,2,0,9.12,2.35,13.44,
13.369,120.38892431687978,90.34356765521652,-3.0,0.0,1.0,0,0,0,0,0,2,0,9.22,2.16,13.24,
13.383,120.48889243168797,90.20535676552166,-2.0,0.0,0.0,0,0,0,0,0,2,0,9.32,6.18,13.05,
13.396,120.6158892431688,90.20053567655216,-3.0,0.0,-1.0,0,0,0,0,0,2,0,9.42,7.65,12.75,
13.411,120.62858892431687,90.21805356765522,-3.0,0.0,-2.0,0,0,0,0,0,2,0,9.42,5.49,12.26,
13.425,120.55785889243168,90.10280535676551,-3.0,0.0,-1.0,0,0,0,0,0,2,0,9.42,9.71,12.95,
13.438,120.57778588924317,90.01928053567656,-1.0,0.0,-1.0,0,0,0,0,0,2,0,9.52,4.41,12.85,
13.453,120.60677858892433,90.07392805356766,0.0,0.0,-2.0,0,0,0,0,0,2,0,9.81,1.08,13.05,
13.466,120.58267785889244,90.17839280535676,0.0,-1.0,-2.0,0,0,0,0,0,2,0,9.91,0.00,13.24,
13.48,120.47226778588924,90.20683928053566,0.0,-1.0,-1.0,0,0,0,0,0,2,0,10.10,0.00,13.54,
13.495,120.32622677858893,90.39868392805357,0.0,-1.0,-1.0,0,0,0,0,0,1,0,10.30,0.00,13.54,
13.508,120.4376226778589,90.44486839280536,0.0,-1.0,0.0,0,0,0,0,0,1,0,10.59,0.00,13.93,
13.522,120.47576226778588,90.49448683928054,0.0,-2.0,0.0,0,0,0,0,0,1,0,10.79,0.00,14.32,
13.537,120.48857622677859,90.40944868392806,1.0,-2.0,0.0,0,0,0,0,0,1,0,10.89,0.00,16.58,
13.55,120.55285762267786,90.37394486839281,2.0,-2.0,0.0,0,0,0,0,0,1,0,10.99,0.00,17.17,
13.564,120.64928576226778,90.46939448683928,2.0,-2.0,-1.0,0,0,0,0,0,1,0,10.99,0.00,18.15,
13.579,120.63192857622677,90.60493944868394,1.0,-1.0,-1.0,0,0,0,0,0,1,0,11.18,0.00,18.84,
13.592,120.59419285762269,90.65449394486839,1.0,-1.0,-1.0,0,0,0,0,0,1,0,11.38,0.00,19.42,
13.606,120.68941928576227,90.65944939448683,0.0,-2.0,-2.0,0,1,0,0,0,1,0,11.38,0.00,19.42,
13.621,120.71694192857622,90.61494493944869,2.0,-4.0,-2.0,0,1,0,0,0,1,0,11.48,0.00,20.31,
13.635,120.69269419285762,90.67349449394487,3.0,-5.0,-2.0,0,1,0,0,0,1,0,11.58,0.00,21.58,
13.648,120.74426941928576,90.6973494493945,3.0,-6.0,-2.0,0,1,0,1,0,2,0,11.67,0.00,22.76,
13.663,120.64142694192857,90.93373494493943,3.0,-6.0,-3.0,0,1,0,1,0,2,0,11.77,0.00,22.96,
13.677,120.46914269419285,91.04737349449395,3.0,-7.0,-2.0,0,1,0,1,0,2,0,11.67,0.00,23.35,
13.69,120.38891426941927,91.3467373494494,2.0,-5.0,-3.0,0,1,0,1,0,2,0,11.67,0.00,23.54,
13.705,120.12889142694193,91.51167373494495,1.0,-4.0,-3.0,0,1,0,1,0,2,0,11.58,0.00,23.64,
13.719,120.03088914269419,91.6631673734945,1.0,-3.0,-2.0,0,1,0,1,0,2,0,11.28,0.00,24.13,
13.733,119.91308891426942,91.66931673734945,0.0,-3.0,-1.0,0,1,0,1,0,2,0,11.18,0.00,24.92,
13.748,119.89230889142694,91.74193167373494,0.0,-2.0,-1.0,0,1,0,1,0,3,0,11.18,8.53,26.19,
13.762,119.89023088914269,91.78519316737349,0.0,-3.0,0.0,0,1,0,1,0,3,0,11.28,0.00,26.29,
13.776,119.93502308891426,91.82551931673736,0.0,-2.0,-2.0,0,1,0,1,0,3,0,11.09,0.00,26.00,
13.791,119.83150230889142,91.66755193167374,0.0,-2.0,-3.0,0,1,0,1,0,3,0,10.99,0.00,25.80,
13.805,119.78515023088914,91.69675519316738,0.0,-3.0,-2.0,0,1,0,1,0,3,0,10.99,9.81,25.80,
13.818,119.72651502308892,91.62767551931675,0.0,-4.0,-2.0,0,1,0,1,1,3,0,11.09,0.00,25.90,
13.833,119.54065150230889,91.72876755193167,0.0,-3.0,-1.0,0,0,0,1,1,3,0,10.69,0.00,26.09,
13.847,119.4410651502309,91.80187675519318,0.0,-3.0,-1.0,0,0,0,1,1,3,0,10.50,0.00,26.29,
13.861,119.2961065150231,91.79118767551932,0.0,-1.0,-2.0,0,0,0,1,1,4,1,10.30,0.00,26.29,
13.876,119.38961065150231,92.28511876755194,0.0,0.0,-2.0,0,0,0,1,2,4,1,10.20,0.20,26.39,
13.89,119.32696106515021,92.46051187675519,0.0,0.0,-1.0,0,0,0,1,2,4,1,10.20,1.47,26.78,
13.904,119.37469610651502,92.41505118767552,-1.0,0.0,-1.0,0,0,0,1,2,4,1,10.20,3.34,26.88,
13.919,119.39746961065151,92.45550511876755,-1.0,0.0,-1.0,0,0,0,1,2,4,1,10.30,5.69,27.08,
13.933,119.43574696106515,92.42355051187675,-1.0,0.0,-1.0,0,0,0,1,2,4,1,10.20,3.24,26.98,
13.947,119.4395746961065,92.39335505118767,-1.0,0.0,-2.0,0,0,0,1,2,4,1,10.50,3.14,27.27,
13.962,119.43095746961066,92.35433550511875,-1.0,0.0,-1.0,0,0,0,1,2,4,1,10.50,0.00,27.47,
13.975,119.43009574696107,92.29643355051188,-1.0,0.0,-1.0,0,0,0,1,2,4,1,10.59,0.00,27.76,
13.989,119.5110095746961,92.33564335505119,0.0,0.0,-1.0,0,0,0,1,2,4,1,10.59,0.98,27.76,
14.004,119.45610095746962,92.29456433550513,-1.0,0.0,-1.0,0,0,0,1,2,4,0,10.59,1.67,27.76,
14.018,119.37861009574696,92.3174564335505,-1.0,0.0,-1.0,0,0,0,1,2,4,0,10.69,1.47,27.86,
14.032,119.3168610095747,92.26574564335505,-1.0,0.0,-1.0,0,0,0,1,2,4,0,10.79,0.00,28.06,
14.047,119.32868610095747,92.2965745643355,-1.0,0.0,-1.0,0,0,0,1,2,4,0,10.89,0.00,28.25,
14.061,119.29386861009574,92.29965745643354,-1.0,0.0,-1.0,0,0,0,1,2,4,0,10.89,0.00,28.35,
14.075,119.19138686100959,92.20996574564336,-1.0,0.0,-2.0,0,0,0,1,2,4,1,10.89,0.00,28.35,
14.09,119.19013868610095,92.25499657456434,-1.0,0.0,-1.0,0,0,0,1,2,4,1,10.99,0.00,28.45,
14.104,119.2170138686101,92.29549965745642,-1.0,0.0,0.0,0,0,0,1,2,4,1,10.99,0.00,28.84,
14.118,119.219701386861,92.35354996574563,-1.0,0.0,-1.0,0,0,0,1,3,4,1,11.09,0.00,29.14,
14.133,119.2019701386861,92.31435499657456,-1.0,0.0,-1.0,0,0,0,1,3,4,1,11.18,0.00,29.43,
14.146,119.35319701386861,92.31943549965744,-1.0,0.0,-1.0,0,0,0,1,3,4,1,11.18,0.49,30.02,
14.16,119.39531970138687,92.39194354996576,0.0,0.0,0.0,0,0,0,1,3,5,1,11.48,2.55,30.12,
14.175,119.46253197013868,92.47119435499657,-1.0,0.0,0.0,0,0,0,1,3,5,1,11.48,1.77,30.12,
14.189,119.38825319701385,92.50611943549966,-1.0,0.0,0.0,0,0,0,1,3,5,1,11.48,1.37,30.71,
14.203,119.36282531970139,92.46461194354995,-1.0,0.0,0.0,0,0,0,1,3,5,1,11.67,0.98,31.00,
14.218,119.31528253197014,92.46946119435499,-1.0,0.0,-1.0,0,0,0,1,3,5,1,11.77,2.35,30.90,
14.232,119.30152825319702,92.46094611943549,-1.0,0.0,-1.0,0,0,0,1,3,5,1,11.87,1.08,30.90,
14.246,119.2551528253197,92.52309461194355,-1.0,1.0,0.0,0,0,0,1,4,5,1,11.97,1.96,31.00,
14.26,119.27751528253197,92.61030946119436,-1.0,1.0,-1.0,0,0,0,1,4,5,1,12.07,0.10,31.10,
14.274,119.2977515282532,92.61903094611944,-1.0,1.0,-1.0,0,0,0,1,4,5,1,12.36,0.59,31.10,
14.715,119.77677515282531,92.74590309461195,-1.0,0.0,0.0,0,0,0,1,4,5,1,13.24,0.00,30.90,
14.73,119.84267751528252,92.74059030946118,-1.0,0.0,0.0,0,0,0,1,4,5,1,13.24,0.00,30.90,
14.744,119.81326775152826,92.75805903094613,-1.0,0.0,0.0,0,0,0,1,5,5,1,13.24,0.39,31.00,
14.758,119.79232677515283,92.69680590309461,-1.0,0.0,0.0,0,0,0,1,5,5,1,13.34,0.00,30.90,
14.773,119.77223267751528,92.68168059030947,-1.0,-1.0,0.0,0,0,0,1,5,5,1,13.34,0.00,31.00,
14.787,119.76122326775153,92.68916805903095,-1.0,-1.0,-1.0,0,0,0,1,5,5,1,13.34,0.00,31.10,
14.801,119.76012232677516,92.7169168059031,-1.0,-1.0,0.0,0,0,0,1,5,5,1,13.34,0.00,31.20,
14.816,119.76901223267751,92.7376916805903,-1.0,-1.0,0.0,0,0,0,1,5,5,1,13.24,0.00,31.29,
14.83,119.76990122326774,92.74876916805904,-1.0,-1.0,0.0,0,0,0,1,5,5,1,13.34,0.00,31.39,
14.844,119.70699012232677,92.74087691680589,-2.0,-1.0,0.0,0,0,0,1,5,5,1,13.44,0.10,31.59,
14.858,119.66469901223267,92.74008769168059,-1.0,-1.0,0.0,0,0,0,1,5,5,1,13.44,0.00,31.39,
14.872,119.65146990122327,92.79400876916804,-1.0,-1.0,-1.0,0,0,0,1,5,5,1,13.34,0.00,31.49,
14.886,119.59614699012232,92.8084008769168,-1.0,0.0,-1.0,0,0,0,1,5,6,1,13.34,0.00,31.59,
14.901,119.58161469901223,92.78284008769168,-1.0,0.0,-1.0,0,0,0,1,5,6,1,13.34,0.00,31.49,
14.915,119.51716146990123,92.79828400876916,-1.0,0.0,-1.0,0,0,0,1,5,6,1,13.24,0.00,31.59,
14.929,119.51971614699012,92.80882840087692,-1.0,0.0,-1.0,0,0,0,1,5,6,1,13.24,0.00,31.59,
14.944,119.528971614699,92.81888284008768,-2.0,0.0,-1.0,0,0,0,1,5,6,1,13.24,0.00,31.59,
14.958,119.5388971614699,92.76588828400878,-1.0,0.0,0.0,0,0,0,1,5,6,1,13.34,0.00,31.69,
14.972,119.54888971614699,92.71558882840087,-1.0,0.0,0.0,0,0,0,2,5,6,1,13.34,0.00,31.59,
14.987,119.52288897161469,92.67455888284009,-1.0,0.0,0.0,0,0,0,2,5,6,1,13.34,0.00,31.59,
15.001,119.58328889716147,92.61645588828401,-1.0,0.0,0.0,0,0,0,2,5,6,1,13.34,0.29,32.08,
15.014,119.60732888971614,92.6736455888284,-1.0,0.0,0.0,0,0,0,2,5,6,1,13.34,0.69,31.88,
15.029,119.6097328889716,92.73336455888284,-1.0,0.0,0.0,0,0,0,2,5,6,1,13.34,0.00,31.88,
15.043,119.58297328889716,92.73033645588829,-1.0,0.0,0.0,0,0,0,2,5,6,1,13.34,0.00,31.98,
15.057,119.58029732888971,92.74803364558883,-1.0,0.0,0.0,0,0,0,2,5,6,1,13.34,0.00,31.88,
15.072,119.57102973288897,92.78580336455889,-1.0,0.0,-1.0,0,0,0,2,5,6,1,13.44,0.00,32.18,
15.086,119.5251029732889,92.8075803364559,-1.0,0.0,0.0,0,1,0,2,5,6,1,13.44,0.29,32.37,
15.1,119.49351029732888,92.87275803364558,-1.0,0.0,0.0,0,1,0,2,5,6,1,13.34,0.00,32.08,
15.114,119.54435102973288,92.80727580336455,-1.0,0.0,-1.0,0,1,0,2,5,6,1,13.54,0.20,32.27,
15.128,119.52243510297328,92.84572758033644,-1.0,0.0,0.0,0,1,0,2,5,6,1,13.54,0.00,32.47,
15.142,119.57424351029732,92.67857275803365,-1.0,0.0,-2.0,0,1,0,2,5,6,1,13.54,0.69,32.57,
15.157,119.53442435102973,92.69785727580337,-1.0,0.0,-1.0,0,1,0,2,5,6,1,13.54,0.00,32.77,
15.171,119.52144243510297,92.71778572758035,-1.0,-1.0,-2.0,0,1,0,2,5,6,1,13.64,0.00,32.77,
15.185,119.5111442435103,92.70177857275804,-1.0,-1.0,-1.0,0,1,0,2,5,6,1,13.64,0.00,32.86,
15.2,119.55511442435103,92.7001778572758,-1.0,0.0,-2.0,0,1,0,2,5,6,1,13.54,0.00,32.96,
15.214,119.51451144243511,92.70901778572757,-1.0,0.0,-2.0,0,1,0,2,5,6,1,13.64,0.00,32.96,
15.228,119.35745114424351,92.85390177857276,-1.0,0.0,-1.0,0,1,0,2,5,6,1,13.64,0.00,33.16,
15.243,119.36874511442436,92.99439017785727,-1.0,0.0,-1.0,0,1,0,2,5,6,1,13.64,0.49,33.16,
15.257,119.39687451144243,93.06243901778572,-1.0,0.0,-1.0,0,1,0,2,5,6,1,13.64,0.00,33.26,
15.271,119.42668745114425,93.09624390177856,-2.0,0.0,-1.0,0,1,0,2,5,6,1,13.83,0.00,33.35,
15.286,119.42966874511443,93.11762439017787,-1.0,0.0,-1.0,0,1,0,2,5,6,1,13.83,0.00,33.55,
15.3,119.44796687451145,93.16476243901779,-2.0,0.0,-1.0,0,1,0,2,5,6,1,13.83,0.00,33.55,
15.314,119.49479668745114,93.14247624390178,-2.0,0.0,-1.0,0,1,0,2,5,6,1,13.93,0.59,33.55,
15.328,119.45447966874512,93.06824762439018,-2.0,0.0,-1.0,0,1,0,2,5,6,1,14.13,0.00,33.45,
15.342,119.43244796687452,93.08782476243903,-2.0,0.0,-1.0,0,1,0,2,5,6,1,14.22,0.00,33.55,
15.356,119.39424479668746,93.13478247624391,-2.0,0.0,-1.0,0,1,0,2,5,6,1,14.32,0.00,33.35,
15.371,119.40842447966874,93.13047824762438,-2.0,0.0,-1.0,0,1,0,2,5,6,1,14.32,0.00,33.45,
15.385,119.44584244796688,93.13004782476243,-2.0,0.0,-1.0,0,1,0,2,5,6,1,14.32,0.00,33.55,
15.399,119.44058424479668,93.18400478247624,-2.0,0.0,-1.0,0,1,0,2,5,6,1,14.42,0.00,33.35,
15.414,119.47605842447967,93.16240047824762,-2.0,0.0,-1.0,0,1,0,2,5,6,1,14.32,0.00,33.45,
15.428,119.50660584244798,93.13324004782476,-2.0,0.0,-1.0,0,1,0,2,5,6,1,14.32,0.00,33.45,
15.442,119.4736605842448,93.12132400478248,-2.0,0.0,-1.0,0,1,0,2,5,6,1,14.42,0.00,33.26,
15.457,119.48836605842448,93.07513240047824,-2.0,0.0,-1.0,0,1,0,2,5,6,1,14.42,0.00,33.16,
15.471,119.50783660584246,93.05251324004783,-2.0,0.0,-1.0,0,1,0,2,5,6,1,14.52,0.00,32.77,
15.485,119.45578366058425,93.05925132400479,-2.0,0.0,0.0,0,1,0,2,5,6,1,14.62,0.00,32.86,
15.5,119.40557836605844,93.00592513240048,-2.0,0.0,0.0,0,1,0,2,5,6,1,14.62,0.00,32.96,
15.513,119.49055783660583,92.98259251324005,-2.0,0.0,0.0,0,1,0,2,5,6,1,14.62,0.00,32.86,
15.527,119.55305578366058,92.953259251324,-2.0,0.0,0.0,0,1,0,2,5,7,1,14.62,0.00,32.86,
15.542,119.59530557836605,93.0043259251324,-2.0,0.0,-1.0,0,1,0,2,5,6,1,14.72,0.29,32.86,
15.556,119.5545305578366,93.01843259251325,-2.0,0.0,-1.0,0,1,0,2,5,6,1,14.72,0.00,33.06,
15.57,119.52345305578365,93.06484325925132,-1.0,0.0,0.0,0,1,0,2,5,6,1,14.72,0.00,33.06,
15.585,119.49334530557836,93.09648432592512,-2.0,0.0,0.0,0,1,0,2,5,6,1,14.72,0.00,32.86,
15.599,119.55333453055783,93.10864843259252,-2.0,0.0,0.0,0,1,0,2,5,6,1,14.81,0.00,32.96,
15.612,119.5413334530558,93.10086484325925,-2.0,0.0,-1.0,0,1,0,2,5,6,1,14.62,0.00,32.67,
15.627,119.54013334530559,93.12708648432591,-2.0,0.0,-1.0,0,1,0,2,5,6,1,14.72,0.00,32.96,
15.641,119.53101333453056,93.1117086484326,-2.0,0.0,-1.0,0,1,0,2,5,6,1,14.81,0.29,33.06,
15.655,119.52110133345305,93.10117086484325,-2.0,0.0,-1.0,0,1,0,2,5,6,1,14.81,0.00,33.06,
15.67,119.4751101333453,93.16311708648433,-2.0,0.0,-1.0,0,1,0,2,5,6,1,14.91,0.00,32.96,
15.684,119.51551101333453,93.12431170864843,-2.0,0.0,-1.0,0,1,0,2,5,6,1,14.91,0.00,32.96,
15.698,119.52855110133345,93.15643117086483,-2.0,0.0,-1.0,0,1,0,2,5,6,1,15.01,0.00,33.06,
15.713,119.56585511013334,93.18664311708648,-2.0,0.0,-1.0,0,1,0,2,5,6,1,15.11,0.00,32.77,
15.727,119.55158551101333,93.16266431170864,-2.0,0.0,-1.0,0,1,0,2,5,6,1,15.11,0.00,32.96,
15.741,119.56815855110133,93.15126643117087,-2.0,0.0,-1.0,0,1,0,2,5,6,1,15.11,0.49,33.06,
15.756,119.62381585511014,93.11412664311709,-2.0,0.0,-1.0,0,1,0,2,5,6,1,15.21,0.00,32.96,
15.77,119.63838158551101,93.14641266431171,-2.0,0.0,-1.0,0,1,0,2,5,6,1,15.30,0.00,32.96,
15.784,119.6578381585511,93.15864126643116,-2.0,0.0,-1.0,0,1,0,2,5,6,1,15.40,0.00,32.96,
15.799,119.71378381585511,93.13286412664311,-2.0,0.0,-1.0,0,1,0,2,5,6,1,15.50,0.00,32.77,
15.812,119.69237838158551,93.17528641266432,-2.0,0.0,-1.0,0,1,0,2,5,6,1,15.40,0.00,32.57,
15.826,119.68123783815855,93.17952864126644,-2.0,0.0,0.0,0,1,0,2,5,6,1,15.50,0.00,32.57,
15.841,119.66212378381586,93.23395286412664,-2.0,0.0,-1.0,0,1,0,2,5,6,1,15.70,0.00,32.86,
15.855,119.67821237838159,93.18539528641267,-2.0,0.0,-1.0,0,1,0,2,5,6,1,15.70,0.00,32.57,
15.869,119.66182123783815,93.14453952864127,-2.0,0.0,-1.0,0,1,0,2,5,6,1,15.79,0.00,32.57,
15.884,119.59718212378381,93.11345395286413,-2.0,0.0,-1.0,0,1,0,2,5,6,1,15.79,0.00,32.67,
15.898,119.61771821237838,93.16434539528642,-2.0,0.0,-1.0,0,1,0,2,5,6,1,15.89,0.00,32.86,
15.912,119.63777182123783,93.18743453952864,-2.0,0.0,-1.0,0,1,0,2,5,6,1,15.89,0.00,32.67,
15.927,119.60377718212378,93.15374345395287,-2.0,0.0,-1.0,0,1,0,2,5,6,1,15.89,0.00,32.67,
15.941,119.61837771821237,93.15937434539528,-2.0,0.0,-1.0,0,1,0,2,5,6,1,15.99,0.00,32.67,
15.955,119.63783777182124,93.13293743453951,-2.0,0.0,-1.0,0,0,0,2,5,6,1,16.09,0.00,32.57,
15.97,119.71178377718212,93.13029374345395,-2.0,0.0,-1.0,0,0,0,2,5,6,1,16.19,0.00,32.47,
15.984,119.72817837771821,93.1120293743454,-2.0,0.0,-1.0,0,0,0,2,5,6,1,16.19,0.00,32.37,
15.997,119.78381783777182,93.10120293743452,-2.0,0.0,-1.0,0,0,0,2,5,6,1,16.28,0.00,32.47,
16.012,119.86138178377719,93.07312029374344,-2.0,0.0,-1.0,0,1,0,2,5,6,1,16.38,0.00,32.27,
16.026,119.83313817837771,93.11531202937435,-2.0,0.0,-1.0,0,0,0,2,5,6,1,16.28,0.00,32.27,
16.04,119.77631381783776,93.10153120293742,-2.0,0.0,-1.0,0,0,0,2,5,6,1,16.38,0.20,32.37,
16.055,119.75263138178377,93.11815312029375,-2.0,0.0,-1.0,0,0,0,2,5,6,1,16.58,0.00,32.18,
16.069,119.75926313817838,93.10181531202937,-2.0,0.0,-1.0,0,0,0,2,5,6,1,16.58,0.00,31.98,
16.083,119.81392631381783,93.10918153120295,-2.0,0.0,0.0,0,0,0,2,5,6,1,16.68,0.00,31.88,
16.098,119.80139263138177,93.1189181531203,-2.0,0.0,-1.0,0,1,0,2,5,6,1,16.78,0.00,31.78,
16.112,119.80013926313816,93.11989181531203,-2.0,0.0,-1.0,0,1,0,2,5,6,1,16.78,0.00,31.78,
16.126,119.81801392631381,93.06598918153121,-2.0,0.0,-1.0,0,1,0,2,5,6,1,16.78,0.00,31.88,
16.141,119.87380139263138,93.06059891815312,-2.0,0.0,-1.0,0,1,0,2,5,6,1,16.68,0.00,31.78,
16.155,119.87938013926313,93.05105989181531,-2.0,0.0,-1.0,0,1,0,2,5,6,1,16.68,0.00,31.59,
16.168,119.78993801392632,93.05010598918153,-2.0,0.0,-1.0,0,1,0,2,5,6,1,16.58,0.00,31.59,
16.183,119.78999380139264,93.02301059891815,-2.0,0.0,-1.0,0,1,0,2,5,6,1,16.58,0.00,31.78,
16.197,119.78099938013926,92.99330105989182,-2.0,0.0,-1.0,0,1,0,2,5,6,1,16.68,0.00,31.78,
16.211,119.84309993801392,92.9363301059892,-2.0,0.0,-1.0,0,1,0,2,5,6,1,16.58,0.00,31.49,
16.226,119.84930999380138,92.93063301059894,-2.0,0.0,-1.0,0,0,0,2,5,6,1,16.68,0.00,31.39,
16.24,119.85893099938014,92.91206330105989,-2.0,0.0,-1.0,0,0,0,2,5,6,1,16.58,0.00,31.39,
16.254,119.89589309993802,92.919206330106,-2.0,0.0,-1.0,0,0,0,2,5,6,1,16.68,0.00,31.00,
16.269,119.9355893099938,92.94692063301059,-2.0,0.0,-1.0,0,0,0,2,5,6,1,16.68,0.00,31.00,
16.283,119.89455893099938,92.94969206330106,-2.0,0.0,0.0,0,0,0,2,5,6,1,16.68,0.00,31.00,
16.297,119.86345589309992,92.99496920633011,-2.0,0.0,0.0,0,0,0,2,5,6,1,16.68,0.00,30.90,
16.312,119.82434558930998,92.999496920633,-2.0,0.0,0.0,0,0,0,2,5,6,1,16.58,0.00,30.80,
16.325,119.82943455893098,92.9549496920633,-2.0,0.0,-1.0,0,0,0,2,4,6,1,16.48,0.00,30.71,
16.339,119.8389434558931,92.96849496920633,-2.0,0.0,0.0,0,0,0,2,4,6,1,16.38,0.00,30.71,
16.354,119.86689434558932,92.93384949692064,-2.0,0.0,-1.0,0,0,0,2,4,6,1,16.48,0.00,30.80,
16.368,119.92368943455894,92.83138494969205,-3.0,0.0,-1.0,0,0,0,2,4,6,1,16.48,0.00,31.00,
16.382,119.99236894345589,92.78513849496922,-2.0,0.0,0.0,0,0,0,2,4,6,1,16.38,0.00,31.00,
16.397,119.99923689434559,92.78051384949693,-3.0,0.0,-1.0,0,0,0,2,4,6,1,16.48,0.00,30.80,
16.411,119.94592368943455,92.77105138494969,-3.0,0.0,-1.0,0,0,0,2,4,6,1,16.48,0.00,30.41,
16.425,119.97659236894346,92.73410513849498,-3.0,0.0,0.0,0,0,0,2,4,6,1,16.28,0,0,
16.838,120.44765923689434,92.3974105138495,-1.0,0.0,0.0,0,0,0,1,4,5,0,15.99,0.00,27.17,
16.852,120.46776592368943,92.40874105138494,-1.0,0.0,0.0,0,0,0,1,4,5,0,15.89,0.29,27.57,
16.866,120.46077659236894,92.35587410513848,-1.0,0.0,0.0,0,0,0,1,4,5,0,16.09,0.59,27.66,
16.88,120.44207765923689,92.31458741051385,-1.0,0.0,0.0,0,0,0,1,4,5,0,16.19,0.00,27.66,
16.894,120.44020776592369,92.35545874105138,-1.0,0.0,0.0,0,0,0,1,4,5,0,16.19,0.00,27.66,
16.909,120.37702077659237,92.38654587410514,-1.0,0.0,-1.0,0,0,0,1,4,5,0,16.19,0.00,27.86,
16.923,120.36170207765923,92.4166545874105,-1.0,0.0,-1.0,0,0,0,1,4,5,0,16.28,0.00,27.47,
16.937,120.37817020776592,92.41966545874105,-1.0,0.0,-1.0,0,0,0,1,4,5,0,16.38,0.00,27.47,
16.952,120.37981702077658,92.42896654587412,-1.0,0.0,-1.0,0,0,0,1,4,5,0,16.38,0.00,27.27,
16.966,120.39798170207767,92.42089665458741,-1.0,0.0,0.0,0,0,0,1,4,5,0,16.38,0.00,27.37,
16.979,120.35479817020776,92.43808966545873,-2.0,0.0,0.0,0,0,0,1,4,5,0,16.38,0.00,26.78,
16.994,120.30547981702077,92.44880896654587,-2.0,0.0,0.0,0,0,0,1,4,5,0,16.48,0.00,26.68,
17.008,120.27354798170207,92.48588089665458,-2.0,0.0,-1.0,0,0,0,1,4,5,0,16.58,0.00,26.78,
17.022,120.28835479817022,92.44458808966546,-2.0,0.0,-1.0,0,0,0,1,4,5,0,16.68,0.00,27.08,
17.037,120.34383547981702,92.45845880896654,-2.0,0.0,-1.0,0,0,0,1,4,5,0,16.68,0.00,27.17,
17.051,120.3763835479817,92.44184588089665,-1.0,0.0,-1.0,0,0,0,1,4,5,0,16.68,0.00,27.27,
17.065,120.36163835479816,92.41318458808966,-1.0,0.0,0.0,0,0,0,1,4,5,0,16.78,0.00,27.17,
17.08,120.38716383547981,92.40131845880897,-1.0,0.0,0.0,0,0,0,1,4,5,0,16.87,0.00,27.47,
17.094,120.38071638354798,92.3731318458809,-1.0,0.0,0.0,0,0,0,1,4,5,0,16.87,0.00,27.47,
17.107,120.4160716383548,92.37931318458809,-1.0,0.0,0.0,0,0,0,1,4,5,0,16.97,0.00,27.27,
17.122,120.41960716383548,92.42493131845882,-1.0,0.0,-1.0,0,0,0,1,4,5,0,16.97,0.00,27.86,
17.136,120.36596071638354,92.47449313184588,-1.0,0.0,0.0,0,0,0,1,4,5,0,17.17,0.59,27.96,
17.15,120.39659607163837,92.51544931318459,-1.0,0.0,-1.0,0,0,0,1,4,5,0,17.27,0.00,27.66,
17.165,120.40865960716383,92.53754493131845,-1.0,0.0,-1.0,0,0,0,1,4,5,0,17.27,0.00,28.15,
17.179,120.37386596071639,92.51275449313184,-1.0,-1.0,-1.0,0,0,0,1,4,5,0,17.36,0.00,28.15,
17.193,120.34338659607165,92.51027544931318,-1.0,0.0,0.0,0,0,0,1,4,5,1,17.46,0.00,28.35,
17.208,120.25933865960717,92.58202754493132,-1.0,0.0,0.0,0,0,0,1,4,5,1,17.46,0.00,28.25,
17.222,120.30493386596072,92.58920275449313,-1.0,0.0,0.0,0,0,0,1,4,5,1,17.46,0.00,28.55,
17.235,120.31849338659606,92.59892027544932,-1.0,0.0,0.0,0,0,0,1,4,5,1,17.56,0.00,28.65,
17.25,120.3288493386596,92.54589202754494,-1.0,0.0,0.0,0,0,0,1,4,6,1,17.66,0.00,28.74,
17.264,120.29388493386597,92.57658920275449,-1.0,-1.0,0.0,0,0,0,1,4,6,1,17.76,0.00,28.74,
17.278,120.27238849338659,92.59765892027545,-1.0,0.0,-1.0,0,1,0,1,4,6,1,17.85,0.00,28.84,
17.293,120.28823884933867,92.60876589202755,-1.0,0.0,0.0,0,1,0,1,4,6,1,17.85,0.00,28.74,
17.307,120.28982388493387,92.66387658920276,-1.0,0.0,-1.0,0,1,0,1,4,6,1,17.85,0.00,28.94,
17.321,120.2809823884934,92.68738765892027,-2.0,0.0,0.0,0,1,0,1,4,6,1,17.85,0.00,29.14,
17.336,120.28909823884935,92.73473876589202,-2.0,0.0,-1.0,0,1,0,1,4,6,1,17.85,0.00,29.14,
17.349,120.33490982388494,92.7304738765892,-2.0,0.0,-1.0,0,1,0,1,4,6,1,17.85,0.00,29.23,
17.363,120.32149098238848,92.73904738765891,-2.0,0.0,-1.0,0,1,0,1,4,6,1,17.85,0.00,29.33,
17.378,120.29314909823886,92.6949047387659,-2.0,0.0,-1.0,0,1,0,1,4,6,1,17.95,0.00,28.94,
17.392,120.31731490982388,92.60049047387659,-2.0,0.0,-1.0,0,1,0,1,4,6,1,17.95,0.00,29.14,
17.406,120.25673149098239,92.58204904738766,-1.0,0.0,-1.0,0,1,0,1,4,6,1,18.05,0.00,29.23,
17.421,120.27767314909825,92.56220490473876,-2.0,0.0,0.0,0,1,0,1,4,6,1,18.05,0.00,29.04,
17.435,120.26176731490983,92.54222049047388,-2.0,0.0,-1.0,0,1,0,1,4,6,1,17.95,0.00,28.94,
17.449,120.26017673149099,92.61222204904739,-1.0,0.0,0.0,0,1,0,1,4,6,1,17.95,0.00,28.94,
17.464,120.27801767314911,92.58322220490474,-2.0,0.0,-1.0,0,1,0,1,4,6,1,17.95,0.00,29.04,
17.478,120.27080176731491,92.56232222049047,-2.0,0.0,-1.0,0,1,0,1,4,6,1,17.85,0.00,29.23,
17.492,120.2340801767315,92.58723222204905,-2.0,0.0,-1.0,0,1,0,1,4,6,1,17.95,0.00,29.33,
17.506,120.20340801767315,92.64372322220491,-2.0,0.0,-1.0,0,1,0,1,4,6,1,18.15,0.00,29.33,
17.52,120.21834080176733,92.62237232222049,-2.0,0.0,0.0,0,1,0,1,4,6,1,17.95,0.00,29.23,
17.534,120.20183408017674,92.62023723222205,-2.0,0.0,-1.0,0,1,0,1,4,6,1,17.95,0.00,29.23,
17.549,120.15518340801768,92.6380237232222,-2.0,0.0,-1.0,0,1,0,1,4,6,1,17.85,0.00,29.14,
17.563,120.17751834080177,92.65780237232222,-2.0,0.0,-1.0,0,1,0,1,4,6,1,17.95,0.00,29.04,
17.577,120.12575183408018,92.64178023723223,-2.0,0.0,-1.0,0,1,0,1,4,6,1,17.95,0.00,29.43,
17.592,120.10257518340802,92.63117802372322,-2.0,0.0,-1.0,0,1,0,1,4,6,1,17.95,0.00,29.63,
17.606,120.1182575183408,92.67511780237233,-2.0,0.0,-1.0,0,1,0,1,4,6,1,17.95,0.00,29.72,
17.62,120.18282575183409,92.65251178023723,-1.0,0.0,-1.0,0,1,0,1,4,6,1,17.85,0.00,29.53,
17.635,120.19828257518341,92.70425117802371,-2.0,0.0,0.0,0,1,0,1,4,6,1,17.85,0.00,29.72,
17.649,120.14582825751835,92.68242511780238,-2.0,0.0,0.0,0,1,0,1,4,6,1,17.85,0.00,29.63,
17.662,120.11358282575183,92.67124251178024,-2.0,0.0,0.0,0,1,0,1,4,6,1,17.85,0.00,29.72,
17.677,120.13735828257518,92.59812425117802,-1.0,0.0,-1.0,0,1,0,1,4,6,1,17.85,0.00,29.82,
17.691,120.13073582825751,92.5638124251178,-1.0,0.0,-1.0,0,1,0,1,4,6,1,17.85,0.00,29.92,
17.705,120.15707358282576,92.54238124251178,-2.0,0.0,-1.0,0,1,0,1,4,6,1,17.85,0.00,29.92,
17.72,120.11470735828257,92.52223812425117,-2.0,0.0,-1.0,0,1,0,1,4,6,1,17.85,0.00,30.02,
17.734,120.08347073582826,92.49322381242511,-1.0,0.0,-1.0,0,1,0,1,4,6,1,17.85,0.00,30.12,
17.748,120.01734707358283,92.49932238124251,-1.0,-1.0,-1.0,0,1,0,1,4,6,1,17.76,0.00,30.02,
17.763,120.02873470735828,92.46393223812424,-1.0,-1.0,-1.0,0,1,0,1,4,6,1,17.76,0.00,30.02,
17.777,120.05687347073582,92.47839322381242,-1.0,0.0,-1.0,0,1,0,1,4,6,1,17.85,0.00,30.21,
17.792,120.12268734707358,92.53383932238124,-2.0,0.0,-1.0,0,1,0,1,4,6,1,17.76,0.00,30.31,
17.806,120.04826873470736,92.54838393223812,-2.0,0.0,-1.0,0,1,0,2,4,6,1,17.76,0.00,30.41,
17.82,120.05882687347074,92.54983839322381,-2.0,0.0,-1.0,0,1,0,2,4,6,1,17.76,0.00,30.31,
17.835,120.09588268734707,92.61298383932238,-1.0,0.0,-1.0,0,1,0,2,4,6,1,17.76,0.00,30.51,
17.849,120.1175882687347,92.64629838393225,-1.0,0.0,-1.0,0,1,0,1,4,6,1,17.95,0.00,30.61,
17.863,120.18275882687348,92.64962983839322,-2.0,0.0,-1.0,0,1,0,1,4,6,1,17.85,0.00,30.51,
17.876,120.15327588268735,92.63196298383933,-2.0,0.0,0.0,0,1,0,1,4,6,1,17.85,0.00,30.61,
17.891,120.10532758826874,92.63019629838394,-2.0,0.0,0.0,0,1,0,1,4,6,1,17.85,0.00,30.61,
17.905,120.06453275882687,92.6660196298384,-2.0,0.0,0.0,0,1,0,2,4,6,1,17.85,0.00,30.61,
17.92,120.04245327588268,92.65160196298385,-2.0,0.0,-1.0,0,1,0,2,4,6,1,17.76,0.00,30.61,
17.934,120.07624532758827,92.72216019629839,-2.0,0.0,-1.0,0,1,0,2,4,6,1,17.76,0.00,30.71,
17.948,120.05262453275883,92.71121601962983,-2.0,0.0,-1.0,0,1,0,2,4,6,1,17.76,0.00,30.80,
17.963,120.06826245327588,92.69212160196298,-2.0,0.0,-1.0,0,1,0,2,4,6,1,17.76,0.00,30.90,
17.977,120.09682624532759,92.7442121601963,-2.0,0.0,-1.0,0,1,0,1,4,6,1,17.76,0.00,30.71,
17.991,120.09068262453276,92.72242121601964,-2.0,0.0,-1.0,0,1,0,2,4,6,1,17.76,0.00,30.71,
18.006,120.09906826245327,92.72024212160197,-2.0,0.0,-1.0,0,1,0,2,4,6,1,17.76,0.00,30.61,
18.019,120.10890682624533,92.7020242121602,-2.0,0.0,-1.0,0,1,0,2,4,6,1,17.66,0.00,30.61,
18.033,120.15489068262454,92.71820242121602,-2.0,0.0,-1.0,0,1,0,2,4,6,1,17.85,0.00,30.80,
18.048,120.11448906826246,92.6928202421216,-2.0,0.0,-1.0,0,1,0,2,4,6,1,17.85,0.00,30.71,
18.062,120.11044890682625,92.69928202421217,-2.0,0.0,-1.0,0,1,0,2,4,6,1,17.66,0.00,30.71,
18.076,120.09204489068263,92.65492820242122,-2.0,0.0,-1.0,0,1,0,2,4,6,1,17.76,0.00,30.61,
18.091,120.08120448906826,92.68649282024212,-2.0,0.0,-1.0,0,1,0,2,4,6,1,17.66,0.00,30.31,
18.105,120.11612044890683,92.71664928202422,-2.0,0.0,-1.0,0,1,0,2,4,6,1,17.66,0.00,30.31,
18.119,120.11061204489069,92.66566492820243,-2.0,0.0,-1.0,0,1,0,1,4,6,1,17.56,0.00,30.31,
18.134,120.11906120448907,92.68756649282025,-2.0,0.0,-1.0,0,1,0,1,4,6,1,17.46,0.00,30.80,
18.148,120.1379061204489,92.70775664928202,-2.0,0.0,-1.0,0,1,0,1,4,5,1,17.56,0.00,30.71,
18.162,120.13079061204489,92.7277756649282,-2.0,0.0,-1.0,0,1,0,1,4,5,1,17.36,0.00,30.61,
18.177,120.1480790612045,92.72977756649283,-3.0,0.0,-1.0,0,1,0,1,4,5,1,17.27,0.00,30.02,
18.191,120.15880790612046,92.63097775664929,-3.0,0.0,-1.0,0,1,0,1,4,5,1,17.27,0.00,29.92,
18.205,120.21388079061205,92.62109777566494,-3.0,0.0,-1.0,0,1,0,1,4,5,1,17.27,0.00,30.21,
18.219,120.2283880790612,92.5931097775665,-3.0,0.0,-1.0,0,1,0,1,4,5,1,17.17,0.00,30.21,
18.233,120.18483880790612,92.55431097775664,-3.0,0.0,-1.0,0,1,0,1,4,5,1,17.07,0.00,29.72,
18.247,120.18948388079062,92.54143109777567,-3.0,0.0,-1.0,0,1,0,1,4,5,1,17.07,0.00,29.63,
18.262,120.18994838807906,92.54914310977756,-2.0,0.0,-1.0,0,1,0,1,4,5,1,16.97,0.00,29.43,
18.276,120.20799483880789,92.52291431097775,-3.0,0.0,-1.0,0,1,0,1,4,5,0,16.97,0.00,28.55,
18.29,120.2277994838808,92.48429143109777,-3.0,0.0,-1.0,0,1,0,1,4,5,0,16.87,0.00,28.65,
18.305,120.22077994838808,92.47142914310977,-2.0,0.0,-1.0,0,1,0,1,4,5,0,16.87,0.00,28.74,
18.319,120.22007799483882,92.49714291431097,-2.0,0.0,-1.0,0,1,0,1,4,5,0,16.87,0.00,28.74,
18.333,120.20200779948388,92.53571429143109,-2.0,0.0,-1.0,0,1,0,1,4,5,0,16.87,0.00,28.06,
18.348,120.19120077994839,92.56657142914311,-3.0,0.0,-1.0,0,1,0,1,4,5,0,16.68,0.00,28.15,
18.362,120.21712007799485,92.53365714291431,-3.0,0.0,-1.0,0,1,0,1,4,5,0,16.78,0.00,28.06,
18.376,120.19271200779949,92.50336571429143,-2.0,0.0,-1.0,0,1,0,1,4,5,0,16.78,0.00,27.76,
18.391,120.14527120077994,92.51833657142915,-2.0,0.0,-1.0,0,1,0,1,4,5,0,16.58,0.00,27.76,
18.405,120.17652712007799,92.48383365714291,-3.0,0.0,-1.0,0,1,0,1,4,5,0,16.68,0.00,27.76,
18.418,120.2066527120078,92.49838336571429,-2.0,0.0,-1.0,0,1,0,1,4,5,0,16.68,0.00,27.76,
18.433,120.23666527120076,92.55383833657143,-2.0,0.0,-1.0,0,1,0,1,4,5,0,16.68,0.00,27.57,
18.447,120.26666652712007,92.56838383365715,-2.0,0.0,-1.0,0,1,0,1,4,5,0,16.68,0.00,27.47,
18.461,120.23366665271202,92.53383838336572,-2.0,0.0,-1.0,0,1,0,1,4,5,0,16.68,0.00,27.47,
18.476,120.23936666527119,92.55738383833658,-2.0,0.0,-1.0,0,1,0,1,4,5,0,16.58,0.00,27.17,
18.49,120.23993666652711,92.51473838383366,-2.0,0.0,0.0,0,1,0,1,4,5,0,965.60,0.00,27.17,
18.504,120.18599366665272,92.52847383838336,-2.0,0.0,-1.0,0,1,0,1,4,5,0,969.23,0.00,27.17,
18.519,120.20759936666526,92.47584738383833,-2.0,0.0,-1.0,0,1,0,1,4,5,0,16.58,0.00,27.47,
18.533,120.20075993666653,92.43458473838385,-2.0,0.0,-1.0,0,1,0,1,4,5,0,16.48,0.00,27.37,
18.547,120.20907599366664,92.41245847383838,-2.0,0.0,-1.0,0,1,0,1,4,5,0,16.38,0.00,27.37,
18.562,120.27290759936668,92.47324584738384,-2.0,0.0,0.0,0,1,0,1,4,5,0,16.38,0.00,27.17,
18.576,120.30629075993667,92.48832458473838,-2.0,0.0,-1.0,0,1,0,1,4,5,0,16.48,0.00,26.29,
18.59,120.32762907599366,92.47183245847384,-2.0,0.0,-1.0,0,1,0,1,4,5,0,16.38,0.00,26.39,
18.605,120.32976290759936,92.44318324584738,-2.0,0.0,-1.0,0,1,0,1,4,5,0,16.38,0.00,26.49,
18.618,120.26697629075994,92.39531832458474,-2.0,0.0,-1.0,0,1,0,1,4,5,0,16.38,0.00,26.59,
18.632,120.224697629076,92.37253183245848,-2.0,0.0,-1.0,0,0,0,1,4,5,0,16.38,0.00,26.39,
18.647,120.2654697629076,92.37025318324585,-2.0,0.0,-1.0,0,1,0,1,4,5,0,16.38,0.00,26.39,
18.661,120.25154697629077,92.32502531832458,-2.0,0.0,-1.0,0,1,0,1,4,5,0,16.48,0.00,26.59,
18.675,120.29515469762907,92.27550253183244,-2.0,0.0,0.0,0,1,0,1,4,5,0,16.48,0.00,26.59,
18.69,120.2725154697629,92.27955025318325,-2.0,0.0,-1.0,0,1,0,1,4,5,0,16.28,0.00,26.49,
18.704,120.31525154697628,92.31595502531832,-2.0,0.0,0.0,0,1,0,1,4,5,0,16.38,0.00,26.49,
18.718,120.26552515469763,92.36459550253184,-2.0,0.0,-1.0,0,1,0,1,4,5,0,16.48,0.00,26.49,
18.733,120.29655251546976,92.35145955025318,-2.0,0.0,-1.0,0,1,0,1,4,5,0,16.38,0.00,26.19,
18.747,120.29065525154698,92.32314595502531,-2.0,0.0,-1.0,0,0,0,1,4,5,0,16.28,0.00,26.00,
18.761,120.2900655251547,92.30231459550252,-2.0,0.0,-1.0,0,1,0,1,4,5,0,16.28,0.00,26.00,
18.775,120.30800655251548,92.33623145955026,-2.0,0.0,-1.0,0,1,0,1,4,5,0,16.38,0.00,25.90,
18.789,120.32780065525154,92.33062314595502,-2.0,0.0,-1.0,0,0,0,1,4,5,0,16.48,0.00,25.90,
18.803,120.32078006552514,92.33906231459551,-2.0,0.0,-1.0,0,0,0,1,4,5,0,16.38,0.00,25.90,
18.818,120.38307800655251,92.32190623145954,-2.0,0.0,-1.0,0,0,0,1,4,5,0,16.38,0.00,25.90,
18.832,120.38030780065525,92.33819062314596,-2.0,0.0,-1.0,0,0,0,1,4,5,0,16.38,0.00,26.29,
19.274,120.28103078006552,92.30381906231459,-2.0,0.0,-1.0,0,0,0,1,4,5,0,16.38,0.00,26.39,
19.288,120.25310307800656,92.32738190623145,-2.0,0.0,-1.0,0,0,0,1,4,5,0,16.38,0.00,26.59,
19.302,120.24131030780065,92.33873819062315,-2.0,0.0,-1.0,0,0,0,1,4,5,0,16.28,0.00,26.59,
19.316,120.24013103078005,92.31287381906232,-2.0,0.0,-1.0,0,0,0,1,4,5,0,16.19,0.00,26.39,
19.331,120.27601310307801,92.29228738190623,-2.0,0.0,-1.0,0,0,0,1,4,5,0,16.28,0.00,26.49,
19.345,120.28860131030781,92.31722873819061,-2.0,0.0,-1.0,0,0,0,1,4,5,0,16.19,0.00,26.49,
19.359,120.31686013103078,92.31072287381906,-2.0,0.0,-1.0,0,0,0,1,4,5,0,16.19,0.00,26.49,
19.374,120.30168601310307,92.3010722873819,-2.0,0.0,-1.0,0,0,0,1,4,5,0,16.19,0.00,26.49,
19.388,120.28216860131032,92.3091072287382,-2.0,0.0,-1.0,0,0,0,1,4,5,0,16.28,0.00,26.49,
19.402,120.27121686013102,92.33691072287382,-2.0,0.0,-1.0,0,0,0,1,4,5,0,16.38,0.00,26.59,
19.417,120.2701216860131,92.35769107228738,-2.0,0.0,-1.0,0,0,0,1,4,5,0,16.38,0.00,26.59,
19.431,120.2430121686013,92.32376910722873,-2.0,0.0,-1.0,0,0,0,1,4,5,0,16.28,0.00,26.49,
19.445,120.22230121686013,92.29337691072288,-2.0,0.0,-1.0,0,0,0,1,4,5,0,16.28,0.00,26.49,
19.46,120.22923012168602,92.2543376910723,-2.0,0.0,-1.0,0,0,0,1,4,5,0,16.19,0.00,26.49,
19.474,120.22992301216861,92.30443376910723,-2.0,0.0,-1.0,0,1,0,1,4,5,0,16.19,0.00,26.59,
19.487,120.30199230121687,92.36344337691074,-2.0,0.0,-1.0,0,1,0,1,4,5,0,16.38,0.00,26.78,
19.502,120.30919923012169,92.36934433769107,-2.0,0.0,-1.0,0,1,0,1,4,5,0,16.28,0.00,26.68,
19.516,120.33691992301218,92.3609344337691,-2.0,0.0,-1.0,0,1,0,1,4,5,0,16.28,0.00,26.68,
19.53,120.26769199230122,92.3510934433769,-2.0,0.0,-1.0,0,1,0,1,4,5,0,16.28,0.00,26.59,
19.545,120.29676919923011,92.44010934433769,-2.0,0.0,-1.0,0,1,0,1,4,5,0,16.38,0.00,26.49,
19.559,120.218676919923,92.44001093443376,-2.0,0.0,-1.0,0,1,0,1,4,5,0,16.48,0.00,26.49,
19.573,120.2198676919923,92.44000109344337,-2.0,0.0,-1.0,0,1,0,1,4,5,0,16.48,0.00,26.59,
19.588,120.21998676919924,92.39500010934432,-2.0,0.0,-1.0,0,1,0,1,4,5,0,16.38,0.00,26.59,
19.602,120.23799867691991,92.35450001093443,-2.0,0.0,-1.0,0,1,0,1,4,5,0,16.28,0.00,26.59,
19.616,120.26679986769199,92.31445000109345,-2.0,0.0,-1.0,0,1,0,1,4,5,0,16.19,0.00,26.59,
19.631,120.3416799867692,92.31944500010934,-2.0,0.0,-1.0,0,1,0,1,4,5,0,16.28,0.00,26.59,
19.645,120.32216799867692,92.37394450001094,-2.0,0.0,-1.0,0,1,0,1,4,5,0,16.38,0.00,26.68,
19.659,120.3652167998677,92.38839445000109,-2.0,0.0,-1.0,0,1,0,1,4,5,0,16.28,0.00,26.68,
19.673,120.36052167998676,92.3808394450001,-2.0,0.0,-1.0,0,1,0,1,4,5,0,16.28,0.00,26.68,
19.687,120.36905216799869,92.42508394450002,-2.0,0.0,-1.0,0,1,0,1,4,5,0,16.28,0.00,26.78,
19.701,120.30690521679986,92.46550839445,-2.0,0.0,-1.0,0,1,0,1,4,5,0,16.28,0.00,26.78,
19.716,120.27369052167998,92.45155083944499,-2.0,0.0,-1.0,0,1,0,1,4,5,0,16.28,0.00,26.88,
19.73,120.252369052168,92.4501550839445,-2.0,0.0,-1.0,0,1,0,1,4,5,0,16.19,0.00,26.68,
19.744,120.2412369052168,92.44101550839444,-2.0,0.0,-1.0,0,1,0,1,4,5,0,16.38,0.00,26.59,
19.759,120.24012369052167,92.36810155083944,-2.0,0.0,-1.0,0,1,0,1,4,5,0,16.38,0.00,26.88,
19.773,120.22201236905217,92.36081015508394,-2.0,0.0,-1.0,0,1,0,1,4,5,0,16.28,0.00,27.37,
19.787,120.22920123690523,92.33308101550838,-2.0,0.0,-1.0,0,1,0,1,4,5,0,16.28,0.00,27.37,
19.802,120.19392012369053,92.31230810155084,-2.0,0.0,-1.0,0,1,0,1,4,5,0,16.38,0.00,27.47,
19.816,120.17239201236906,92.34623081015508,-2.0,0.0,-1.0,0,1,0,1,4,5,0,16.38,0.00,27.47,
19.83,120.15223920123691,92.3496230810155,-2.0,0.0,-1.0,0,1,0,1,4,5,0,16.48,0.00,27.47,
19.845,120.13222392012369,92.33196230810154,-2.0,0.0,-1.0,0,1,0,1,4,5,0,16.48,0.00,27.17,
19.859,120.13922239201237,92.32119623081014,-2.0,0.0,0.0,0,1,0,1,4,5,0,16.58,0.00,26.78,
19.872,120.14892223920124,92.329119623081,-1.0,0.0,-1.0,0,1,0,1,4,5,0,16.48,0.00,26.49,
19.887,120.15889222392013,92.37491196230809,-2.0,0.0,0.0,0,1,0,1,4,5,0,16.38,0.00,26.88,
19.901,120.17788922239201,92.31649119623081,-2.0,0.0,-1.0,0,1,0,1,4,5,0,16.38,0.00,27.27,
19.915,120.18878892223921,92.31964911962308,-2.0,0.0,-1.0,0,1,0,1,4,5,0,16.38,0.00,27.37,
19.93,120.18087889222393,92.33796491196232,-2.0,0.0,-1.0,0,1,0,1,4,5,0,16.28,0.00,27.76,
19.944,120.20708788922238,92.31279649119624,-2.0,0.0,-1.0,0,1,0,1,4,5,0,16.38,0.00,27.66,
19.958,120.23670878892223,92.31027964911962,-2.0,0.0,-1.0,0,1,0,1,4,5,0,16.38,0.10,27.86,
19.973,120.23967087889221,92.32802796491195,-2.0,0.0,-1.0,0,1,0,1,4,5,0,16.38,0.00,27.76,
19.987,120.29396708788921,92.27580279649118,-2.0,0.0,-1.0,0,1,0,1,4,5,0,16.38,0.00,27.66,
20.001,120.22739670878893,92.29758027964911,-2.0,0.0,-1.0,0,1,0,1,4,5,0,16.48,0.00,27.37,
20.016,120.2027396708789,92.28175802796491,-2.0,0.0,0.0,0,1,0,1,4,5,0,16.48,0.00,27.17,
20.029,120.2002739670879,92.26217580279649,-2.0,0.0,-1.0,0,1,0,1,4,5,0,16.58,0.00,27.17,
20.043,120.20002739670879,92.31421758027965,-2.0,0.0,-1.0,0,1,0,1,4,5,0,16.48,0.00,27.08,
20.058,120.23600273967087,92.31942175802796,-2.0,0.0,-1.0,0,1,0,1,4,5,0,16.58,0.00,27.08,
20.072,120.2486002739671,92.2929421758028,-2.0,0.0,-1.0,0,1,0,1,4,5,0,16.68,0.00,27.27,
20.086,120.29486002739671,92.29029421758028,-2.0,0.0,-1.0,0,1,0,1,4,5,0,16.58,0.00,27.37,
20.101,120.28148600273968,92.27202942175802,-2.0,0.0,-1.0,0,1,0,1,4,5,0,16.48,0.00,27.47,
20.115,120.29814860027396,92.30620294217582,-2.0,0.0,-1.0,0,1,0,1,4,5,0,16.68,0.00,27.47,
20.129,120.30881486002741,92.2826202942176,-2.0,0.0,-1.0,0,1,0,1,4,5,0,16.58,0.00,27.47,
20.144,120.26488148600275,92.29826202942175,-2.0,0.0,-1.0,0,1,0,1,4,5,0,16.58,0.00,27.47,
20.158,120.26948814860026,92.31782620294217,-2.0,0.0,-1.0,0,1,0,1,4,5,0,16.78,0.00,27.47,
20.172,120.26994881486002,92.3197826202942,-2.0,0.0,0.0,0,1,0,1,4,5,0,16.78,0.00,27.47,
20.187,120.23399488148601,92.40097826202941,-2.0,0.0,0.0,0,1,0,1,4,5,0,16.78,0.00,27.37,
20.2,120.2303994881486,92.44509782620294,-2.0,0.0,-1.0,0,1,0,1,4,5,0,16.78,0.00,27.27,
20.214,120.28403994881486,92.4405097826203,-2.0,0.0,-1.0,0,1,0,1,4,5,0,16.78,0.00,27.27,
20.229,120.2894039948815,92.43105097826204,-2.0,0.0,-1.0,0,1,0,1,4,5,0,16.87,0.00,27.47,
20.243,120.28094039948816,92.40310509782621,-2.0,0.0,-1.0,0,1,0,1,4,5,0,16.87,0.00,27.37,
20.257,120.2440940399488,92.40031050978263,-2.0,0.0,-1.0,0,1,0,1,4,5,0,16.78,0.00,27.37,
20.272,120.24940940399489,92.40003105097827,-2.0,0.0,-1.0,0,1,0,1,4,5,0,16.68,0.00,27.96,
20.286,120.2499409403995,92.37300310509784,-2.0,0.0,-1.0,0,1,0,1,4,5,0,16.68,2.75,27.37,
20.3,120.29499409403994,92.30730031050977,-2.0,0.0,-1.0,0,1,0,1,4,5,0,16.78,0.00,27.47,
20.315,120.398499409404,92.27373003105097,-2.0,0.0,-1.0,0,1,0,1,4,5,0,16.78,0.00,27.57,
20.329,120.3908499409404,92.3423730031051,-2.0,0.0,-1.0,0,1,0,1,4,5,0,16.78,0.00,27.57,
20.343,120.39908499409405,92.3492373003105,-2.0,0.0,-1.0,0,1,0,1,4,5,0,16.78,0.00,27.76,
20.358,120.39990849940942,92.38592373003104,-2.0,0.0,-1.0,0,1,0,1,4,5,0,16.78,0.00,27.47,
20.372,120.38199084994093,92.4435923730031,-2.0,0.0,-1.0,0,1,0,1,4,5,0,16.78,0.00,27.17,
20.385,120.3441990849941,92.39535923730031,-2.0,0.0,-1.0,0,1,0,1,4,5,0,16.87,0.00,27.17,
20.4,120.3044199084994,92.40853592373003,-2.0,0.0,-1.0,0,1,0,1,4,5,0,16.87,0.00,27.17,
20.414,120.33644199084995,92.37385359237301,-2.0,0.0,-1.0,0,1,0,1,4,5,0,16.87,0.00,27.37,
20.428,120.34864419908499,92.40638535923729,-2.0,0.0,-1.0,0,1,0,1,4,5,0,16.78,0.00,27.37,
20.443,120.3318644199085,92.47263853592372,-2.0,0.0,-1.0,0,1,0,1,4,5,0,16.87,0.00,27.57,
20.457,120.32118644199085,92.47926385359237,-2.0,0.0,-1.0,0,1,0,1,4,5,0,16.87,0.00,27.47,
20.471,120.35611864419909,92.47992638535924,-2.0,0.0,-1.0,0,1,0,1,4,5,0,16.87,0.00,27.37,
20.486,120.29661186441992,92.52499263853592,-2.0,0.0,-1.0,0,1,0,1,4,5,0,16.97,0.00,27.27,
20.5,120.29966118644198,92.5564992638536,-2.0,0.0,-1.0,0,1,0,1,4,5,0,16.87,0.00,27.37,
20.514,120.2549661186442,92.50564992638536,-2.0,0.0,0.0,0,1,0,1,4,5,0,16.87,0.00,27.47,
20.529,120.25049661186442,92.44656499263853,-2.0,0.0,-1.0,0,1,0,1,4,5,0,16.97,0.00,27.47,
20.543,120.28604966118645,92.43165649926387,-2.0,0.0,-1.0,0,1,0,1,4,5,0,17.07,0.00,27.17,
20.557,120.30760496611865,92.44816564992638,-2.0,0.0,-1.0,0,1,0,1,4,5,0,17.07,0.00,27.27,
20.571,120.32776049661186,92.47681656499263,-2.0,0.0,-1.0,0,1,0,1,4,5,0,17.07,0.00,27.57,
20.585,120.31177604966119,92.46168165649925,-2.0,0.0,-1.0,0,1,0,1,4,5,0,16.97,0.49,27.57,
20.599,120.27417760496611,92.46016816564992,-2.0,0.0,-1.0,0,1,0,1,4,5,0,17.07,0.39,27.47,
20.614,120.27941776049661,92.36101681656498,-2.0,0.0,-1.0,0,1,0,1,4,5,0,17.07,0.00,27.27,
20.628,120.26194177604967,92.37810168165649,-2.0,0.0,-1.0,0,1,0,1,4,5,0,17.07,0.00,27.27,
20.642,120.30519417760497,92.41581016816565,-2.0,0.0,-1.0,0,1,0,1,4,5,0,17.07,0.00,27.27,
20.657,120.33651941776051,92.41058101681656,-2.0,0.0,-1.0,0,1,0,1,4,5,0,16.97,0.00,27.37,
20.671,120.41165194177604,92.40105810168167,-2.0,0.0,-1.0,0,1,0,1,4,5,0,17.07,0.00,27.47,
20.685,120.41016519417761,92.37310581016817,-2.0,0.0,-1.0,0,1,0,1,4,5,0,17.07,0.00,27.47,
20.7,120.36501651941775,92.39731058101682,-2.0,0.0,-1.0,0,1,0,1,4,5,0,17.07,0.00,27.37,
20.714,120.38750165194178,92.41773105810168,-2.0,0.0,-1.0,0,1,0,1,4,5,0,17.07,0.00,27.47,
20.728,120.45275016519417,92.41977310581017,-2.0,0.0,0.0,0,1,0,1,4,5,0,17.07,0.00,27.37,
20.743,120.5582750165194,92.53697731058102,-2.0,0.0,0.0,0,1,0,1,4,5,0,16.97,0.00,27.27,
20.756,120.65882750165194,92.5486977310581,-2.0,0.0,-1.0,0,1,0,1,4,5,0,16.97,0.00,27.27,
20.77,120.5968827501652,92.57686977310581,-2.0,0.0,0.0,0,1,0,1,4,5,0,17.07,0.00,27.37,
20.785,120.5726882750165,92.54368697731059,-2.0,0.0,-1.0,0,1,0,1,4,5,0,16.97,0.00,27.17,
20.799,120.50726882750165,92.55836869773105,-2.0,0.0,0.0,0,1,0,1,4,5,0,16.97,0.00,27.17,
20.813,120.48272688275017,92.5238368697731,-2.0,0.0,-1.0,0,1,0,1,4,5,0,16.97,0.00,27.27,
20.828,120.50727268827502,92.51138368697731,-2.0,0.0,-1.0,0,1,0,1,4,5,0,16.97,0.00,26.98,
20.842,120.5007272688275,92.46513836869772,-2.0,0.0,-1.0,0,1,0,1,4,5,0,16.97,0.00,27.17,
20.856,120.47307272688275,92.47851383686977,-2.0,0.0,0.0,0,1,0,1,4,5,0,16.97,0.00,27.08,
20.871,120.40730727268829,92.50685138368698,-2.0,0.0,-1.0,0,1,0,1,4,5,0,16.97,0.00,26.98,
20.884,120.41873072726882,92.4556851383687,-2.0,0.0,-1.0,0,1,0,1,4,5,0,17.07,0.00,26.98,
20.898,120.41987307272689,92.49556851383687,-2.0,0.0,-1.0,0,1,0,1,4,5,0,16.97,0.00,26.88,
20.913,120.41098730727269,92.41855685138368,-2.0,0.0,0.0,0,1,0,1,4,5,0,16.97,0.00,26.98,
20.927,120.40109873072728,92.48285568513836,-2.0,0.0,-1.0,0,1,0,1,4,5,0,17.07,0.00,27.17,
20.941,120.41810987307272,92.39928556851383,-2.0,0.0,-1.0,0,1,0,1,4,5,0,17.17,0.00,26.78,
20.956,120.45581098730727,92.4269285568514,-2.0,0.0,-1.0,0,1,0,1,4,5,0,17.27,0.00,26.59,
20.97,120.45958109873072,92.43869285568513,-2.0,0.0,-1.0,0,1,0,1,4,5,0,17.27,0.00,26.68,
20.984,120.47795810987307,92.4128692855685,-2.0,0.0,-1.0,0,1,0,1,4,5,0,17.27,0.00,26.78,
20.999,120.42579581098731,92.41928692855684,-2.0,0.0,-1.0,0,1,0,1,4,5,0,17.27,0.00,26.88,
21.013,120.43857958109874,92.37492869285569,-2.0,0.0,0.0,0,1,0,1,4,5,0,17.17,0.00,27.17,
21.027,120.43985795810987,92.36149286928557,-2.0,0.0,-1.0,0,1,0,1,4,5,0,17.17,0.00,27.17,
21.042,120.41298579581098,92.36014928692855,-2.0,0.0,0.0,0,1,0,1,4,5,0,17.27,0.00,26.68,
