time,pitch,roll,gyrx,gyry,gyrz,f1,f2,f3,f4,f5,f6,f7,g1,g2,g3
0.419,59.83,63.01,-2.63,-1.35,1.11,0.0,0.0,0.0,0.0,0.0,1.0,0.0,0.0,0.0,0.49,
0.443,66.238,69.544,-5.34,-0.6,2.44,0.0,0.0,0.0,0.0,0.0,1.0,0.0,0.0,0.0,0.2,
0.466,72.2968,75.7594,-3.32,-1.73,-0.84,0.0,0.0,0.0,0.0,0.0,1.0,0.0,0.0,0.0,0.39,
0.49,77.73568,81.00694000000001,-0.78,-2.95,-3.6,0.0,0.0,0.0,0.0,0.0,1.0,0.0,0.0,0.0,0.69,
0.514,82.446568,85.644694,-4.21,-1.38,-0.62,0.0,0.0,0.0,0.0,0.0,1.0,0.0,0.0,0.0,0.78,
0.537,86.5086568,89.86146939999999,-7.11,0.78,3.24,0.0,0.0,0.0,0.0,0.0,1.0,0.0,0.0,0.0,0.78,
0.562,89.62386568,93.29814694000001,-1.97,-0.32,2.7,0.0,0.0,0.0,0.0,0.0,1.0,0.0,0.0,0.0,0.59,
0.585,92.266386568,95.99981469400001,-2.18,-1.68,-0.18,0.0,0.0,0.0,0.0,0.0,1.0,0.0,0.0,0.0,0.29,
0.609,94.5196386568,98.3849814694,-5.42,-1.41,-0.91,0.0,0.0,0.0,0.0,0.0,1.0,0.0,0.0,0.0,0.39,
0.632,96.54496386568,100.55849814694,-3.37,-1.62,-0.72,0.0,0.0,0.0,0.0,0.0,1.0,0.0,0.0,0.0,0.78,
0.656,98.241496386568,102.404849814694,-1.34,-2.18,0.1,0.0,0.0,0.0,0.0,0.0,1.0,0.0,0.0,0.0,0.88,
0.68,99.69814963865679,103.8404849814694,-3.61,-2.54,0.35,0.0,0.0,0.0,0.0,0.0,1.0,0.0,0.0,0.0,0.78,
0.704,100.93281496386567,105.00104849814694,-4.05,-1.46,0.37,0.0,0.0,0.0,0.0,0.0,1.0,0.0,0.0,0.0,0.59,
0.728,101.93828149638657,106.05310484981469,-2.51,-1.27,-0.36,0.0,0.0,0.0,0.0,0.0,1.0,0.0,0.0,0.0,0.39,
0.751,102.95682814963865,107.14831048498147,-3.17,-1.12,0.11,0.0,0.0,0.0,0.0,0.0,1.0,0.0,0.0,0.0,0.49,
0.776,103.65268281496387,107.96883104849815,-3.63,-1.04,1.27,0.0,0.0,0.0,0.0,0.0,1.0,0.0,0.0,0.0,0.78,
0.799,104.19926828149639,108.65388310484981,-2.19,-1.2,0.79,0.0,0.0,0.0,0.0,0.0,1.0,0.0,0.0,0.0,1.08,
0.823,104.79392682814964,109.28038831048497,-2.32,-1.65,0.08,0.0,0.0,0.0,0.0,0.0,1.0,0.0,0.0,0.0,0.78,
0.846,105.35739268281496,109.77503883104849,-3.12,-1.15,1.05,0.0,0.0,0.0,0.0,0.0,1.0,0.0,0.0,0.0,0.69,
0.871,105.75573926828149,110.13950388310485,-3.32,-0.86,1.11,0.0,0.0,0.0,0.0,0.0,1.0,0.0,0.0,0.0,0.59,
0.894,105.99357392682813,110.35595038831048,-2.74,-1.05,-0.35,0.0,0.0,0.0,0.0,0.0,1.0,0.0,0.0,0.0,0.78,
0.918,106.29635739268281,110.54859503883104,-3.73,-1.69,-0.95,0.0,0.0,0.0,0.0,0.0,1.0,0.0,0.1,0.0,0.88,
0.943,106.5876357392683,110.7748595038831,-3.55,-1.87,-0.44,0.0,0.0,0.0,0.0,0.0,1.0,0.0,0.0,0.0,1.08,
0.966,106.90476357392683,110.98648595038831,-1.56,-1.34,-0.44,0.0,0.0,0.0,0.0,0.0,1.0,0.0,0.0,0.0,1.08,
0.99,107.12547635739269,111.16064859503884,-2.93,-0.73,-0.34,0.0,0.0,0.0,0.0,0.0,1.0,0.0,0.0,0.0,0.78,
1.014,107.17454763573927,111.30406485950388,-5.86,-0.6,0.32,0.0,0.0,0.0,0.0,0.0,1.0,0.0,0.0,0.0,0.69,
1.038,107.15245476357393,111.54340648595038,-2.82,-1.49,-1.13,0.0,0.0,0.0,0.0,0.0,1.0,0.0,0.0,0.0,0.88,
1.061,107.3212454763574,111.84634064859503,-1.78,-2.06,-1.45,0.0,0.0,0.0,0.0,0.0,1.0,0.0,0.0,0.0,1.28,
1.086,107.38312454763573,112.0476340648595,-4.18,-0.95,0.31,0.0,0.0,0.0,0.0,0.0,1.0,0.0,0.0,0.0,1.18,
1.11,107.39831245476358,112.03176340648595,-3.72,-0.31,1.08,0.0,0.0,0.0,0.0,0.0,1.0,0.0,0.0,0.0,1.08,
1.133,107.45383124547635,111.92217634064859,-2.21,-1.0,-1.08,0.0,0.0,0.0,0.0,0.0,1.0,0.0,0.0,0.0,0.88,
1.158,107.54938312454763,111.88421763406485,-3.98,-0.67,0.33,0.0,0.0,0.0,0.0,0.0,1.0,0.0,0.0,0.0,0.98,
1.181,107.49593831245475,111.79042176340648,-5.05,-0.6,1.85,0.0,0.0,0.0,0.0,0.0,1.0,0.0,0.0,0.0,1.18,
1.205,107.46359383124548,111.73604217634065,-2.69,-1.69,-0.24,0.0,0.0,0.0,0.0,0.0,1.0,0.0,0.0,0.0,1.47,
1.228,107.38835938312454,111.68560421763408,-2.6,-2.1,-1.86,0.0,0.0,0.0,0.0,0.0,1.0,0.0,0.0,0.0,1.18,
1.253,107.57883593831245,111.8875604217634,-5.0,-0.96,0.56,0.0,0.0,0.0,0.0,0.0,1.0,0.0,0.0,0.0,0.88,
1.276,107.61588359383124,111.98875604217633,-3.45,-1.02,2.42,0.0,0.0,0.0,0.0,0.0,1.0,0.0,0.0,0.0,0.88,
1.3,107.64658835938313,112.03487560421765,-1.81,-0.92,0.05,0.0,0.0,0.0,0.0,0.0,1.0,0.0,0.0,0.0,0.88,
1.325,107.73965883593831,112.20148756042177,-3.85,-0.43,-0.1,0.0,0.0,0.0,0.0,0.0,1.0,0.0,0.0,0.0,1.18,
1.348,107.81196588359383,112.34414875604217,-4.69,-0.2,1.56,0.0,0.0,0.0,0.0,0.0,1.0,0.0,0.0,0.0,1.37,
1.372,107.84619658835938,112.50241487560422,-0.87,-1.21,0.06,0.0,0.0,0.0,0.0,0.0,1.0,0.0,0.0,0.0,1.08,
1.396,107.89461965883595,112.64424148756042,0.66,-2.03,-1.53,0.0,0.0,0.0,0.0,0.0,1.0,0.0,0.0,0.0,0.78,
1.42,108.0164619658836,112.63142414875604,-2.08,-1.63,-0.03,0.0,0.0,0.0,0.0,0.0,1.0,0.0,0.0,0.0,0.78,
1.443,108.03764619658835,112.5131424148756,-4.16,-0.82,1.37,0.0,0.0,0.0,0.0,0.0,1.0,0.0,0.0,0.0,1.18,
1.467,107.94076461965885,112.27631424148757,-1.57,-1.31,0.19,0.0,0.0,0.0,0.0,0.0,1.0,0.0,0.0,0.0,0.2,
1.491,107.92207646196589,112.00963142414876,-1.75,-1.72,-1.76,0.0,0.0,0.0,0.0,0.0,1.0,0.0,0.0,0.0,0.39,
1.515,108.02820764619659,111.81196314241488,-6.66,-0.16,0.69,0.0,0.0,0.0,0.0,0.0,1.0,0.0,0.1,0.0,0.69,
1.539,108.02082076461966,111.52219631424148,-6.51,-0.3,2.83,0.0,0.0,0.0,0.0,0.0,1.0,0.0,0.0,0.0,0.88,
1.563,107.88508207646197,111.07021963142414,-6.47,-1.47,1.04,0.0,0.0,0.0,0.0,0.0,1.0,0.0,0.0,0.0,0.49,
1.587,107.7905082076462,110.46702196314243,-9.94,-1.78,-0.66,0.0,0.0,0.0,0.0,0.0,1.0,0.0,0.0,0.0,0.1,
1.61,107.58305082076461,109.45270219631425,-14.88,-2.87,-1.08,0.0,0.0,0.0,0.0,0.0,1.0,0.0,0.0,0.0,0.1,
1.635,107.46330508207646,108.36127021963142,-21.46,-3.1,-2.97,0.0,0.0,0.0,0.0,0.0,1.0,0.0,0.0,0.0,0.78,
1.658,107.25333050820765,107.23512702196314,-28.14,-4.15,-3.29,0.0,0.0,0.0,0.0,0.0,1.0,0.0,0.0,0.0,1.08,
1.683,107.12433305082077,106.01551270219632,-34.65,-4.3,-4.56,0.0,0.0,0.0,0.0,0.0,1.0,0.0,0.0,0.0,0.88,
1.707,106.85043330508206,104.69655127021963,-40.07,-6.2,-5.85,0.0,0.0,0.0,0.0,0.0,1.0,0.0,0.0,0.0,1.08,
1.731,106.41804333050821,103.19665512702197,-47.72,-7.33,-9.05,0.0,0.0,0.0,0.0,0.0,1.0,0.0,0.0,0.0,0.88,
1.755,106.14080433305081,101.79566551270219,-56.89,-8.43,-9.59,0.0,0.0,0.0,0.0,0.0,1.0,0.0,0.0,0.0,0.69,
1.778,106.22108043330508,100.78256655127022,-66.56,-9.13,-6.55,0.0,0.0,0.0,0.0,0.0,1.0,0.0,0.1,0.0,0.98,
1.803,106.4271080433305,100.29425665512701,-71.12,-8.41,1.02,0.0,0.0,0.0,0.0,0.0,1.0,0.0,0.2,0.0,1.28,
1.826,106.49271080433306,99.75942566551271,-67.79,-8.58,7.13,0.0,0.0,0.0,0.0,0.0,0.0,0.0,0.2,0.0,1.18,
1.851,106.1482710804333,98.91394256655127,-59.16,-9.64,7.89,0.0,0.0,0.0,0.0,0.0,1.0,0.0,0.2,0.0,1.18,
1.874,105.59182710804333,97.74939425665514,-56.22,-11.32,-0.21,0.0,0.0,0.0,0.0,0.0,1.0,0.0,0.2,0.0,0.59,
1.898,105.24818271080433,96.63393942566552,-61.82,-9.98,-7.85,0.0,0.0,0.0,0.0,0.0,0.0,0.0,0.29,0.0,0.59,
1.923,105.59181827108043,95.88339394256656,-67.35,-10.5,-11.07,0.0,0.0,0.0,0.0,0.0,0.0,0.0,0.29,0.0,1.47,
1.946,105.73418182710803,95.20533939425665,-63.94,-9.92,-3.92,0.0,0.0,0.0,0.0,0.0,0.0,0.0,0.59,0.0,1.57,
1.971,105.4874181827108,94.55253393942567,-57.91,-8.38,2.2,0.0,0.0,0.0,0.0,0.0,0.0,0.0,0.69,0.0,0.69,
1.994,105.37274181827108,93.86625339394257,-50.98,-8.97,2.12,0.0,0.0,0.0,0.0,0.0,0.0,0.0,0.78,0.0,0.88,
2.018,105.0462741818271,93.83362533939426,-51.05,-12.66,0.24,0.0,0.0,0.0,0.0,0.0,1.0,0.0,1.08,0.0,1.08,
2.041,104.5456274181827,94.92836253393942,-58.31,-3.75,3.57,0.0,0.0,0.0,0.0,0.0,0.0,0.0,1.18,0.0,0.98,
2.066,103.94656274181827,96.45983625339395,-60.56,2.93,7.02,0.0,0.0,0.0,0.0,0.0,0.0,0.0,1.47,0.0,1.37,
2.089,103.27465627418184,97.5759836253394,-57.84,1.91,3.28,0.0,0.0,0.0,0.0,0.0,0.0,0.0,1.37,0.0,1.28,
2.113,107.71646562741817,103.96959836253394,46.15,-89.24,-61.75,0.0,0.0,0.0,0.0,0.0,1.0,0.0,1.77,0.0,1.37,
2.138,103.70564656274183,97.88595983625338,-48.65,-24.15,9.71,1.0,0.0,0.0,1.0,0.0,0.0,0.0,7.75,0.0,0.59,
2.161,100.68556465627418,94.37059598362535,3.03,2.31,-14.13,0.0,0.0,0.0,0.0,0.0,0.0,0.0,6.38,0.88,0.0,
2.185,102.73255646562743,93.20005959836253,-3.6,5.63,-6.34,0.0,0.0,0.0,0.0,0.0,0.0,0.0,4.51,0.39,0.0,
2.209,105.24125564656275,92.96600595983625,-1.06,4.58,-5.78,1.0,0.0,0.0,0.0,0.0,0.0,0.0,3.92,0.0,0.0,
2.233,107.49012556465627,93.29360059598362,-9.16,-10.09,7.7,0.0,0.0,0.0,0.0,0.0,0.0,0.0,4.32,0.0,0.0,
2.256,105.73501255646563,91.57136005959836,-19.92,-19.85,14.7,1.0,0.0,0.0,1.0,0.0,1.0,0.0,5.0,0.39,3.24,
2.281,103.63350125564656,89.93213600595985,-5.41,-3.97,-0.89,1.0,0.0,0.0,1.0,0.0,1.0,0.0,5.69,1.37,2.84,
2.305,103.30635012556465,89.15621360059598,-1.73,5.4,-2.66,1.0,0.0,0.0,1.0,0.0,1.0,0.0,6.28,1.77,1.47,
2.329,103.89463501255645,88.79062136005959,-4.06,3.07,0.74,1.0,0.0,0.0,1.0,0.0,1.0,0.0,6.18,1.67,1.77,
2.353,104.11546350125565,88.22306213600595,-6.66,-3.94,4.72,2.0,0.0,0.0,1.0,0.0,1.0,0.0,6.28,1.37,1.77,
2.376,103.76854635012556,87.5993062136006,-5.48,-5.23,3.02,2.0,0.0,0.0,1.0,0.0,1.0,0.0,6.67,1.57,1.67,
2.401,103.31985463501255,87.11393062136005,-3.88,-2.78,1.39,2.0,0.0,0.0,1.0,0.0,1.0,0.0,7.16,1.86,1.18,
2.424,103.19398546350126,86.86739306213602,-3.89,-1.08,1.6,2.0,0.0,0.0,1.0,0.0,1.0,0.0,7.26,1.96,0.98,
2.448,103.17239854635014,86.5637393062136,-3.65,-1.28,3.31,2.0,0.0,0.0,1.0,0.0,1.0,0.0,7.36,1.96,0.98,
2.472,103.00823985463501,86.13737393062137,-3.29,-3.01,3.24,2.0,0.0,0.0,1.0,0.0,1.0,0.0,7.36,1.96,0.59,
2.496,102.73982398546349,85.90573739306214,-3.55,-3.21,1.0,2.0,0.0,0.0,2.0,0.0,1.0,0.0,7.36,2.06,1.37,
2.52,102.63198239854636,85.67557373930622,-4.41,-2.37,-0.45,2.0,0.0,0.0,2.0,0.0,1.0,0.0,7.26,2.16,0.78,
2.544,102.45019823985464,85.43655737393063,-3.48,-1.32,0.0,3.0,0.0,0.0,2.0,0.0,1.0,0.0,7.26,2.26,1.08,
2.568,102.41401982398546,85.38565573739307,-2.95,-0.71,0.05,3.0,0.0,0.0,2.0,0.0,1.0,0.0,7.36,2.26,0.59,
2.591,102.40140198239855,85.27256557373931,-3.21,-0.57,0.78,3.0,0.0,0.0,2.0,0.0,1.0,0.0,7.46,2.35,0.39,
2.616,102.39114019823985,85.18925655737394,-3.05,-1.24,1.52,3.0,0.0,0.0,2.0,0.0,1.0,0.0,7.55,2.35,0.78,
2.639,102.26411401982399,85.0729256557374,-2.89,-1.58,1.36,3.0,0.0,0.0,2.0,0.0,1.0,0.0,7.75,2.35,0.78,
2.663,102.2244114019824,84.97129256557373,-3.18,-0.14,1.16,3.0,0.0,0.0,2.0,0.0,1.0,0.0,7.85,2.35,0.98,
2.688,102.21144114019823,84.92512925655737,-2.87,-0.44,1.89,3.0,0.0,0.0,2.0,0.0,1.0,0.0,7.95,2.35,0.78,
2.711,102.30014411401983,84.96551292565573,-2.71,-0.64,1.41,3.0,0.0,0.0,2.0,0.0,1.0,0.0,8.04,2.35,0.69,
2.735,102.33601441140199,84.97855129256557,-3.11,-1.39,1.7,3.0,0.0,0.0,2.0,0.0,1.0,0.0,8.04,2.45,0.88,
2.758,102.3666014411402,84.86285512925654,-3.07,-2.08,1.6,3.0,0.0,0.0,2.0,0.0,1.0,0.0,8.04,2.45,0.88,
2.783,102.306660144114,84.76128551292565,-2.97,-2.08,1.45,3.0,0.0,0.0,2.0,0.0,1.0,0.0,8.04,2.45,1.08,
2.806,102.1926660144114,84.71512855129255,-3.05,-2.18,0.69,3.0,0.0,0.0,2.0,0.0,1.0,0.0,8.04,2.45,0.98,
2.83,102.21726660144114,84.70151285512925,-3.04,-1.91,0.7,3.0,0.0,0.0,2.0,0.0,1.0,0.0,8.24,2.45,0.98,
2.854,102.17472666014412,84.72715128551293,-2.79,-2.43,0.98,3.0,0.0,0.0,2.0,0.0,1.0,0.0,8.34,2.45,0.78,
2.878,102.12547266601442,84.69371512855129,-3.08,-2.74,0.65,3.0,0.0,0.0,2.0,0.0,1.0,0.0,8.44,2.35,0.78,
2.902,102.03954726660143,84.72637151285514,-3.49,-1.89,0.74,3.0,0.0,0.0,2.0,0.0,1.0,0.0,8.53,2.35,0.88,
2.926,101.94095472666015,84.70263715128551,-3.89,-0.95,0.92,3.0,0.0,0.0,2.0,0.0,1.0,0.0,8.53,2.35,1.18,
2.95,101.87709547266601,84.62826371512855,-3.66,-0.5,0.9,3.0,0.0,0.0,2.0,0.0,1.0,0.0,8.53,2.35,0.98,
2.973,101.92470954726662,84.62982637151285,-3.26,-1.06,0.34,3.0,0.0,0.0,2.0,0.0,1.0,0.0,8.53,2.55,1.28,
2.998,101.97447095472667,84.57598263715128,-2.98,-1.44,-0.1,3.0,0.0,0.0,2.0,0.0,1.0,0.0,8.44,2.45,0.98,
3.021,101.96144709547266,84.57059826371513,-2.77,-1.71,-0.34,3.0,0.0,0.0,2.0,0.0,1.0,0.0,8.34,2.45,0.98,
3.045,101.96914470954727,84.62405982637151,-2.92,-1.58,-0.17,4.0,0.0,0.0,2.0,0.0,1.0,0.0,8.34,2.45,1.08,
3.069,101.94291447095472,84.69240598263715,-2.74,-1.21,-0.27,4.0,0.0,0.0,2.0,0.0,1.0,0.0,8.24,2.35,1.08,
3.093,101.93129144709548,84.69024059826371,-2.91,-0.95,0.05,4.0,0.0,0.0,2.0,0.0,1.0,0.0,8.24,2.45,1.28,
3.118,101.98412914470954,84.68102405982637,-2.67,-1.05,0.22,4.0,0.0,0.0,2.0,0.0,1.0,0.0,8.14,2.45,0.2,
3.141,101.99841291447095,84.67110240598264,-2.78,-0.98,-0.11,4.0,0.0,0.0,2.0,0.0,1.0,0.0,8.14,2.35,0.29,
3.165,101.9998412914471,84.67911024059826,-2.66,-1.16,-0.01,4.0,0.0,0.0,2.0,0.0,1.0,0.0,8.14,2.26,0.1,
3.189,102.02698412914471,84.68891102405983,-2.78,-1.24,0.2,4.0,0.0,0.0,2.0,0.0,1.0,0.0,8.04,2.35,0.0,
3.213,102.04769841291447,84.68989110240598,-2.94,-1.34,0.12,4.0,0.0,0.0,2.0,0.0,1.0,0.0,7.95,2.16,0.1,
3.236,102.04976984129144,84.6989891102406,-3.02,-1.63,-0.02,4.0,0.0,0.0,2.0,0.0,1.0,0.0,7.95,2.16,0.39,
3.261,102.01397698412916,84.62789891102406,-2.69,-1.73,-0.17,4.0,0.0,0.0,2.0,0.0,1.0,0.0,7.95,2.16,0.59,
3.284,102.04639769841292,84.6387898911024,-2.76,-1.72,-0.09,4.0,0.0,0.0,2.0,0.0,1.0,0.0,7.95,2.16,0.69,
3.309,102.04963976984129,84.63087898911024,-3.07,-0.98,-0.11,4.0,0.0,0.0,2.0,0.0,1.0,0.0,7.95,2.16,0.49,
3.333,102.05896397698413,84.61208789891103,-3.12,-1.05,0.26,4.0,0.0,0.0,2.0,0.0,1.0,0.0,7.95,2.16,0.39,
3.356,102.03289639769841,84.6012087898911,-3.08,-0.76,0.19,4.0,0.0,0.0,2.0,0.0,1.0,0.0,7.95,2.26,0.39,
3.381,102.04828963976983,84.5911208789891,-3.29,-1.18,0.33,4.0,0.0,0.0,2.0,0.0,1.0,0.0,7.85,2.26,0.78,
3.404,102.05882896397698,84.55411208789891,-3.25,-1.53,-0.05,4.0,0.0,0.0,2.0,0.0,1.0,0.0,7.95,2.35,0.98,
3.428,102.0238828963977,84.53241120878988,-3.21,-1.73,-0.18,4.0,0.0,0.0,2.0,0.0,1.0,0.0,8.04,2.35,0.78,
3.452,102.02038828963977,84.55724112087898,-3.43,-1.37,0.14,4.0,0.0,0.0,2.0,0.0,1.0,0.0,8.04,2.45,0.69,
3.476,102.02903882896398,84.55972411208789,-3.45,-1.28,0.13,4.0,0.0,0.0,2.0,0.0,1.0,0.0,8.04,2.45,0.59,
3.5,102.02990388289639,84.5419724112088,-3.29,-1.09,0.14,4.0,0.0,0.0,2.0,0.0,1.0,0.0,8.04,2.45,0.59,
3.524,102.02099038828963,84.53119724112088,-2.9,-0.95,0.01,4.0,0.0,0.0,2.0,0.0,1.0,0.0,8.34,2.45,0.78,
3.548,101.97509903882896,84.58411972411209,-2.95,-0.53,0.37,4.0,0.0,0.0,2.0,0.0,1.0,0.0,8.24,2.45,0.88,
3.571,102.05150990388289,84.40941197241122,-2.95,-0.92,0.91,4.0,0.0,0.0,2.0,0.0,1.0,0.0,8.24,2.45,0.78,
3.596,102.05915099038829,84.34694119724112,-2.9,-0.92,0.95,4.0,0.0,0.0,2.0,0.0,1.0,0.0,8.14,2.45,0.49,
3.619,102.08691509903883,84.34069411972412,-2.85,-1.7,0.02,4.0,0.0,0.0,2.0,0.0,1.0,0.0,8.14,2.45,0.59,
3.643,102.08069150990389,84.37606941197241,-3.11,-1.83,-0.32,4.0,0.0,0.0,2.0,0.0,1.0,0.0,8.14,2.45,0.78,
3.667,102.03506915099038,84.39760694119725,-3.26,-1.81,-0.39,4.0,0.0,0.0,2.0,0.0,1.0,0.0,8.14,2.45,0.98,
3.691,102.01250691509905,84.44476069411974,-3.15,-2.02,-0.59,4.0,0.0,0.0,2.0,0.0,1.0,0.0,8.14,2.45,0.98,
3.715,102.0192506915099,84.49447606941197,-3.05,-1.65,-0.22,4.0,0.0,0.0,2.0,0.0,1.0,0.0,8.24,2.35,0.98,
3.739,102.01992506915099,84.51744760694119,-3.25,-1.03,0.17,4.0,0.0,0.0,2.0,0.0,1.0,0.0,8.04,2.35,0.69,
3.763,102.00199250691509,84.56474476069411,-3.37,-0.87,-0.02,4.0,0.0,0.0,2.0,0.0,1.0,0.0,8.04,2.35,0.78,
3.787,101.96419925069151,84.53347447606942,-2.98,-1.15,-0.12,4.0,0.0,0.0,2.0,0.0,1.0,0.0,8.14,2.35,0.88,
3.811,101.97841992506916,84.54834744760694,-2.86,-1.21,-0.15,4.0,0.0,0.0,2.0,0.0,1.0,0.0,8.04,2.45,0.88,
3.834,101.9708419925069,84.55883474476069,-3.12,-1.09,0.31,4.0,0.0,0.0,2.0,0.0,1.0,0.0,8.04,2.35,0.88,
3.859,102.03308419925071,84.55988347447607,-3.03,-1.27,0.44,4.0,0.0,0.0,2.0,0.0,1.0,0.0,8.04,2.35,0.69,
3.883,102.03030841992506,84.5689883474476,-3.09,-1.66,0.15,4.0,0.0,0.0,2.0,0.0,1.0,0.0,8.04,2.35,0.98,
3.906,102.03903084199251,84.55189883474476,-3.03,-1.76,-0.05,4.0,0.0,0.0,2.0,0.0,1.0,0.0,8.14,2.26,0.59,
3.931,102.01290308419927,84.56818988347447,-3.01,-1.49,-0.24,4.0,0.0,0.0,2.0,0.0,1.0,0.0,8.04,2.16,0.2,
3.954,101.98329030841994,84.54281898834746,-3.05,-1.02,0.28,4.0,0.0,0.0,2.0,0.0,1.0,0.0,8.04,2.26,0.29,
3.979,101.96232903084199,84.49528189883475,-3.28,-0.88,0.22,4.0,0.0,0.0,2.0,0.0,1.0,0.0,7.95,2.26,0.2,
4.002,101.9512329030842,84.44552818988348,-3.32,-0.77,0.15,4.0,0.0,0.0,2.0,0.0,1.0,0.0,7.95,2.26,0.29,
4.026,101.96812329030841,84.47655281898835,-2.94,-1.05,-0.15,4.0,0.0,0.0,2.0,0.0,1.0,0.0,7.95,2.35,0.39,
4.05,102.00581232903085,84.46165528189883,-3.07,-1.27,-0.09,4.0,0.0,0.0,2.0,0.0,1.0,0.0,8.04,2.35,0.49,
4.074,102.01858123290307,84.45116552818989,-3.18,-1.4,-0.33,4.0,0.0,0.0,2.0,0.0,1.0,0.0,7.95,2.35,0.49,
4.098,102.0468581232903,84.44111655281898,-3.24,-1.56,-0.35,4.0,0.0,0.0,2.0,0.0,1.0,0.0,8.04,2.35,0.39,
4.122,102.07668581232903,84.4851116552819,-3.15,-1.73,-0.26,4.0,0.0,0.0,2.0,0.0,1.0,0.0,8.04,2.45,0.69,
4.146,102.0256685812329,84.55251116552819,-3.19,-1.95,-0.15,4.0,0.0,0.0,2.0,0.0,1.0,0.0,8.04,2.45,0.78,
4.17,102.02056685812329,84.61325111655282,-3.15,-1.48,-0.15,4.0,0.0,0.0,2.0,0.0,1.0,0.0,8.14,2.35,0.78,
4.194,102.06505668581232,84.56532511165528,-3.11,-0.91,0.34,4.0,0.0,0.0,2.0,0.0,1.0,0.0,8.14,2.55,0.49,
4.217,102.04250566858124,84.49753251116553,-3.03,-0.81,0.47,4.0,0.0,0.0,2.0,0.0,1.0,0.0,8.14,2.55,0.29,
4.242,102.01325056685813,84.47275325111654,-2.92,-0.99,0.23,4.0,0.0,0.0,2.0,0.0,1.0,0.0,8.14,2.45,0.49,
4.265,102.0013250566858,84.44327532511164,-2.95,-1.31,-0.09,4.0,0.0,0.0,2.0,0.0,1.0,0.0,8.04,2.55,1.08,
4.289,102.06313250566858,84.38632753251116,-3.08,-1.31,-0.27,4.0,0.0,0.0,2.0,0.0,1.0,0.0,8.14,2.45,1.08,
4.314,102.07831325056685,84.45263275325111,-2.98,-1.5,-0.73,4.0,0.0,0.0,2.0,0.0,1.0,0.0,8.14,2.45,0.69,
4.337,102.08883132505669,84.4142632753251,-3.0,-1.73,-0.35,4.0,0.0,0.0,2.0,0.0,1.0,0.0,8.04,2.45,0.69,
4.362,102.03588313250566,84.48242632753251,-2.73,-1.44,0.0,4.0,0.0,0.0,2.0,0.0,1.0,0.0,8.14,2.45,0.88,
4.385,102.04858831325056,84.55224263275325,-3.12,-1.01,0.34,4.0,0.0,0.0,2.0,0.0,1.0,0.0,8.14,2.35,1.18,
4.409,102.04985883132505,84.57722426327533,-2.83,-0.81,0.61,4.0,0.0,0.0,2.0,0.0,1.0,0.0,8.04,2.45,1.18,
4.433,102.10398588313251,84.57072242632754,-3.03,-1.04,0.06,4.0,0.0,0.0,2.0,0.0,1.0,0.0,8.04,2.35,0.69,
4.457,102.09139858831325,84.52507224263275,-3.15,-1.22,-0.04,4.0,0.0,0.0,2.0,0.0,1.0,0.0,7.95,2.45,0.29,
4.481,102.03613985883132,84.49350722426327,-3.04,-1.56,0.06,4.0,0.0,0.0,2.0,0.0,1.0,0.0,7.95,2.35,0.49,
4.505,102.04861398588312,84.49935072242633,-2.99,-1.66,-0.61,4.0,0.0,0.0,2.0,0.0,1.0,0.0,7.95,2.35,0.59,
4.529,102.0228613985883,84.46393507224263,-2.92,-1.5,-0.4,4.0,0.0,0.0,2.0,0.0,1.0,0.0,7.95,2.35,0.88,
4.553,102.02028613985883,84.53239350722427,-2.88,-1.34,-0.08,4.0,0.0,0.0,2.0,0.0,1.0,0.0,7.95,2.45,1.28,
4.577,102.02902861398587,84.58423935072243,-3.16,-0.91,0.23,4.0,0.0,0.0,2.0,0.0,1.0,0.0,7.95,2.35,1.67,
4.6,102.02990286139858,84.58942393507225,-3.03,-0.65,0.45,4.0,0.0,0.0,2.0,0.0,1.0,0.0,7.95,2.35,0.98,
4.625,102.04799028613985,84.56294239350723,-3.08,-0.86,0.39,4.0,0.0,0.0,2.0,0.0,1.0,0.0,7.95,2.35,0.78,
4.648,102.07679902861398,84.56929423935073,-3.14,-1.17,-0.08,4.0,0.0,0.0,2.0,0.0,1.0,0.0,7.95,2.35,0.78,
4.672,102.0616799028614,84.55192942393506,-3.07,-1.24,-0.01,4.0,0.0,0.0,2.0,0.0,1.0,0.0,7.95,2.45,0.39,
4.697,102.07816799028613,84.5051929423935,-2.85,-1.24,-0.15,4.0,0.0,0.0,2.0,0.0,1.0,0.0,7.95,2.45,0.2,
4.72,102.0798167990286,84.52751929423934,-3.18,-1.42,-0.45,4.0,0.0,0.0,2.0,0.0,1.0,0.0,7.85,2.45,0.29,
4.745,102.13398167990286,84.56575192942393,-3.05,-1.6,-0.43,4.0,0.0,0.0,2.0,0.0,1.0,0.0,7.95,2.45,0.69,
4.768,102.14839816799028,84.5875751929424,-2.91,-1.49,-0.15,4.0,0.0,0.0,2.0,0.0,1.0,0.0,7.95,2.45,0.69,
4.792,102.12283981679903,84.64375751929424,-3.12,-1.33,-0.06,4.0,0.0,0.0,2.0,0.0,1.0,0.0,7.95,2.35,0.49,
4.816,102.0842839816799,84.65837575192943,-3.21,-0.83,0.56,4.0,0.0,0.0,2.0,0.0,1.0,0.0,7.95,2.35,0.29,
4.84,102.071428398168,84.61483757519294,-3.09,-1.15,0.28,4.0,0.0,0.0,2.0,0.0,1.0,0.0,7.85,2.35,0.39,
4.864,102.0611428398168,84.5474837575193,-2.89,-1.08,0.04,4.0,0.0,0.0,2.0,0.0,1.0,0.0,7.85,2.45,0.49,
4.888,102.06011428398168,84.52274837575193,-3.13,-1.19,0.05,4.0,0.0,0.0,2.0,0.0,1.0,0.0,7.95,2.35,0.59,
4.912,102.05101142839817,84.54727483757519,-3.02,-1.21,-0.2,4.0,0.0,0.0,2.0,0.0,1.0,0.0,7.95,2.35,0.69,
4.935,102.05010114283982,84.58572748375752,-2.77,-1.25,-0.24,4.0,0.0,0.0,2.0,0.0,1.0,0.0,7.95,2.35,0.69,
4.96,102.06801011428398,84.67057274837575,-2.93,-1.52,-0.27,4.0,0.0,0.0,2.0,0.0,1.0,0.0,7.95,2.35,0.69,
4.983,102.0968010114284,84.67905727483758,-3.04,-1.53,-0.34,4.0,0.0,0.0,2.0,0.0,1.0,0.0,7.95,2.45,0.78,
5.008,102.07268010114284,84.67990572748376,-3.18,-1.17,0.23,4.0,0.0,0.0,2.0,0.0,1.0,0.0,7.95,2.26,0.98,
5.031,102.07926801011428,84.66199057274838,-2.97,-1.15,0.41,4.0,0.0,0.0,2.0,0.0,1.0,0.0,7.95,2.26,0.78,
5.055,102.02592680101142,84.66919905727484,-3.1,-1.11,0.07,4.0,0.0,0.0,2.0,0.0,1.0,0.0,7.85,2.35,0.59,
5.08,102.06559268010113,84.66991990572748,-3.14,-1.24,-0.03,4.0,0.0,0.0,2.0,0.0,1.0,0.0,7.85,2.35,0.49,
5.103,102.06055926801011,84.69699199057276,-3.15,-1.66,-0.04,4.0,0.0,0.0,2.0,0.0,1.0,0.0,7.85,2.35,0.69,
5.127,102.11405592680102,84.65469919905728,-3.13,-1.53,-0.3,4.0,0.0,0.0,2.0,0.0,1.0,0.0,7.85,2.35,0.88,
5.151,102.1014055926801,84.62346991990573,-3.11,-1.46,-0.34,4.0,0.0,0.0,2.0,0.0,1.0,0.0,7.95,2.35,0.98,
5.175,102.08214055926801,84.61134699199057,-3.22,-1.56,-0.25,4.0,0.0,0.0,2.0,0.0,1.0,0.0,7.95,2.35,0.98,
5.198,102.1162140559268,84.61013469919905,-2.98,-1.28,0.08,4.0,0.0,0.0,2.0,0.0,1.0,0.0,7.95,2.35,0.88,
5.223,102.09262140559268,84.6280134699199,-3.27,-1.31,0.37,4.0,0.0,0.0,2.0,0.0,1.0,0.0,7.95,2.45,0.88,
5.246,102.09926214055926,84.593801346992,-3.15,-0.84,0.41,4.0,0.0,0.0,2.0,0.0,1.0,0.0,7.95,2.35,0.78,
5.27,102.04592621405594,84.5723801346992,-2.92,-0.92,0.07,4.0,0.0,0.0,2.0,0.0,1.0,0.0,7.95,2.35,0.78,
5.295,102.0225926214056,84.59723801346992,-2.94,-0.91,0.13,4.0,0.0,0.0,2.0,0.0,1.0,0.0,8.04,2.35,0.78,
5.318,102.03825926214057,84.635723801347,-3.08,-1.11,-0.06,4.0,0.0,0.0,2.0,0.0,1.0,0.0,7.95,2.45,0.88,
5.343,102.01282592621406,84.6485723801347,-3.09,-1.1,-0.07,4.0,0.0,0.0,2.0,0.0,1.0,0.0,7.95,2.35,0.88,
5.366,102.00128259262141,84.65885723801347,-3.05,-1.2,0.02,4.0,0.0,0.0,2.0,0.0,1.0,0.0,8.04,2.45,0.69,
5.39,102.00012825926214,84.64188572380135,-2.99,-1.5,-0.02,4.0,0.0,0.0,2.0,0.0,1.0,0.0,7.95,2.35,0.88,
5.414,102.05401282592621,84.63118857238014,-3.11,-1.24,-0.18,4.0,0.0,0.0,2.0,0.0,1.0,0.0,8.04,2.45,0.98,
5.438,102.04140128259263,84.61211885723802,-3.07,-1.23,0.21,4.0,0.0,0.0,2.0,0.0,1.0,0.0,8.04,2.35,1.08,
5.462,102.05814012825925,84.6012118857238,-3.1,-1.27,0.09,4.0,0.0,0.0,2.0,0.0,1.0,0.0,8.14,2.35,0.69,
5.486,102.02381401282592,84.59112118857237,-3.0,-1.06,-0.09,4.0,0.0,0.0,2.0,0.0,1.0,0.0,8.04,2.45,0.39,
5.51,101.99338140128259,84.57211211885723,-3.02,-1.27,0.03,4.0,0.0,0.0,2.0,0.0,1.0,0.0,8.04,2.45,0.2,
5.533,102.00833814012827,84.55221121188572,-2.92,-0.99,-0.09,4.0,0.0,0.0,2.0,0.0,1.0,0.0,7.95,2.35,0.2,
5.558,102.07283381401282,84.54122112118858,-3.05,-1.12,0.0,4.0,0.0,0.0,2.0,0.0,1.0,0.0,7.95,2.35,0.29,
5.581,102.07928338140128,84.58512211211885,-3.1,-1.24,-0.14,4.0,0.0,0.0,2.0,0.0,1.0,0.0,7.95,2.35,0.39,
5.605,102.09792833814012,84.59851221121188,-3.31,-1.07,0.02,4.0,0.0,0.0,2.0,0.0,1.0,0.0,7.85,2.35,0.59,
5.629,102.14479283381401,84.56385122112118,-3.15,-1.27,-0.07,4.0,0.0,0.0,2.0,0.0,1.0,0.0,7.95,2.35,0.78,
5.653,102.1584792833814,84.59638512211211,-2.96,-1.41,0.06,4.0,0.0,0.0,2.0,0.0,1.0,0.0,7.85,2.35,0.59,
5.677,102.16884792833814,84.59063851221121,-3.12,-1.41,-0.26,4.0,0.0,0.0,2.0,0.0,1.0,0.0,7.95,2.35,0.39,
5.701,102.17888479283381,84.60806385122112,-3.11,-1.32,-0.21,4.0,0.0,0.0,2.0,0.0,1.0,0.0,7.85,2.35,0.39,
5.725,102.18888847928338,84.58280638512211,-3.13,-0.81,-0.08,4.0,0.0,0.0,2.0,0.0,1.0,0.0,7.95,2.35,0.78,
5.749,102.18088884792834,84.62528063851221,-3.06,-0.87,0.37,4.0,0.0,0.0,2.0,0.0,1.0,0.0,7.95,2.35,0.69,
5.773,102.19808888479284,84.56652806385122,-3.22,-0.96,0.44,4.0,0.0,0.0,2.0,0.0,1.0,0.0,7.85,2.35,0.59,
5.796,102.14580888847928,84.56065280638512,-3.21,-1.33,0.08,4.0,0.0,0.0,2.0,0.0,1.0,0.0,7.85,2.45,0.49,
5.821,102.21258088884792,84.52406528063851,-3.13,-1.31,-0.06,4.0,0.0,0.0,2.0,0.0,1.0,0.0,7.85,2.45,0.39,
5.844,102.2552580888848,84.55640652806385,-3.22,-1.5,-0.13,4.0,0.0,0.0,2.0,0.0,1.0,0.0,7.95,2.35,0.69,
5.868,102.24152580888847,84.58664065280638,-2.89,-1.27,-0.26,4.0,0.0,0.0,2.0,0.0,1.0,0.0,7.95,2.35,0.78,
5.893,102.20415258088885,84.59866406528064,-3.15,-1.34,-0.14,4.0,0.0,0.0,2.0,0.0,1.0,0.0,7.95,2.45,0.88,
5.916,102.19141525808888,84.59986640652806,-3.16,-1.27,-0.08,4.0,0.0,0.0,2.0,0.0,1.0,0.0,7.85,2.35,0.78,
5.941,102.23514152580887,84.54598664065281,-3.12,-1.27,0.08,4.0,0.0,0.0,2.0,0.0,1.0,0.0,7.85,2.45,0.88,
5.964,102.21251415258088,84.54959866406529,-3.21,-1.41,-0.13,4.0,0.0,0.0,2.0,0.0,1.0,0.0,7.85,2.35,0.88,
5.988,102.19225141525808,84.55895986640652,-3.1,-1.31,0.05,4.0,0.0,0.0,2.0,0.0,1.0,0.0,7.95,2.35,0.88,
6.012,102.19022514152581,84.55089598664065,-3.11,-1.2,0.21,4.0,0.0,0.0,2.0,0.0,1.0,0.0,7.95,2.45,0.98,
6.036,102.18102251415259,84.55908959866406,-3.25,-0.87,0.1,4.0,0.0,0.0,2.0,0.0,1.0,0.0,8.04,2.45,0.98,
6.06,102.16210225141526,84.5329089598664,-2.99,-1.07,-0.15,4.0,0.0,0.0,2.0,0.0,1.0,0.0,7.95,2.35,0.78,
6.084,102.16021022514153,84.52129089598664,-3.08,-1.31,-0.08,4.0,0.0,0.0,2.0,0.0,1.0,0.0,8.04,2.35,0.78,
6.108,102.16902102251416,84.50212908959865,-3.05,-1.46,-0.31,4.0,0.0,0.0,2.0,0.0,1.0,0.0,8.04,2.35,0.88,
6.131,102.16990210225141,84.50021290895987,-3.02,-1.6,-0.34,4.0,0.0,0.0,2.0,0.0,1.0,0.0,7.95,2.35,0.98,
6.156,102.16999021022514,84.50002129089599,-2.79,-1.71,0.1,4.0,0.0,0.0,2.0,0.0,1.0,0.0,7.85,2.35,1.18,
6.179,102.16999902102252,84.5000021290896,-3.08,-1.34,0.18,4.0,0.0,0.0,2.0,0.0,1.0,0.0,7.85,2.35,1.08,
6.203,102.21499990210225,84.45500021290897,-3.08,-0.93,0.19,4.0,0.0,0.0,2.0,0.0,1.0,0.0,7.75,2.26,0.88,
6.227,102.21949999021022,84.5225000212909,-3.08,-0.98,0.15,4.0,0.0,0.0,2.0,0.0,1.0,0.0,7.85,2.35,0.78,
6.251,102.27394999902103,84.54725000212909,-3.11,-0.98,0.18,4.0,0.0,0.0,2.0,0.0,1.0,0.0,7.75,2.16,0.69,
6.275,102.2703949999021,84.5227250002129,-3.2,-1.24,0.1,4.0,0.0,0.0,2.0,0.0,1.0,0.0,7.75,2.26,0.1,
6.299,102.30603949999022,84.4842725000213,-3.24,-1.21,0.02,4.0,0.0,0.0,2.0,0.0,1.0,0.0,7.85,2.35,0.29,
6.323,102.32760394999902,84.48942725000212,-3.19,-1.24,-0.22,4.0,0.0,0.0,2.0,0.0,1.0,0.0,7.75,2.26,0.39,
6.346,102.3477603949999,84.5169427250002,-3.15,-1.31,-0.09,4.0,0.0,0.0,2.0,0.0,1.0,0.0,7.75,2.35,0.59,
6.371,102.3137760395,84.49269427250002,-2.98,-1.21,0.01,4.0,0.0,0.0,2.0,0.0,1.0,0.0,7.75,2.45,0.49,
6.394,102.28337760395,84.55326942725,-2.99,-1.34,-0.03,4.0,0.0,0.0,2.0,0.0,1.0,0.0,7.75,2.26,0.39,
6.419,102.21733776039498,84.577326942725,-3.03,-1.31,0.16,4.0,0.0,0.0,2.0,0.0,1.0,0.0,7.75,2.26,0.39,
6.443,102.2287337760395,84.6697326942725,-3.17,-0.99,0.34,4.0,0.0,0.0,2.0,0.0,1.0,0.0,7.65,2.26,0.59,
6.466,102.21187337760394,84.69697326942725,-2.99,-0.83,0.15,4.0,0.0,0.0,2.0,0.0,1.0,0.0,7.65,2.26,0.49,
6.491,102.18318733776039,84.67269732694272,-3.28,-1.11,-0.16,4.0,0.0,0.0,2.0,0.0,1.0,0.0,7.75,2.26,0.59,
6.514,102.22531873377605,84.66126973269428,-2.96,-1.31,-0.3,4.0,0.0,0.0,2.0,0.0,1.0,0.0,7.65,2.26,0.78,
6.538,102.2115318733776,84.63312697326943,-2.91,-1.38,-0.2,4.0,0.0,0.0,2.0,0.0,1.0,0.0,7.65,2.26,0.69,
6.562,102.19215318733777,84.60331269732694,-2.65,-1.46,-0.3,4.0,0.0,0.0,2.0,0.0,1.0,0.0,7.65,2.26,0.69,
6.586,102.17221531873378,84.55533126973269,-2.52,-2.03,-0.15,4.0,0.0,0.0,1.0,0.0,1.0,0.0,7.55,2.16,0.88,
6.61,102.15222153187338,84.60453312697327,-2.21,-2.15,-0.35,4.0,0.0,0.0,1.0,0.0,1.0,0.0,7.26,1.77,1.08,
6.634,102.15922215318734,84.68145331269733,-2.31,-2.9,0.07,3.0,0.0,0.0,1.0,0.0,1.0,0.0,7.06,1.37,1.37,
6.658,102.13292221531873,84.64414533126973,-1.27,-3.92,0.13,3.0,0.0,0.0,0.0,0.0,1.0,0.0,6.67,0.98,1.37,
6.682,102.14829222153188,84.73941453312698,-1.04,-3.54,1.21,3.0,0.0,0.0,0.0,0.0,1.0,0.0,6.08,0.69,1.37,
6.706,102.0508292221532,84.76694145331268,-0.39,-4.48,0.52,3.0,0.0,0.0,0.0,0.0,1.0,0.0,5.59,0.29,1.86,
6.729,102.11308292221531,84.79669414533126,0.63,-2.96,0.4,3.0,0.0,0.0,0.0,0.0,1.0,0.0,5.2,0.0,1.57,
6.753,102.07430829222153,84.96166941453312,-0.04,-1.56,1.26,2.0,0.0,0.0,0.0,0.0,1.0,0.0,4.81,0.0,1.47,
6.777,101.97143082922214,84.97816694145331,-0.69,-1.54,1.63,2.0,0.0,0.0,0.0,0.0,1.0,0.0,4.51,0.0,1.57,
6.801,101.87114308292222,84.99781669414533,-0.81,0.71,1.29,2.0,0.0,0.0,0.0,0.0,1.0,0.0,4.51,0.0,1.67,
6.824,101.87011430829223,84.92778166941453,-0.53,1.27,2.25,2.0,0.0,0.0,0.0,0.0,0.0,0.0,4.41,0.0,2.26,
6.848,102.10401143082922,85.16377816694146,-0.98,2.46,1.34,2.0,0.0,0.0,0.0,0.0,0.0,0.0,4.32,0.0,1.77,
6.872,102.24440114308292,85.20537781669414,-2.88,2.43,2.42,2.0,0.0,0.0,0.0,0.0,1.0,0.0,4.32,0.0,1.47,
6.895,102.36644011430829,85.15553778166942,-3.56,3.57,2.54,2.0,0.0,0.0,0.0,0.0,0.0,0.0,4.51,0.0,1.28,
6.919,102.35164401143082,85.05155377816695,-1.53,3.95,2.27,2.0,0.0,0.0,0.0,0.0,1.0,0.0,4.81,0.0,1.28,
6.943,102.17016440114308,85.0771553778167,-1.88,4.65,0.89,2.0,0.0,0.0,0.0,0.0,1.0,0.0,5.0,0.0,0.78,
6.967,102.53901644011431,85.19671553778166,-1.49,4.9,-2.44,2.0,0.0,0.0,0.0,0.0,1.0,0.0,5.0,0.0,0.88,
6.99,102.93590164401144,85.38867155377817,-0.47,-1.27,-2.63,2.0,0.0,0.0,0.0,0.0,1.0,0.0,4.81,0.1,1.57,
7.014,102.72359016440114,85.50686715537782,-2.18,-5.51,2.69,2.0,0.0,0.0,0.0,0.0,1.0,0.0,4.71,0.29,1.37,
7.038,102.80135901644013,85.49168671553778,-2.15,-9.35,3.12,3.0,0.0,0.0,0.0,0.0,1.0,0.0,4.71,0.49,0.0,
7.062,102.46713590164403,85.56216867155376,-5.76,-11.85,4.52,3.0,0.0,0.0,0.0,0.0,1.0,0.0,4.81,0.78,1.47,
7.086,101.9657135901644,85.56921686715536,-9.2,-10.63,3.19,3.0,0.0,0.0,0.0,0.0,1.0,0.0,5.0,1.37,1.37,
7.11,101.71757135901643,85.46192168671554,-10.11,-8.98,3.34,4.0,0.0,0.0,1.0,0.0,1.0,0.0,5.2,1.96,4.41,
7.134,101.61175713590164,85.40619216867157,-12.06,-12.72,3.14,4.0,0.0,0.0,1.0,0.0,2.0,0.0,5.59,2.94,0.0,
7.158,101.78117571359016,85.34661921686717,-12.81,-17.73,1.69,4.0,0.0,0.0,2.0,0.0,2.0,0.0,5.89,3.83,0.0,
7.183,101.573117571359,85.16066192168672,-13.47,-19.66,3.85,5.0,0.0,0.0,2.0,0.0,2.0,0.0,6.38,4.71,0.0,
7.206,101.2733117571359,84.98906619216866,-14.81,-19.31,6.37,6.0,0.0,0.0,3.0,0.0,2.0,0.0,7.26,5.69,0.0,
7.231,101.5133311757136,84.27890661921687,-11.79,-16.47,14.11,6.0,0.0,0.0,3.0,0.0,3.0,0.0,8.34,6.87,0.0,
7.255,100.87133311757135,84.01889066192167,-8.09,-15.36,11.51,7.0,0.0,0.0,4.0,0.0,4.0,1.0,10.01,7.95,0.0,
7.279,100.22213331175713,83.65088906619216,-8.87,-11.47,7.52,7.0,0.0,0.0,4.0,0.0,4.0,1.0,11.09,9.32,0.0,
7.304,100.0042133311757,83.53308890661921,-9.06,-10.64,6.88,8.0,0.0,0.0,5.0,0.0,4.0,2.0,12.36,10.89,0.0,
7.327,99.41542133311756,83.30530889066192,-8.45,-14.63,4.56,9.0,0.0,0.0,5.0,0.0,5.0,2.0,13.54,12.36,0.0,
7.352,98.89754213331176,83.17453088906619,-6.9,-12.24,2.59,9.0,0.0,0.0,6.0,0.0,5.0,2.0,14.52,13.83,0.0,
7.376,98.54875421333118,82.97245308890662,-7.87,-11.18,2.83,10.0,0.0,0.0,6.0,0.0,5.0,2.0,15.4,14.81,0.0,
7.4,98.25287542133312,82.81724530889066,-8.69,-7.58,5.06,10.0,0.0,0.0,6.0,0.0,6.0,2.0,16.68,15.7,25.11,
7.425,98.28628754213332,82.68472453088907,-10.56,-3.21,5.03,10.0,0.0,0.0,6.0,0.0,6.0,3.0,17.56,16.28,0.0,
7.449,98.10062875421333,82.32947245308891,-12.69,-1.38,3.3,10.0,0.0,0.0,7.0,0.0,7.0,3.0,18.64,16.87,0.0,
7.474,97.96506287542132,82.1949472453089,-5.59,2.91,1.58,11.0,0.0,0.0,7.0,0.0,7.0,3.0,19.72,17.46,0.0,
7.497,97.98750628754213,81.96549472453088,-2.63,3.46,0.52,11.0,0.0,0.0,7.0,0.0,7.0,4.0,20.4,18.05,0.0,
7.522,97.75575062875421,81.86154947245308,0.6,3.99,0.16,11.0,0.0,0.0,7.0,0.0,7.0,4.0,20.5,18.34,0.0,
7.546,97.74157506287541,81.8691549472453,2.63,2.54,-0.84,11.0,0.0,0.0,6.0,0.0,7.0,3.0,19.91,18.15,0.59,
7.57,97.78515750628755,82.04091549472453,3.66,2.44,-2.02,11.0,0.0,0.0,6.0,0.0,6.0,3.0,19.13,16.58,0.0,
7.595,97.81651575062875,82.44509154947245,2.53,3.68,-1.4,11.0,0.0,0.0,5.0,0.0,6.0,2.0,17.85,15.11,7.95,
7.618,97.95465157506288,82.80950915494724,-1.28,3.35,-1.31,10.0,0.0,0.0,5.0,0.0,6.0,2.0,16.68,13.05,6.77,
7.643,97.83346515750628,82.64795091549473,-0.02,4.32,-2.82,10.0,0.0,0.0,4.0,0.0,6.0,2.0,16.28,11.28,0.0,
7.667,97.99234651575063,82.66779509154948,0.27,7.25,-1.62,9.0,0.0,0.0,4.0,0.0,5.0,2.0,15.99,10.01,0.0,
7.691,98.13423465157507,82.83177950915494,0.69,9.3,-1.82,9.0,0.0,0.0,4.0,0.0,5.0,1.0,15.7,9.22,0.0,
7.714,98.19342346515751,82.8931779509155,1.45,8.0,-2.06,8.0,0.0,0.0,3.0,0.0,5.0,1.0,15.6,8.53,0.2,
7.739,98.37934234651576,82.89031779509155,-0.85,5.82,-0.69,8.0,0.0,0.0,3.0,0.0,5.0,1.0,15.6,7.95,0.29,
7.762,98.85693423465158,83.01603177950916,-3.32,0.8,-0.87,8.0,0.0,0.0,3.0,0.0,5.0,2.0,15.7,7.55,0.0,
7.787,99.13869342346516,83.16360317795092,-4.5,-3.57,-0.53,8.0,0.0,0.0,4.0,0.0,5.0,2.0,15.5,7.36,0.0,
7.811,99.05886934234651,83.23236031779508,-3.55,-5.09,-2.05,8.0,0.0,0.0,4.0,0.0,5.0,2.0,15.3,7.46,0.0,
7.835,98.96988693423464,83.10423603177951,-3.77,-2.63,-3.34,8.0,0.0,0.0,4.0,0.0,6.0,2.0,15.5,7.85,0.2,
7.859,98.90698869342347,83.17242360317796,-4.54,3.36,-1.0,8.0,0.0,0.0,5.0,0.0,6.0,2.0,15.99,8.63,0.29,
7.883,99.26069886934235,83.28724236031779,-7.37,1.61,-0.11,9.0,0.0,0.0,5.0,0.0,6.0,2.0,17.95,10.01,4.81,
7.907,99.78206988693424,83.39772423603178,-11.6,-6.46,2.31,9.0,0.0,0.0,6.0,0.0,6.0,3.0,19.91,11.48,13.15,
7.931,99.96920698869343,83.14777242360319,-14.22,-9.47,2.43,9.0,0.0,0.0,6.0,0.0,7.0,4.0,21.97,12.85,0.0,
7.956,99.55592069886936,83.13177724236031,-11.8,-7.49,5.22,10.0,0.0,0.0,6.0,0.0,8.0,4.0,23.45,13.93,0.0,
7.981,99.14559206988693,82.67117772423603,-10.73,-5.83,3.7,10.0,0.0,0.0,7.0,0.0,8.0,5.0,24.72,14.62,6.08,
8.004,98.6545592069887,82.3371177724236,-8.79,-0.02,2.9,10.0,0.0,0.0,8.0,0.0,8.0,5.0,25.8,15.11,7.46,
8.029,98.71345592069886,82.21371177724237,-8.15,4.04,1.85,10.0,0.0,0.0,8.0,0.0,9.0,6.0,27.37,15.79,2.55,
8.053,98.91734559206989,82.03037117772425,-6.53,2.42,1.54,10.0,0.0,0.0,8.0,0.0,9.0,6.0,28.55,16.78,0.88,
8.077,98.94673455920699,81.98503711777244,-5.51,1.0,1.92,11.0,0.0,0.0,9.0,0.0,9.0,6.0,29.43,17.95,4.61,
8.101,98.9226734559207,81.85450371177726,-4.19,0.65,1.52,11.0,0.0,0.0,9.0,0.0,10.0,7.0,30.02,18.54,0.0,
8.126,98.90226734559207,81.77845037117773,-3.41,0.82,0.35,11.0,0.0,0.0,9.0,0.0,9.0,7.0,30.51,19.13,0.0,
8.15,98.99022673455922,81.68084503711778,-1.6,1.11,-0.05,11.0,0.0,0.0,9.0,0.0,10.0,7.0,30.9,19.62,0.0,
8.174,99.14302267345592,81.6800845037118,-0.96,0.37,-0.22,11.0,0.0,0.0,8.0,0.0,9.0,6.0,31.2,20.21,0.0,
8.199,99.14030226734559,81.71600845037118,-0.07,-0.44,-0.8,11.0,0.0,0.0,8.0,0.0,9.0,6.0,31.2,20.8,0.49,
8.223,99.19403022673455,81.79160084503712,0.66,-1.2,-1.95,11.0,0.0,0.0,8.0,0.0,9.0,6.0,30.8,20.9,7.75,
8.247,99.15440302267346,81.86216008450371,0.02,-2.07,-0.89,11.0,0.0,0.0,8.0,0.0,8.0,6.0,30.51,20.8,4.32,
8.271,99.06044030226734,81.90521600845037,-2.22,-0.82,-1.06,11.0,0.0,0.0,8.0,0.0,8.0,5.0,30.21,20.7,0.88,
8.296,99.09604403022672,81.90952160084503,-3.11,0.06,-0.8,11.0,0.0,0.0,8.0,0.0,8.0,5.0,30.12,20.8,0.0,
8.321,99.10860440302267,81.8559521600845,-3.03,-0.09,-1.2,11.0,0.0,0.0,8.0,0.0,8.0,5.0,30.31,20.99,4.41,
8.344,99.14586044030227,81.85059521600844,-3.27,0.89,-0.82,11.0,0.0,0.0,8.0,0.0,8.0,5.0,30.51,21.19,3.43,
8.369,99.15858604403023,81.89505952160086,-3.51,1.62,-0.53,11.0,0.0,0.0,8.0,0.0,8.0,6.0,30.71,21.48,1.77,
8.393,99.26785860440302,81.8995059521601,-3.95,1.56,-0.6,11.0,0.0,0.0,8.0,0.0,8.0,6.0,30.9,21.88,0.78,
8.418,99.32378586044031,81.89995059521601,-3.84,0.29,0.11,11.0,0.0,0.0,8.0,0.0,8.0,6.0,31.2,22.27,0.0,
8.441,99.35637858604403,81.86399505952161,-3.63,-0.27,-0.4,11.0,0.0,0.0,9.0,0.0,8.0,6.0,31.49,22.66,0.0,
8.466,99.42263785860442,81.82439950595216,-2.87,-0.5,-0.61,11.0,0.0,0.0,9.0,0.0,8.0,6.0,31.78,22.96,0.0,
8.491,99.42026378586044,81.78443995059521,-2.4,-0.24,-0.76,11.0,0.0,0.0,9.0,0.0,8.0,6.0,31.88,23.15,0.0,
8.515,99.44702637858606,81.76244399505953,-1.56,-0.21,-0.73,11.0,0.0,0.0,9.0,0.0,8.0,6.0,31.88,23.35,0.0,
8.539,99.50370263785862,81.77824439950595,-1.33,-0.1,-0.99,11.0,0.0,0.0,8.0,0.0,8.0,5.0,31.88,23.45,0.29,
8.563,99.45537026378587,81.7888244399506,-0.31,-0.38,-1.42,12.0,0.0,0.0,8.0,0.0,8.0,5.0,31.59,23.45,2.55,
8.588,99.5045370263786,81.84388244399506,0.34,-0.85,-1.5,12.0,0.0,0.0,8.0,0.0,8.0,5.0,31.2,23.64,10.01,
8.612,99.55445370263786,81.92138824439951,0.65,-1.92,-1.11,12.0,0.0,0.0,8.0,0.0,7.0,4.0,30.71,23.54,5.89,
8.637,99.56844537026379,81.96513882443995,1.18,-2.56,-0.92,12.0,0.0,0.0,8.0,0.0,7.0,4.0,29.72,23.15,0.0,
8.66,99.60584453702637,82.050513882444,1.02,-2.95,-0.98,12.0,0.0,0.0,7.0,0.0,7.0,3.0,28.84,22.27,0.0,
8.685,99.59158445370264,82.1220513882444,1.01,-3.02,-0.82,12.0,0.0,0.0,7.0,0.0,6.0,3.0,28.25,21.78,0.0,
8.71,99.61715844537026,82.20120513882443,1.18,-2.65,-0.81,11.0,0.0,0.0,7.0,0.0,6.0,3.0,27.47,21.39,0.0,
8.733,99.52971584453702,82.25412051388244,1.08,-2.48,-1.12,11.0,0.0,0.0,6.0,0.0,6.0,2.0,26.88,20.99,0.0,
8.758,99.5299715844537,82.35841205138826,0.63,-2.29,-1.31,12.0,0.0,0.0,6.0,0.0,5.0,2.0,26.39,20.6,0.0,
8.782,99.52099715844537,82.44984120513882,0.04,-2.6,-0.8,11.0,0.0,0.0,6.0,0.0,5.0,2.0,25.8,20.31,15.11,
8.807,99.46609971584454,82.58498412051388,-0.5,-2.58,-0.45,11.0,0.0,0.0,6.0,0.0,5.0,2.0,25.41,19.91,4.22,
8.83,99.39760997158446,82.67049841205139,-0.41,-2.23,-0.33,11.0,0.0,0.0,6.0,0.0,5.0,2.0,25.02,19.62,0.0,
8.855,99.39076099715845,82.72404984120514,-0.98,-1.77,0.05,11.0,0.0,0.0,6.0,0.0,5.0,2.0,24.52,19.42,4.12,
8.88,99.38107609971584,82.81940498412051,-1.35,-2.04,0.15,11.0,0.0,0.0,6.0,0.0,5.0,2.0,24.23,19.23,9.12,
8.903,99.38010760997157,82.85594049841205,-1.75,-2.18,0.16,11.0,0.0,0.0,6.0,0.0,5.0,2.0,24.03,18.93,0.0,
8.928,99.38001076099715,82.8775940498412,-2.25,-2.37,0.01,11.0,0.0,0.0,6.0,0.0,5.0,2.0,23.74,18.74,0.0,
8.952,99.30800107609971,82.91575940498412,-3.05,-1.36,0.48,11.0,0.0,0.0,6.0,0.0,5.0,2.0,23.45,18.54,0.88,
8.976,99.37280010760996,83.02757594049841,-3.56,-1.02,0.37,11.0,0.0,0.0,6.0,0.0,5.0,2.0,23.45,18.44,8.44,
9.0,99.36128001076099,83.04775759404984,-3.96,-1.53,0.42,11.0,0.0,0.0,6.0,0.0,5.0,2.0,23.54,18.25,0.0,
9.025,99.3691280010761,83.04977575940498,-4.37,-1.34,0.81,11.0,0.0,0.0,6.0,0.0,5.0,2.0,23.64,18.15,0.39,
9.05,99.36091280010761,83.0049775759405,-4.86,-1.18,1.28,12.0,0.0,0.0,6.0,0.0,5.0,2.0,23.94,18.05,1.77,
9.073,99.34209128001076,82.95549775759405,-5.0,-2.0,0.71,11.0,0.0,0.0,6.0,0.0,5.0,2.0,24.33,17.95,4.51,
9.098,99.29520912800108,82.8605497757594,-4.95,-2.35,0.55,11.0,0.0,0.0,6.0,0.0,6.0,2.0,24.92,17.85,0.0,
9.122,99.2905209128001,82.86905497757596,-4.53,-2.3,0.45,11.0,0.0,0.0,6.0,0.0,6.0,2.0,25.31,17.85,0.0,
9.146,99.25405209128002,82.84290549775761,-4.43,-2.05,0.63,11.0,0.0,0.0,7.0,0.0,6.0,3.0,25.51,17.95,0.0,
9.17,99.196405209128,82.79529054977577,-4.12,-2.04,0.76,11.0,0.0,0.0,7.0,0.0,6.0,3.0,25.7,17.95,0.0,
9.195,99.1726405209128,82.79052905497758,-4.16,-2.04,0.79,11.0,0.0,0.0,7.0,0.0,6.0,3.0,25.7,17.95,0.0,
9.22,99.1252640520913,82.72705290549777,-3.77,-2.12,0.56,11.0,0.0,0.0,7.0,0.0,6.0,3.0,25.7,17.95,0.1,
9.243,99.11152640520913,82.72970529054979,-3.45,-2.28,0.02,11.0,0.0,0.0,7.0,0.0,6.0,3.0,25.8,17.85,1.96,
9.268,99.12815264052091,82.73897052905497,-3.36,-2.55,-0.14,11.0,0.0,0.0,7.0,0.0,6.0,3.0,25.7,17.85,0.0,
9.292,99.0938152640521,82.7578970529055,-3.38,-2.72,-0.02,11.0,0.0,0.0,7.0,0.0,6.0,3.0,25.7,17.76,0.39,
9.317,99.07238152640521,82.77778970529056,-3.21,-2.62,-0.11,11.0,0.0,0.0,7.0,0.0,6.0,3.0,25.7,17.76,0.0,
9.34,99.05223815264051,82.79777897052905,-3.11,-2.55,-0.16,11.0,0.0,0.0,7.0,0.0,6.0,3.0,25.6,17.66,0.1,
9.365,99.01422381526406,82.8267778970529,-2.85,-2.45,-0.11,11.0,0.0,0.0,7.0,0.0,6.0,3.0,25.51,17.36,0.0,
9.39,98.9654223815264,82.8386777897053,-2.84,-1.6,-0.05,11.0,0.0,0.0,7.0,0.0,6.0,3.0,25.41,17.36,0.0,
9.414,98.93354223815264,82.83086777897053,-2.82,-1.54,-0.17,11.0,0.0,0.0,7.0,0.0,6.0,3.0,25.41,17.27,0.69,
9.439,98.94835422381527,82.83908677789707,-3.02,-1.79,0.13,12.0,0.0,0.0,7.0,0.0,6.0,3.0,25.31,17.17,1.08,
9.462,98.92283542238152,82.83990867778972,-2.92,-2.05,0.34,11.0,0.0,0.0,7.0,0.0,6.0,3.0,25.21,17.07,0.0,
9.487,98.96528354223815,82.80399086777896,-2.9,-2.03,0.28,11.0,0.0,0.0,7.0,0.0,6.0,3.0,25.11,16.87,0.0,
9.511,98.99652835422383,82.80039908677789,-2.74,-2.09,-0.05,11.0,0.0,0.0,7.0,0.0,6.0,2.0,24.92,16.78,0.1,
9.536,98.92765283542238,82.77303990867779,-2.59,-2.07,-0.34,11.0,0.0,0.0,7.0,0.0,6.0,2.0,24.72,16.58,0.0,
9.56,98.91176528354224,82.79730399086777,-2.53,-2.08,-0.26,11.0,0.0,0.0,7.0,0.0,6.0,2.0,24.52,16.38,0.59,
9.584,98.90117652835423,82.80873039908678,-2.62,-2.15,0.01,11.0,0.0,0.0,7.0,0.0,6.0,2.0,24.33,16.19,0.49,
9.609,98.91811765283543,82.8638730399087,-2.55,-1.85,0.44,11.0,0.0,0.0,7.0,0.0,6.0,2.0,24.13,15.89,1.67,
9.633,98.90181176528355,82.86938730399088,-2.49,-1.82,0.28,11.0,0.0,0.0,6.0,0.0,6.0,2.0,24.03,15.6,4.41,
9.657,98.89118117652836,82.85193873039908,-2.3,-1.97,0.21,11.0,0.0,0.0,6.0,0.0,6.0,2.0,23.84,15.4,5.0,
9.681,98.88111811765285,82.8231938730399,-2.33,-2.08,0.02,11.0,0.0,0.0,6.0,0.0,6.0,2.0,23.64,15.21,6.28,
9.706,98.86211181176529,82.838319387304,-2.85,-1.76,0.25,11.0,0.0,0.0,6.0,0.0,6.0,2.0,23.54,15.11,3.24,
9.73,98.86021118117654,82.83983193873041,-3.03,-1.81,0.38,11.0,0.0,0.0,6.0,0.0,6.0,2.0,23.45,15.01,3.43,
9.754,98.79702111811766,82.85798319387304,-3.34,-1.8,0.26,11.0,0.0,0.0,6.0,0.0,6.0,2.0,23.45,14.81,1.86,
9.779,98.79970211181177,82.8597983193873,-3.27,-2.07,0.07,11.0,0.0,0.0,6.0,0.0,6.0,2.0,23.45,14.72,1.77,
9.803,98.81797021118118,82.86897983193874,-3.56,-2.08,0.18,11.0,0.0,0.0,6.0,0.0,6.0,2.0,23.45,14.62,1.28,
9.827,98.75679702111812,82.89689798319388,-3.73,-2.12,0.24,11.0,0.0,0.0,6.0,0.0,6.0,2.0,23.54,14.52,0.0,
9.851,98.69667970211181,82.88168979831939,-3.9,-1.92,0.44,11.0,0.0,0.0,6.0,0.0,6.0,2.0,23.45,14.52,0.39,
9.876,98.69066797021118,82.85316897983193,-3.79,-1.38,0.66,11.0,0.0,0.0,6.0,0.0,6.0,2.0,23.54,14.42,0.0,
9.9,98.66306679702112,82.8143168979832,-3.37,-1.56,0.39,11.0,0.0,0.0,6.0,0.0,6.0,2.0,23.64,14.32,2.26,
9.924,98.65130667970212,82.81043168979834,-3.27,-1.6,0.11,11.0,0.0,0.0,6.0,0.0,6.0,2.0,23.54,14.32,1.18,
9.949,98.6321306679702,82.77404316897983,-3.02,-1.46,-0.05,11.0,0.0,0.0,6.0,0.0,6.0,2.0,23.54,14.32,0.0,
9.973,98.62121306679703,82.752404316898,-3.18,-1.74,0.08,11.0,0.0,0.0,6.0,0.0,6.0,2.0,23.54,14.32,0.0,
9.997,98.6561213066797,82.74124043168979,-3.34,-1.51,0.38,11.0,0.0,0.0,6.0,0.0,6.0,2.0,23.54,14.42,0.69,
10.021,98.64161213066797,82.71312404316897,-3.05,-1.51,0.18,11.0,0.0,0.0,6.0,0.0,6.0,2.0,23.54,14.42,1.77,
10.046,98.58616121306679,82.68331240431691,-2.81,-1.34,0.04,11.0,0.0,0.0,6.0,0.0,6.0,2.0,23.45,14.42,0.49,
10.071,98.56261612130669,82.7163312404317,-2.73,-1.4,-0.33,11.0,0.0,0.0,6.0,0.0,6.0,2.0,23.35,14.52,0.29,
10.095,98.57826161213066,82.71063312404316,-2.8,-1.49,-0.31,11.0,0.0,0.0,6.0,0.0,6.0,2.0,23.35,14.42,0.0,
10.119,98.57982616121306,82.7370633124043,-2.6,-1.32,-0.36,11.0,0.0,0.0,6.0,0.0,6.0,2.0,23.45,14.42,0.2,
10.143,98.5529826161213,82.75770633124044,-2.73,-1.67,-0.29,11.0,0.0,0.0,6.0,0.0,6.0,2.0,23.35,14.52,0.0,
10.168,98.58629826161214,82.80477063312405,-2.54,-1.62,-0.21,11.0,0.0,0.0,6.0,0.0,6.0,2.0,23.25,14.52,0.0,
10.192,98.59862982616121,82.80947706331241,-2.51,-1.35,-0.32,11.0,0.0,0.0,6.0,0.0,6.0,2.0,23.25,14.52,0.0,
10.217,98.54586298261613,82.81894770633124,-2.31,-1.32,0.04,11.0,0.0,0.0,6.0,0.0,6.0,2.0,23.25,14.52,1.08,
10.242,98.5765862982616,82.82889477063313,-2.47,-1.03,0.01,11.0,0.0,0.0,6.0,0.0,6.0,2.0,23.25,14.52,3.04,
10.265,98.57065862982616,82.8568894770633,-2.37,-1.25,-0.04,11.0,0.0,0.0,6.0,0.0,6.0,2.0,23.15,14.52,2.84,
10.29,98.6060658629826,82.86868894770635,-2.45,-1.21,-0.17,11.0,0.0,0.0,6.0,0.0,6.0,2.0,23.15,14.42,0.39,
10.314,98.60960658629826,82.83386889477063,-2.69,-0.98,0.02,11.0,0.0,0.0,6.0,0.0,6.0,2.0,23.05,14.62,0.0,
10.339,98.60996065862982,82.83038688947705,-3.17,-0.79,0.19,11.0,0.0,0.0,6.0,0.0,6.0,2.0,23.05,14.62,0.0,
10.363,98.60099606586297,82.8030386889477,-3.5,-0.55,0.22,11.0,0.0,0.0,6.0,0.0,6.0,2.0,23.15,14.72,0.59,
10.388,98.62709960658628,82.83630386889477,-3.19,-0.95,0.21,11.0,0.0,0.0,6.0,0.0,6.0,2.0,23.25,14.72,1.96,
10.412,98.64770996065863,82.87563038688947,-3.19,-0.95,-0.1,11.0,0.0,0.0,6.0,0.0,6.0,2.0,23.25,14.72,0.59,
10.436,98.64977099606587,82.86156303868894,-3.37,-1.0,0.25,11.0,0.0,0.0,6.0,0.0,6.0,2.0,23.35,14.72,0.0,
10.461,98.69497709960658,82.88715630386889,-3.54,-1.0,0.32,11.0,0.0,0.0,6.0,0.0,6.0,2.0,23.35,14.81,0.49,
10.485,98.69949770996065,82.8177156303869,-3.37,-0.97,0.16,11.0,0.0,0.0,6.0,0.0,6.0,2.0,23.45,14.81,0.0,
10.51,98.66394977099606,82.7387715630387,-2.92,-0.92,-0.59,11.0,0.0,0.0,6.0,0.0,6.0,2.0,23.54,14.91,0.0,
10.534,98.51639497709961,82.57787715630387,-1.37,-0.18,-1.21,11.0,0.0,0.0,6.0,0.0,6.0,2.0,23.54,15.4,0.0,
10.558,98.39363949770996,82.62478771563039,-0.68,1.66,-2.08,11.0,0.0,0.0,6.0,0.0,5.0,2.0,23.25,15.7,0.0,
10.583,98.435363949771,82.71047877156305,-0.97,1.12,-2.11,11.0,0.0,0.0,5.0,0.0,5.0,2.0,22.96,16.38,0.49,
10.607,98.55653639497709,82.82704787715632,0.24,0.85,-2.45,11.0,0.0,0.0,5.0,0.0,4.0,1.0,22.66,17.17,6.47,
10.631,98.66765363949771,82.92870478771563,0.28,1.07,-1.15,11.0,0.0,0.0,5.0,0.0,4.0,1.0,22.27,17.95,0.0,
10.655,98.85876536394977,83.14587047877157,-0.9,1.12,0.28,11.0,0.0,0.0,5.0,0.0,3.0,1.0,21.97,18.54,0.0,
10.68,98.94987653639497,83.27558704787717,-2.78,2.0,1.23,11.0,0.0,0.0,5.0,0.0,3.0,1.0,21.68,18.64,0.2,
10.703,99.1029876536395,83.33355870478772,-5.98,2.81,1.92,11.0,0.0,0.0,5.0,0.0,4.0,2.0,21.78,18.44,0.1,
10.728,99.26229876536395,83.37535587047877,-9.72,1.46,2.37,11.0,0.0,0.0,5.0,0.0,4.0,2.0,22.46,18.34,0.2,
10.753,99.2872298765364,83.21753558704789,-10.94,-1.5,3.47,11.0,0.0,0.0,6.0,0.0,5.0,2.0,23.54,18.64,0.0,
10.776,99.27172298765365,82.99475355870479,-8.17,-3.34,2.09,11.0,0.0,0.0,6.0,0.0,5.0,2.0,25.11,18.44,0.0,
10.801,99.17117229876536,82.85547535587048,-6.23,-3.71,1.6,11.0,0.0,0.0,6.0,0.0,5.0,3.0,26.29,18.15,0.0,
10.825,99.07111722987655,82.79654753558705,-4.47,-2.64,0.96,11.0,0.0,0.0,6.0,0.0,5.0,3.0,26.78,17.95,3.43,
10.85,99.02511172298765,82.78165475355871,-3.81,-2.05,1.25,11.0,0.0,0.0,6.0,0.0,5.0,3.0,26.98,17.66,1.37,
10.874,99.02051117229875,82.73516547535587,-3.87,-2.17,1.81,11.0,0.0,0.0,6.0,0.0,6.0,3.0,26.98,17.36,0.0,
10.898,98.98405111722988,82.7035165475356,-3.73,-2.07,1.41,11.0,0.0,0.0,6.0,0.0,6.0,3.0,26.78,16.97,0.0,
10.923,98.98940511172299,82.71835165475356,-3.33,-2.21,1.51,11.0,0.0,0.0,6.0,0.0,6.0,3.0,26.39,16.58,0.0,
10.947,98.99894051117231,82.71083516547534,-3.05,-2.31,1.15,11.0,0.0,0.0,6.0,0.0,6.0,3.0,26.19,16.19,0.0,
10.972,98.87389405111723,82.65608351654754,-2.55,-2.22,0.32,11.0,0.0,0.0,6.0,0.0,6.0,3.0,25.9,15.89,0.59,
10.996,98.83438940511172,82.64160835165475,-2.01,-2.24,-0.54,11.0,0.0,0.0,6.0,0.0,6.0,3.0,25.6,15.7,0.0,
11.021,98.76743894051117,82.60416083516547,-1.37,-2.43,-1.06,11.0,0.0,0.0,6.0,0.0,6.0,3.0,25.51,15.7,0.0,
11.044,98.85074389405112,82.66341608351655,-0.79,-2.45,-1.66,11.0,0.0,0.0,6.0,0.0,5.0,2.0,25.51,16.09,0.0,
11.069,98.83207438940511,82.69634160835166,-0.44,-2.67,-1.6,11.0,0.0,0.0,6.0,0.0,5.0,2.0,25.6,16.78,5.3,
11.094,98.82120743894052,82.68163416083517,0.33,-3.44,-1.3,11.0,0.0,0.0,6.0,0.0,5.0,2.0,25.7,17.46,12.16,
11.118,98.80212074389405,82.72516341608352,0.92,-3.77,-0.92,11.0,0.0,0.0,6.0,0.0,5.0,2.0,26.19,18.34,5.0,
11.143,98.7102120743894,82.80151634160836,1.18,-3.2,0.26,11.0,0.0,0.0,6.0,0.0,5.0,2.0,26.78,19.13,2.45,
11.167,98.61102120743894,82.79115163416084,1.14,-2.89,0.77,11.0,0.0,0.0,6.0,0.0,5.0,2.0,27.27,19.72,4.71,
11.191,98.60110212074389,82.8891151634161,0.14,-3.86,0.64,11.0,0.0,0.0,6.0,0.0,5.0,2.0,27.76,20.31,16.87,
11.215,98.63611021207439,82.99791151634162,-0.91,-5.5,0.96,12.0,0.0,0.0,6.0,0.0,5.0,1.0,28.15,20.7,27.37,
11.24,98.61261102120743,83.08979115163416,-3.32,-8.39,0.77,12.0,0.0,0.0,6.0,0.0,4.0,1.0,28.35,20.7,0.39,
11.264,98.48426110212074,83.08097911516342,-5.4,-12.89,0.22,12.0,0.0,0.0,6.0,0.0,4.0,1.0,28.55,20.5,0.0,
11.288,98.38142611021208,83.04409791151635,-7.64,-16.73,1.28,11.0,0.0,0.0,6.0,0.0,4.0,1.0,28.55,20.11,20.99,
11.313,98.29914261102121,83.06740979115162,-9.85,-18.05,5.56,11.0,0.0,0.0,5.0,0.0,3.0,1.0,27.66,18.64,9.81,
11.337,98.05691426110212,83.47474097911515,-11.3,-16.24,16.41,9.0,0.0,0.0,3.0,0.0,2.0,0.0,26.09,16.09,0.0,
11.361,98.00569142611022,84.85647409791152,-38.89,-17.92,43.0,6.0,0.0,0.0,1.0,0.0,1.0,0.0,22.76,11.67,0.0,
11.385,98.54056914261102,86.37164740979117,-98.15,-20.72,71.15,5.0,0.0,0.0,0.0,0.0,1.0,0.0,18.15,4.91,3.14,
11.41,99.81805691426109,90.15916474097912,-109.77,-3.79,77.06,4.0,0.0,0.0,0.0,0.0,1.0,0.0,12.26,0.39,6.28,
11.433,101.9078056914261,97.4589164740979,-42.79,-19.94,84.66,4.0,0.0,0.0,0.0,0.0,0.0,0.0,2.06,0.0,2.94,
11.458,103.3857805691426,105.99189164740979,44.66,-19.7,88.03,3.0,0.0,0.0,0.0,0.0,0.0,0.0,0.29,0.0,2.45,
11.482,102.28257805691426,113.06418916474098,73.33,-5.98,75.02,3.0,0.0,0.0,0.0,0.0,0.0,0.0,0.88,0.0,0.0,
11.506,99.71525780569144,117.8844189164741,93.82,16.86,54.41,3.0,0.0,0.0,0.0,0.0,1.0,0.0,1.18,0.0,0.0,
11.53,97.37052578056914,118.74444189164741,95.04,49.19,11.61,3.0,0.0,0.0,0.0,0.0,1.0,0.0,1.08,0.0,0.78,
11.554,95.75005257805691,116.54444418916474,110.0,59.76,-49.02,2.0,0.0,0.0,0.0,0.0,1.0,0.0,0.78,0.0,0.1,
11.578,95.08400525780569,113.69644441891647,143.08,50.49,-84.55,2.0,0.0,0.0,0.0,0.0,1.0,0.0,0.1,0.0,1.47,
11.602,95.03540052578057,110.69364444189165,146.25,47.85,-100.88,2.0,0.0,0.0,0.0,0.0,1.0,0.0,0.29,0.0,1.67,
11.626,94.41854005257805,106.85636444418917,119.56,43.14,-98.19,1.0,0.0,0.0,0.0,0.0,1.0,0.0,1.18,0.0,0.39,
11.651,93.8708540052578,103.37663644441892,75.41,18.68,-71.66,1.0,0.0,0.0,0.0,0.0,1.0,0.0,1.57,0.0,0.49,
11.674,94.50908540052578,97.9976636444419,41.99,-5.02,-66.49,1.0,0.0,0.0,0.0,0.0,1.0,0.0,1.28,0.0,0.29,
11.699,97.50690854005259,92.21276636444418,45.05,-1.9,-26.64,1.0,0.0,0.0,0.0,0.0,1.0,0.0,0.78,0.0,0.2,
11.722,100.93869085400526,85.21727663644441,38.65,11.04,19.71,0.0,0.0,0.0,0.0,0.0,1.0,0.0,0.78,0.0,1.77,
11.746,101.90286908540054,78.85672766364445,-12.11,14.59,56.92,0.0,0.0,0.0,0.0,0.0,1.0,0.0,0.59,0.0,0.39,
11.77,99.23628690854005,72.37967276636445,-105.3,-4.74,41.95,0.0,0.0,0.0,0.0,0.0,1.0,0.0,0.0,0.0,0.39,
11.794,97.367628690854,76.70896727663644,-130.01,-8.37,-12.85,0.0,0.0,0.0,0.0,0.0,1.0,0.0,0.0,0.0,1.67,
11.819,96.4247628690854,77.59189672766365,-176.51,33.07,-7.91,0.0,0.0,0.0,0.0,0.0,0.0,0.0,0.0,0.0,5.3,
11.842,98.12147628690853,77.00518967276636,-173.14,30.06,2.93,1.0,0.0,0.0,0.0,0.0,1.0,0.0,0.0,0.0,3.14,
11.867,104.35714762869085,73.87751896727664,-88.5,-19.76,0.23,2.0,0.0,0.0,0.0,0.0,1.0,0.0,0.0,0.29,0.0,
11.89,102.66771476286908,72.17875189672766,-51.87,-49.39,9.79,2.0,0.0,0.0,1.0,0.0,2.0,0.0,4.41,2.06,6.28,
11.915,102.67877147628691,74.39387518967277,-55.39,-18.31,-2.12,3.0,0.0,0.0,2.0,0.0,3.0,0.0,9.12,5.3,0.0,
11.939,100.51087714762869,76.21738751896729,-30.08,-32.45,6.87,4.0,0.0,0.0,4.0,0.0,7.0,2.0,14.81,7.95,0.0,
11.964,98.62908771476287,76.81373875189672,-24.25,-22.88,7.62,5.0,0.0,0.0,7.0,0.0,10.0,3.0,18.25,11.38,0.0,
11.988,97.27090877147629,77.41337387518968,-20.4,-9.65,0.24,6.0,0.0,0.0,9.0,0.0,1.0,5.0,21.97,14.62,0.0,
12.013,97.35109087714763,77.86033738751897,-18.89,-2.08,-8.1,7.0,0.0,0.0,11.0,0.0,6.0,6.0,27.57,16.97,0.0,
12.038,97.68310908771477,78.3820337387519,-17.6,-6.14,-4.54,7.0,0.0,0.0,0.0,0.0,11.0,7.0,36.0,18.64,0.2,
12.062,97.74331090877149,78.77620337387519,-17.46,-5.85,-0.23,8.0,0.0,0.0,4.0,0.0,14.0,8.0,48.46,19.72,0.0,
12.087,97.34433109087715,79.04062033738751,-15.03,0.66,0.5,9.0,0.0,0.0,6.0,0.0,17.0,9.0,66.51,20.01,0.0,
12.111,97.31343310908773,79.06706203373875,-11.44,1.08,-1.02,9.0,0.0,0.0,7.0,0.0,19.0,10.0,75.93,20.21,2.16,
12.136,97.35534331090876,79.37570620337387,-9.59,2.88,1.4,10.0,0.0,0.0,8.0,0.0,21.0,10.0,83.09,19.62,2.94,
12.161,97.61153433109088,79.61357062033738,-10.24,8.08,4.73,10.0,0.0,0.0,8.0,1.0,21.0,10.0,88.29,19.13,1.77,
12.185,97.95215343310909,79.58335706203374,-9.98,8.24,6.71,10.0,0.0,0.0,8.0,1.0,22.0,10.0,91.82,19.52,0.0,
12.21,98.16621534331091,79.63433570620337,-9.73,9.44,9.19,10.0,0.0,0.0,9.0,1.0,24.0,10.0,94.37,20.7,0.0,
12.234,98.5026215343311,79.67543357062034,-9.56,6.63,10.11,10.0,0.0,0.0,11.0,1.0,22.0,10.0,92.21,23.15,0.0,
12.259,98.88726215343311,79.69754335706203,-10.05,2.69,11.87,11.0,0.0,0.0,11.0,2.0,24.0,10.0,89.47,25.7,0.1,
12.283,99.11472621534331,79.6097543357062,-9.73,-1.26,13.35,11.0,0.0,0.0,12.0,2.0,22.0,11.0,89.37,28.15,0.0,
12.309,98.85847262153433,79.43897543357063,-11.17,-2.93,12.66,11.0,0.0,0.0,14.0,2.0,21.0,11.0,92.41,30.12,0.0,
12.334,98.25684726215343,79.31389754335707,-11.86,1.67,13.76,11.0,0.0,0.0,14.0,2.0,21.0,11.0,98.3,32.77,0.0,
12.358,98.44868472621535,79.47238975433571,-13.15,7.05,16.39,11.0,0.0,0.0,15.0,3.0,19.0,12.0,101.63,38.95,0.0,
12.383,98.53086847262153,79.12823897543358,-11.98,9.04,17.11,12.0,0.0,0.0,15.0,3.0,21.0,12.0,103.4,42.48,0.0,
12.407,98.98008684726216,78.97682389754335,-13.07,2.09,18.04,11.0,0.0,0.0,15.0,3.0,17.0,1.0,106.05,45.81,0.0,
12.433,99.07900868472623,78.34968238975434,-15.72,-4.04,24.4,11.0,0.0,0.0,15.0,4.0,16.0,2.0,109.28,49.15,0.0,
12.457,98.72890086847262,78.15196823897543,-18.92,-0.29,33.3,10.0,0.0,0.0,15.0,4.0,14.0,3.0,115.66,52.58,0.0,
12.482,99.61189008684725,79.32919682389753,-22.51,1.73,45.46,9.0,0.0,0.0,13.0,4.0,11.0,4.0,121.25,57.09,0.59,
12.507,98.90818900868473,79.43791968238976,-43.44,1.71,50.02,7.0,0.0,0.0,9.0,4.0,9.0,6.0,129.3,59.74,5.59,
12.531,97.89281890086848,79.64679196823897,-72.33,8.52,56.88,6.0,0.0,0.0,11.0,4.0,5.0,8.0,136.85,55.33,8.63,
12.556,97.74628189008685,80.0366791968239,-106.86,20.85,52.28,5.0,0.0,0.0,5.0,4.0,3.0,6.0,137.24,45.81,18.84,
12.58,97.52462818900868,79.84166791968238,-167.13,50.29,52.84,4.0,0.0,0.0,0.0,3.0,1.0,3.0,113.99,32.37,10.99,
12.605,96.79146281890087,80.18216679196824,-243.21,25.32,52.63,2.0,0.0,0.0,0.0,2.0,11.0,12.0,81.52,16.68,2.26,
12.63,99.75114628189009,80.99021667919682,-250.14,43.26,65.22,3.0,0.0,0.0,0.0,1.0,7.0,6.0,38.46,4.61,0.0,
12.654,101.94611462818901,76.91302166791968,-220.02,-20.87,22.86,2.0,0.0,0.0,0.0,1.0,2.0,0.0,13.73,0.0,0.0,
12.678,105.2526114628189,81.28430216679197,-86.9,-10.71,35.15,2.0,0.0,0.0,0.0,1.0,1.0,0.0,5.79,0.69,0.0,
12.702,108.35526114628189,89.9294302166792,-4.47,-19.57,37.9,2.0,0.0,0.0,0.0,1.0,1.0,0.0,3.24,1.18,1.28,
12.726,127.41252611462818,113.34794302166792,56.54,-25.73,34.44,2.0,0.0,0.0,0.0,1.0,1.0,0.0,3.43,1.28,1.08,
12.75,102.03925261146281,125.73379430216679,105.92,-58.19,42.81,2.0,0.0,0.0,0.0,1.0,1.0,0.0,3.34,0.98,4.61,
12.774,89.42192526114628,134.28037943021667,143.22,-37.11,25.61,2.0,0.0,0.0,0.0,1.0,1.0,0.0,3.14,0.88,5.1,
12.798,85.19919252611463,132.75003794302168,168.11,-29.11,-8.41,2.0,0.0,0.0,0.0,1.0,1.0,0.0,2.94,0.88,2.06,
12.823,84.17391925261147,124.74000379430217,186.47,-2.5,-56.84,2.0,0.0,0.0,0.0,1.0,1.0,0.0,2.55,1.08,0.78,
12.847,83.85539192526115,115.8930003794302,193.51,33.07,-111.4,2.0,0.0,0.0,0.0,1.0,1.0,0.0,2.45,1.18,4.41,
12.871,83.78753919252611,106.82730003794302,188.79,46.73,-143.7,1.0,0.0,0.0,0.0,1.0,1.0,0.0,2.94,1.08,3.73,
12.896,85.99475391925262,99.8817300037943,194.02,10.76,-105.07,1.0,0.0,0.0,0.0,1.0,1.0,0.0,3.73,0.69,2.75,
12.919,87.43047539192526,94.25517300037943,181.71,-26.34,-39.79,1.0,0.0,0.0,0.0,1.0,2.0,0.0,4.41,0.29,3.53,
12.944,88.82504753919252,89.24651730003794,132.11,-34.87,8.24,1.0,0.0,0.0,0.0,1.0,2.0,0.0,4.61,0.69,1.77,
12.968,85.53550475391926,79.6556517300038,-4.11,225.44,90.69,1.0,0.0,0.0,0.0,1.0,1.0,0.0,4.71,0.88,0.0,
12.992,83.98255047539193,81.98156517300038,-9.73,-92.32,-0.88,2.0,0.0,0.0,2.0,1.0,2.0,0.0,4.32,1.67,5.3,
13.017,84.9972550475392,78.54215651730003,-29.05,-21.01,-12.85,2.0,0.0,0.0,4.0,1.0,2.0,0.0,9.91,10.79,0.88,
13.041,84.8377255047539,79.65621565173001,-14.39,31.79,-3.53,3.0,0.0,0.0,4.0,1.0,3.0,0.0,18.15,13.93,0.98,
13.065,86.1357725504754,79.236621565173,-10.64,14.01,-11.34,3.0,0.0,0.0,4.0,1.0,3.0,0.0,19.62,13.05,1.47,
13.089,90.66657725504754,79.46466215651729,-1.54,6.78,-0.97,3.0,0.0,0.0,4.0,1.0,4.0,1.0,22.37,14.13,0.0,
13.114,91.52465772550477,79.09146621565172,5.81,-0.64,1.42,4.0,0.0,0.0,5.0,0.0,4.0,1.0,24.23,15.99,14.13,
13.138,91.59246577255047,79.59414662156517,2.86,2.66,-5.14,5.0,0.0,0.0,5.0,0.0,5.0,1.0,24.33,16.78,0.0,
13.162,92.16624657725505,80.28341466215652,3.66,5.33,-6.18,5.0,0.0,0.0,6.0,0.0,5.0,1.0,24.03,17.27,0.0,
13.187,93.09662465772551,80.79334146621565,1.21,5.32,-5.76,6.0,0.0,0.0,6.0,0.0,5.0,1.0,24.43,18.44,0.0,
13.21,94.21566246577255,81.40233414662157,-2.51,-0.53,-6.54,6.0,0.0,0.0,6.0,0.0,5.0,1.0,24.82,19.82,0.0,
13.235,95.31756624657726,81.89523341466216,-2.52,-4.8,-4.07,7.0,0.0,0.0,6.0,0.0,5.0,1.0,24.62,20.8,0.0,
13.259,95.73375662465773,82.19652334146622,-2.21,-5.91,-3.27,8.0,0.0,0.0,6.0,0.0,5.0,1.0,23.94,21.29,0.0,
13.284,95.90137566246577,82.28065233414662,-0.44,-1.66,-3.44,8.0,0.0,0.0,6.0,0.0,6.0,1.0,23.15,21.39,0.0,
13.308,96.02613756624658,82.63106523341466,1.85,2.69,-3.98,8.0,0.0,0.0,6.0,0.0,5.0,1.0,22.17,21.39,5.2,
13.332,96.47061375662466,82.90910652334146,1.79,4.34,-5.24,9.0,0.0,0.0,6.0,0.0,5.0,1.0,21.09,21.68,2.75,
13.357,97.13606137566245,83.17991065233414,0.79,2.02,-4.05,9.0,0.0,0.0,5.0,0.0,5.0,1.0,20.21,21.88,0.0,
13.38,97.52660613756625,83.44999106523342,0.89,-0.69,-2.73,9.0,0.0,0.0,5.0,0.0,4.0,1.0,19.42,21.78,0.0,
13.405,97.77266061375661,83.78299910652335,1.14,-1.84,-1.78,9.0,0.0,0.0,5.0,0.0,4.0,0.0,18.64,21.39,0.0,
13.429,97.79726606137565,83.89729991065234,2.43,-0.9,-0.68,9.0,0.0,0.0,5.0,0.0,3.0,0.0,17.76,20.6,8.14,
13.453,97.88972660613757,83.99872999106525,3.53,0.18,-0.28,10.0,0.0,0.0,4.0,0.0,2.0,0.0,16.87,20.01,5.0,
13.477,97.97997266061375,84.08087299910653,3.45,0.11,0.08,10.0,0.0,0.0,4.0,0.0,2.0,0.0,15.79,19.13,2.65,
13.501,98.07899726606138,84.20608729991065,3.68,-0.4,1.13,10.0,0.0,0.0,3.0,0.0,2.0,0.0,14.03,17.95,2.55,
13.526,98.15189972660613,84.50660872999107,2.44,-0.61,0.66,10.0,0.0,0.0,3.0,0.0,2.0,0.0,12.85,16.68,1.77,
13.549,98.32118997266062,84.8246608729991,0.27,-2.05,1.15,9.0,0.0,0.0,3.0,0.0,2.0,0.0,11.77,15.6,2.16,
13.574,98.37411899726607,85.00046608729991,-1.57,-2.35,1.15,9.0,0.0,0.0,3.0,0.0,2.0,0.0,11.18,14.62,1.96,
13.598,98.4244118997266,85.16204660873,-3.26,-2.09,1.02,10.0,0.0,0.0,3.0,0.0,2.0,0.0,11.09,14.13,1.57,
13.622,98.51044118997265,85.286204660873,-5.92,-1.97,0.5,10.0,0.0,0.0,3.0,0.0,2.0,0.0,11.09,14.13,1.08,
13.646,98.64504411899726,85.4426204660873,-8.82,-4.21,1.47,10.0,0.0,0.0,3.0,0.0,2.0,0.0,11.77,14.32,0.78,
13.671,99.02750441189971,84.78326204660871,-11.08,-8.79,3.76,10.0,0.0,0.0,4.0,0.0,3.0,0.0,13.73,14.81,1.77,
13.696,98.79575044118997,84.46532620466088,-11.92,-5.4,5.04,10.0,0.0,0.0,5.0,0.0,4.0,1.0,15.79,15.4,0.0,
13.719,98.60157504411899,84.35253262046609,-7.16,-1.94,3.24,10.0,0.0,0.0,5.0,0.0,5.0,1.0,17.95,15.7,8.24,
13.744,98.4111575044119,84.34125326204662,-5.77,1.85,2.47,10.0,0.0,0.0,6.0,0.0,5.0,1.0,19.42,16.09,0.0,
13.768,98.39211575044119,84.36712532620467,-6.11,1.37,2.09,10.0,0.0,0.0,6.0,0.0,6.0,2.0,20.31,16.58,0.0,
13.793,98.42621157504412,84.36971253262047,-7.57,0.69,2.27,10.0,0.0,0.0,6.0,0.0,6.0,2.0,21.19,17.46,0.0,
13.816,98.46562115750442,84.37897125326204,-9.23,0.56,2.6,10.0,0.0,0.0,7.0,0.0,6.0,2.0,22.37,18.05,0.0,
13.841,98.43356211575045,84.2808971253262,-8.17,0.08,2.27,10.0,0.0,0.0,7.0,0.0,7.0,2.0,23.05,18.64,0.39,
13.865,98.43035621157505,84.17208971253262,-6.82,0.27,1.67,11.0,0.0,0.0,7.0,0.0,7.0,2.0,23.84,19.13,2.06,
13.889,98.3760356211575,84.08020897125326,-6.24,1.23,1.28,11.0,0.0,0.0,8.0,0.0,7.0,3.0,24.33,19.62,0.49,
13.914,98.46060356211575,84.09802089712532,-5.76,-0.13,1.18,11.0,0.0,0.0,8.0,0.0,7.0,3.0,24.62,20.01,0.0,
13.938,98.49606035621159,84.02780208971252,-5.69,-0.03,0.62,11.0,0.0,0.0,8.0,0.0,8.0,3.0,24.92,20.4,0.2,
13.963,98.54460603562114,83.94878020897126,-6.39,0.8,0.59,11.0,0.0,0.0,8.0,0.0,8.0,3.0,25.31,20.9,0.49,
13.986,98.57646060356211,83.87787802089713,-6.52,-0.78,0.74,11.0,0.0,0.0,8.0,0.0,8.0,3.0,25.6,21.29,0.29,
14.011,98.6336460603562,83.7717878020897,-5.58,-1.76,0.85,11.0,0.0,0.0,8.0,0.0,8.0,3.0,25.9,21.68,0.0,
14.035,98.69336460603562,83.68017878020896,-4.82,-1.87,0.59,11.0,0.0,0.0,8.0,0.0,8.0,3.0,26.19,22.07,0.59,
14.06,98.68133646060357,83.58101787802089,-4.05,-2.52,0.82,11.0,0.0,0.0,8.0,0.0,8.0,3.0,26.29,22.17,0.0,
14.085,98.63513364606035,83.50810178780209,-3.42,-2.78,0.42,11.0,0.0,0.0,9.0,0.0,8.0,3.0,26.49,22.17,0.0,
14.108,98.61251336460603,83.47381017878021,-3.6,-2.54,-0.04,11.0,0.0,0.0,9.0,0.0,8.0,3.0,26.59,22.27,0.59,
14.133,98.5922513364606,83.44338101787802,-3.98,-1.91,0.27,12.0,0.0,0.0,9.0,0.0,8.0,3.0,26.59,22.27,0.69,
14.157,98.58122513364606,83.4133381017878,-3.69,-2.03,0.34,12.0,0.0,0.0,9.0,0.0,8.0,3.0,26.68,22.27,0.59,
14.182,98.5981225133646,83.41033381017878,-3.52,-2.63,0.53,12.0,0.0,0.0,9.0,0.0,8.0,3.0,26.68,22.37,0.49,
14.206,98.67181225133646,83.41003338101788,-3.65,-3.15,0.57,12.0,0.0,0.0,9.0,0.0,8.0,3.0,26.68,22.07,0.49,
14.231,98.62518122513366,83.43700333810179,-4.06,-3.22,0.15,12.0,0.0,0.0,9.0,0.0,8.0,3.0,26.59,21.88,0.69,
14.255,98.61151812251336,83.43070033381018,-4.35,-3.21,0.3,12.0,0.0,0.0,9.0,0.0,8.0,3.0,26.49,21.48,0.59,
14.279,98.56515181225134,83.42107003338101,-4.07,-3.37,0.38,12.0,0.0,0.0,9.0,0.0,8.0,3.0,26.49,21.29,0.39,
14.304,98.56951518122513,83.3481070033381,-4.15,-3.03,0.31,12.0,0.0,0.0,9.0,0.0,8.0,3.0,26.39,21.19,0.59,
14.328,98.56095151812252,83.3498107003338,-4.31,-2.72,0.26,12.0,0.0,0.0,9.0,0.0,8.0,3.0,26.29,20.8,1.08,
14.353,98.49709515181225,83.31398107003338,-4.56,-2.96,0.82,12.0,0.0,0.0,9.0,0.0,8.0,3.0,26.09,20.6,0.98,
14.376,98.40970951518122,83.25639810700333,-4.83,-3.1,0.85,12.0,0.0,0.0,9.0,0.0,8.0,3.0,25.9,20.4,0.59,
14.401,98.31997095151812,83.16063981070035,-4.9,-3.26,0.44,12.0,0.0,0.0,9.0,0.0,8.0,4.0,25.9,20.21,0.39,
14.426,98.23899709515182,83.09706398107004,-4.69,-3.31,0.73,12.0,0.0,0.0,9.0,0.0,8.0,4.0,25.8,19.91,0.78,
14.45,98.18589970951518,82.991706398107,-4.38,-3.48,0.37,12.0,0.0,0.0,9.0,0.0,8.0,4.0,25.8,19.72,0.88,
14.475,98.09958997095153,82.9811706398107,-4.53,-3.35,0.35,12.0,0.0,0.0,9.0,0.0,9.0,4.0,25.9,19.72,0.59,
14.498,98.01895899709515,83.06111706398106,-3.75,-2.24,0.19,12.0,0.0,0.0,9.0,0.0,9.0,4.0,25.8,19.52,0.59,
14.523,97.95689589970951,83.0511117063981,-3.31,-2.04,0.03,12.0,0.0,0.0,9.0,0.0,9.0,4.0,25.7,19.42,0.39,
14.547,97.86068958997095,82.9781111706398,-3.04,-2.25,0.11,12.0,0.0,0.0,9.0,0.0,9.0,4.0,25.41,19.23,0.29,
14.572,97.87806895899709,82.96181111706397,-2.76,-2.19,0.46,12.0,0.0,0.0,9.0,0.0,9.0,4.0,25.41,19.03,0.1,
14.597,97.8348068958997,82.9691811117064,-2.49,-1.66,0.24,12.0,0.0,0.0,9.0,0.0,9.0,4.0,25.21,18.84,0.0,
14.62,97.78548068958997,82.94291811117064,-2.36,-1.58,0.2,12.0,0.0,0.0,9.0,0.0,9.0,4.0,24.92,18.74,0.29,
14.645,97.80754806895901,82.95829181111706,-2.44,-1.25,0.05,12.0,0.0,0.0,9.0,0.0,9.0,4.0,24.72,18.54,0.39,
14.669,97.78275480689591,83.0138291811117,-2.24,-0.69,0.15,12.0,0.0,0.0,9.0,0.0,9.0,4.0,24.62,18.34,0.29,
14.694,97.71727548068958,83.01038291811118,-2.31,-0.89,-0.17,12.0,0.0,0.0,9.0,0.0,9.0,4.0,24.52,18.34,0.49,
14.718,97.68372754806896,83.03703829181111,-2.3,-1.63,-0.16,12.0,0.0,0.0,9.0,0.0,9.0,4.0,24.33,18.34,0.69,
14.743,97.6893727548069,83.08470382918111,-2.39,-1.71,-0.09,12.0,0.0,0.0,9.0,0.0,9.0,4.0,24.33,18.25,0.49,
14.767,97.6899372754807,83.0984703829181,-2.79,-1.81,-0.05,12.0,0.0,0.0,9.0,0.0,9.0,4.0,24.23,18.15,0.39,
14.791,97.68999372754807,83.13584703829181,-2.87,-1.33,0.24,12.0,0.0,0.0,9.0,0.0,9.0,4.0,24.23,18.15,0.59,
14.816,97.69899937275481,83.12158470382919,-2.67,-1.64,0.15,12.0,0.0,0.0,9.0,0.0,8.0,4.0,24.43,18.15,0.88,
14.84,97.72689993727549,83.1021584703829,-2.87,-1.85,-0.01,12.0,0.0,0.0,9.0,0.0,9.0,4.0,24.43,18.25,0.69,
14.865,97.71168999372753,83.10021584703829,-3.02,-1.98,0.0,12.0,0.0,0.0,9.0,0.0,9.0,4.0,24.52,18.25,0.69,
14.889,97.74616899937276,83.08202158470384,-3.21,-2.2,0.25,12.0,0.0,0.0,9.0,0.0,8.0,4.0,24.72,18.25,0.1,
14.913,97.72261689993728,83.10720215847039,-3.26,-2.19,0.3,12.0,0.0,0.0,9.0,0.0,8.0,3.0,24.82,18.25,0.0,
14.938,97.65726168999373,83.08272021584705,-3.66,-1.9,0.6,12.0,0.0,0.0,9.0,0.0,8.0,3.0,24.82,18.25,0.1,
14.962,97.70472616899937,83.0622720215847,-3.68,-1.84,0.56,12.0,0.0,0.0,9.0,0.0,8.0,3.0,25.11,18.34,0.2,
14.987,97.70947261689993,83.01522720215847,-3.79,-1.25,0.33,12.0,0.0,0.0,9.0,0.0,8.0,4.0,25.31,18.34,0.2,
15.011,97.70094726169,82.99252272021585,-3.73,-1.32,0.38,12.0,0.0,0.0,9.0,0.0,8.0,4.0,25.41,18.44,0.59,
15.035,97.69109472616901,83.0082522720216,-3.73,-1.39,0.26,12.0,0.0,0.0,9.0,0.0,9.0,4.0,25.41,18.54,0.49,
15.059,97.69010947261691,82.99182522720216,-3.63,-1.41,0.44,12.0,0.0,0.0,9.0,0.0,9.0,4.0,25.6,18.74,0.39,
15.084,97.6270109472617,82.98118252272022,-3.47,-1.69,0.32,12.0,0.0,0.0,9.0,0.0,9.0,3.0,25.8,18.74,0.0,
15.109,97.60270109472617,82.98911825227202,-3.5,-1.77,0.45,12.0,0.0,0.0,9.0,0.0,8.0,3.0,25.9,18.84,0.29,
15.132,97.55527010947262,82.97191182522721,-3.37,-1.52,0.37,12.0,0.0,0.0,9.0,0.0,8.0,4.0,26.0,18.93,0.78,
15.157,97.55952701094726,82.95219118252272,-3.81,-1.31,0.13,12.0,0.0,0.0,9.0,0.0,9.0,4.0,26.0,18.84,0.98,
15.181,97.53295270109473,82.95021911825228,-3.92,-1.2,0.07,12.0,0.0,0.0,9.0,0.0,9.0,4.0,26.0,18.93,1.08,
15.206,97.53929527010948,82.93202191182525,-3.98,-0.79,0.05,12.0,0.0,0.0,9.0,0.0,9.0,4.0,26.09,18.93,0.59,
15.23,97.55792952701094,82.90320219118254,-3.76,-1.01,0.22,12.0,0.0,0.0,9.0,0.0,9.0,4.0,26.09,18.93,0.2,
15.254,97.52379295270109,82.93632021911826,-4.6,-0.44,-0.18,12.0,0.0,0.0,9.0,0.0,9.0,4.0,26.29,19.13,0.0,
15.279,97.5473792952701,82.91263202191182,-5.43,0.28,0.23,12.0,0.0,0.0,10.0,0.0,9.0,4.0,26.39,19.33,1.08,
15.303,97.55873792952701,82.86526320219117,-5.54,-0.47,0.24,12.0,0.0,0.0,10.0,0.0,8.0,4.0,26.68,19.62,2.06,
15.328,97.5778737929527,82.8065263202191,-5.11,-0.47,0.16,12.0,0.0,0.0,10.0,0.0,9.0,4.0,27.08,20.01,0.0,
15.352,97.60678737929527,82.7466526320219,-4.79,-1.35,0.53,12.0,0.0,0.0,10.0,0.0,9.0,4.0,27.47,20.21,0.0,
15.377,97.59167873792953,82.6956652632022,-4.71,-1.84,0.25,12.0,0.0,0.0,10.0,0.0,9.0,4.0,27.86,20.5,0.0,
15.401,97.59916787379295,82.67256652632022,-4.29,-1.9,0.68,12.0,0.0,0.0,10.0,0.0,9.0,5.0,28.06,20.5,0.0,
15.426,97.5639167873793,82.63425665263202,-3.79,-1.66,0.21,12.0,0.0,0.0,10.0,0.0,9.0,5.0,28.15,20.6,0.88,
15.451,97.58739167873793,82.5314256652632,-3.48,-1.93,0.32,12.0,0.0,0.0,10.0,0.0,9.0,5.0,28.25,20.5,0.88,
15.474,97.5897391678738,82.55714256652632,-3.28,-2.02,0.32,12.0,0.0,0.0,10.0,0.0,9.0,5.0,28.25,20.4,0.29,
15.499,97.58097391678739,82.53271425665264,-3.02,-1.78,0.17,12.0,0.0,0.0,10.0,0.0,9.0,5.0,28.15,20.31,0.0,
15.523,97.58009739167873,82.53927142566526,-2.79,-1.88,0.04,12.0,0.0,0.0,10.0,0.0,9.0,5.0,28.25,20.21,0.0,
15.548,97.57100973916788,82.53992714256653,-2.64,-2.22,0.17,12.0,0.0,0.0,10.0,0.0,9.0,5.0,28.15,20.11,0.0,
15.572,97.52510097391678,82.57599271425666,-2.73,-1.94,0.14,12.0,0.0,0.0,10.0,0.0,9.0,5.0,28.15,20.11,0.0,
15.597,97.47551009739168,82.61559927142567,-2.56,-1.73,0.01,12.0,0.0,0.0,10.0,0.0,9.0,5.0,28.15,19.91,1.28,
15.622,97.52455100973917,82.61055992714257,-2.92,-1.5,0.18,12.0,0.0,0.0,10.0,0.0,9.0,4.0,28.15,19.91,0.69,
15.646,97.49345510097392,82.66405599271427,-2.96,-1.43,0.07,12.0,0.0,0.0,10.0,0.0,9.0,4.0,28.06,19.82,0.39,
15.671,97.45434551009738,82.65140559927143,-2.88,-1.51,0.28,12.0,0.0,0.0,10.0,0.0,9.0,5.0,27.96,19.82,0.69,
15.694,97.38743455100973,82.63214055992715,-2.95,-1.44,0.02,12.0,0.0,0.0,10.0,0.0,9.0,4.0,27.96,19.82,0.78,
15.719,97.38974345510097,82.63021405599272,-3.03,-1.47,0.21,12.0,0.0,0.0,10.0,0.0,9.0,4.0,27.96,19.82,0.49,
15.744,97.3719743455101,82.64802140559928,-3.06,-1.25,0.2,11.0,0.0,0.0,10.0,0.0,9.0,4.0,27.96,19.91,0.29,
15.768,97.39719743455102,82.64980214055993,-3.28,-1.15,0.11,12.0,0.0,0.0,10.0,0.0,9.0,4.0,28.06,19.91,0.49,
15.793,97.4357197434551,82.640980214056,-3.18,-0.7,0.16,12.0,0.0,0.0,10.0,0.0,9.0,4.0,27.96,19.82,0.49,
15.817,97.43957197434551,82.6490980214056,-3.32,-0.5,0.33,12.0,0.0,0.0,10.0,0.0,9.0,5.0,28.06,19.91,0.49,
15.842,97.49395719743455,82.61390980214057,-3.2,-0.98,0.26,12.0,0.0,0.0,10.0,0.0,9.0,5.0,28.06,20.01,0.0,
15.866,97.49939571974346,82.57439098021406,-2.83,-1.1,0.15,12.0,0.0,0.0,10.0,0.0,9.0,5.0,28.06,20.01,0.2,
15.891,97.54493957197434,82.57043909802141,-2.73,-1.29,0.15,12.0,0.0,0.0,10.0,0.0,9.0,5.0,28.06,20.21,0.49,
15.915,97.60349395719743,82.58804390980214,-3.02,-1.56,0.07,12.0,0.0,0.0,10.0,0.0,9.0,5.0,27.96,20.01,0.0,
15.939,97.55534939571974,82.59880439098022,-2.93,-1.84,0.18,12.0,0.0,0.0,10.0,0.0,9.0,5.0,27.96,20.01,0.2,
15.964,97.51453493957197,82.59088043909803,-2.74,-1.91,0.18,12.0,0.0,0.0,10.0,0.0,9.0,5.0,27.86,19.91,0.98,
15.988,97.5374534939572,82.5990880439098,-2.9,-1.44,-0.04,12.0,0.0,0.0,10.0,0.0,9.0,5.0,27.76,19.82,0.98,
16.013,97.54874534939572,82.61790880439098,-2.79,-1.56,0.16,12.0,0.0,0.0,10.0,0.0,9.0,4.0,27.66,19.82,0.88,
16.037,97.52287453493958,82.6197908804391,-2.65,-1.65,0.11,12.0,0.0,0.0,10.0,0.0,9.0,4.0,27.66,19.72,0.98,
16.062,97.50228745349395,82.5929790880439,-2.43,-1.74,0.17,12.0,0.0,0.0,10.0,0.0,9.0,4.0,27.57,19.62,0.98,
16.087,97.52722874534939,82.63529790880439,-2.44,-1.59,-0.04,12.0,0.0,0.0,10.0,0.0,9.0,4.0,27.37,19.52,2.06,
16.111,97.46672287453494,82.59452979088044,-2.32,-1.71,-0.05,12.0,0.0,0.0,10.0,0.0,9.0,4.0,27.27,19.42,1.86,
16.136,97.47867228745349,82.61745297908804,-2.32,-1.66,0.15,12.0,0.0,0.0,9.0,0.0,8.0,4.0,27.08,19.23,0.0,
16.16,97.54286722874535,82.6107452979088,-2.39,-1.97,0.28,12.0,0.0,0.0,9.0,0.0,8.0,4.0,26.88,19.23,0.69,
16.184,97.45928672287454,82.65507452979088,-2.36,-1.53,0.27,12.0,0.0,0.0,9.0,0.0,8.0,4.0,26.68,19.03,1.18,
16.208,97.45092867228745,82.6685074529791,-2.47,-1.44,-0.16,12.0,0.0,0.0,9.0,0.0,8.0,4.0,26.49,18.93,1.28,
16.233,97.44109286722875,82.71485074529792,-2.91,-1.21,-0.28,12.0,0.0,0.0,9.0,0.0,8.0,4.0,26.39,18.84,0.69,
16.258,97.47610928672287,82.6924850745298,-2.69,-1.24,-0.02,12.0,0.0,0.0,9.0,0.0,8.0,4.0,26.39,18.74,0.88,
16.282,97.50661092867229,82.68124850745298,-2.82,-1.34,-0.07,12.0,0.0,0.0,9.0,0.0,8.0,4.0,26.29,18.74,0.0,
16.307,97.50066109286723,82.7161248507453,-3.07,-0.97,-0.15,12.0,0.0,0.0,9.0,0.0,8.0,4.0,26.29,18.74,0.1,
16.331,97.46406610928672,82.72861248507454,-2.67,-1.15,-0.12,12.0,0.0,0.0,9.0,0.0,8.0,4.0,26.19,18.74,0.2,
16.356,97.46940661092867,82.72986124850746,-2.88,-0.95,0.01,12.0,0.0,0.0,9.0,0.0,8.0,4.0,26.09,18.74,0.39,
16.379,97.50594066109286,82.72998612485075,-3.02,-0.74,0.08,12.0,0.0,0.0,9.0,0.0,8.0,4.0,26.09,18.74,0.49,
16.404,97.55459406610929,82.72999861248508,-2.83,-0.6,0.17,12.0,0.0,0.0,9.0,0.0,8.0,4.0,26.0,18.74,0.39,
16.429,97.53245940661093,82.72099986124852,-2.73,-0.99,0.08,12.0,0.0,0.0,9.0,0.0,8.0,4.0,25.9,18.93,0.39,
16.453,97.49424594066109,82.70209998612486,-2.62,-1.19,-0.31,12.0,0.0,0.0,9.0,0.0,8.0,4.0,26.0,18.93,0.78,
16.478,97.5084245940661,82.7452099986125,-2.45,-1.21,-0.24,12.0,0.0,0.0,9.0,0.0,8.0,4.0,26.0,18.93,0.98,
16.502,97.50984245940661,82.75852099986126,-2.5,-1.27,0.08,12.0,0.0,0.0,9.0,0.0,8.0,4.0,25.9,19.03,0.69,
16.526,97.51898424594066,82.80485209998614,-2.63,-1.28,-0.22,12.0,0.0,0.0,9.0,0.0,8.0,4.0,25.9,18.93,0.59,
16.55,97.50189842459406,82.84548520999861,-2.58,-0.94,0.09,12.0,0.0,0.0,9.0,0.0,8.0,4.0,25.9,19.03,0.29,
16.575,97.5091898424594,82.92154852099988,-2.49,-1.15,-0.18,12.0,0.0,0.0,9.0,0.0,8.0,4.0,25.9,19.03,0.1,
16.6,97.50091898424594,82.93815485209998,-2.35,-1.32,0.04,12.0,0.0,0.0,9.0,0.0,8.0,4.0,25.8,18.93,0.39,
16.624,97.5090918984246,82.89481548520999,-2.12,-1.25,0.13,12.0,0.0,0.0,9.0,0.0,8.0,4.0,25.6,18.84,2.45,
16.649,97.48290918984246,82.92648154852101,-1.69,-1.33,0.12,12.0,0.0,0.0,9.0,0.0,8.0,4.0,25.51,18.84,0.98,
16.672,97.46229091898424,82.9566481548521,-1.86,-1.31,0.18,12.0,0.0,0.0,8.0,0.0,8.0,4.0,25.41,18.64,0.2,
16.697,97.46922909189843,83.03166481548521,-1.75,-1.4,0.24,12.0,0.0,0.0,8.0,0.0,8.0,4.0,25.21,18.44,0.98,
16.721,97.44292290918983,83.01216648154852,-1.77,-1.48,0.18,12.0,0.0,0.0,8.0,0.0,8.0,3.0,25.02,18.25,1.77,
16.746,97.47629229091898,83.02821664815485,-1.84,-1.83,-0.02,12.0,0.0,0.0,8.0,0.0,8.0,3.0,24.92,18.15,1.77,
16.771,97.43462922909191,83.04782166481549,-1.72,-1.79,-0.31,12.0,0.0,0.0,8.0,0.0,8.0,3.0,24.72,17.95,2.35,
16.795,97.45746292290919,83.10378216648155,-1.8,-1.85,0.2,12.0,0.0,0.0,8.0,0.0,8.0,3.0,24.62,17.85,1.28,
16.819,97.44174629229092,83.07337821664814,-1.94,-1.63,0.07,11.0,0.0,0.0,8.0,0.0,8.0,3.0,24.43,17.66,2.06,
16.843,97.45817462922909,83.13333782166482,-2.37,-1.43,0.02,12.0,0.0,0.0,8.0,0.0,7.0,3.0,24.33,17.56,1.96,
16.868,97.4418174629229,83.13933378216649,-2.44,-1.6,0.11,11.0,0.0,0.0,8.0,0.0,7.0,3.0,24.13,17.56,0.59,
16.892,97.48518174629228,83.15793337821664,-2.69,-1.4,-0.06,11.0,0.0,0.0,8.0,0.0,8.0,3.0,24.03,17.46,1.37,
16.917,97.53451817462923,83.15079333782167,-2.95,-1.64,0.08,11.0,0.0,0.0,8.0,0.0,8.0,3.0,24.03,17.46,0.88,
16.941,97.52145181746292,83.17707933378217,-2.99,-1.41,-0.05,11.0,0.0,0.0,8.0,0.0,8.0,3.0,23.94,17.46,0.39,
16.965,97.53814518174629,83.21570793337821,-3.24,-1.2,0.26,11.0,0.0,0.0,8.0,0.0,8.0,3.0,23.94,17.46,0.39,
16.99,97.50381451817462,83.23757079333782,-3.3,-1.32,0.44,11.0,0.0,0.0,8.0,0.0,8.0,3.0,23.94,17.36,0.0,
17.014,97.45538145181746,83.2577570793338,-3.47,-1.21,0.29,11.0,0.0,0.0,8.0,0.0,8.0,3.0,23.94,17.46,0.49,
17.039,97.46853814518174,83.25977570793339,-3.49,-1.33,0.04,11.0,0.0,0.0,8.0,0.0,8.0,3.0,23.94,17.46,0.78,
17.062,97.46085381451817,83.23297757079335,-3.24,-1.51,0.12,11.0,0.0,0.0,8.0,0.0,8.0,3.0,24.13,17.46,0.49,
17.087,97.43308538145183,83.15829775707934,-3.47,-1.62,-0.05,11.0,0.0,0.0,8.0,0.0,8.0,3.0,24.13,17.46,0.39,
17.112,97.43930853814518,83.14182977570795,-3.27,-1.1,-0.05,11.0,0.0,0.0,8.0,0.0,8.0,3.0,24.03,17.46,0.0,
17.136,97.43093085381453,83.1131829775708,-3.33,-0.85,0.08,11.0,0.0,0.0,8.0,0.0,8.0,3.0,24.13,17.46,0.29,
17.161,97.44809308538144,83.11031829775709,-3.12,-0.98,0.34,11.0,0.0,0.0,8.0,0.0,8.0,3.0,24.13,17.46,0.29,
17.185,97.45880930853814,83.1010318297757,-3.05,-1.29,0.13,11.0,0.0,0.0,8.0,0.0,8.0,3.0,24.13,17.46,0.69,
17.209,97.39688093085381,83.10010318297756,-3.02,-1.35,0.1,11.0,0.0,0.0,8.0,0.0,8.0,3.0,24.13,17.56,0.88,
17.233,97.39968809308539,83.09101031829776,-3.16,-1.02,0.09,11.0,0.0,0.0,8.0,0.0,8.0,3.0,24.13,17.46,1.37,
17.258,97.44496880930853,83.09010103182978,-3.51,-1.25,0.18,11.0,0.0,0.0,8.0,0.0,8.0,3.0,24.13,17.46,0.78,
17.283,97.44949688093085,83.06301010318298,-3.36,-1.73,0.08,11.0,0.0,0.0,8.0,0.0,8.0,3.0,24.03,17.36,0.0,
17.307,97.47694968809309,83.06930101031828,-3.4,-1.86,-0.17,11.0,0.0,0.0,8.0,0.0,8.0,3.0,24.13,17.46,0.0,
17.332,97.41669496880931,83.06993010103182,-3.6,-1.59,-0.27,11.0,0.0,0.0,8.0,0.0,8.0,3.0,24.23,17.56,0.0,
17.355,97.41966949688093,83.02499301010319,-3.65,-1.26,0.07,11.0,0.0,0.0,8.0,0.0,8.0,3.0,24.33,17.46,0.0,
17.38,97.41096694968809,82.99349930101032,-3.92,-0.78,-0.05,11.0,0.0,0.0,8.0,0.0,8.0,3.0,24.43,17.56,0.59,
17.404,97.42809669496881,83.04434993010103,-3.86,-1.05,0.03,11.0,0.0,0.0,8.0,0.0,8.0,3.0,24.33,17.56,1.18,
17.429,97.47480966949688,83.0674349930101,-3.86,-1.32,0.13,12.0,0.0,0.0,8.0,0.0,8.0,3.0,24.52,17.66,0.0,
17.454,97.49748096694968,83.069743499301,-3.98,-1.16,-0.02,12.0,0.0,0.0,8.0,0.0,8.0,3.0,24.52,17.76,0.0,
17.478,97.49974809669496,83.0969743499301,-3.66,-1.17,0.16,12.0,0.0,0.0,8.0,0.0,8.0,3.0,24.72,17.85,0.69,
17.502,97.4819748096695,83.03669743499302,-3.51,-1.51,-0.11,12.0,0.0,0.0,8.0,0.0,8.0,4.0,24.82,17.85,0.59,
17.526,97.43519748096696,83.0486697434993,-3.54,-1.8,-0.05,12.0,0.0,0.0,9.0,0.0,8.0,4.0,24.92,18.05,0.39,
17.551,97.39451974809668,83.04986697434994,-3.32,-1.34,0.0,12.0,0.0,0.0,9.0,0.0,8.0,4.0,24.92,18.05,0.49,
17.575,97.44445197480967,83.09498669743499,-3.46,-1.41,-0.1,12.0,0.0,0.0,9.0,0.0,8.0,4.0,25.02,18.15,0.29,
17.6,97.51244519748096,83.07249866974348,-3.47,-1.24,-0.05,11.0,0.0,0.0,9.0,0.0,8.0,4.0,25.02,18.25,0.1,
17.625,97.4742445197481,83.02524986697435,-3.42,-1.27,-0.03,12.0,0.0,0.0,9.0,0.0,8.0,4.0,25.11,18.25,0.0,
17.649,97.50642445197481,82.99352498669744,-3.5,-1.38,0.15,12.0,0.0,0.0,9.0,0.0,8.0,4.0,25.11,18.44,0.0,
17.673,97.53664244519749,82.97235249866975,-3.21,-1.51,-0.18,12.0,0.0,0.0,9.0,0.0,8.0,4.0,25.21,18.54,0.39,
17.697,97.48566424451974,82.98823524986697,-3.42,-1.27,0.02,12.0,0.0,0.0,9.0,0.0,8.0,4.0,25.21,18.34,0.2,
17.722,97.46256642445198,82.9808235249867,-3.53,-0.85,-0.18,12.0,0.0,0.0,9.0,0.0,8.0,4.0,25.31,18.44,0.29,
17.746,97.4332566424452,83.01608235249867,-3.49,-1.24,-0.02,11.0,0.0,0.0,9.0,0.0,8.0,4.0,25.41,18.54,0.29,
17.771,97.39432566424452,82.97460823524986,-3.59,-1.02,-0.02,12.0,0.0,0.0,9.0,0.0,8.0,4.0,25.6,18.64,0.29,
17.796,97.38143256642445,82.95246082352499,-3.63,-0.76,0.02,12.0,0.0,0.0,9.0,0.0,8.0,4.0,25.7,18.74,0.0,
17.819,97.41614325664244,82.94124608235249,-3.51,-0.78,-0.1,12.0,0.0,0.0,9.0,0.0,8.0,4.0,25.7,18.84,0.0,
17.844,97.41961432566424,82.85012460823526,-3.66,-0.87,0.04,12.0,0.0,0.0,9.0,0.0,8.0,4.0,25.9,18.93,0.0,
17.868,97.42896143256644,82.84101246082353,-3.36,-1.0,0.0,12.0,0.0,0.0,9.0,0.0,8.0,4.0,25.9,19.03,0.0,
17.893,97.45689614325664,82.81310124608237,-3.44,-1.08,-0.05,12.0,0.0,0.0,9.0,0.0,8.0,4.0,26.0,19.13,0.0,
17.917,97.48668961432566,82.82831012460824,-3.73,-0.98,0.18,12.0,0.0,0.0,9.0,0.0,8.0,4.0,26.19,19.23,0.0,
17.942,97.50766896143256,82.78483101246083,-3.75,-0.99,0.1,12.0,0.0,0.0,9.0,0.0,9.0,4.0,26.19,19.42,0.0,
17.966,97.50076689614326,82.78048310124609,-3.47,-1.23,0.05,12.0,0.0,0.0,9.0,0.0,9.0,4.0,26.39,19.42,0.2,
17.99,97.50907668961432,82.7440483101246,-3.72,-1.18,-0.13,12.0,0.0,0.0,9.0,0.0,9.0,4.0,26.39,19.52,0.1,
18.015,97.50090766896143,82.71340483101245,-3.45,-1.34,-0.12,12.0,0.0,0.0,9.0,0.0,9.0,4.0,26.49,19.52,0.69,
18.039,97.49109076689614,82.67434048310125,-3.47,-1.18,-0.14,12.0,0.0,0.0,10.0,0.0,9.0,4.0,88.0,19.52,0.69,
18.064,97.4631090766896,82.70643404831011,-3.02,-1.47,0.11,12.0,0.0,0.0,10.0,0.0,9.0,4.0,26.59,19.62,0.49,
18.088,97.44231090766895,82.74564340483101,-3.15,-1.15,-0.04,12.0,0.0,0.0,10.0,0.0,9.0,4.0,26.59,19.62,0.49,
18.113,97.39523109076688,82.76756434048309,-2.92,-1.29,-0.13,12.0,0.0,0.0,10.0,0.0,9.0,4.0,26.49,19.62,0.39,
18.138,97.36352310907668,82.83275643404832,-2.88,-1.12,-0.17,12.0,0.0,0.0,10.0,0.0,9.0,4.0,26.59,19.52,0.1,
18.162,97.38735231090766,82.83927564340485,-2.89,-1.17,0.0,12.0,0.0,0.0,10.0,0.0,9.0,4.0,26.49,19.52,0.39,
18.187,97.33573523109075,82.87592756434049,-3.09,-1.18,-0.12,12.0,0.0,0.0,10.0,0.0,9.0,4.0,26.39,19.52,1.28,
18.211,97.36657352310908,82.86159275643405,-2.85,-1.37,-0.18,12.0,0.0,0.0,10.0,0.0,9.0,4.0,26.39,19.52,0.59,
18.236,97.36065735231091,82.8511592756434,-2.94,-1.38,-0.37,12.0,0.0,0.0,10.0,0.0,9.0,4.0,26.49,19.62,0.39,
18.26,97.37806573523109,82.91311592756433,-2.69,-1.27,-0.44,12.0,0.0,0.0,10.0,0.0,9.0,4.0,26.39,19.62,0.2,
18.285,97.39780657352311,82.86531159275643,-2.57,-1.07,-0.24,12.0,0.0,0.0,10.0,0.0,9.0,4.0,26.29,19.62,0.0,
18.309,97.48978065735231,82.86953115927565,-2.58,-0.96,-0.05,12.0,0.0,0.0,10.0,0.0,9.0,4.0,26.19,19.62,0.0,
18.333,97.55297806573523,82.90595311592756,-2.54,-0.92,-0.05,12.0,0.0,0.0,9.0,0.0,9.0,4.0,26.09,19.52,0.0,
18.358,97.54129780657352,82.90959531159275,-2.2,-1.03,-0.21,12.0,0.0,0.0,9.0,0.0,9.0,4.0,26.0,19.42,0.39,
18.382,97.52212978065735,82.90995953115927,-2.47,-1.26,-0.18,12.0,0.0,0.0,9.0,0.0,9.0,4.0,26.0,19.42,0.59,
18.407,97.55621297806573,82.94599595311593,-2.31,-1.2,-0.48,12.0,0.0,0.0,9.0,0.0,9.0,4.0,25.9,19.42,0.29,
18.432,97.53262129780657,82.9405995953116,-2.47,-1.49,-0.4,12.0,0.0,0.0,9.0,0.0,9.0,4.0,25.8,19.33,0.39,
18.456,97.53026212978065,82.96705995953116,-2.52,-1.41,-0.3,12.0,0.0,0.0,9.0,0.0,8.0,4.0,25.8,19.23,0.59,
18.481,97.57502621297806,82.98770599595312,-2.46,-1.54,-0.23,12.0,0.0,0.0,9.0,0.0,8.0,4.0,25.6,19.13,0.88,
18.505,97.61550262129781,82.98977059959532,-2.45,-1.34,-0.15,12.0,0.0,0.0,9.0,0.0,8.0,4.0,25.6,19.13,0.88,
18.53,97.58355026212978,82.98097705995953,-2.4,-1.08,0.06,12.0,0.0,0.0,9.0,0.0,8.0,4.0,25.41,19.13,0.39,
18.553,97.58035502621297,83.01609770599596,-2.45,-1.35,0.05,12.0,0.0,0.0,9.0,0.0,8.0,4.0,25.21,18.93,0.29,
18.578,97.5710355026213,83.0106097705996,-2.39,-1.11,0.05,12.0,0.0,0.0,9.0,0.0,8.0,4.0,25.11,18.93,0.39,
18.603,97.55210355026213,83.02806097705997,-2.56,-1.07,0.02,12.0,0.0,0.0,9.0,0.0,8.0,4.0,25.02,18.74,2.16,
18.627,97.56821035502621,83.002806097706,-2.97,-0.82,-0.01,12.0,0.0,0.0,9.0,0.0,9.0,4.0,25.02,18.84,0.78,
18.652,97.63282103550262,83.0182806097706,-3.05,-1.12,-0.29,12.0,0.0,0.0,9.0,0.0,8.0,4.0,25.02,18.84,0.49,
18.675,97.55828210355025,83.00182806097706,-3.03,-1.15,-0.3,12.0,0.0,0.0,9.0,0.0,8.0,4.0,24.92,18.93,0.49,
18.7,97.56882821035502,83.00918280609771,-2.91,-1.28,0.05,12.0,0.0,0.0,9.0,0.0,8.0,4.0,25.02,18.93,0.78,
18.724,97.64188282103551,83.00091828060977,-2.83,-1.27,-0.05,12.0,0.0,0.0,9.0,0.0,8.0,4.0,25.02,18.93,0.69,
18.749,97.70318828210354,82.97309182806097,-2.63,-1.45,-0.08,12.0,0.0,0.0,9.0,0.0,8.0,4.0,25.02,18.93,0.59,
18.774,97.65531882821035,83.0153091828061,-2.92,-0.86,0.26,12.0,0.0,0.0,9.0,0.0,8.0,4.0,24.92,18.93,0.78,
18.798,97.66853188282104,83.10053091828061,-2.83,-1.01,0.13,12.0,0.0,0.0,9.0,0.0,8.0,4.0,24.92,19.03,1.18,
18.823,97.6968531882821,83.03705309182806,-2.86,-1.17,0.08,12.0,0.0,0.0,9.0,0.0,8.0,4.0,24.82,19.03,1.18,
18.846,97.69968531882822,83.07570530918281,-2.75,-1.56,-0.02,12.0,0.0,0.0,9.0,0.0,8.0,4.0,24.82,19.03,0.88,
18.871,97.73596853188282,83.07057053091827,-2.81,-1.54,-0.3,12.0,0.0,0.0,9.0,0.0,8.0,4.0,24.82,18.84,0.69,
18.895,97.74859685318829,83.00705705309183,-2.98,-1.36,-0.18,12.0,0.0,0.0,9.0,0.0,8.0,3.0,24.92,18.93,0.49,
18.92,97.71385968531882,83.01870570530919,-2.94,-1.25,0.02,12.0,0.0,0.0,9.0,0.0,8.0,3.0,24.82,18.93,0.0,
18.945,97.73738596853187,83.04687057053093,-2.95,-1.03,0.08,12.0,0.0,0.0,9.0,0.0,8.0,3.0,24.82,18.84,0.29,
18.969,97.75773859685319,83.04968705705309,-2.73,-1.04,0.08,12.0,0.0,0.0,9.0,0.0,8.0,3.0,24.72,18.84,0.1,
18.993,97.74177385968531,83.0949687057053,-2.75,-1.1,-0.11,12.0,0.0,0.0,9.0,0.0,8.0,3.0,24.72,18.84,0.49,
19.017,97.72217738596854,83.13549687057053,-2.97,-1.11,0.21,0.0,0.0,0.0,9.0,0.0,8.0,3.0,24.72,18.84,0.88,
