time,pitch,roll,gyrx,gyry,gyrz,f1,f2,f3,f4,f5,f6,f7,g1,g2,g3
0.346,47.81,41.54,0.0,0.0,-1.0,0,1,0,0,0,0,0,0.00,0.00,0.10,
0.359,54.893,47.714,0.0,0.0,0.0,0,1,0,0,0,0,0,0.00,0.10,0.10,
0.372,61.6313,53.578399999999995,0.0,0.0,0.0,0,1,0,0,0,0,0,0.20,0.00,0.00,
0.385,67.43513,58.619839999999996,0.0,1.0,-1.0,0,1,0,0,0,0,0,0.10,0.00,0.00,
0.398,72.272513,62.957983999999996,0.0,0.0,-1.0,0,1,0,0,0,0,0,0.00,0.00,0.00,
0.411,76.3742513,66.62279840000001,0.0,0.0,-1.0,0,1,0,0,0,0,0,0.00,0.00,0.00,
0.424,79.93442513,69.76127984,0.0,-1.0,-1.0,0,1,0,0,0,0,0,0.10,0.00,0.00,
0.438,82.96344251299999,72.316127984,0.0,-1.0,-1.0,0,1,0,0,0,0,0,0.00,0.00,0.00,
0.451,85.6153442513,74.49761279839998,0.0,0.0,-2.0,0,1,0,0,0,0,0,0.10,0.00,0.00,
0.464,87.78853442513,76.42576127984,-1.0,0.0,-2.0,0,1,0,0,0,0,0,0.10,0.10,0.00,
0.478,89.634853442513,78.094576127984,-2.0,0.0,-1.0,0,1,0,0,0,0,0,0.10,0.00,0.00,
0.491,91.2144853442513,79.4854576127984,-1.0,0.0,-1.0,0,1,0,0,0,0,0,0.00,0.00,0.00,
0.504,92.45244853442513,80.65054576127983,0.0,-1.0,0.0,0,1,0,0,0,0,0,0.00,0.00,0.00,
0.518,93.57524485344251,81.54105457612798,0.0,0.0,0.0,0,1,0,0,0,0,0,0.10,0.00,0.00,
0.531,94.64152448534426,82.14310545761279,-2.0,0.0,-1.0,0,1,0,0,0,0,0,0.10,0.00,0.00,
0.544,95.49515244853443,82.67131054576129,-3.0,0.0,-3.0,0,1,0,0,0,0,0,0.00,0.00,0.10,
0.558,96.19251524485344,83.24613105457613,-4.0,0.0,-3.0,0,1,0,0,0,0,0,0.10,0.00,0.00,
0.571,96.75725152448533,83.84361310545762,-3.0,0.0,-3.0,0,1,0,0,0,0,0,0.00,0.00,0.00,
0.584,97.28172515244854,84.22736131054576,-2.0,0.0,-3.0,0,1,0,0,0,0,0,0.00,0.00,0.00,
0.598,97.74817251524485,84.50873613105459,-2.0,0.0,-4.0,0,1,0,0,0,0,0,0.00,0.00,0.00,
0.611,98.18181725152449,84.67187361310546,-2.0,1.0,-6.0,0,1,0,0,0,0,0,0.00,0.00,0.10,
0.624,98.46818172515245,84.70618736131054,-3.0,1.0,-8.0,0,1,0,0,0,0,0,0.00,0.00,0.10,
0.637,98.53281817251525,84.98861873613106,-4.0,1.0,-9.0,0,1,0,0,0,0,0,0.00,0.00,0.00,
0.651,98.36828181725153,85.43086187361311,-4.0,-2.0,-8.0,0,1,0,0,0,0,0,0.00,0.00,0.00,
0.665,98.24382818172516,85.91608618736132,-4.0,-4.0,-5.0,0,1,0,0,0,0,0,0.00,0.00,0.00,
0.678,98.2133828181725,86.39660861873614,-3.0,-4.0,-1.0,0,1,0,0,0,0,0,0.00,0.00,0.00,
0.692,98.28233828181726,86.70566086187361,-3.0,-3.0,2.0,0,1,0,0,0,0,0,0.10,0.00,0.00,
0.705,98.49623382818172,86.85356608618737,-3.0,-2.0,3.0,0,1,0,0,0,0,0,0.00,0.00,0.10,
0.718,98.80562338281817,86.89535660861874,-3.0,-2.0,3.0,0,1,0,0,0,0,0,0.10,0.00,0.00,
0.732,98.99856233828181,86.98953566086188,-4.0,-3.0,3.0,0,1,0,0,0,0,0,0.00,0.00,0.00,
0.745,99.16185623382819,87.16095356608619,-4.0,-4.0,4.0,0,1,0,0,0,0,0,0.00,0.00,0.00,
0.758,99.49318562338281,87.31309535660861,-3.0,-4.0,4.0,0,1,0,0,0,0,0,0.00,0.00,0.00,
0.772,99.94031856233828,87.32830953566085,-3.0,-2.0,3.0,0,1,0,0,0,0,0,0.10,0.00,0.00,
0.785,100.36303185623382,87.27583095356607,-3.0,0.0,1.0,0,1,0,0,0,0,0,0.00,0.00,0.00,
0.798,100.70230318562338,87.18958309535661,-3.0,0.0,0.0,0,1,0,0,0,0,0,0.00,0.00,0.00,
0.812,100.95223031856234,87.16295830953567,-3.0,1.0,-3.0,0,1,0,0,0,0,0,0.00,0.00,0.00,
0.825,101.06722303185623,87.31329583095356,-3.0,1.0,-4.0,0,1,0,0,0,0,0,0.20,0.10,0.00,
0.838,101.05172230318561,87.67932958309537,-3.0,1.0,-4.0,0,1,0,0,0,0,0,0.10,0.00,0.00,
0.851,100.94217223031856,88.13893295830952,-1.0,1.0,-1.0,0,1,0,0,0,0,0,0.00,0.00,0.00,
0.866,100.85921722303186,88.55389329583095,0.0,3.0,2.0,0,1,0,0,0,0,0,0.00,0.00,0.00,
0.879,100.83292172230318,88.8743893295831,0.0,3.0,5.0,0,1,0,0,0,0,0,0.10,0.00,0.00,
0.891,101.01929217223032,88.8434389329583,0.0,4.0,6.0,0,1,0,0,0,0,0,0.00,0.00,0.10,
0.905,101.23592921722303,88.63334389329583,1.0,5.0,5.0,0,1,0,0,0,0,0,0.00,0.00,443.02,
0.927,101.38359292172231,88.33333438932958,1.0,6.0,2.0,0,1,0,0,0,0,0,0.00,0.00,0.00,
0.941,101.33535929217223,88.14133343893296,1.0,4.0,-1.0,0,1,0,0,0,0,0,0.00,0.00,0.00,
0.954,101.10553592921721,87.99613334389329,1.0,3.0,-2.0,0,1,0,0,0,0,0,0.00,0.00,0.00,
0.967,100.90255359292172,87.92761333438932,1.0,2.0,-3.0,0,1,0,0,0,0,0,0.00,0.00,0.00,
0.98,100.73825535929217,87.81276133343893,0.0,2.0,-3.0,0,1,0,0,0,0,0,0.00,0.00,0.00,
0.994,100.63182553592922,87.72027613334389,0.0,2.0,-3.0,0,1,0,0,0,0,0,0.10,0.00,0.00,
1.007,100.41418255359292,87.6840276133344,0.0,1.0,-2.0,0,1,0,0,0,0,0,0.10,0.00,0.10,
1.02,100.08641825535929,87.69840276133344,0.0,0.0,-1.0,0,1,0,0,0,0,0,0.00,0.00,0.00,
1.034,99.83764182553594,87.70884027613333,0.0,0.0,0.0,0,1,0,0,0,0,0,0.10,0.00,0.00,
1.047,99.70476418255359,87.65588402761334,0.0,-1.0,2.0,0,1,0,0,0,0,0,0.00,0.00,0.00,
1.06,99.72747641825536,87.51558840276134,0.0,-1.0,2.0,0,1,0,0,0,0,0,0.10,0.00,0.10,
1.074,99.91874764182553,87.32155884027613,0.0,0.0,0.0,0,1,0,0,0,0,0,0.10,0.00,0.00,
1.087,100.07287476418256,87.1491558840276,-2.0,0.0,0.0,0,1,0,0,0,0,0,0.10,0.00,0.00,
1.1,100.16928747641826,87.05991558840276,-2.0,-1.0,-1.0,0,1,0,0,0,0,0,0.10,0.00,0.00,
1.114,100.23292874764182,87.05099155884028,-1.0,-1.0,-2.0,0,1,0,0,0,0,0,0.10,0.00,0.00,
1.127,100.31129287476418,87.09509915588403,-1.0,-1.0,-2.0,0,1,0,0,0,0,0,0.10,0.00,0.10,
1.141,100.42712928747642,87.1265099155884,-1.0,-1.0,-2.0,0,1,0,0,0,0,0,0.00,0.00,0.00,
1.155,100.53771292874765,87.14765099155883,-2.0,0.0,-2.0,0,1,0,0,0,0,0,0.00,0.00,0.00,
1.168,100.63877129287476,87.20376509915587,-3.0,1.0,-2.0,0,1,0,0,0,0,0,0.10,0.00,0.00,
1.181,100.72087712928749,87.27237650991559,-2.0,1.0,-3.0,0,1,0,0,0,0,0,0.00,0.00,0.00,
1.195,100.76508771292875,87.45023765099155,-2.0,1.0,-3.0,0,1,0,0,0,0,0,0.00,0.00,0.00,
1.208,100.68850877129287,87.72902376509916,-1.0,0.0,-2.0,0,1,0,0,0,0,0,0.10,0.00,0.10,
1.221,100.66285087712927,87.88290237650993,-1.0,1.0,-1.0,0,1,0,0,0,0,0,0.00,0.00,0.00,
1.234,100.70528508771292,87.961290237651,-1.0,1.0,-1.0,0,1,0,0,0,0,0,0.00,0.00,0.00,
1.249,100.6825285087713,88.06812902376511,-2.0,1.0,-2.0,0,1,0,0,0,0,0,0.10,0.00,0.00,
1.262,100.68025285087714,88.1778129023765,-1.0,0.0,-2.0,0,1,0,0,0,0,0,0.00,0.00,0.00,
1.275,100.62602528508772,88.27878129023766,-1.0,0.0,-2.0,0,1,0,0,0,0,0,0.00,0.00,0.00,
1.289,100.58460252850878,88.39687812902376,0.0,-1.0,-1.0,0,1,0,0,0,0,0,0.00,0.00,0.00,
1.302,100.57146025285087,88.39068781290237,-1.0,-1.0,-1.0,0,1,0,0,0,0,0,0.00,0.00,0.00,
1.315,100.6331460252851,88.32706878129024,-1.0,0.0,0.0,0,1,0,0,0,0,0,0.00,0.00,0.00,
1.329,100.64831460252852,88.32070687812902,-2.0,0.0,0.0,0,1,0,0,0,0,0,0.00,0.00,0.00,
1.342,100.70383146025284,88.4190706878129,-1.0,0.0,0.0,0,1,0,0,0,0,0,0.00,0.00,0.00,
1.355,100.87138314602528,88.42890706878129,0.0,0.0,0.0,0,1,0,0,0,0,0,0.00,0.10,0.10,
1.369,100.96013831460253,88.40289070687813,0.0,0.0,0.0,0,1,0,0,0,0,0,0.00,0.00,0.00,
1.382,101.11301383146025,88.20228907068781,1.0,0.0,0.0,0,1,0,0,0,0,0,0.00,0.00,0.10,
1.395,101.24530138314603,87.98422890706878,1.0,1.0,-2.0,0,1,0,0,0,0,0,0.00,0.00,0.00,
1.409,101.2765301383146,87.85442289070689,0.0,1.0,-3.0,0,1,0,0,0,0,0,0.00,0.00,0.00,
1.422,101.23465301383146,87.7874422890707,0.0,1.0,-4.0,0,1,0,0,0,0,0,0.00,0.00,0.00,
1.435,101.14946530138315,87.86174422890709,-1.0,1.0,-3.0,0,1,0,0,0,0,0,0.00,0.00,0.00,
1.448,101.01494653013832,87.96817442289071,0.0,0.0,-3.0,0,1,0,0,0,0,0,0.00,0.00,0.00,
1.462,100.94749465301383,87.99681744228907,0.0,0.0,-2.0,0,1,0,0,0,0,0,0.00,0.00,0.00,
1.475,100.93174946530138,88.02668174422891,0.0,0.0,-2.0,0,1,0,0,0,0,0,0.00,0.00,0.00,
1.488,100.97517494653015,87.9846681744229,0.0,0.0,-2.0,0,1,0,0,0,0,0,0.00,0.00,0.00,
1.502,100.92551749465301,87.91746681744229,0.0,0.0,-3.0,0,1,0,0,0,0,0,0.00,0.00,0.00,
1.515,100.8665517494653,87.89274668174423,0.0,0.0,-4.0,0,1,0,0,0,0,0,0.00,0.00,0.00,
1.528,100.80665517494653,87.91727466817443,-1.0,-2.0,-5.0,0,1,0,0,0,0,0,0.10,0.00,0.00,
1.543,100.73766551749466,88.00072746681744,0.0,-4.0,-5.0,0,1,0,0,0,0,0,0.00,0.00,0.00,
1.556,100.68576655174948,88.28807274668173,0.0,-5.0,-4.0,0,1,0,0,0,0,0,0.00,0.00,0.00,
1.569,100.73457665517495,88.63180727466818,0.0,-5.0,-4.0,0,1,0,0,0,0,0,0.00,0.00,0.00,
1.583,100.8294576655175,89.02618072746681,1.0,-5.0,-3.0,0,1,0,0,0,0,0,0.10,0.00,0.00,
1.596,100.87494576655175,89.40761807274669,2.0,-4.0,-3.0,0,1,0,0,0,0,0,0.00,0.00,0.00,
1.609,100.95149457665516,89.70676180727466,4.0,-4.0,-3.0,0,1,0,0,0,0,0,0.00,0.00,0.00,
1.623,101.03114945766552,89.92567618072746,4.0,-4.0,-3.0,0,1,0,0,0,0,0,0.00,0.00,0.00,
1.636,101.14711494576655,90.10956761807275,5.0,-4.0,-3.0,0,1,0,0,0,0,0,0.10,0.00,0.00,
1.65,101.20371149457665,90.29895676180726,4.0,-3.0,-3.0,0,1,0,0,0,0,0,0.10,0.00,0.00,
1.664,101.20037114945767,90.42589567618073,5.0,-3.0,-3.0,0,1,0,0,0,0,0,0.00,0.00,0.00,
1.677,101.15503711494577,90.56458956761807,6.0,-2.0,-4.0,0,1,0,0,0,0,0,0.10,0.00,0.00,
1.69,101.15950371149458,90.6774589567618,7.0,-1.0,-5.0,0,1,0,0,0,0,0,0.10,0.00,0.00,
1.703,101.15095037114946,90.90474589567619,7.0,-2.0,-5.0,0,1,0,0,0,0,0,0.00,0.00,0.00,
1.717,101.09609503711495,91.02647458956763,8.0,-2.0,-5.0,0,1,0,0,0,0,0,0.00,0.00,0.00,
1.73,101.00060950371149,91.22764745895677,8.0,-3.0,-5.0,0,1,0,0,0,0,0,0.00,0.00,0.00,
1.743,100.81106095037116,91.38276474589568,8.0,-2.0,-5.0,0,1,0,0,0,0,0,0.10,0.00,0.00,
1.758,100.67510609503711,91.49727647458957,8.0,-2.0,-4.0,0,1,0,0,0,0,0,0.10,0.00,0.00,
1.771,100.56251060950372,91.56272764745896,9.0,-2.0,-5.0,0,1,0,0,0,0,0,0.10,0.00,0.00,
1.784,100.42525106095037,91.60527276474589,9.0,-3.0,-5.0,0,1,0,0,0,0,0,0.00,0.00,0.00,
1.798,100.23152510609503,91.5915272764746,10.0,-3.0,-6.0,0,1,0,0,0,0,0,0.00,0.00,0.00,
1.811,100.06815251060951,91.71615272764745,10.0,-4.0,-6.0,0,1,0,0,0,0,0,0.10,0.00,0.00,
1.824,99.86281525106097,91.89061527276473,10.0,-4.0,-6.0,0,1,0,0,0,0,0,0.10,0.00,0.00,
1.838,99.6982815251061,92.04306152727648,10.0,-4.0,-6.0,0,1,0,0,0,0,0,0.10,0.00,0.00,
1.852,99.47482815251061,92.13930615272764,10.0,-5.0,-5.0,0,1,0,0,0,0,0,0.10,0.00,0.00,
1.865,99.27248281525107,92.09493061527276,11.0,-5.0,-5.0,0,1,0,0,0,0,0,0.10,0.00,0.00,
1.879,98.97324828152512,92.10849306152727,11.0,-6.0,-5.0,0,1,0,0,0,0,0,0.00,0.00,0.00,
1.892,98.7003248281525,92.09184930615272,10.0,-7.0,-4.0,0,1,0,0,0,0,0,0.00,0.00,0.00,
1.905,98.43903248281525,92.11718493061527,10.0,-8.0,-3.0,0,1,0,0,0,0,0,0.00,0.00,0.00,
1.918,98.33190324828152,92.17371849306153,9.0,-8.0,-2.0,0,1,0,0,0,0,0,0.00,0.00,0.00,
1.932,98.28519032482815,92.19737184930615,10.0,-10.0,-1.0,0,1,0,0,0,0,0,0.10,0.10,0.00,
1.945,98.25351903248281,92.17273718493061,10.0,-10.0,-2.0,0,1,0,0,0,0,0,0.10,0.20,0.00,
1.959,98.25035190324827,91.99027371849306,10.0,-11.0,-4.0,0,1,0,0,0,0,0,0.00,0.29,0.00,
1.973,98.22303519032482,91.8370273718493,9.0,-11.0,-5.0,0,1,0,0,0,0,0,0.00,0.39,0.00,
1.986,98.06730351903249,91.72270273718493,7.0,-12.0,-6.0,0,1,0,0,0,0,0,0.00,0.59,0.00,
1.999,97.94373035190327,91.7382702737185,6.0,-14.0,-5.0,0,1,0,0,0,0,0,0.00,0.69,0.00,
2.013,97.76037303519033,91.87482702737185,5.0,-14.0,-4.0,0,1,0,0,0,0,0,0.00,0.69,0.00,
2.026,97.61603730351904,92.07748270273719,5.0,-14.0,-1.0,0,1,0,0,0,0,0,0.00,0.78,0.00,
2.039,97.5926037303519,92.1967482702737,5.0,-12.0,0.0,0,1,0,0,0,0,0,0.00,0.98,0.00,
2.053,97.6442603730352,92.28967482702737,4.0,-10.0,2.0,0,1,0,0,0,0,0,0.00,1.18,0.00,
2.066,97.76642603730353,92.36196748270274,3.0,-9.0,3.0,0,1,0,0,0,0,0,0.00,1.18,0.00,
2.079,97.76064260373036,92.48619674827027,2.0,-7.0,4.0,0,1,0,0,0,0,0,0.00,1.28,0.00,
2.093,97.76006426037304,92.65161967482703,2.0,-6.0,5.0,0,1,0,0,0,0,0,0.00,1.28,0.00,
2.106,97.8410064260373,92.7671619674827,2.0,-3.0,6.0,0,1,0,0,0,0,0,0.00,1.28,0.00,
2.119,98.11910064260374,92.85071619674827,2.0,-1.0,6.0,0,1,0,0,0,0,0,0.00,1.28,0.00,
2.132,98.51591006426038,92.76007161967483,2.0,-1.0,4.0,0,1,0,0,0,0,0,0.00,1.37,0.00,
2.146,98.72659100642603,92.86800716196748,2.0,-2.0,0.0,0,1,0,0,0,0,0,0.00,1.28,0.00,
2.159,98.7926591006426,93.15780071619675,2.0,-2.0,-2.0,0,1,0,0,0,0,0,0.00,1.37,0.00,
2.172,98.79926591006426,93.53778007161966,2.0,-1.0,-4.0,0,1,0,0,0,0,0,0.00,1.47,0.00,
2.186,98.74592659100642,93.97177800716196,4.0,0.0,-5.0,0,1,0,0,0,0,0,0.00,1.47,0.00,
2.199,98.70459265910064,94.28517780071618,5.0,1.0,-7.0,0,1,0,0,0,0,0,0.00,1.47,0.00,
2.212,98.60145926591007,94.62251778007162,7.0,2.0,-8.0,0,1,0,0,0,0,0,0.00,1.47,0.00,
2.226,98.384145926591,95.07925177800716,7.0,3.0,-7.0,0,1,0,0,0,0,0,0.00,1.47,0.00,
2.239,98.1014145926591,95.56592517780072,7.0,2.0,-5.0,0,1,0,0,0,0,0,0.00,1.47,0.00,
2.252,97.89314145926592,95.87559251778008,7.0,1.0,-4.0,0,1,0,0,0,0,0,0.10,1.57,0.00,
2.266,97.7373141459266,95.94255925177801,8.0,0.0,-3.0,0,1,0,0,0,0,0,0.00,1.57,0.00,
2.279,97.60473141459266,95.89525592517779,9.0,0.0,-3.0,0,1,0,0,0,0,0,0.00,1.67,0.00,
2.292,97.37547314145925,95.71052559251777,10.0,0.0,-4.0,0,1,0,0,0,0,0,0.00,1.77,0.00,
2.306,96.91154731414593,95.56605255925177,10.0,-1.0,-4.0,0,1,0,0,0,0,0,0.00,1.96,0.00,
2.319,96.19915473141461,95.72260525592517,10.0,-2.0,-1.0,0,1,0,0,0,0,0,0.00,2.45,0.00,
2.332,95.69591547314147,96.0622605255925,10.0,-3.0,3.0,0,1,0,0,0,0,0,0.0071,3,1,
2.772,96.17659154731415,95.64622605255924,0.0,-2.0,0.0,3,1,1,0,0,0,0,0.00,0.78,1.08,
2.787,96.09865915473142,95.79362260525592,0.0,-1.0,0.0,3,1,1,0,0,0,0,0.00,0.98,1.18,
2.8,96.10886591547313,95.96136226052559,-2.0,-1.0,0.0,3,1,1,0,0,0,0,0.00,1.18,1.18,
2.814,96.06488659154732,96.01413622605256,-2.0,0.0,0.0,3,1,2,0,0,0,0,0.00,1.28,1.18,
2.828,96.10548865915473,95.90241362260525,-3.0,0.0,0.0,3,1,2,0,0,0,0,0.00,1.57,1.47,
2.841,96.13654886591547,95.79224136226053,-3.0,0.0,0.0,3,1,2,0,0,0,0,0.00,2.06,1.57,
2.855,96.10365488659154,95.67322413622604,-2.0,0.0,-1.0,3,1,2,0,0,0,0,0.00,2.35,1.57,
2.869,96.01036548865916,95.6073224136226,-1.0,0.0,-2.0,3,1,2,0,0,0,0,0.00,2.75,1.67,
2.883,95.95603654886591,95.61873224136227,-1.0,1.0,-2.0,3,1,2,0,0,0,0,0.00,2.94,1.67,
2.896,95.89660365488659,95.71887322413623,-1.0,1.0,-2.0,3,1,2,0,0,0,0,0.00,2.94,1.67,
2.911,95.98066036548865,95.78288732241363,-1.0,1.0,-3.0,3,1,2,0,1,0,0,0.00,2.94,1.57,
2.924,96.21406603654886,95.79828873224136,-2.0,1.0,-3.0,3,1,1,0,1,0,0,0.00,3.04,1.57,
2.938,96.34540660365488,95.77282887322413,-1.0,1.0,-3.0,3,1,2,0,1,0,0,0.00,3.04,1.47,
2.952,96.34054066036549,95.74328288732241,-1.0,1.0,-4.0,3,1,1,0,1,0,0,0.00,3.14,1.47,
2.966,96.32205406603654,95.70432828873226,-1.0,1.0,-4.0,3,1,1,0,1,0,0,0.00,3.24,1.47,
2.979,96.32020540660366,95.79043282887322,-1.0,1.0,-4.0,3,1,1,0,1,0,0,0.00,3.34,1.47,
2.994,96.32902054066037,95.83504328288731,-1.0,1.0,-4.0,3,1,1,0,1,0,0,0.00,3.43,1.47,
3.007,96.35690205406604,95.82150432828873,-1.0,1.0,-4.0,3,1,1,0,1,0,0,0.00,3.53,1.47,
3.021,96.35969020540661,95.82915043282887,-1.0,1.0,-4.0,3,1,1,0,1,0,0,0.00,3.63,1.47,
3.035,96.32396902054066,95.92891504328288,-1.0,2.0,-4.0,3,1,1,0,2,0,0,0.00,3.63,1.47,
3.049,96.32939690205407,95.96589150432828,-1.0,2.0,-4.0,3,1,1,0,2,0,0,0.00,3.63,1.28,
3.062,96.39293969020541,96.03258915043284,-1.0,2.0,-4.0,3,1,1,0,2,0,0,0.00,3.63,1.37,
3.077,96.43529396902055,96.08425891504329,-1.0,1.0,-4.0,3,1,2,0,2,0,0,0.00,3.73,1.28,
3.09,96.51152939690205,96.09842589150432,-1.0,1.0,-3.0,3,1,2,0,2,0,0,0.00,3.83,1.28,
3.104,96.6001529396902,96.07284258915043,-1.0,1.0,-4.0,3,1,1,0,2,0,0,0.00,3.83,1.28,
3.118,96.70801529396903,96.09728425891504,-1.0,1.0,-3.0,3,1,2,0,2,0,0,0.00,3.83,1.28,
3.132,96.68280152939691,96.1897284258915,-1.0,1.0,-3.0,3,2,2,0,2,0,0,0.00,3.92,1.18,
3.145,96.66228015293969,96.17197284258914,-1.0,1.0,-3.0,3,2,2,0,2,0,0,0.00,3.92,1.28,
3.16,96.59722801529398,95.91819728425891,-1.0,1.0,-1.0,3,2,2,0,2,0,0,0.00,3.73,1.08,
3.174,96.5187228015294,96.14481972842589,-1.0,2.0,0.0,3,2,2,0,2,0,0,0.00,3.63,1.18,
3.187,96.63687228015296,96.11348197284258,-1.0,1.0,-2.0,3,2,2,0,2,0,0,0.00,3.73,1.18,
3.202,96.7386872280153,96.15534819728425,-1.0,0.0,-2.0,3,2,2,0,2,0,0,0.00,3.73,1.18,
3.215,96.71286872280153,96.09653481972843,-2.0,1.0,-3.0,3,2,2,0,3,0,0,0.00,3.73,1.08,
3.229,96.80028687228015,96.09065348197285,-2.0,0.0,-2.0,3,2,2,0,3,0,0,0.00,3.73,0.98,
3.244,96.83602868722802,96.18906534819729,-2.0,0.0,-2.0,3,2,2,0,3,0,0,0.00,3.63,0.98,
3.257,96.8036028687228,96.31590653481973,-2.0,0.0,-2.0,3,2,2,0,3,0,0,0.00,3.53,0.98,
3.271,96.85436028687229,95.19459065348198,-2.0,0.0,-5.0,3,2,2,0,3,0,0,0.00,3.53,0.98,
3.284,96.84143602868724,95.4424590653482,-2.0,-1.0,-1.0,3,2,2,0,3,0,0,0.00,3.43,0.88,
3.299,96.90314360286871,95.48524590653483,-1.0,0.0,-1.0,3,2,2,0,3,0,0,0.00,3.53,0.88,
3.313,96.97231436028687,95.57952459065349,-2.0,0.0,-1.0,3,2,2,0,3,0,0,0.00,3.53,0.88,
3.326,97.04223143602869,95.66095245906536,-2.0,0.0,-1.0,3,2,2,0,3,0,0,0.00,3.53,0.88,
3.341,96.95022314360287,95.83109524590654,-1.0,0.0,-1.0,3,2,2,0,3,0,0,0.00,3.53,0.88,
3.355,96.94102231436028,95.94710952459064,-2.0,0.0,-1.0,3,2,2,0,3,0,0,0.00,3.63,0.88,
3.368,96.92210223143604,96.03071095245907,-2.0,0.0,0.0,3,2,2,0,3,0,0,0.00,3.63,0.88,
3.383,96.9832102231436,96.0930710952459,-2.0,0.0,0.0,3,2,2,0,3,0,0,0.00,3.53,0.69,
3.396,97.03432102231437,96.15330710952459,-2.0,0.0,0.0,3,2,2,0,3,0,0,0.00,3.53,0.69,
3.41,97.05743210223143,96.10533071095244,-2.0,0.0,0.0,3,2,2,0,3,0,0,0.00,3.63,0.69,
3.424,96.93374321022316,96.19953307109525,-2.0,0.0,0.0,3,2,2,0,3,0,0,0.00,3.53,0.78,
3.438,96.86737432102233,96.19095330710952,-2.0,0.0,0.0,3,2,2,0,3,0,0,0.00,3.04,0.59,
3.451,96.90573743210223,96.14509533071094,-2.0,0.0,0.0,3,2,2,0,3,0,0,0.00,1.86,0.59,
3.466,96.90957374321022,96.2035095330711,-2.0,0.0,0.0,3,2,2,0,3,0,0,0.00,1.47,0.59,
3.479,96.98195737432101,96.1463509533071,-2.0,0.0,0.0,3,2,2,0,3,0,0,0.00,1.37,0.59,
3.492,97.0161957374321,96.16763509533071,-2.0,0.0,0.0,3,2,2,0,3,0,0,0.00,1.37,0.49,
3.507,97.04661957374321,96.24176350953307,-2.0,0.0,0.0,3,2,2,0,3,0,0,0.00,1036.92,0.49,
3.529,97.04966195737433,96.32117635095331,-2.0,-1.0,0.0,3,2,2,0,3,0,0,0.00,1.28,0.39,
3.543,97.13096619573743,96.12211763509532,-2.0,0.0,-1.0,3,2,2,0,3,0,0,0.00,1.47,0.39,
3.557,97.05809661957375,96.03921176350954,-2.0,0.0,0.0,3,2,2,0,3,0,0,0.00,1.47,0.49,
3.57,96.97880966195737,96.04892117635094,-2.0,0.0,0.0,3,2,2,0,3,0,0,0.00,1.47,0.49,
3.584,96.95288096619575,96.10389211763508,-1.0,0.0,-1.0,3,2,2,0,2,0,0,0.00,1.57,0.49,
3.598,96.93228809661959,96.1003892117635,-1.0,-1.0,-1.0,3,2,2,0,2,0,0,0.00,1.37,0.49,
3.611,96.92122880966197,96.17203892117635,-2.0,-1.0,0.0,3,2,2,0,2,0,0,0.00,1.47,0.49,
3.625,96.88412288096619,96.50320389211764,-1.0,0.0,0.0,3,2,2,0,2,0,0,0.00,1.47,0.39,
3.639,96.83541228809662,96.52732038921177,-1.0,0.0,0.0,3,2,1,0,2,0,0,0.00,1.37,0.39,
3.653,96.85754122880967,96.52073203892117,-2.0,0.0,-1.0,3,2,2,0,3,0,0,0.00,1.18,0.39,
3.666,96.89575412288097,96.39407320389212,-1.0,0.0,-1.0,3,2,2,0,3,0,0,0.00,1.08,0.49,
3.681,96.9175754122881,96.4804073203892,-2.0,0.0,0.0,3,2,1,0,3,0,0,0.00,1.18,0.49,
3.694,96.97375754122882,96.34504073203892,-1.0,0.0,-1.0,3,2,1,0,3,0,0,0.00,1.18,0.39,
3.708,96.96137575412288,96.34050407320389,-2.0,0.0,0.0,3,2,1,0,3,0,0,0.00,1.28,0.39,
3.722,96.9511375754123,96.4120504073204,-1.0,0.0,-1.0,3,2,1,0,3,0,0,0.00,1.28,0.39,
3.736,96.97711375754125,96.41920504073204,-1.0,0.0,-1.0,3,2,1,0,3,0,0,0.00,1.18,0.39,
3.749,96.88971137575412,96.3659205040732,-1.0,0.0,-1.0,3,2,2,0,2,0,0,0.00,1.28,0.39,
3.764,96.9349711375754,96.32459205040732,-1.0,0.0,0.0,3,2,1,0,2,0,0,0.00,1.96,0.39,
3.777,96.97549711375754,96.40145920504074,-1.0,0.0,-2.0,3,2,2,0,2,0,0,0.00,2.55,0.39,
3.79,96.96154971137575,96.35514592050407,-2.0,0.0,-1.0,3,2,2,0,3,0,0,0.00,2.84,0.39,
3.805,96.92415497113758,96.33251459205042,-1.0,0.0,-1.0,3,2,2,0,3,0,0,0.00,2.94,0.49,
3.818,96.96541549711375,96.33025145920504,-1.0,0.0,-1.0,3,2,2,0,3,0,0,0.00,2.94,0.39,
3.832,96.96954154971137,96.2850251459205,-1.0,0.0,-1.0,3,2,2,0,3,0,0,0.00,2.94,0.39,
3.846,96.94295415497113,96.26250251459204,-1.0,0.0,-2.0,3,2,2,0,3,0,0,0.00,3.04,0.39,
3.86,96.92229541549712,96.3502502514592,-1.0,0.0,-1.0,3,2,2,0,3,0,0,0.00,2.94,0.39,
3.874,96.92022954154972,96.41302502514593,-1.0,0.0,-1.0,3,2,2,0,3,0,0,0.00,2.94,0.39,
3.888,96.88402295415496,96.4283025025146,-1.0,0.0,-1.0,3,2,2,0,3,0,0,0.00,2.94,0.39,
3.902,96.9074022954155,96.48383025025146,-1.0,0.0,-1.0,3,2,2,0,3,0,0,0.00,2.94,0.39,
3.915,96.99074022954154,96.39038302502514,-1.0,0.0,-1.0,3,2,2,0,3,0,0,0.00,2.84,0.39,
3.93,96.98107402295416,96.43503830250252,-1.0,0.0,-1.0,3,2,2,0,3,0,0,0.00,2.84,0.39,
3.944,97.0161074022954,96.41250383025026,-1.0,0.0,-1.0,3,2,2,0,3,0,0,0.00,2.84,0.49,
3.957,96.97461074022954,96.41025038302503,-1.0,0.0,-1.0,3,2,2,0,3,0,0,0.00,2.75,0.39,
3.972,96.93446107402296,96.3740250383025,-2.0,0.0,-2.0,3,2,2,0,3,0,0,0.00,2.84,0.49,
3.985,96.8764461074023,96.29840250383025,-2.0,0.0,-1.0,3,2,2,0,3,0,0,0.00,2.94,0.49,
3.999,96.87964461074023,96.36284025038303,-1.0,0.0,-1.0,3,2,2,0,3,0,0,0.00,2.94,0.49,
4.013,96.91596446107403,96.41428402503831,-1.0,0.0,-1.0,3,2,2,0,3,0,0,0.00,2.94,0.39,
4.027,96.95559644610739,96.39242840250384,-1.0,0.0,-2.0,3,2,2,0,3,0,0,0.00,3.04,0.59,
4.041,96.96855964461074,96.4712428402504,-1.0,0.0,-2.0,3,2,2,0,3,0,0,0.00,3.14,0.49,
4.055,96.98785596446106,96.47912428402505,-1.0,0.0,-2.0,3,2,2,0,3,0,0,0.00,3.04,0.39,
4.069,96.93578559644611,96.55191242840252,-1.0,0.0,-2.0,3,2,2,0,3,0,0,0.00,2.94,0.49,
4.082,96.9845785596446,96.53219124284026,-1.0,0.0,-1.0,3,2,2,0,4,0,0,0.00,2.94,0.49,
4.097,97.01645785596446,96.55721912428403,-1.0,0.0,-2.0,3,2,2,0,4,0,0,0.00,3.04,0.49,
4.111,96.97464578559644,96.61372191242842,-1.0,0.0,-2.0,3,2,2,0,4,0,0,0.00,2.94,0.49,
4.124,96.97946457855966,96.66437219124285,-2.0,0.0,0.0,3,2,2,0,4,0,0,0.00,2.94,0.39,
4.139,96.98894645785596,96.68743721912429,-2.0,0.0,-1.0,3,2,2,0,4,0,0,0.00,3.04,0.49,
4.152,96.98089464578561,96.62674372191245,-2.0,0.0,-1.0,3,2,2,0,4,0,0,0.00,3.04,0.49,
4.166,97.04308946457856,96.54867437219126,-2.0,0.0,-1.0,3,2,2,0,4,0,0,0.00,3.14,0.49,
4.18,96.97730894645785,96.55886743721913,-2.0,0.0,-1.0,3,2,2,0,4,0,0,0.00,3.14,0.49,
4.194,96.99773089464578,96.5508867437219,-2.0,0.0,-1.0,3,2,2,0,4,0,0,0.00,3.14,0.39,
4.208,96.95477308946458,96.55008867437218,-2.0,0.0,-1.0,3,2,2,0,4,0,0,0.00,3.04,0.39,
4.221,96.98647730894645,96.53200886743723,-2.0,0.0,0.0,3,2,2,0,3,0,0,0.00,3.04,0.29,
4.236,97.02564773089463,96.52120088674371,-2.0,0.0,0.0,3,2,2,0,3,0,0,0.00,3.14,0.29,
4.25,97.07456477308946,96.56512008867436,-2.0,0.0,0.0,3,2,2,0,3,0,0,0.00,3.04,0.29,
4.263,97.03445647730894,96.56951200886743,-2.0,0.0,0.0,3,2,2,0,3,0,0,0.00,3.14,0.29,
4.278,97.04844564773089,96.55195120088673,-2.0,0.0,0.0,3,2,2,0,3,0,0,0.00,3.14,0.29,
4.291,97.0408445647731,96.54119512008867,-2.0,0.0,0.0,3,2,2,0,3,0,0,0.00,3.14,0.39,
4.305,97.0490844564773,96.54011951200887,-2.0,0.0,-1.0,3,2,2,0,3,0,0,0.00,3.24,0.29,
4.319,97.09490844564773,96.5130119512009,-2.0,0.0,0.0,3,2,2,0,3,0,0,0.00,3.14,0.39,
4.333,97.09049084456477,96.5553011951201,-2.0,0.0,0.0,3,2,2,0,3,0,0,0.00,3.14,0.29,
4.346,97.11704908445648,96.523530119512,-2.0,0.0,0.0,3,2,2,0,3,0,0,0.00,3.14,0.29,
4.361,97.13770490844564,96.4933530119512,-2.0,0.0,0.0,3,2,2,0,3,0,0,0.00,3.14,0.29,
4.374,97.07677049084457,96.54433530119512,-2.0,0.0,0.0,3,2,2,0,3,0,0,0.00,3.14,0.39,
4.388,97.01667704908446,96.54043353011951,-2.0,0.0,0.0,3,2,2,0,3,0,0,0.00,3.14,0.39,
4.402,96.97466770490844,96.49504335301194,-3.0,0.0,0.0,3,2,2,0,3,0,0,0.00,3.14,0.29,
4.416,96.92546677049086,96.54450433530118,-3.0,0.0,0.0,3,2,2,0,3,0,0,0.00,3.04,0.10,
4.429,96.95654667704908,96.51345043353012,-3.0,0.0,0.0,3,2,2,0,3,0,0,0.00,3.14,0.20,
4.443,96.9686546677049,96.50134504335301,-3.0,0.0,0.0,3,2,2,0,3,0,0,0.00,3.24,0.20,
4.457,97.0058654667705,96.5001345043353,-4.0,0.0,0.0,3,2,2,0,3,0,0,0.00,3.14,0.20,
4.47,97.02758654667704,96.53601345043354,-4.0,0.0,0.0,3,2,2,0,2,0,0,0.00,3.24,0.10,
4.485,97.0747586546677,96.54860134504335,-4.0,0.0,1.0,3,2,2,0,2,0,0,0.00,3.24,0.00,
4.498,97.13347586546678,96.45086013450434,-4.0,0.0,1.0,3,2,2,0,2,0,0,0.00,3.24,0.00,
4.512,97.20234758654667,96.27908601345044,-4.0,-1.0,0.0,3,2,2,0,2,0,0,0.00,3.34,0.00,
4.526,97.19123475865467,96.19890860134504,-4.0,0.0,0.0,3,2,2,0,2,0,0,0.00,3.43,0.10,
4.539,97.11812347586547,96.1728908601345,-4.0,0.0,0.0,3,2,2,0,1,0,0,0.00,3.53,0.00,
4.553,97.07481234758654,96.08028908601344,-4.0,0.0,0.0,3,2,2,0,1,0,0,0.00,3.53,0.00,
4.567,97.11548123475865,96.08002890860134,-3.0,0.0,0.0,3,2,2,0,1,0,0,0.00,3.63,0.00,
4.581,97.16454812347587,96.06200289086014,-3.0,0.0,0.0,3,2,2,0,1,0,0,0.00,3.63,0.00,
4.594,97.14245481234758,96.06920028908601,-4.0,0.0,0.0,3,2,2,0,1,0,0,0.00,3.53,0.00,
4.608,97.11324548123476,96.0969200289086,-4.0,0.0,0.0,3,2,2,0,1,0,0,0.00,3.63,0.00,
4.622,97.13732454812347,96.09069200289086,-4.0,0.0,0.0,3,2,2,0,1,0,0,0.00,3.63,0.00,
4.635,97.16673245481235,96.0900692002891,-4.0,0.0,0.0,3,2,2,0,1,0,0,0.00,3.73,0.00,
4.649,97.24167324548124,96.03600692002891,-4.0,0.0,0.0,3,2,2,0,0,0,0,0.00,3.73,0.00,
4.663,97.25816732454813,96.01260069200289,-4.0,0.0,0.0,3,2,2,0,0,0,0,0.00,3.73,0.00,
4.676,97.22381673245482,95.92026006920028,0.0,-7.0,0.0,4,3,3,0,1,0,0,0.00,17.95,3.63,
5.104,96.97738167324549,95.32602600692003,0.0,-7.0,3.0,4,3,3,0,1,0,0,0.00,18.84,4.22,
5.117,96.93473816732455,95.20360260069201,0.0,-7.0,0.0,5,3,3,0,1,0,0,0.00,20.70,4.61,
5.132,96.88547381673244,95.1733602600692,0.0,-7.0,0.0,5,3,3,0,1,0,0,0.00,21.48,5.00,
5.145,96.90754738167324,95.08033602600692,1.0,-7.0,0.0,5,3,3,0,1,0,0,0.00,22.27,5.40,
5.159,97.02675473816734,94.92703360260069,0.0,-6.0,-3.0,4,3,3,0,2,0,0,0.00,23.15,5.98,
5.173,96.91267547381673,94.95670336026006,0.0,-4.0,-2.0,5,3,3,0,2,0,0,0.00,25.02,6.57,
5.187,96.85626754738166,94.77067033602601,0.0,-2.0,-2.0,5,3,3,0,2,0,0,0.00,26.19,7.06,
5.2,96.76962675473817,94.79706703360259,0.0,-1.0,-4.0,5,3,3,0,2,0,0,0.00,27.57,7.55,
5.215,96.65296267547382,94.84470670336026,0.0,0.0,-3.0,5,3,3,0,2,1,0,0.00,29.14,9.32,
5.228,96.29029626754738,95.12847067033603,0.0,0.0,-6.0,3,3,3,0,2,1,0,0.00,32.86,10.30,
5.242,96.20002962675474,95.15684706703361,-1.0,0.0,-5.0,2,4,3,0,2,1,0,0.00,35.02,11.48,
5.256,96.35300296267548,95.30368470670335,-1.0,-1.0,-4.0,4,4,3,0,3,1,0,0.00,37.08,12.65,
5.27,96.25130029626754,95.43536847067034,-1.0,-1.0,-3.0,4,4,3,0,3,1,0,0.00,39.34,15.70,
5.284,96.18713002962676,95.69153684706703,-3.0,-3.0,-2.0,5,4,3,0,3,1,0,0.00,44.83,17.46,
5.299,96.34271300296268,95.67215368470671,-4.0,-5.0,-1.0,6,4,3,0,3,1,0,0.00,48.07,19.23,
5.313,96.19627130029627,95.82321536847067,-4.0,-6.0,-1.0,6,4,3,0,3,1,0,0.00,51.50,22.66,
5.327,96.18162713002964,95.81132153684706,-4.0,-6.0,0.0,6,4,3,1,3,1,0,0.00,54.64,24.03,
5.341,95.95516271300296,95.8461321536847,-5.0,-6.0,0.0,6,4,3,1,3,1,0,0.00,59.84,25.11,
5.355,95.7885162713003,95.74161321536847,-5.0,-6.0,0.0,5,4,3,0,3,1,0,0.00,62.20,25.80,
5.369,95.65485162713003,95.66816132153684,-5.0,-4.0,-1.0,6,4,3,0,2,1,0,0.00,64.26,26.68,
5.383,95.713485162713,95.5618161321537,-5.0,-4.0,-1.0,6,4,3,1,2,1,0,0.00,65.92,27.08,
5.397,95.7193485162713,95.42518161321537,-5.0,-3.0,-2.0,6,4,3,1,2,1,0,0.00,68.28,27.37,
5.411,95.64793485162713,95.33951816132154,-4.0,-2.0,-3.0,6,4,3,1,2,1,0,0.00,69.55,27.66,
5.426,95.64079348516272,95.19595181613215,-5.0,-1.0,-3.0,6,4,3,1,2,1,0,0.00,70.63,28.25,
5.44,95.60407934851627,95.22659518161322,-5.0,0.0,-4.0,6,4,3,1,2,1,0,0.00,72.20,28.65,
5.454,95.62740793485162,95.23865951816131,-6.0,0.0,-4.0,6,4,3,1,2,1,0,0.00,73.08,29.14,
5.468,95.53974079348517,95.21286595181613,-4.0,2.0,-4.0,6,4,4,1,2,1,0,0.00,74.16,29.63,
5.482,95.48597407934852,95.04828659518161,-2.0,4.0,-5.0,6,4,4,1,2,1,0,0.00,75.05,30.61,
5.496,95.60659740793486,94.98682865951815,0.0,5.0,-6.0,6,4,4,1,3,1,0,0.00,74.85,31.10,
5.511,95.7716597407935,94.99868286595182,2.0,4.0,-6.0,6,4,4,1,3,1,0,0.00,73.18,31.88,
5.524,95.77916597407935,94.9368682865952,4.0,4.0,-6.0,6,4,4,1,4,2,0,0.00,71.12,33.45,
5.538,95.75291659740793,94.93968682865952,6.0,5.0,-8.0,5,4,3,1,4,2,0,0.00,68.57,34.24,
5.553,95.78629165974081,94.98496868286595,7.0,4.0,-9.0,5,5,3,1,5,2,0,0.00,61.70,35.12,
5.566,95.72662916597407,95.0794968682866,7.0,6.0,-10.0,4,5,3,1,5,2,0,0.00,57.49,35.90,
5.58,96.31466291659741,94.71994968682866,6.0,3.0,-11.0,5,5,3,1,6,2,0,0.00,52.97,36.98,
5.595,96.40046629165974,94.89999496868286,6.0,5.0,-9.0,5,5,4,1,6,3,1,0.00,44.54,37.38,
5.609,96.50804662916596,95.09799949686828,5.0,4.0,-9.0,5,5,4,1,6,3,1,0.00,40.81,37.77,
5.622,96.49180466291659,95.45079994968683,6.0,3.0,-9.0,5,5,4,1,7,3,1,0.00,37.28,37.77,
5.637,96.57118046629165,95.45007999496869,5.0,4.0,-8.0,5,5,4,1,7,3,1,0.00,34.14,37.67,
5.651,96.62411804662916,95.62100799949687,7.0,2.0,-7.0,5,5,4,1,7,3,1,0.00,28.55,37.77,
5.664,96.66541180466291,95.76410079994969,8.0,2.0,-7.0,5,6,4,2,7,4,1,0.00,26.19,37.77,
5.679,96.6155411804663,95.93141007999498,8.0,2.0,-7.0,5,6,4,2,7,4,1,0.00,23.94,37.77,
5.693,96.65555411804662,96.23614100799949,7.0,1.0,-7.0,5,6,4,2,7,4,1,0.00,21.68,37.67,
5.707,96.68655541180466,96.52761410079995,6.0,1.0,-8.0,5,6,4,2,7,5,2,0.00,17.17,37.47,
5.721,96.61765554118045,96.75476141008,4.0,2.0,-9.0,5,6,4,2,7,5,2,0.00,15.30,37.08,
5.735,96.68276555411805,97.002476141008,3.0,1.0,-7.0,5,6,4,2,8,5,2,0.00,13.64,36.00,
5.749,96.6442765554118,96.9462476141008,2.0,3.0,-8.0,5,6,4,2,8,5,2,0.00,12.36,35.51,
5.763,96.83842765554118,96.92262476141009,1.0,3.0,-9.0,5,6,4,2,8,6,2,0.00,10.30,35.12,
5.777,96.80384276555412,97.13626247614101,0.0,3.0,-11.0,6,6,4,2,8,6,2,0.00,9.52,34.83,
5.791,96.76438427655542,97.3826262476141,0.0,3.0,-10.0,6,6,4,2,8,6,2,0.00,8.63,33.75,
5.805,96.78743842765554,97.1732626247614,0.0,4.0,-11.0,6,6,4,2,8,6,2,0.00,7.65,33.16,
5.819,96.86174384276556,97.74632626247615,0.0,5.0,-11.0,6,6,4,2,8,6,2,0.00,6.47,32.47,
5.833,96.71617438427656,98.02863262624761,-1.0,1.0,-13.0,6,6,4,2,8,6,2,0.00,5.98,31.59,
5.848,96.87261743842765,98.00286326262476,-2.0,0.0,-11.0,6,6,4,2,8,6,2,0.00,5.69,30.31,
5.861,97.10426174384277,98.18028632626249,-1.0,-1.0,-10.0,6,6,4,2,8,6,2,0.00,5.00,29.63,
5.875,97.19042617438427,98.36002863262625,-1.0,-4.0,-8.0,6,5,4,2,8,6,2,0.00,5.10,29.14,
5.89,97.16304261743844,98.30600286326262,0.0,-4.0,-8.0,6,5,4,2,8,6,2,0.00,5.20,28.84,
5.904,97.08830426174384,98.25560028632626,0.0,-6.0,-7.0,6,5,4,2,8,6,2,0.00,5.20,28.06,
5.917,96.97283042617438,98.45756002863263,-1.0,-7.0,-6.0,5,5,4,2,8,7,2,0.00,5.40,27.37,
5.932,96.77228304261743,98.63075600286328,-2.0,-8.0,-4.0,5,5,4,2,8,7,2,0.00,5.49,26.78,
5.946,96.67122830426175,98.72007560028632,-3.0,-8.0,-3.0,5,5,4,2,8,6,2,0.00,5.40,25.60,
5.96,96.52612283042617,98.73800756002863,-5.0,-8.0,-2.0,5,5,4,2,8,6,2,0.00,5.69,25.21,
5.975,96.42161228304262,98.60480075600287,-4.0,-9.0,-2.0,6,5,4,2,8,6,2,0.00,6.47,24.82,
5.988,96.26716122830426,98.4024800756003,-4.0,-8.0,-2.0,6,5,4,2,8,6,2,0.00,7.06,24.72,
6.002,96.07171612283042,98.22924800756002,-3.0,-8.0,-3.0,6,5,4,2,8,6,2,0.00,7.46,24.33,
6.017,95.98017161228304,98.094924800756,-3.0,-7.0,-3.0,6,5,4,2,8,6,2,0.00,8.04,24.03,
6.031,95.9170171612283,98.0904924800756,-3.0,-7.0,-3.0,6,5,4,2,8,6,2,0.00,8.14,23.54,
6.044,95.79370171612283,98.08104924800756,-4.0,-6.0,-3.0,6,5,4,2,8,6,2,0.00,8.24,23.25,
6.059,95.71837017161228,98.00810492480076,-4.0,-6.0,-3.0,6,5,4,2,8,6,2,0.00,8.34,22.66,
6.073,95.59383701716123,97.82981049248008,-3.0,-6.0,-2.0,5,5,4,2,8,6,2,0.00,8.83,22.37,
6.087,95.45538370171613,97.75798104924802,-3.0,-6.0,-3.0,5,5,4,2,8,6,2,0.00,9.03,22.17,
6.102,95.37853837017163,97.70579810492481,-2.0,-6.0,-3.0,5,5,4,2,8,6,2,0.00,9.12,21.39,
6.115,95.32585383701715,97.64657981049248,-2.0,-6.0,-3.0,5,5,4,2,8,6,2,0.00,9.03,20.90,
6.129,95.20358538370172,97.56865798104926,-2.0,-5.0,-2.0,5,5,4,2,8,6,2,0.00,8.83,20.40,
6.144,95.18235853837018,97.57886579810493,-2.0,-5.0,-3.0,5,5,4,2,8,6,2,0.00,8.63,20.01,
6.158,95.06323585383701,97.58888657981049,-2.0,-6.0,-3.0,5,5,4,2,8,6,2,0.00,8.73,19.42,
6.172,94.9343235853837,97.68888865798105,-2.0,-6.0,-3.0,5,5,4,2,8,6,2,0.00,8.53,19.13,
6.185,94.84943235853838,97.66288886579811,-2.0,-6.0,-3.0,5,5,4,2,8,6,2,0.00,8.44,18.93,
6.2,94.78694323585384,97.6332888865798,-2.0,-5.0,-2.0,5,5,4,2,8,6,2,0.00,8.24,18.64,
6.214,94.72669432358539,97.63032888865798,-1.0,-5.0,-2.0,5,4,4,2,8,6,2,0.00,8.34,18.34,
6.228,94.72966943235855,97.5400328888658,-1.0,-5.0,-2.0,5,4,4,2,8,6,2,0.00,8.14,18.15,
6.242,94.61296694323585,97.57600328888658,-1.0,-5.0,-3.0,5,4,4,2,8,6,2,0.00,8.04,17.85,
6.256,94.56529669432358,97.63360032888866,-1.0,-5.0,-3.0,5,4,4,2,8,6,2,0.00,8.14,17.46,
6.27,94.43452966943237,97.66636003288887,-1.0,-5.0,-3.0,5,4,4,2,8,6,2,0.00,7.95,17.27,
6.285,94.41245296694322,97.62463600328888,0.0,-5.0,-3.0,5,4,4,2,8,6,1,0.00,7.95,17.07,
6.299,94.38324529669431,97.67446360032889,-1.0,-5.0,-2.0,5,4,4,2,7,6,1,0.00,7.75,16.68,
6.312,94.34432452966944,97.76044636003289,-1.0,-6.0,-3.0,5,4,4,2,7,5,1,0.00,7.65,16.09,
6.327,94.28643245296695,97.76904463600329,-1.0,-6.0,-2.0,5,4,4,2,7,5,1,0.00,7.65,15.79,
6.341,94.2626432452967,97.76090446360034,-2.0,-7.0,-2.0,5,4,4,2,7,5,1,0.00,7.55,15.50,
6.355,94.18826432452968,97.74209044636002,-2.0,-8.0,-2.0,5,4,4,1,7,5,1,0.00,7.55,14.91,
6.369,94.03682643245295,97.74020904463599,-3.0,-8.0,-3.0,5,4,4,1,7,4,1,0.00,7.65,13.64,
6.383,93.8686826432453,97.85702090446361,-5.0,-8.0,-3.0,5,4,4,1,6,4,1,0.00,7.55,12.95,
6.397,93.74386826432453,97.90470209044636,-7.0,-8.0,-3.0,5,4,4,1,6,4,1,0.00,7.85,12.26,
6.412,93.74938682643246,97.52247020904463,-8.0,-7.0,-4.0,5,4,3,1,6,3,1,0.00,8.24,11.58,
6.425,93.65093868264324,97.45724702090446,-8.0,-7.0,-5.0,5,4,3,1,5,3,1,0.00,8.63,10.20,
6.439,93.32609386826434,97.45072470209044,-8.0,-6.0,-5.0,5,4,3,1,5,3,1,0.00,9.61,9.61,
6.454,93.14960938682643,97.32407247020905,-6.0,-7.0,-5.0,5,4,3,1,5,2,0,0.00,10.20,8.93,
6.468,92.81696093868266,97.04140724702091,-4.0,-6.0,-7.0,5,4,3,1,5,2,0,0.00,10.69,7.85,
6.482,92.52269609386826,97.12114072470209,-3.0,-4.0,-2.0,5,4,3,1,4,2,0,0.00,11.18,7.55,
6.496,92.18726960938683,97.27311407247021,-3.0,-2.0,-2.0,5,4,3,1,4,2,0,0.00,11.48,7.26,
6.51,92.18072696093869,97.23431140724702,-3.0,-1.0,-1.0,5,4,3,1,4,2,0,0.00,11.58,7.06,
6.524,92.29707269609388,97.2754311407247,-3.0,-1.0,-1.0,5,4,3,1,4,2,0,0.00,11.48,6.87,
6.539,92.39870726960939,97.18054311407246,-3.0,-1.0,-1.0,5,4,3,1,4,2,0,0.00,11.48,6.67,
6.552,92.51687072696095,97.14405431140725,-3.0,-1.0,-2.0,5,4,3,1,4,2,0,0.00,11.58,6.47,
6.566,92.50168707269609,97.16740543114072,-2.0,-1.0,-2.0,5,4,3,1,4,2,0,0.00,11.77,6.47,
6.581,92.48216870726961,97.18774054311407,-2.0,-1.0,-1.0,5,4,3,1,4,2,0,0.00,11.87,6.57,
6.595,92.46221687072696,97.21677405431141,-2.0,-1.0,-1.0,5,4,3,1,5,2,0,0.00,12.07,6.67,
6.609,92.46022168707269,97.19267740543114,-2.0,-1.0,-1.0,5,4,3,1,5,2,0,0.00,12.16,6.57,
6.623,92.46902216870727,97.15426774054312,-2.0,0.0,-1.0,5,4,3,1,5,2,0,0.00,12.16,6.47,
6.637,92.45190221687072,97.12342677405431,-1.0,0.0,-1.0,5,4,3,1,5,2,0,0.00,12.07,6.38,
6.651,92.43219022168708,97.14734267740543,-2.0,0.0,-1.0,5,4,3,1,5,2,0,0.00,11.87,6.38,
6.665,92.4662190221687,97.19473426774054,-2.0,0.0,-1.0,5,4,3,1,5,2,0,0.00,11.87,6.38,
6.679,92.51462190221687,97.20847342677405,-3.0,-1.0,-1.0,5,4,3,1,5,2,0,0.00,11.87,6.38,
6.693,92.48346219022169,97.2008473426774,-3.0,-1.0,-1.0,5,4,3,1,5,2,0,0.00,11.87,6.38,
6.708,92.44434621902217,97.11008473426774,-3.0,-1.0,0.0,5,4,3,1,5,2,0,0.00,12.26,6.47,
6.721,92.43143462190223,97.11900847342677,-3.0,-1.0,0.0,5,4,3,1,5,2,0,0.00,12.36,6.57,
6.735,92.34014346219021,97.11090084734268,-3.0,-1.0,0.0,5,4,3,1,4,2,0,0.00,12.56,6.47,
6.75,92.35801434621902,97.06509008473427,-3.0,0.0,0.0,5,4,3,1,4,2,0,0.00,12.85,6.47,
6.763,92.3238014346219,97.03350900847343,-3.0,-1.0,-1.0,5,4,3,1,4,2,0,0.00,12.95,6.57,
6.777,92.28438014346219,97.19235090084733,-3.0,0.0,1.0,5,4,3,1,4,2,0,0.00,13.15,6.57,
6.792,92.22643801434623,97.18123509008473,-3.0,1.0,0.0,5,4,3,1,4,2,0,0.00,13.34,7.16,
6.805,92.28364380143464,97.10812350900846,-3.0,2.0,0.0,6,4,3,1,4,2,0,0.00,13.83,7.55,
6.819,92.30736438014347,97.12781235090085,-3.0,1.0,0.0,6,4,3,1,4,2,0,0.00,14.03,7.85,
6.834,92.38173643801434,97.15678123509008,-3.0,1.0,0.0,6,4,3,1,4,2,0,0.00,14.22,8.14,
6.847,92.40717364380143,97.13267812350901,-3.0,1.0,0.0,6,4,3,1,4,2,0,0.00,14.52,8.73,
6.861,92.41871736438014,97.07626781235089,-3.0,1.0,0.0,6,4,3,1,4,2,0,0.00,15.21,8.93,
6.875,92.46487173643801,97.00762678123509,-3.0,2.0,0.0,6,4,3,1,4,2,0,0.00,15.40,9.32,
6.889,92.4604871736438,96.98276267812352,-2.0,2.0,0.0,6,4,3,1,4,2,0,0.00,15.70,9.61,
6.903,92.54104871736438,96.89927626781235,-1.0,3.0,0.0,6,4,3,1,5,2,0,0.00,15.99,10.20,
6.917,92.62110487173643,96.94492762678124,-2.0,3.0,-1.0,6,4,3,1,5,2,0,0.00,16.09,10.59,
6.931,92.69211048717365,97.02149276267812,-2.0,3.0,0.0,6,4,3,1,5,2,1,0.00,16.09,10.99,
6.945,92.73521104871736,97.01114927626782,-2.0,3.0,0.0,6,4,3,1,5,2,1,0.00,15.99,11.67,
6.959,92.87452110487173,96.93811492762678,-2.0,3.0,0.0,6,4,3,1,5,2,1,0.00,15.99,12.16,
6.973,92.98745211048717,96.86781149276268,-2.0,3.0,0.0,6,4,3,1,5,2,1,0.00,16.28,12.56,
6.987,93.04374521104872,96.94178114927628,-2.0,2.0,0.0,6,4,3,1,5,2,1,0.00,16.48,12.95,
7.002,93.10337452110488,96.97617811492763,-2.0,2.0,0.0,6,4,3,1,5,2,1,0.00,16.48,13.64,
7.015,93.15433745211048,96.96161781149276,-3.0,1.0,0.0,6,4,3,1,5,2,1,0.00,16.68,13.93,
7.029,93.21343374521103,96.95116178114928,-2.0,1.0,0.0,6,4,3,1,5,2,1,0.00,16.97,14.32,
7.044,93.2193433745211,96.98611617811493,-3.0,1.0,0.0,6,4,3,1,5,3,1,0.00,17.17,14.62,
7.057,93.2739343374521,97.0526116178115,-3.0,1.0,0.0,6,4,3,1,5,3,1,0.00,17.46,15.11,
7.071,93.29739343374521,97.03226116178115,-3.0,0.0,0.0,6,4,3,1,5,3,1,0.00,17.85,15.40,
7.086,93.35373934337451,96.85022611617812,-3.0,0.0,0.0,6,4,3,1,5,3,1,0.00,18.05,15.40,
7.099,93.38637393433746,96.8230226116178,-3.0,0.0,0.0,6,4,3,1,5,3,1,0.00,18.25,15.60,
7.113,93.39863739343375,96.80230226116178,-3.0,0.0,0.0,6,4,3,1,5,3,1,0.00,18.44,15.79,
7.128,93.37286373934337,96.89923022611617,-3.0,0.0,0.0,6,5,3,1,5,3,1,0.00,18.84,15.79,
7.141,93.37028637393433,96.89092302261162,-3.0,0.0,0.0,6,5,3,1,5,3,1,0.00,18.93,15.79,
7.155,93.34302863739343,96.91709230226117,-3.0,0.0,0.0,6,4,3,1,5,3,1,0.00,19.13,15.79,
7.17,93.33130286373934,96.94670923022612,-3.0,0.0,0.0,6,5,3,1,5,3,1,0.00,19.42,15.89,
7.183,93.40213028637393,96.89567092302262,-3.0,0.0,0.0,6,5,3,1,5,3,1,0.00,20.11,16.09,
7.197,93.4182130286374,96.76456709230226,-3.0,0.0,0.0,6,5,3,1,5,3,1,0.00,20.31,16.19,
7.212,93.38382130286374,96.74245670923023,-3.0,0.0,0.0,6,5,3,1,5,3,1,0.00,20.60,16.28,
7.225,93.35338213028638,96.74924567092302,-3.0,-1.0,0.0,6,5,3,1,5,3,1,0.00,20.80,16.38,
7.239,93.35933821302864,96.7409245670923,-3.0,-1.0,0.0,6,5,3,1,5,3,1,0.00,21.09,16.48,
7.254,93.34193382130286,96.70409245670923,-3.0,-1.0,0.0,6,5,3,1,5,3,1,0.00,21.29,16.48,
7.268,93.38519338213028,96.67340924567092,-3.0,-1.0,0.0,6,5,3,1,5,2,1,0.00,21.48,16.48,
7.282,93.38951933821303,96.71534092456709,-3.0,-1.0,0.0,6,5,3,1,5,2,1,0.00,21.88,16.68,
7.296,93.3359519338213,96.71053409245671,-3.0,-1.0,0.0,6,5,3,1,5,2,1,0.00,22.56,16.68,
7.31,93.31259519338212,96.62005340924567,-3.0,-1.0,0.0,6,5,3,1,5,2,1,0.00,22.96,16.87,
7.324,93.27425951933822,96.55700534092456,-2.0,0.0,0.0,6,5,3,1,5,2,1,0.00,23.35,17.17,
7.337,93.23442595193383,96.55070053409244,-2.0,0.0,0.0,6,5,3,1,5,3,1,0.00,23.84,17.27,
7.774,93.29344259519338,96.05507005340925,-3.0,-1.0,-1.0,6,5,4,1,5,2,1,0.00,32.18,19.33,
7.788,93.32634425951933,96.01450700534093,-3.0,-1.0,0.0,6,5,4,1,4,2,1,0.00,32.27,19.13,
7.802,93.32063442595194,95.95645070053409,-3.0,-1.0,-1.0,6,5,4,1,4,2,0,0.00,32.27,18.93,
7.817,93.29306344259521,95.89664507005341,-3.0,-2.0,-1.0,6,5,3,1,4,2,0,0.00,32.37,18.74,
7.831,93.30830634425952,95.86366450700534,-3.0,-2.0,-1.0,6,5,3,1,4,2,0,0.00,32.27,18.44,
7.844,93.21983063442595,95.92336645070054,-3.0,-2.0,-1.0,6,5,3,1,4,2,0,0.00,32.18,17.85,
7.859,93.1479830634426,96.04633664507006,-3.0,-2.0,-1.0,6,5,3,1,4,2,0,0.00,32.08,17.46,
7.873,93.14979830634427,96.022633664507,-3.0,-3.0,-1.0,6,5,3,1,4,2,0,0.00,31.98,17.17,
7.887,93.19497983063444,95.9572633664507,-3.0,-3.0,-2.0,6,5,3,1,4,2,0,0.00,31.98,16.78,
7.902,93.19949798306345,95.96872633664508,-2.0,-3.0,-3.0,6,5,3,1,4,2,0,0.00,32.08,16.09,
7.916,93.19994979830635,95.8888726336645,-2.0,-4.0,-2.0,6,5,3,1,4,2,0,0.00,32.47,15.70,
7.93,93.10099497983063,95.82688726336644,-3.0,-4.0,-1.0,6,5,3,1,4,2,0,0.00,32.57,15.30,
7.944,93.03709949798306,95.76668872633665,-2.0,-4.0,-1.0,6,5,3,1,4,2,0,0.00,32.67,14.62,
7.958,92.94070994979832,95.70666887263367,-3.0,-3.0,-1.0,6,5,3,1,4,2,0,0.00,32.96,14.32,
7.972,92.86807099497983,95.70066688726337,-2.0,-3.0,-1.0,6,5,3,1,4,2,0,0.00,33.45,14.13,
7.987,92.80680709949797,95.71806668872634,-2.0,-2.0,-1.0,6,5,3,1,4,2,0,0.00,33.65,13.83,
8.001,92.6746807099498,95.72880666887264,-2.0,-2.0,-1.0,6,5,3,1,4,2,0,0.00,33.65,13.44,
8.015,92.63446807099498,95.78388066688727,-3.0,-1.0,-1.0,6,5,3,1,4,2,0,0.00,33.94,13.44,
8.03,92.6214468070995,95.79838806668872,-3.0,-1.0,-1.0,6,5,3,1,4,2,0,0.00,34.04,13.34,
8.044,92.55714468070995,95.83583880666887,-3.0,-1.0,-1.0,6,5,3,1,4,2,0,0.00,34.14,13.34,
8.057,92.604714468071,95.78558388066688,-3.0,-1.0,-1.0,6,5,3,1,4,2,0,0.00,34.43,13.24,
8.072,92.6184714468071,95.78055838806668,-3.0,0.0,-1.0,6,5,3,1,4,2,0,0.00,34.73,13.24,
8.086,92.62884714468072,95.82505583880666,-3.0,0.0,-1.0,6,5,3,1,4,2,0,0.00,34.92,13.15,
8.1,92.63888471446808,95.79350558388067,-3.0,0.0,-1.0,6,5,3,1,4,2,0,0.00,35.02,13.24,
8.115,92.63088847144681,95.74535055838805,-3.0,0.0,-1.0,6,5,3,1,3,2,0,0.00,35.22,13.24,
8.128,92.63908884714468,95.75853505583882,-3.0,0.0,-1.0,6,5,3,1,3,2,0,0.00,35.32,13.15,
8.142,92.68490888471447,95.75085350558388,-3.0,0.0,-1.0,6,5,3,1,3,2,0,0.00,35.51,13.15,
8.157,92.71649088847145,95.73208535055839,-2.0,0.0,0.0,6,5,3,1,4,2,0,0.00,35.71,13.34,
8.171,92.73764908884714,95.76620853505584,-3.0,0.0,0.0,6,5,3,1,4,2,0,0.00,35.81,13.44,
8.184,92.71276490888471,95.73362085350558,-3.0,0.0,0.0,6,5,3,1,3,2,0,0.00,35.90,13.54,
8.199,92.66527649088847,95.69436208535055,-3.0,0.0,0.0,6,5,3,1,3,2,0,0.00,36.10,13.54,
8.213,92.63352764908885,95.64543620853506,-3.0,0.0,0.0,6,5,3,1,3,2,0,0.00,36.30,13.73,
8.226,92.6843527649089,95.6405436208535,-3.0,0.0,0.0,6,5,3,1,3,2,0,0.00,36.79,13.83,
8.241,92.7434352764909,95.62205436208535,-3.0,0.0,0.0,6,5,3,1,3,2,0,0.00,36.79,14.03,
8.255,92.7493435276491,95.62920543620852,-3.0,0.0,0.0,6,5,3,1,3,2,0,0.00,36.98,14.03,
8.268,92.75893435276492,95.60292054362084,-2.0,-1.0,0.0,6,5,3,1,3,2,0,0.00,36.98,13.93,
8.283,92.7778934352765,95.58229205436209,-3.0,0.0,0.0,6,5,3,1,3,2,0,0.00,37.38,13.83,
8.297,92.68978934352765,95.5712292054362,-3.0,0.0,0.0,6,5,3,1,3,1,0,0.00,37.47,13.83,
8.311,92.75297893435277,95.30012292054361,-2.0,-1.0,-3.0,6,5,3,1,3,1,0,0.00,37.57,13.73,
8.325,92.71429789343527,95.23701229205437,-3.0,-1.0,0.0,6,5,3,1,3,1,0,0.00,37.77,13.64,
8.339,92.67442978934353,95.27570122920545,-3.0,0.0,0.0,6,5,3,1,3,1,0,0.00,38.26,13.64,
8.353,92.61644297893436,95.27057012292053,-3.0,0.0,0.0,6,5,3,1,3,1,0,0.00,38.55,13.54,
8.367,92.63764429789344,95.28805701229206,-3.0,0.0,-1.0,6,5,3,1,3,1,0,0.00,38.75,13.54,
8.381,92.69376442978935,95.3168057012292,-3.0,0.0,-1.0,6,5,3,1,3,1,0,0.00,39.04,13.44,
8.395,92.65437644297894,95.31968057012291,-3.0,0.0,-1.0,6,5,3,1,3,1,0,0.00,39.44,13.34,
8.41,92.6414376442979,95.2929680570123,-2.0,0.0,-1.0,6,5,3,1,3,1,0,0.00,39.73,13.24,
8.424,92.6401437644298,95.27229680570122,-2.0,0.0,-1.0,6,5,3,1,3,1,0,0.00,39.73,13.24,
8.437,92.65801437644298,95.29722968057011,-2.0,0.0,-1.0,6,5,3,1,3,1,0,0.00,39.83,13.15,
8.452,92.6508014376443,95.31772296805701,-3.0,0.0,0.0,6,5,3,1,3,1,0,0.00,39.93,13.15,
8.466,92.68608014376443,95.3467722968057,-3.0,0.0,0.0,6,5,3,1,3,1,0,0.00,40.02,13.15,
8.479,92.68960801437645,95.33167722968057,-3.0,0.0,0.0,6,5,3,1,3,1,0,0.00,40.12,13.15,
8.494,92.70796080143764,95.29416772296807,-3.0,0.0,0.0,6,5,3,1,3,1,0,0.00,40.52,13.15,
8.508,92.66479608014376,95.29941677229681,-2.0,0.0,0.0,6,5,3,1,3,1,0,0.00,40.61,13.15,
8.522,92.66047960801438,95.30894167722968,-2.0,0.0,0.0,6,5,3,1,3,1,0,0.00,40.71,13.15,
8.536,92.62404796080145,95.29189416772297,-2.0,0.0,0.0,6,5,3,1,3,1,0,0.00,40.81,13.15,
8.55,92.60240479608015,95.2991894167723,-2.0,0.0,0.0,6,5,3,1,3,1,0,0.00,41.10,13.15,
8.564,92.60924047960802,95.32691894167722,-2.0,0.0,0.0,6,5,3,1,3,1,0,0.00,41.20,13.15,
8.578,92.5649240479608,95.12269189416773,-2.0,0.0,0.0,6,5,3,1,3,1,0,0.00,41.40,13.44,
8.592,92.57849240479608,95.12026918941677,-2.0,0.0,0.0,6,5,3,1,3,1,0,0.00,41.40,13.54,
8.606,92.6248492404796,95.17402691894168,-2.0,0.0,0.0,6,5,3,1,3,1,0,0.00,41.79,13.54,
8.62,92.65648492404796,95.12540269189417,-2.0,0.0,-1.0,6,5,3,1,3,1,0,0.00,41.89,13.54,
8.634,92.6056484924048,95.13854026918942,-2.0,0.0,-1.0,6,5,3,1,3,1,0,0.00,41.79,13.64,
8.648,92.60956484924048,95.13985402691894,-1.0,0.0,-1.0,6,5,3,1,3,1,0,0.00,41.89,13.54,
8.663,92.60995648492406,95.13098540269189,-2.0,0.0,0.0,6,5,3,1,3,1,0,0.00,41.89,13.73,
8.676,92.6459956484924,95.16609854026919,-2.0,0.0,0.0,6,5,3,1,3,1,0,0.00,41.69,13.93,
8.69,92.66759956484924,95.21460985402692,-2.0,0.0,-1.0,6,5,3,1,3,1,0,0.00,41.59,14.03,
8.705,92.69675995648493,95.21946098540269,-2.0,0.0,0.0,6,5,3,1,3,1,0,0.00,41.30,14.22,
8.718,92.70867599564849,95.20194609854028,-2.0,0.0,0.0,6,5,3,1,3,1,0,0.00,41.10,14.22,
8.732,92.72786759956486,95.15519460985404,-2.0,0.0,-1.0,6,5,3,1,3,1,0,0.00,41.01,14.32,
8.747,92.7837867599565,95.1055194609854,-2.0,0.0,-1.0,6,5,3,1,3,1,0,0.00,41.01,14.42,
8.761,92.83437867599565,95.10955194609855,-1.0,0.0,-1.0,6,5,3,1,3,1,0,0.00,40.91,14.42,
8.774,92.76743786759957,95.11895519460985,-1.0,0.0,-1.0,6,5,3,1,3,1,0,0.00,40.81,14.52,
8.788,92.72474378675996,95.12889551946098,-1.0,0.0,-1.0,6,5,3,1,3,2,0,0.00,40.71,14.72,
8.803,92.79247437867599,95.1478895519461,-2.0,0.0,-1.0,6,5,3,1,3,2,0,0.00,40.52,14.81,
8.817,92.77224743786759,95.15878895519461,-2.0,0.0,-1.0,6,5,3,1,3,2,0,0.00,40.42,15.01,
8.832,92.76122474378677,95.15987889551947,-2.0,0.0,0.0,6,5,3,1,3,2,0,0.00,40.61,15.21,
8.845,92.74212247437868,95.12398788955196,-2.0,0.0,-1.0,6,5,3,1,3,2,0,0.00,40.61,15.40,
8.859,92.71321224743787,95.1473987889552,-2.0,0.0,0.0,6,5,3,1,3,2,0,0.00,40.91,15.40,
8.873,92.7193212247438,95.18573987889553,-2.0,0.0,0.0,6,5,3,1,3,2,0,0.00,40.91,15.60,
8.887,92.75593212247439,95.20757398788955,-2.0,0.0,0.0,6,5,3,1,3,1,0,0.00,40.91,15.60,
8.901,92.75059321224745,95.23675739878894,-2.0,0.0,0.0,6,5,3,1,3,1,0,0.00,41.10,15.79,
8.915,92.78605932122476,95.2216757398789,-2.0,0.0,0.0,6,5,3,1,3,1,0,0.00,41.59,15.79,
8.929,92.78060593212248,95.2291675739879,-2.0,0.0,0.0,6,5,3,1,3,1,0,0.00,41.69,15.99,
8.943,92.83406059321226,95.2479167573988,-2.0,0.0,0.0,6,5,3,1,3,1,0,0.00,41.79,16.09,
8.957,92.83040605932122,95.22279167573988,-2.0,0.0,-1.0,6,5,3,1,3,1,0,0.00,41.99,16.19,
8.971,92.83004060593211,95.22927916757399,-2.0,0.0,0.0,6,5,3,1,3,1,0,0.00,42.28,16.19,
8.985,92.83900406059323,95.2479279167574,-2.0,0.0,0.0,6,5,3,1,3,1,0,0.00,42.38,16.28,
8.999,92.90290040605932,95.32179279167573,-2.0,0.0,0.0,6,5,3,1,3,1,0,0.00,42.58,16.38,
9.014,92.89129004060592,95.32917927916756,-2.0,0.0,0.0,6,5,3,1,3,1,0,0.00,42.87,16.48,
9.027,92.92612900406061,95.32091792791675,-2.0,0.0,0.0,6,5,3,1,3,1,0,0.00,43.07,16.58,
9.041,92.94761290040606,95.30209179279167,-2.0,0.0,-1.0,6,5,3,1,3,1,0,0.00,43.26,16.58,
9.056,92.9407612900406,95.35420917927917,-2.0,0.0,-1.0,6,5,3,1,3,1,0,0.00,43.36,16.58,
9.069,92.91307612900405,95.3774209179279,-3.0,0.0,0.0,6,5,3,1,3,1,0,0.00,43.46,16.48,
9.083,92.93730761290041,95.22674209179279,-3.0,0.0,-1.0,6,5,3,1,3,1,0,0.00,43.56,16.28,
9.098,92.96673076129004,95.25667420917928,-3.0,-1.0,-1.0,6,5,3,1,3,1,0,0.00,43.56,16.28,
9.112,92.93367307612901,95.29566742091792,-3.0,0.0,-1.0,6,5,3,1,3,1,0,0.00,43.75,15.99,
9.126,92.9573673076129,95.2275667420918,-3.0,0.0,0.0,6,5,3,1,3,1,0,0.00,44.24,15.99,
9.14,92.95973673076129,95.18475667420918,-2.0,0.0,-1.0,6,5,3,1,3,1,0,0.00,44.54,15.79,
9.154,92.91497367307613,95.13547566742092,-2.0,0.0,-1.0,6,5,3,1,3,1,0,0.00,44.54,15.60,
9.168,92.93749736730761,95.0855475667421,-2.0,0.0,0.0,6,5,3,1,3,1,0,0.00,44.44,15.21,
9.182,92.93974973673076,95.09855475667422,-2.0,-1.0,-1.0,6,5,3,1,3,1,0,0.00,43.75,14.81,
9.196,92.93097497367309,95.10885547566743,-2.0,-1.0,0.0,6,5,3,0,3,1,0,0.00,43.36,14.42,
9.21,92.8850974973673,95.10088554756675,-2.0,0.0,-1.0,6,5,3,0,3,1,0,0.00,43.16,13.83,
9.225,92.85350974973673,95.08208855475668,-1.0,0.0,-1.0,6,5,3,0,3,1,0,0.00,43.07,13.73,
9.239,92.80535097497366,95.09820885547566,-1.0,0.0,-1.0,6,5,3,1,3,1,0,0.00,42.58,13.64,
9.252,92.82753509749736,95.12682088554757,-1.0,0.0,0.0,6,5,3,1,3,1,0,0.00,42.28,13.73,
9.267,92.73975350974975,95.03968208855476,-1.0,0.0,-1.0,6,5,3,1,3,1,0,0.00,41.89,13.73,
9.281,92.71297535097497,94.96796820885547,0.0,1.0,-1.0,6,5,3,1,3,1,0,0.00,41.50,13.83,
9.294,92.6832975350975,95.02379682088555,0.0,1.0,-1.0,6,5,3,1,4,1,0,0.00,40.91,14.13,
9.309,92.71632975350975,95.09237968208856,0.0,1.0,-1.0,6,5,3,1,4,2,0,0.00,40.52,14.52,
9.323,92.75563297535098,95.09023796820885,0.0,2.0,-1.0,6,5,3,1,4,2,0,0.00,40.02,15.60,
9.337,92.8495632975351,95.15302379682089,0.0,2.0,-1.0,6,5,3,1,4,2,0,0.00,39.34,16.09,
9.351,92.89495632975353,95.25830237968208,0.0,1.0,-1.0,6,5,3,1,4,2,0,0.00,38.85,16.68,
9.365,92.89049563297534,95.23283023796822,0.0,1.0,-2.0,6,5,3,1,4,2,0,0.00,38.16,17.07,
9.379,92.95304956329753,95.26628302379682,0.0,1.0,-1.0,6,5,3,1,4,2,0,0.00,37.67,17.56,
9.393,93.00430495632975,95.35062830237968,0.0,1.0,-1.0,6,5,3,1,4,2,0,0.00,36.79,17.95,
9.407,93.07243049563297,95.44006283023796,0.0,1.0,-1.0,6,5,3,1,4,2,0,0.00,36.49,18.44,
9.421,93.0792430495633,95.45800628302379,-1.0,1.0,-1.0,6,5,3,1,5,2,0,0.00,36.10,18.84,
9.435,93.14292430495634,95.47780062830238,-1.0,1.0,-1.0,6,5,3,1,5,2,0,0.00,35.81,19.03,
9.449,93.18529243049562,95.47078006283024,-1.0,0.0,-1.0,6,5,3,1,5,2,0,0.00,35.61,19.23,
9.463,93.19852924304956,95.55107800628303,-1.0,1.0,-1.0,6,5,3,1,5,2,0,0.00,35.41,19.33,
9.478,93.19085292430495,95.60410780062831,-1.0,0.0,0.0,6,5,3,1,5,2,0,0.00,35.41,19.91,
9.491,93.2080852924305,95.54641078006283,-1.0,0.0,-1.0,6,5,3,1,5,2,0,0.00,35.32,19.91,
9.505,93.21880852924305,95.56764107800628,-1.0,0.0,-1.0,6,5,4,1,5,2,0,0.00,35.02,20.01,
9.52,93.2288808529243,95.56076410780062,-1.0,0.0,-1.0,6,5,4,1,5,2,0,0.00,35.02,20.21,
9.534,93.22988808529244,95.56907641078006,-1.0,0.0,-1.0,6,5,4,1,5,2,0,0.00,34.83,20.40,
9.547,93.27498880852924,95.587907641078,-1.0,0.0,-1.0,6,5,4,1,5,2,0,0.00,34.53,20.60,
9.562,93.30649888085293,95.6347907641078,-1.0,0.0,0.0,6,5,4,1,5,2,1,0.00,34.34,20.70,
9.576,93.33664988808529,95.63047907641078,-2.0,0.0,-1.0,6,5,4,1,5,2,1,0.00,34.24,20.80,
9.59,93.38466498880852,95.63904790764109,-2.0,0.0,0.0,6,5,4,1,5,2,1,0.00,34.24,20.99,
9.604,93.40746649888085,95.6129047907641,-2.0,0.0,0.0,6,5,4,1,5,2,1,0.00,34.14,20.99,
9.618,93.38274664988808,95.61029047907641,-2.0,0.0,0.0,6,5,4,1,5,2,1,0.00,34.04,20.99,
9.632,93.4162746649888,95.62802904790763,-2.0,0.0,0.0,6,5,4,1,5,2,1,0.00,33.94,20.99,
9.646,93.39262746649888,95.69280290479077,-2.0,0.0,0.0,6,5,4,1,5,2,0,0.00,33.94,20.90,
9.66,93.3632627466499,95.70828029047907,-3.0,0.0,0.0,6,5,4,1,5,2,0,0.00,34.04,20.70,
9.674,93.32432627466498,95.6648280290479,-3.0,0.0,0.0,6,5,4,1,5,2,0,0.00,34.24,20.70,
9.688,93.33843262746649,95.6424828029048,-2.0,0.0,0.0,6,5,4,1,5,2,0,0.00,34.43,20.40,
9.702,93.36684326274664,95.62224828029048,-2.0,0.0,0.0,6,5,4,1,5,2,0,0.00,34.53,20.40,
9.716,93.35168432627466,95.64722482802905,-2.0,0.0,0.0,6,5,4,1,5,2,0,0.00,34.63,20.21,
9.73,93.35016843262747,95.66772248280292,-3.0,0.0,0.0,6,5,4,1,5,2,0,0.00,34.63,20.01,
9.744,93.39501684326275,95.6427722482803,-3.0,0.0,0.0,6,5,4,1,5,2,0,0.00,34.53,19.82,
9.758,93.43550168432628,95.63127722482803,-3.0,-1.0,0.0,6,5,4,1,4,2,0,0.00,34.63,19.52,
9.773,93.46655016843263,95.6031277224828,-3.0,-1.0,0.0,6,5,4,1,4,2,0,0.00,35.02,19.23,
9.786,93.46965501684326,95.53731277224828,-2.0,-1.0,0.0,6,5,4,1,4,2,0,0.00,35.32,19.03,
9.8,93.40696550168433,95.53973127722483,-2.0,-1.0,-1.0,6,5,4,1,4,2,0,0.00,35.41,18.64,
9.815,93.37369655016843,95.52197312772249,-2.0,-1.0,0.0,6,5,4,1,4,2,0,0.00,35.51,18.44,
9.829,93.41536965501685,95.53819731277225,-2.0,-1.0,0.0,6,5,4,1,4,2,0,0.00,35.41,18.25,
9.842,93.39253696550168,95.50381973127722,-2.0,-2.0,0.0,6,5,4,1,4,2,0,0.00,35.32,17.85,
9.857,93.39025369655016,95.48238197312773,-2.0,-2.0,0.0,6,5,4,1,4,2,0,0.00,35.32,17.66,
9.871,93.39002536965502,95.48023819731277,-2.0,-2.0,0.0,6,5,4,1,4,2,0,0.00,35.61,17.56,
9.885,93.3360025369655,95.44402381973127,-2.0,-3.0,0.0,6,5,4,1,4,2,0,0.00,35.61,17.36,
9.9,93.24060025369656,95.42240238197313,-2.0,-3.0,0.0,6,5,4,1,4,2,0,0.00,35.51,16.87,
9.913,93.18606002536967,95.45624023819731,-1.0,-2.0,0.0,6,5,4,1,4,2,0,0.00,35.51,16.58,
9.927,93.09060600253697,95.48662402381973,-1.0,-1.0,0.0,6,5,4,1,4,2,0,0.00,35.51,16.28,
9.942,93.04506060025369,95.50766240238198,-1.0,-1.0,0.0,6,5,4,1,4,2,0,0.00,35.61,16.19,
9.956,93.02250606002536,95.52776624023821,-1.0,0.0,-1.0,6,5,4,1,5,2,0,0.00,35.51,16.19,
9.969,92.99325060600253,95.54777662402383,-1.0,0.0,-1.0,6,5,4,1,5,2,0,0.00,35.41,16.38,
9.984,92.93632506060027,95.58577766240239,-1.0,0.0,-1.0,6,5,4,1,5,2,0,0.00,35.41,16.48,
9.998,92.94863250606002,95.54457776624024,-2.0,1.0,-1.0,6,5,4,1,5,2,0,0.00,35.32,16.78,
10.012,92.985863250606,95.59445777662401,-2.0,1.0,-1.0,6,5,4,1,5,2,0,0.00,35.32,17.07,
10.027,93.0165863250606,95.5724457776624,-2.0,1.0,-1.0,6,5,4,1,5,2,0,0.00,35.02,17.17,
10.04,93.10065863250607,95.57024457776623,-2.0,0.0,-1.0,6,5,4,1,5,2,0,0.00,34.83,17.27,
10.054,93.1540658632506,95.57902445777663,-2.0,1.0,-1.0,6,5,4,1,5,2,0,0.00,34.73,17.27,
10.068,93.18640658632505,95.56190244577766,-2.0,1.0,-1.0,6,5,4,1,5,2,0,0.00,34.63,17.36,
10.083,93.2436406586325,95.54219024457777,-1.0,2.0,-1.0,6,5,4,1,5,2,0,0.00,34.43,17.56,
10.097,93.20436406586326,95.52221902445778,-1.0,2.0,-1.0,6,5,4,1,5,2,1,0.00,34.34,17.76,
10.112,93.20943640658632,95.52022190244578,-1.0,2.0,-1.0,6,5,4,1,5,2,1,0.00,33.94,18.25,
10.126,93.23694364065862,95.54702219024458,-1.0,1.0,0.0,6,5,4,1,5,2,1,0.00,33.26,18.44,
10.139,93.30269436406586,95.57670221902447,-1.0,1.0,0.0,6,5,4,1,5,2,1,0.00,32.96,18.74,
10.153,93.39926943640658,95.59767022190243,-1.0,0.0,0.0,6,5,4,1,5,2,1,0.00,32.77,19.23,
10.168,93.45392694364065,95.67176702219025,-1.0,0.0,0.0,6,5,4,1,5,2,1,0.00,32.67,19.52,
10.182,93.45939269436406,95.62517670221902,-1.0,0.0,-1.0,6,5,4,1,5,2,1,0.00,32.57,19.62,
10.195,93.5049392694364,95.60251767022189,-1.0,0.0,-1.0,6,5,4,1,5,2,1,0.00,32.57,19.82,
10.21,93.56349392694364,95.64525176702219,-1.0,0.0,-1.0,6,5,4,1,5,2,1,0.00,32.37,20.11,
10.224,93.57834939269435,95.65852517670221,-1.0,0.0,-1.0,6,5,4,1,5,2,1,0.00,32.08,20.31,
10.238,93.66083493926944,95.64185251767023,-1.0,0.0,-1.0,6,6,4,1,5,2,1,0.00,31.59,20.31,
10.253,93.68708349392693,95.64918525176702,-2.0,0.0,-1.0,6,6,4,1,5,2,1,0.00,31.39,20.31,
10.267,93.70770834939269,95.6319185251767,-2.0,0.0,0.0,6,6,4,1,5,2,1,0.00,31.29,20.50,
10.28,93.71877083493926,95.57619185251767,-2.0,0.0,-1.0,6,6,4,1,5,2,1,0.00,31.20,20.40,
10.295,93.71087708349393,95.60661918525177,-2.0,0.0,0.0,6,6,4,1,5,2,1,0.00,31.20,20.40,
10.309,93.71008770834939,95.62766191852516,-2.0,0.0,0.0,6,6,4,1,5,2,1,0.00,31.20,20.50,
10.323,93.68300877083495,95.66576619185253,-2.0,0.0,0.0,6,6,4,1,5,2,1,0.00,31.10,20.50,
10.762,92.78930087708349,94.82357661918526,-8.0,-2.0,-2.0,6,4,3,0,1,0,0,0.00,52.78,11.18,
10.776,92.73593008770835,94.72135766191852,-9.0,-2.0,-1.0,6,4,3,0,1,0,0,0.00,53.76,9.71,
10.79,92.71259300877082,94.63013576619186,-9.0,-1.0,-1.0,6,4,3,0,0,0,0,0.00,55.03,9.22,
10.805,92.57525930087708,94.64801357661918,-9.0,0.0,0.0,6,4,3,0,0,0,0,0.00,57.68,8.83,
10.818,92.59752593008771,94.68580135766192,-8.0,1.0,1.0,5,4,3,0,0,0,0,0.00,59.06,8.44,
10.832,92.68075259300878,94.59058013576619,-7.0,2.0,2.0,5,4,3,0,0,0,0,0.00,60.33,8.04,
10.847,92.72507525930088,94.4550580135766,-6.0,2.0,1.0,5,4,3,0,0,0,0,0.00,61.90,8.14,
10.861,92.65750752593009,94.33350580135765,-5.0,3.0,2.0,5,4,3,0,0,0,0,0.00,64.55,8.34,
10.874,92.506750752593,94.26735058013577,-4.0,6.0,3.0,6,4,3,0,1,0,0,0.00,65.92,8.63,
10.889,92.4466750752593,94.08073505801359,-3.0,11.0,4.0,6,4,3,0,1,0,0,0.00,67.20,9.81,
10.903,92.61166750752594,94.00807350580136,-2.0,13.0,5.0,6,4,3,0,2,0,0,0.00,69.75,10.89,
10.917,92.7901667507526,94.24380735058014,-3.0,13.0,7.0,6,4,3,1,2,0,0,0.00,71.22,12.46,
10.931,93.06901667507525,94.27638073505801,-3.0,13.0,6.0,6,5,3,1,3,1,0,0.00,73.28,16.38,
10.945,93.39390166750752,94.2166380735058,-2.0,12.0,6.0,6,5,3,1,4,1,0,0.00,76.03,18.84,
10.959,93.83139016675075,94.0486638073506,0.0,10.0,5.0,6,5,4,1,4,1,0,0.00,83.19,21.19,
10.974,94.14513901667509,94.08586638073507,0.0,9.0,5.0,6,5,4,1,5,1,0,0.00,87.01,23.84,
10.988,93.9785139016675,94.1525866380735,0.0,9.0,5.0,6,5,4,1,5,1,0,0.00,91.04,29.04,
11.001,94.11485139016675,94.09625866380736,0.0,11.0,5.0,6,6,4,1,5,1,0,0.00,94.96,31.59,
11.016,94.10148513901667,94.04562586638075,0.0,13.0,4.0,6,6,4,1,5,1,0,0.00,103.10,34.14,
11.03,94.16314851390166,94.13956258663808,-1.0,15.0,5.0,6,6,4,1,6,2,0,0.00,106.44,36.69,
11.044,94.40331485139018,94.1669562586638,-3.0,17.0,6.0,7,6,4,1,6,2,0,0.00,108.79,41.79,
11.059,94.778331485139,94.00769562586638,-3.0,17.0,5.0,7,6,4,1,6,2,0,0.00,112.42,44.34,
11.073,95.3918331485139,93.73976956258663,-2.0,14.0,4.0,7,7,4,1,5,2,0,0.00,113.70,46.89,
11.087,95.88518331485139,93.54197695625865,-1.0,10.0,2.0,7,7,5,1,5,2,0,0.00,113.99,51.50,
11.102,96.20451833148513,93.63019769562587,0.0,7.0,2.0,7,7,5,1,5,2,0,0.00,113.40,53.17,
11.115,96.39845183314851,93.65701976956258,0.0,5.0,2.0,7,7,5,1,5,2,0,0.00,109.87,54.64,
11.129,96.57084518331486,93.78570197695626,-1.0,3.0,1.0,6,7,5,1,5,2,0,0.00,107.81,55.72,
11.144,96.5070845183315,93.79857019769562,0.0,3.0,1.0,6,7,5,1,5,2,0,0.00,105.75,57.00,
11.158,96.59070845183314,93.93485701976957,-1.0,3.0,0.0,5,7,5,1,5,2,0,0.00,104.08,57.19,
11.172,96.5990708451833,93.89448570197696,-1.0,5.0,0.0,5,7,5,1,5,2,0,0.00,100.55,57.68,
11.186,96.75290708451833,93.89044857019769,-1.0,4.0,0.0,5,7,5,1,5,3,0,0.00,97.90,58.57,
11.2,97.02029070845182,93.88104485701977,0.0,3.0,0.0,6,7,5,1,5,3,0,0.00,95.55,59.15,
11.214,97.09202907084519,93.82610448570198,0.0,1.0,-1.0,6,7,5,2,5,3,0,0.00,91.23,59.84,
11.229,97.21620290708452,93.72161044857019,1.0,1.0,-2.0,5,7,5,2,5,3,0,0.00,88.88,60.33,
11.242,97.39962029070844,93.65716104485702,3.0,0.0,-3.0,5,7,5,2,5,3,0,0.00,86.62,61.21,
11.256,97.45396202907084,93.7317161044857,5.0,-1.0,-3.0,6,7,5,2,5,3,0,0.00,84.07,61.61,
11.271,97.62139620290708,93.90117161044857,6.0,-2.0,-3.0,6,7,5,2,6,3,0,0.00,78.87,61.90,
11.285,97.55713962029071,93.90911716104486,9.0,-3.0,-5.0,6,7,5,2,6,3,1,0.00,76.42,62.29,
11.299,97.38871396202907,93.98191171610448,11.0,-3.0,-7.0,6,7,5,2,6,3,1,0.00,73.77,62.88,
11.314,97.29987139620292,94.15119117161045,13.0,-4.0,-7.0,7,7,5,2,6,4,1,0.00,67.79,63.18,
11.328,97.09298713962029,94.49211911716104,12.0,-4.0,-7.0,7,8,5,2,6,4,1,0.00,64.55,63.67,
11.342,97.02729871396203,94.8772119117161,12.0,-5.0,-5.0,7,8,5,2,6,4,1,0.00,60.82,64.26,
11.357,96.8677298713962,95.19472119117162,10.0,-4.0,-6.0,6,8,5,2,7,4,1,0.00,57.09,64.35,
11.371,96.73477298713962,95.46947211911717,10.0,-4.0,-5.0,6,8,5,2,7,5,1,0.00,51.99,64.45,
11.384,96.62247729871396,95.5599472119117,12.0,-3.0,-7.0,6,8,5,2,7,5,1,0.00,49.54,64.65,
11.399,96.55724772987139,95.62299472119116,13.0,-3.0,-9.0,6,8,5,2,7,5,1,0.00,46.79,65.14,
11.413,96.50572477298715,96.01629947211913,14.0,-3.0,-9.0,6,9,5,3,7,6,1,0.00,40.32,65.73,
11.427,96.50057247729872,96.28962994721192,13.0,-3.0,-9.0,6,9,5,3,7,6,2,0.00,36.79,66.51,
11.442,96.37405724772987,96.6679629947212,12.0,-3.0,-8.0,6,9,5,3,7,7,2,0.00,33.45,68.57,
11.456,96.21740572477299,96.8857962994721,13.0,-2.0,-9.0,6,9,5,3,7,7,2,0.00,30.31,69.45,
11.47,96.23774057247729,96.88957962994722,15.0,-3.0,-11.0,7,9,5,3,7,8,2,0.20,24.23,70.14,
11.485,96.22177405724773,96.98895796299472,16.0,-5.0,-11.0,7,9,5,3,7,9,2,0.88,20.40,70.63,
11.499,96.09417740572476,97.12489579629947,17.0,-7.0,-11.0,7,9,5,3,7,9,2,3.53,17.36,72.01,
11.513,96.00941774057247,97.24648957962995,18.0,-6.0,-9.0,6,9,5,3,7,10,2,5.00,11.58,72.50,
11.528,95.86594177405725,97.366648957963,22.0,-7.0,-13.0,6,10,5,4,7,11,3,6.67,8.93,72.79,
11.542,96.12159417740574,97.27966489579629,26.0,-7.0,-14.0,5,10,5,4,7,11,3,8.53,6.47,71.51,
11.556,97.30815941774057,97.23496648957963,39.0,0.0,-22.0,4,9,5,4,7,12,3,13.05,4.61,70.14,
11.572,96.89581594177405,98.55349664895796,49.0,6.0,-16.0,4,9,4,4,6,1,3,16.09,3.34,68.38,
11.585,100.9225815941774,98.7933496648958,60.0,-32.0,-22.0,4,9,4,4,6,2,3,19.91,3.92,66.02,
11.6,99.78625815941774,99.47433496648958,55.0,3.0,-16.0,4,8,3,4,6,3,3,28.35,4.32,60.33,
11.615,98.97062581594177,100.34343349664896,62.0,8.0,-15.0,4,7,3,4,6,4,3,32.47,4.02,57.00,
11.629,98.07906258159417,100.54734334966489,75.0,12.0,-14.0,3,6,2,4,6,5,3,36.40,3.92,53.37,
11.643,97.38690625815943,100.63973433496649,89.0,21.0,-12.0,2,5,1,4,6,6,3,40.12,4.12,44.34,
11.658,96.88569062581595,101.21597343349664,103.0,28.0,-9.0,2,3,1,4,6,7,3,45.81,4.02,38.95,
11.672,96.1245690625816,100.85059734334966,115.0,45.0,-12.0,1,3,0,4,6,8,3,46.79,3.73,32.96,
11.686,96.14745690625817,101.62405973433496,123.0,41.0,-7.0,0,3,0,4,6,8,3,46.21,3.24,18.93,
11.701,96.12274569062582,102.23240597343349,132.0,44.0,-11.0,0,3,0,4,5,8,3,44.24,2.55,12.07,
11.715,96.90327456906257,102.87824059734335,137.0,46.0,-4.0,0,3,0,3,4,6,3,35.02,0.39,7.06,
11.729,98.24132745690626,103.46482405973434,149.0,40.0,-3.0,0,3,0,3,4,1,3,27.37,0.29,4.81,
11.744,100.37313274569063,103.59548240597343,152.0,30.0,-13.0,0,3,0,2,3,9,2,19.91,0.39,2.55,
11.757,102.13431327456905,103.13154824059734,151.0,8.0,-16.0,0,2,0,1,4,6,2,14.52,0.20,1.77,
11.771,103.3814313274569,102.23015482405974,148.0,5.0,-31.0,0,2,0,0,5,2,1,7.55,0.00,1.08,
11.786,105.16214313274568,101.99601548240597,134.0,-5.0,-43.0,0,2,0,0,5,1,0,4.91,0.00,0.00,
11.8,108.09421431327456,103.2776015482406,123.0,-6.0,-66.0,0,1,0,0,0,1,0,2.75,0.49,0.00,
11.813,107.19942143132745,95.95376015482407,80.0,2.0,-72.0,0,2,0,0,0,1,0,1.47,2.06,0.00,
11.827,106.29094214313274,92.9983760154824,39.0,-8.0,-89.0,0,2,0,0,0,1,0,0.39,2.65,0.00,
11.841,103.93209421431327,92.44183760154823,16.0,-6.0,-67.0,0,2,0,0,0,1,0,0.29,2.16,0.00,
11.854,100.97820942143133,92.52118376015483,-19.0,-15.0,-48.0,0,2,0,0,0,1,0,0.29,1.57,0.00,
11.869,98.38782094214312,90.00011837601548,-39.0,-16.0,-32.0,0,2,0,0,0,1,0,0.20,1.57,0.00,
11.882,96.29278209421432,87.45301183760155,-55.0,-19.0,-17.0,0,2,0,0,0,1,0,0.20,1.57,0.00,
11.895,94.84127820942143,84.07530118376015,-73.0,-17.0,-2.0,0,2,0,0,0,1,0,0.00,1.57,0.00,
11.91,92.99512782094214,80.71353011837603,-91.0,-15.0,8.0,0,2,0,0,0,1,0,0.00,1.86,0.00,
11.923,90.39851278209422,77.7493530118376,-109.0,-16.0,16.0,0,2,0,0,0,1,0,0.10,1.47,0.00,
11.936,89.40085127820942,75.90493530118377,-124.0,-26.0,18.0,0,2,0,0,0,1,0,0.10,0.98,0.00,
11.951,86.63708512782094,75.02749353011839,-141.0,-33.0,28.0,0,2,0,0,0,1,0,0.00,0.78,0.00,
11.964,85.1907085127821,74.50774935301185,-154.0,-29.0,41.0,0,2,0,0,0,1,0,0.10,0.69,0.00,
11.978,84.50607085127822,74.31177493530119,-165.0,-17.0,45.0,0,2,0,0,0,1,0,0.10,0.59,0.00,
11.992,84.61760708512782,74.03117749353012,-174.0,-14.0,47.0,0,2,0,0,0,1,0,0.10,0.49,0.00,
12.006,84.15176070851278,73.91311774935302,-180.0,-19.0,41.0,0,2,0,0,0,1,0,0.00,0.29,0.00,
12.019,83.97017607085128,74.64831177493531,-185.0,-26.0,36.0,0,2,0,0,0,1,0,0.00,0.20,0.00,
12.033,84.70801760708514,75.54983117749353,-182.0,-34.0,32.0,0,2,0,0,0,1,0,0.00,0.00,0.00,
12.047,84.25080176070851,77.02598311774935,-185.0,28.0,30.0,0,2,0,0,0,1,0,0.10,0.00,0.00,
12.06,84.09708017607085,79.35159831177494,-186.0,-8.0,33.0,0,2,0,0,0,1,0,0.00,0.00,0.00,
12.073,84.4687080176071,82.7431598311775,-188.0,-46.0,33.0,0,2,0,0,0,1,0,0.00,0.00,0.00,
12.087,85.70287080176071,85.16131598311776,-181.0,-23.0,48.0,0,2,0,0,0,1,0,0.00,0.00,0.00,
12.101,86.74428708017608,87.03213159831176,-169.0,-26.0,37.0,0,2,0,0,0,1,0,0.00,0.00,0.00,
12.114,88.08142870801761,88.74021315983119,-151.0,-23.0,29.0,0,2,0,0,0,1,0,0.00,0.00,0.00,
12.128,89.43914287080176,90.47702131598312,-126.0,-11.0,18.0,0,2,0,0,0,1,0,0.00,0.00,0.00,
12.142,90.79891428708018,92.59470213159831,-96.0,6.0,1.0,0,2,0,0,0,1,0,0.00,0.00,0.00,
12.155,92.10489142870802,95.00247021315982,-75.0,26.0,-7.0,0,2,0,0,0,1,0,0.00,0.00,0.00,
12.169,91.56048914287081,97.133247021316,-61.0,-73.0,3.0,0,2,0,0,0,1,0,0.00,0.00,0.00,
12.182,96.0330489142871,101.45032470213161,-63.0,-30.0,2.0,0,2,0,0,0,1,0,0.00,0.00,0.00,
12.195,96.9933048914287,104.30303247021317,-68.0,-5.0,-13.0,0,2,0,0,0,1,0,0.00,0.00,0.00,
12.21,96.19833048914286,105.8213032470213,-65.0,5.0,-14.0,0,2,0,0,0,1,0,0.00,0.00,0.00,
12.223,95.2728330489143,107.49413032470213,-64.0,27.0,-15.0,0,2,0,0,0,1,0,0.00,0.00,0.00,
12.236,94.65828330489143,109.4884130324702,-45.0,12.0,-11.0,0,2,0,0,0,1,0,0.00,0.00,0.00,
12.25,94.44382833048915,111.37984130324703,-34.0,32.0,-2.0,0,2,0,0,0,1,0,0.00,0.00,0.00,
12.264,94.4853828330489,110.9749841303247,-15.0,34.0,-20.0,0,2,0,0,0,1,0,0.00,0.20,0.00,
12.277,92.74353828330489,108.58549841303247,-9.0,58.0,-44.0,0,2,0,0,0,1,0,0.10,0.88,0.00,
12.291,97.42935382833049,112.24354984130325,-27.0,-14.0,5.0,0,2,0,0,0,1,0,0.00,2.94,0.00,
12.305,98.16793538283304,115.44435498413031,-10.0,18.0,4.0,0,2,0,0,0,1,0,0.10,4.61,0.00,
12.318,97.02679353828331,118.34743549841302,16.0,19.0,18.0,0,2,0,0,0,1,0,0.20,7.16,0.00,
12.332,97.88467935382833,121.4637435498413,50.0,36.0,28.0,0,2,0,0,0,1,0,0.39,10.69,0.00,
12.345,96.57546793538283,113.93637435498412,44.0,28.0,57.0,0,2,0,0,0,1,0,0.49,15.60,0.00,
12.358,95.03154679353827,106.92863743549842,106.0,36.0,52.0,0,2,0,0,0,1,0,0.59,34.63,0.00,
12.372,100.56515467935384,104.74286374354983,101.0,22.0,-19.0,0,2,0,0,0,1,0,0.29,51.70,0.00,
12.386,101.93751546793538,106.63028637435498,89.0,0.0,27.0,0,2,0,0,0,1,0,0.10,67.89,0.00,
12.4,102.07475154679354,105.4780286374355,61.0,-35.0,-4.0,1,2,0,0,0,1,0,0.00,78.38,0.00,
12.414,100.67547515467936,105.68680286374354,52.0,-17.0,4.0,2,3,1,0,0,1,0,0.00,91.63,0.00,
12.428,99.53654751546793,105.10468028637435,41.0,0.0,19.0,3,3,1,0,0,1,0,0.00,93.69,1.96,
12.442,98.9816547515468,102.89546802863744,33.0,3.0,15.0,3,3,1,0,0,1,0,0.00,94.47,10.10,
12.455,99.37616547515469,104.22254680286375,25.0,16.0,25.0,3,4,2,1,0,1,0,0.00,94.96,15.60,
12.47,98.89361654751548,104.11225468028637,29.0,1.0,16.0,4,4,2,1,0,0,0,0.00,96.63,22.96,
12.484,98.62936165475153,103.18322546802864,23.0,8.0,10.0,4,4,2,1,0,0,0,0.00,98.59,31.49,
12.498,98.68393616547515,102.14532254680286,13.0,15.0,8.0,4,5,2,2,0,1,0,0.00,100.16,48.17,
12.513,98.55439361654751,100.83553225468027,12.0,10.0,13.0,5,5,2,1,1,1,0,0.00,105.95,55.33,
12.527,98.09143936165475,99.86755322546803,11.0,8.0,11.0,4,5,2,1,1,2,0,0.00,109.09,61.51,
12.541,97.67614393616547,98.6457553225468,13.0,8.0,7.0,5,6,2,1,2,2,0,0.00,111.64,71.81,
12.556,97.21161439361654,97.73157553225468,13.0,9.0,1.0,5,6,3,2,3,2,0,0.00,112.52,75.93,
12.569,97.24616143936166,96.99215755322547,12.0,10.0,-4.0,4,6,3,2,4,3,0,0.00,108.50,79.46,
12.583,97.67261614393617,96.36921575532254,12.0,8.0,-9.0,4,7,3,2,4,3,0,0.00,104.28,82.40,
12.598,98.15626161439361,96.04592157553226,13.0,7.0,-9.0,4,7,3,2,5,3,0,0.00,99.18,84.76,
12.612,98.69062616143935,95.56359215755323,11.0,12.0,-10.0,4,7,3,2,5,4,0,0.00,93.49,84.37,
12.626,98.69906261614393,95.43435921575532,8.0,5.0,-8.0,4,7,3,2,5,4,0,0.00,82.50,83.48,
12.641,98.59190626161438,95.32243592157553,8.0,3.0,-7.0,4,7,3,2,6,4,0,0.00,77.30,83.48,
12.655,98.47319062616143,95.15824359215756,7.0,4.0,-9.0,4,8,3,2,6,4,0,0.00,72.10,83.88,
12.669,98.38931906261614,94.99782435921576,6.0,4.0,-8.0,4,8,3,2,6,4,0,0.00,61.31,84.27,
12.683,98.83993190626161,94.86478243592157,6.0,1.0,-9.0,4,8,3,2,6,5,1,0.00,56.70,84.27,
12.697,98.83999319062616,94.95947824359216,5.0,1.0,-7.0,4,8,3,2,6,5,1,0.00,52.68,83.58,
12.711,98.95699931906262,94.89694782435922,6.0,0.0,-8.0,4,8,3,2,6,5,1,0.00,49.34,82.99,
12.726,98.86969993190627,94.87269478243593,7.0,0.0,-7.0,4,8,3,2,6,5,1,0.00,44.83,82.21,
12.74,98.59996999319063,94.80726947824358,9.0,-1.0,-8.0,4,8,3,3,7,6,1,0.00,43.26,81.23,
12.753,98.36599699931907,94.97172694782435,8.0,-1.0,-8.0,5,8,3,3,7,6,1,0.00,41.79,78.77,
12.768,98.06359969993191,95.16817269478244,7.0,0.0,-5.0,5,8,3,3,7,6,1,0.00,38.75,77.11,
12.782,97.89835996999318,95.28681726947823,6.0,1.0,-6.0,4,8,3,3,7,7,1,0.00,37.38,75.83,
12.796,97.94483599699932,95.41568172694784,5.0,0.0,-6.0,5,8,3,3,7,7,1,0.00,35.90,74.65,
12.811,98.03048359969993,95.54556817269479,5.0,-1.0,-4.0,5,9,3,3,7,7,2,0.00,34.34,74.56,
12.825,98.05704835997,95.60355681726948,6.0,-1.0,-4.0,5,9,3,3,7,7,2,0.00,31.39,74.56,
12.838,97.852704835997,95.77135568172696,5.0,-2.0,-3.0,5,9,3,3,7,8,2,0.00,30.12,74.65,
12.853,97.70627048359971,95.8691355681727,5.0,-1.0,-3.0,5,9,3,3,7,8,2,0.00,29.14,75.24,
12.867,97.61962704835997,95.95991355681727,4.0,0.0,-3.0,5,9,3,3,7,8,2,0.00,28.15,75.64,
12.881,97.610962704836,96.08599135568173,4.0,-2.0,-2.0,5,9,3,3,7,8,2,0.00,26.39,75.93,
12.896,97.68209627048361,96.12559913556817,3.0,0.0,-3.0,4,9,3,3,7,8,2,0.00,25.51,76.03,
12.91,97.87820962704838,96.1025599135568,4.0,0.0,-5.0,5,9,3,3,7,8,2,0.00,24.92,76.32,
12.923,97.81682096270484,96.17225599135568,4.0,0.0,-7.0,4,10,3,3,7,9,2,0.00,23.54,76.62,
12.938,97.7116820962705,96.18822559913556,4.0,0.0,-7.0,4,9,3,3,7,9,2,0.00,22.96,76.91,
12.952,97.67416820962706,96.12682255991356,5.0,0.0,-7.0,5,10,3,3,7,9,2,0.00,22.37,77.50,
12.966,97.65241682096271,96.22868225599136,5.0,-1.0,-7.0,5,10,3,3,7,9,2,0.00,21.48,77.40,
12.981,97.67724168209628,96.39186822559914,5.0,-1.0,-8.0,5,10,3,4,7,10,2,0.00,19.13,77.11,
12.995,97.59872416820963,96.70518682255991,4.0,-2.0,-7.0,5,10,3,4,7,10,2,0.00,17.76,76.62,
13.009,97.33887241682098,97.15951868225598,3.0,-2.0,-6.0,5,10,3,4,7,10,2,0.00,16.68,75.24,
13.024,97.27688724168209,97.4119518682256,1.0,-2.0,-6.0,5,10,3,4,7,10,2,0.00,15.21,74.46,
13.038,97.27968872416821,97.44619518682256,1.0,-4.0,-5.0,5,10,3,4,7,10,2,0.00,14.72,73.58,
13.052,97.21696887241681,97.42261951868225,1.0,-5.0,-4.0,5,10,3,4,8,10,2,0.10,14.52,71.91,
13.067,97.16569688724168,97.35726195186822,1.0,-6.0,-5.0,5,9,3,4,8,10,2,0.29,14.42,71.12,
13.081,97.01656968872416,97.30572619518682,1.0,-6.0,-6.0,5,9,3,4,7,10,2,0.39,14.03,69.95,
13.095,96.93865696887242,97.23757261951869,1.0,-6.0,-6.0,5,9,3,4,8,10,2,0.39,13.34,68.47,
13.11,96.78686569688725,97.27575726195187,1.0,-6.0,-7.0,5,9,3,4,8,10,2,0.39,12.26,64.45,
13.124,96.78968656968873,97.27957572619519,-1.0,-6.0,-8.0,5,9,3,3,8,10,2,0.49,10.89,62.00,
13.138,96.70896865696886,97.37895757261951,-1.0,-5.0,-8.0,4,8,3,3,8,10,2,0.29,9.91,59.25,
13.153,96.5748968656969,97.83889575726195,-2.0,-4.0,-8.0,5,8,3,3,8,10,2,0.00,8.63,53.07,
13.167,96.55248968656969,98.4698895757262,-5.0,-5.0,-5.0,5,8,3,3,8,10,2,0.00,7.85,50.33,
13.181,96.59524896865696,98.60498895757263,-5.0,-6.0,-5.0,5,8,3,3,8,10,2,0.00,7.26,47.87,
13.196,96.65352489686569,98.57349889575725,-5.0,-7.0,-4.0,5,8,3,3,8,9,2,0.00,7.46,44.15,
13.21,96.59635248968658,98.37234988957573,-5.0,-7.0,-3.0,5,8,3,3,8,9,2,0.00,7.75,42.97,
13.223,96.39263524896866,98.12723498895757,-5.0,-7.0,-3.0,4,8,3,3,8,9,2,0.00,9.03,42.18,
13.238,96.24626352489686,97.92272349889576,-5.0,-7.0,-3.0,5,8,3,3,8,9,2,0.00,9.61,41.40,
13.252,96.07862635248969,97.69527234988958,-4.0,-7.0,-3.0,5,8,3,3,8,8,2,0.00,10.20,39.44,
13.266,95.76486263524897,97.68152723498896,-4.0,-6.0,-3.0,5,8,3,2,8,8,2,0.00,10.89,38.36,
13.281,95.68848626352491,97.6801527234989,-4.0,-6.0,-3.0,5,7,3,2,8,8,2,0.00,11.58,37.18,
13.295,95.63584862635248,97.63501527234989,-4.0,-6.0,-2.0,5,7,3,2,8,8,2,0.00,11.67,36.20,
13.309,95.52258486263526,97.60350152723498,-4.0,-6.0,-2.0,5,7,3,2,8,8,2,0.00,11.77,34.04,
13.324,95.42125848626353,97.57335015272349,-4.0,-6.0,-1.0,5,7,3,2,8,7,1,0.00,12.16,33.06,
13.338,95.27612584862636,97.51633501527235,-6.0,-5.0,-1.0,5,7,3,2,8,7,1,0.00,12.36,32.27,
13.352,95.21661258486263,97.52863350152724,-6.0,-6.0,0.0,5,7,3,2,8,7,1,0.00,12.75,30.51,
13.367,95.20166125848627,97.54786335015272,-7.0,-6.0,0.0,5,7,3,2,8,6,1,0.00,13.15,29.72,
13.381,95.11016612584862,97.43278633501527,-7.0,-5.0,0.0,5,7,3,2,8,6,1,0.00,14.03,28.94,
13.394,95.05601661258487,97.34027863350153,-7.0,-5.0,0.0,5,7,3,2,7,5,1,0.00,14.62,28.15,
13.409,95.01460166125848,97.25902786335016,-7.0,-5.0,0.0,5,7,3,2,7,5,1,0.00,15.21,26.88,
13.423,94.98346016612584,97.18790278633502,-8.0,-4.0,0.0,5,6,3,2,7,5,1,0.00,16.48,26.19,
13.437,94.91734601661258,97.08179027863349,-9.0,-4.0,1.0,5,6,3,1,7,4,1,0.00,17.36,25.70,
13.452,94.90173460166127,96.84617902786334,-9.0,-5.0,1.0,5,6,3,1,7,4,1,0.00,18.05,24.72,
13.466,94.89117346016613,96.55261790278632,-8.0,-5.0,0.0,5,6,3,1,7,4,1,0.00,19.03,24.33,
13.48,94.81811734601662,96.39726179027863,-6.0,-6.0,0.0,5,6,3,1,7,4,1,0.00,20.99,23.94,
13.494,94.70281173460167,96.29172617902786,-6.0,-5.0,0.0,5,6,3,1,7,4,1,0.00,21.88,23.64,
13.921,93.71028117346016,95.83117261790278,0.0,0.0,-2.0,5,6,3,1,6,3,1,0.00,22.76,18.05,
13.935,93.63802811734601,95.80311726179028,0.0,0.0,-2.0,5,6,3,1,6,3,1,0.00,22.07,18.15,
13.949,93.6398028117346,95.84531172617903,0.0,0.0,-1.0,5,6,3,1,6,3,1,0.00,21.58,18.25,
13.963,93.59498028117346,95.8495311726179,0.0,0.0,-1.0,5,6,3,1,6,3,1,0.00,21.19,18.44,
13.977,93.64449802811735,95.94895311726178,0.0,0.0,-1.0,5,6,3,1,6,3,1,0.00,20.90,18.54,
13.991,93.64044980281173,95.96789531172618,0.0,0.0,-1.0,5,6,3,1,6,3,1,0.00,20.31,18.54,
14.006,93.63104498028116,95.96978953117262,0.0,0.0,-2.0,5,6,3,1,6,3,1,0.00,20.01,18.54,
14.019,93.6571044980281,96.01497895311725,0.0,0.0,-1.0,5,6,3,1,6,3,1,0.00,19.62,18.74,
14.033,93.6957104498028,96.08249789531173,0.0,0.0,-1.0,5,6,3,1,7,3,1,0.00,19.33,18.74,
14.048,93.71757104498028,96.10724978953117,-1.0,0.0,-1.0,5,6,3,1,7,4,1,0.00,18.74,18.84,
14.062,93.71975710449803,96.11872497895313,-1.0,0.0,-1.0,5,6,3,1,7,4,1,0.00,18.44,18.93,
14.076,93.7109757104498,96.09287249789531,-1.0,0.0,-1.0,5,6,3,1,7,4,1,0.00,18.34,18.93,
14.09,93.64709757104498,96.08128724978953,-1.0,0.0,-1.0,5,6,3,1,7,4,1,0.00,18.25,19.03,
14.104,93.65870975710449,96.11612872497896,-1.0,0.0,-1.0,5,6,3,1,7,4,1,0.00,18.15,19.23,
14.118,93.67787097571046,96.18261287249788,-1.0,0.0,-1.0,5,6,3,1,7,4,1,0.00,17.95,19.62,
14.133,93.67078709757104,96.23426128724978,-1.0,0.0,-1.0,5,6,3,1,7,4,1,0.00,17.85,19.72,
14.147,93.61607870975709,96.22142612872497,-1.0,0.0,0.0,5,6,3,1,7,4,1,0.00,17.76,19.91,
14.161,93.61960787097571,96.2471426128725,-1.0,0.0,0.0,5,6,3,1,7,4,1,0.00,17.76,20.11,
14.175,93.61996078709758,96.23171426128725,-1.0,0.0,0.0,5,6,3,1,7,4,1,0.00,17.85,20.60,
14.189,93.65599607870975,96.23917142612872,-1.0,0.0,0.0,5,6,3,1,7,4,1,0.00,17.95,20.80,
14.203,93.74059960787098,96.23991714261287,-1.0,0.0,0.0,5,6,3,1,7,4,1,0.00,17.95,21.09,
14.218,93.7490599607871,96.23999171426128,-1.0,0.0,0.0,5,6,3,1,7,4,1,0.00,17.95,21.48,
14.231,93.78590599607871,96.23099917142612,-1.0,0.0,0.0,5,6,3,1,7,4,1,0.00,18.15,21.68,
14.245,93.81659059960788,96.21209991714261,-2.0,0.0,0.0,5,7,3,1,7,4,1,0.00,18.34,21.78,
14.26,93.79265905996078,96.24620999171427,-1.0,0.0,-1.0,5,7,3,1,7,4,1,0.00,18.44,21.97,
14.274,93.79926590599608,96.23162099917143,-1.0,0.0,-1.0,5,7,3,1,7,4,1,0.00,18.54,22.37,
14.288,93.77292659059961,96.25716209991714,-2.0,0.0,-1.0,5,7,3,1,7,4,1,0.00,18.54,22.46,
14.302,93.72529265905996,96.26871620999171,-1.0,0.0,-1.0,5,7,3,1,7,4,1,0.00,18.54,22.76,
14.316,93.747529265906,96.26087162099917,-1.0,0.0,0.0,5,7,3,1,7,4,1,0.00,18.54,22.86,
14.33,93.7767529265906,96.27808716209992,-1.0,0.0,-1.0,5,7,3,1,7,4,1,0.00,18.74,23.15,
14.345,93.76167529265906,96.32480871620999,-1.0,0.0,-1.0,5,7,3,1,7,4,1,0.00,18.64,23.25,
14.359,93.8141675292659,96.347480871621,-2.0,0.0,-1.0,5,7,3,1,7,4,1,0.00,18.54,23.35,
14.373,93.85541675292659,96.3677480871621,-2.0,0.0,-1.0,5,7,3,1,7,4,1,0.00,18.54,23.45,
14.387,93.85054167529266,96.35177480871621,-2.0,0.0,-1.0,5,7,3,1,7,4,1,0.00,18.54,23.64,
14.401,93.89505416752927,96.30517748087162,-2.0,0.0,0.0,5,7,3,1,7,4,1,0.00,18.64,23.64,
14.415,93.92650541675293,96.30051774808716,-1.0,0.0,0.0,5,7,3,2,7,4,1,0.00,18.54,23.74,
14.43,93.9386505416753,96.30905177480872,-1.0,0.0,0.0,5,7,3,2,7,4,1,0.00,18.54,24.13,
14.444,93.98486505416753,96.34590517748087,-1.0,0.0,0.0,5,7,3,2,7,4,1,0.00,18.74,24.23,
14.457,93.97148650541676,96.34059051774808,-1.0,0.0,-1.0,5,7,3,2,7,4,1,0.00,18.74,24.33,
14.472,94.02414865054169,96.38505905177482,0.0,0.0,-1.0,5,7,3,2,7,4,1,0.00,18.44,24.43,
14.486,93.99341486505416,96.37150590517749,0.0,0.0,-1.0,5,7,3,2,7,4,1,0.00,18.34,24.62,
14.5,93.9903414865054,96.45115059051774,-1.0,0.0,0.0,5,7,3,2,7,4,1,0.00,18.15,24.72,
14.514,94.03503414865055,96.49511505905178,-1.0,0.0,0.0,5,7,3,2,7,4,1,0.00,17.66,24.72,
14.528,94.09350341486505,96.54451150590518,-1.0,0.0,0.0,5,7,3,2,7,4,1,0.00,17.56,24.92,
14.542,94.11735034148651,96.63945115059053,-1.0,0.0,0.0,5,7,3,2,7,5,1,0.00,17.36,25.02,
14.557,94.12873503414865,96.64894511505906,-1.0,0.0,0.0,5,7,3,2,7,4,1,0.00,17.17,25.02,
14.57,94.17487350341487,96.6678945115059,-1.0,0.0,0.0,5,7,3,2,7,5,1,0.00,17.17,25.11,
14.584,94.20648735034149,96.61578945115059,-2.0,0.0,0.0,5,7,3,2,7,5,1,0.00,17.27,25.31,
14.599,94.19164873503415,96.57457894511505,-1.0,0.0,0.0,5,7,3,2,7,5,1,0.00,17.36,25.41,
14.613,94.1631648735034,96.5794578945115,-2.0,0.0,0.0,5,7,3,2,7,5,1,0.00,17.46,25.51,
14.626,94.16931648735034,96.57994578945114,-1.0,0.0,0.0,5,7,3,2,7,5,1,0.00,17.36,25.60,
14.641,94.16993164873503,96.5799945789451,-2.0,0.0,0.0,5,7,3,2,7,5,1,0.00,17.46,25.80,
14.655,94.1969931648735,96.61599945789452,-2.0,0.0,0.0,5,7,3,2,7,5,1,0.00,17.46,25.80,
14.669,94.18169931648737,96.61959994578946,-2.0,0.0,0.0,5,7,3,2,7,5,1,0.00,17.66,25.90,
14.683,94.19816993164874,96.57495999457893,-2.0,0.0,0.0,5,7,3,2,7,5,1,0.00,17.66,26.00,
14.697,94.26281699316488,96.5614959994579,-2.0,0.0,0.0,5,7,3,2,7,5,1,0.00,17.66,26.09,
14.711,94.23328169931649,96.55114959994579,-2.0,0.0,0.0,5,7,3,2,7,5,1,0.00,17.76,26.19,
14.726,94.23032816993165,96.56811495999457,-2.0,0.0,0.0,5,7,3,2,7,5,1,0.00,17.95,26.19,
14.739,94.18503281699319,96.59681149599945,-2.0,0.0,0.0,5,7,3,2,7,5,1,0.00,18.05,26.29,
14.753,94.18050328169933,96.64468114959996,-2.0,0.0,0.0,5,7,3,2,7,5,1,0.00,18.05,26.39,
14.768,94.20705032816993,96.57746811496,-2.0,0.0,0.0,5,7,3,2,7,5,1,0.00,18.15,26.29,
14.782,94.23670503281699,96.61574681149601,-2.0,0.0,0.0,5,7,3,2,7,5,1,0.00,18.15,26.39,
14.795,94.1946705032817,96.6555746811496,-2.0,0.0,0.0,5,7,3,2,7,5,1,0.00,18.25,26.49,
14.81,94.19946705032817,96.64155746811495,-2.0,0.0,0.0,5,7,3,2,7,5,1,0.00,18.34,26.59,
14.824,94.23594670503282,96.64015574681149,-2.0,0.0,0.0,6,7,3,2,7,5,1,0.00,18.64,26.68,
14.838,94.20359467050328,96.64901557468116,-2.0,0.0,0.0,6,7,3,2,7,5,1,0.00,18.84,26.68,
14.853,94.15535946705035,96.61390155746811,-2.0,0.0,-1.0,6,7,3,2,7,5,1,0.00,18.74,26.68,
14.866,94.19553594670504,96.67339015574683,-2.0,0.0,0.0,6,7,3,2,7,5,1,0.00,18.93,26.68,
14.88,94.1995535946705,96.61633901557468,-2.0,0.0,-1.0,5,7,3,2,7,5,1,0.00,18.93,26.68,
14.895,94.25395535946706,96.62863390155746,-2.0,0.0,-1.0,5,7,3,2,7,5,1,0.00,19.03,26.88,
14.909,94.3133955359467,96.55786339015575,-2.0,0.0,-1.0,5,7,3,2,7,5,1,0.00,19.13,26.98,
14.923,94.33733955359467,96.61378633901559,-2.0,0.0,0.0,5,7,3,2,7,5,1,0.00,19.13,26.88,
14.937,94.30373395535946,96.61037863390155,-2.0,0.0,0.0,5,7,3,2,7,5,1,0.00,19.13,26.88,
14.951,94.30037339553596,96.63703786339015,-2.0,0.0,0.0,5,7,3,2,7,5,1,0.00,19.13,27.08,
14.965,94.2640373395536,96.63970378633901,-2.0,0.0,0.0,5,7,3,2,7,5,1,0.00,19.23,26.98,
14.98,94.32340373395536,96.64897037863392,-2.0,0.0,0.0,5,7,3,2,7,5,1,0.00,19.23,26.98,
14.993,94.32934037339554,96.61389703786338,-2.0,0.0,0.0,5,7,3,2,7,5,1,0.00,19.33,26.98,
15.007,94.32093403733954,96.59238970378635,-2.0,0.0,0.0,5,7,3,2,7,5,1,0.00,19.52,26.98,
15.022,94.34709340373394,96.58123897037864,-2.0,0.0,0.0,5,7,3,2,7,5,1,0.00,19.62,26.98,
15.036,94.31370934037339,96.55312389703786,-2.0,0.0,0.0,5,7,3,2,7,5,1,0.00,19.91,27.08,
15.05,94.32837093403734,96.54131238970379,-2.0,0.0,0.0,5,7,3,2,7,5,1,0.00,20.01,27.17,
15.064,94.33883709340374,96.53113123897039,-2.0,0.0,0.0,5,7,3,2,7,5,1,0.00,20.01,27.17,
15.078,94.33988370934037,96.53011312389705,-2.0,0.0,0.0,5,7,3,2,7,5,1,0.00,20.21,27.17,
15.092,94.30398837093404,96.53901131238972,-2.0,0.0,0.0,5,7,3,2,7,5,1,0.00,20.31,27.17,
15.107,94.30939883709341,96.50390113123898,-2.0,0.0,0.0,5,7,3,2,7,5,1,0.00,20.31,27.27,
15.12,94.29193988370935,96.51839011312389,-2.0,0.0,0.0,5,8,3,2,7,5,1,0.00,20.40,27.37,
15.134,94.29919398837094,96.4838390113124,-2.0,-1.0,0.0,5,7,3,2,7,5,1,0.00,20.80,27.27,
15.149,94.35391939883709,96.49838390113125,-2.0,-1.0,0.0,5,7,3,2,7,5,1,0.00,20.80,27.27,
15.163,94.3503919398837,96.49983839011313,-2.0,-1.0,0.0,5,8,3,2,7,5,1,0.00,20.90,27.17,
15.177,94.35003919398837,96.49998383901132,-2.0,-1.0,0.0,5,7,3,2,7,5,1,0.00,20.90,27.17,
15.192,94.35000391939883,96.55399838390115,-3.0,-1.0,0.0,5,7,3,2,7,4,1,0.00,21.29,27.27,
15.205,94.31400039193989,96.4693998383901,-2.0,-1.0,0.0,5,7,3,2,7,4,1,0.00,21.48,27.27,
15.219,94.310400039194,96.49693998383901,-2.0,-1.0,0.0,5,7,3,2,7,4,1,0.00,21.68,27.17,
15.234,94.3100400039194,96.49069399838389,-3.0,-1.0,0.0,5,7,3,2,7,4,1,0.00,22.07,27.17,
15.248,94.34600400039193,96.46306939983837,-2.0,-1.0,0.0,5,7,3,2,7,4,1,0.00,22.17,26.98,
15.262,94.27760040003919,96.44230693998384,-2.0,-1.0,0.0,5,7,3,1,7,4,1,0.00,22.27,26.88,
15.277,94.26176004000392,96.46723069399839,-3.0,-1.0,0.0,5,7,3,1,7,4,1,0.00,22.37,26.88,
15.29,94.26017600400039,96.43372306939985,-3.0,-1.0,0.0,5,8,3,1,7,4,1,0.00,22.56,26.78,
15.304,94.26001760040003,96.39437230693999,-3.0,-1.0,0.0,5,7,3,1,7,4,1,0.00,22.76,26.68,
15.319,94.23300176004,96.372437230694,-3.0,-1.0,0.0,5,7,3,1,7,4,1,0.00,22.76,26.49,
15.333,94.284300176004,96.37924372306941,-2.0,-1.0,0.0,5,7,3,1,7,4,1,0.00,22.96,26.39,
15.347,94.37943001760041,96.39792437230695,-2.0,-1.0,-1.0,5,7,3,1,7,4,1,0.00,23.35,26.29,
15.362,94.33494300176005,96.3817924372307,-2.0,-1.0,0.0,6,7,3,1,7,4,1,0.00,23.35,26.19,
15.376,94.31249430017601,96.36217924372308,-2.0,-1.0,0.0,6,7,3,1,7,4,1,0.00,23.35,26.00,
15.39,94.2472494300176,96.2972179243723,-2.0,-1.0,0.0,6,7,3,1,7,4,1,0.00,23.64,25.90,
15.404,94.16872494300176,96.33572179243723,-2.0,0.0,0.0,6,7,3,1,7,4,1,0.00,23.64,25.80,
15.418,94.16087249430018,96.32157217924373,-2.0,0.0,0.0,6,7,3,1,7,4,1,0.00,23.74,25.70,
15.432,94.19608724943002,96.31115721792438,-2.0,-1.0,0.0,6,7,3,1,7,4,1,0.00,23.84,25.60,
15.447,94.235608724943,96.31011572179244,-2.0,0.0,0.0,6,7,3,1,7,4,1,0.00,23.94,25.51,
15.461,94.23956087249431,96.25601157217925,-2.0,0.0,0.0,6,7,3,1,7,4,1,0.00,23.94,25.51,
15.474,94.25795608724943,96.22360115721793,-2.0,-1.0,0.0,6,7,3,1,7,4,1,0.00,24.03,25.51,
15.489,94.25079560872494,96.17536011572179,-2.0,-1.0,-1.0,6,7,3,1,7,4,1,0.00,24.23,25.41,
15.503,94.24107956087249,96.17053601157218,-2.0,-1.0,0.0,6,7,3,1,7,4,1,0.00,24.33,25.31,
15.517,94.19510795608724,96.15205360115723,-2.0,0.0,0.0,6,7,3,1,7,4,1,0.00,24.33,25.31,
15.532,94.37951079560872,96.15020536011573,-2.0,-1.0,-2.0,6,7,3,1,7,4,1,0.00,24.52,25.31,
15.546,94.35295107956087,96.12302053601158,-2.0,0.0,0.0,6,7,3,1,7,4,1,0.00,24.72,25.31,
15.559,94.30529510795608,96.08430205360115,-2.0,0.0,0.0,6,7,3,1,7,4,1,0.00,24.62,25.31,
15.574,94.29152951079561,96.1254302053601,-2.0,0.0,0.0,6,7,3,1,7,4,1,0.00,24.72,25.11,
15.588,94.29015295107956,96.14754302053602,-2.0,0.0,0.0,6,7,3,1,7,4,1,0.00,24.82,25.11,
15.602,94.32601529510796,96.1407543020536,-2.0,0.0,0.0,6,7,3,1,7,4,1,0.00,24.82,25.21,
15.616,94.2666015295108,96.11307543020536,-2.0,-1.0,0.0,6,7,3,1,7,4,1,0.00,24.82,25.11,
15.63,94.25166015295108,96.12830754302053,-2.0,0.0,0.0,6,7,3,1,7,4,1,0.00,25.02,25.11,
15.644,94.1781660152951,96.12983075430205,-2.0,0.0,-1.0,6,7,3,1,7,4,1,0.00,25.21,25.11,
15.659,94.13481660152951,96.09398307543022,-2.0,0.0,0.0,6,7,3,1,7,4,1,0.00,25.41,25.02,
15.673,94.14848166015297,96.11739830754303,-2.0,0.0,0.0,6,7,3,1,7,4,1,0.00,25.41,25.02,
15.686,94.15884816601529,96.1107398307543,-2.0,0.0,0.0,6,7,3,1,7,4,1,0.00,25.41,25.02,
15.7,94.15988481660153,96.08307398307542,-2.0,0.0,0.0,6,7,3,1,7,4,1,0.00,25.41,25.02,
15.715,94.13298848166015,96.06230739830755,-2.0,0.0,0.0,6,7,3,1,7,4,1,0.00,25.41,25.02,
15.729,94.085298848166,96.04223073983076,-2.0,0.0,0.0,6,7,3,1,7,4,1,0.00,25.41,24.92,
15.744,94.04452988481661,96.09422307398307,-2.0,-1.0,-1.0,6,7,3,1,7,4,1,0.00,25.51,24.92,
15.757,94.11245298848166,95.9734223073983,-2.0,-1.0,-1.0,6,7,3,1,7,4,1,0.00,25.41,24.82,
15.771,94.03824529884818,96.00634223073983,-2.0,-1.0,-1.0,6,7,3,1,7,4,1,0.00,25.51,24.82,
15.785,93.99482452988481,96.02763422307399,-2.0,-1.0,-1.0,6,7,3,1,6,4,1,0.00,25.41,24.72,
15.8,93.99948245298849,96.02976342230741,-2.0,0.0,-1.0,6,7,3,1,6,4,1,0.00,25.51,24.82,
15.814,93.99994824529885,96.02097634223074,-2.0,0.0,-1.0,6,7,3,1,6,4,1,0.00,25.51,24.72,
15.828,94.0269948245299,96.04709763422306,-2.0,0.0,0.0,6,7,3,1,6,4,1,0.00,25.51,24.52,
15.843,94.04769948245298,96.01370976342231,-2.0,0.0,-1.0,6,7,3,1,6,4,1,0.00,25.60,24.52,
15.857,94.0227699482453,96.02837097634223,-2.0,0.0,-1.0,6,7,3,1,6,4,1,0.00,25.60,24.43,
15.87,94.02927699482454,95.99383709763421,-2.0,-1.0,-1.0,6,7,3,1,6,4,0,0.00,25.70,24.33,
15.885,94.00292769948246,96.00838370976342,-3.0,0.0,-1.0,6,7,3,1,6,4,0,0.00,25.90,24.13,
15.899,93.94629276994826,96.05483837097634,-2.0,-1.0,-1.0,6,7,3,1,6,4,0,0.00,26.00,24.13,
15.913,93.91362927699483,96.09548383709763,-2.0,0.0,-1.0,6,7,3,1,6,4,0,0.00,26.19,24.03,
15.928,93.89236292769948,96.12654838370976,-2.0,-1.0,-1.0,6,7,3,1,6,4,0,0.00,26.29,23.94,
15.942,93.86323629276995,96.17465483837098,-2.0,-1.0,0.0,6,7,3,1,6,4,0,0.00,26.29,23.94,
15.956,93.869323629277,96.17046548383709,-2.0,-1.0,0.0,6,7,3,1,6,4,0,0.00,26.29,23.94,
15.971,93.8879323629277,96.17904654838372,-2.0,-1.0,0.0,6,7,3,1,6,4,0,0.00,26.29,23.84,
15.985,93.86279323629277,96.19790465483837,-2.0,-1.0,0.0,6,7,3,1,6,4,0,0.00,26.49,23.74,
15.998,93.86027932362927,96.18179046548384,-3.0,-1.0,0.0,6,7,3,1,6,3,0,0.00,26.68,23.64,
16.013,93.76102793236292,95.93717904654838,-1.0,0.0,0.0,6,7,3,1,6,3,0,0.00,26.88,23.64,
16.027,93.77810279323629,95.99371790465484,-2.0,0.0,0.0,6,7,3,1,6,3,0,0.00,27.08,23.64,
16.041,93.77081027932363,95.97237179046549,-2.0,-1.0,-1.0,6,7,3,1,6,3,0,0.00,27.27,23.45,
16.056,93.83308102793237,95.95223717904655,-2.0,-1.0,0.0,6,7,3,1,6,3,0,0.00,27.37,23.45,
16.07,93.84830810279324,95.95922371790465,-2.0,-1.0,-1.0,6,7,3,1,6,3,0,0.00,27.47,23.45,
16.084,93.78683081027933,95.95992237179046,-2.0,-1.0,-1.0,6,7,3,1,6,3,0,0.00,27.57,23.45,
16.098,93.78968308102793,95.95099223717905,-2.0,-1.0,-1.0,6,7,3,1,6,3,0,0.00,27.66,23.25,
16.112,93.8079683081028,96.2470992237179,-3.0,-2.0,0.0,6,7,3,1,6,3,0,0.00,27.86,23.15,
16.126,93.75579683081028,96.20470992237179,-2.0,-1.0,0.0,6,7,3,1,6,3,0,0.00,28.06,23.05,
16.141,93.74157968308103,96.16447099223717,-3.0,-1.0,0.0,6,7,3,1,6,3,0,0.00,28.15,22.96,
16.155,93.7311579683081,96.13344709922372,-3.0,-1.0,0.0,6,7,3,1,6,3,0,0.00,28.45,22.96,
16.169,93.7211157968308,96.07634470992237,-3.0,-1.0,0.0,6,7,3,1,6,3,0,0.00,28.55,22.86,
16.184,93.73811157968308,96.11563447099225,-3.0,-1.0,0.0,6,7,3,1,6,3,0,0.00,28.74,22.76,
16.198,93.7218111579683,96.11056344709922,-3.0,-2.0,0.0,6,7,3,1,6,3,0,0.00,28.84,22.76,
16.211,93.68418111579683,96.22705634470992,-3.0,-2.0,0.0,6,7,3,1,6,3,0,0.00,29.33,22.66,
16.226,93.66241811157968,96.13970563447099,-3.0,-1.0,0.0,5,7,3,1,6,3,0,0.00,29.63,22.56,
16.24,93.64224181115796,96.11297056344709,-3.0,-1.0,0.0,5,7,3,1,6,3,0,0.00,29.82,22.46,
16.254,93.63122418111578,96.0832970563447,-3.0,-1.0,-1.0,5,7,3,1,6,3,0,0.00,30.02,22.46,
16.269,93.62112241811158,96.06232970563448,-3.0,-1.0,0.0,5,7,3,1,6,3,0,0.00,30.41,22.46,
16.283,93.60211224181116,95.98823297056344,-3.0,-1.0,0.0,5,7,3,1,6,3,0,0.00,30.51,22.27,
16.297,93.58221122418111,95.95382329705635,-3.0,-1.0,0.0,5,7,3,1,6,3,0,0.00,30.71,22.17,
16.311,93.6342211224181,95.88738232970563,-3.0,-1.0,0.0,5,7,3,1,6,3,0,0.00,31.10,22.07,
16.325,93.6124221122418,95.88973823297056,-3.0,-1.0,0.0,5,7,3,1,5,3,0,0.00,31.39,22.07,
16.339,93.60124221122418,95.85397382329705,-3.0,-1.0,0.0,5,7,3,1,5,3,0,0.00,31.69,22.17,
16.354,93.54612422112243,95.7513973823297,-2.0,-1.0,0.0,5,7,3,1,5,3,0,0.00,31.98,22.07,
16.368,93.46861242211223,95.77713973823296,-3.0,-1.0,0.0,5,7,3,1,5,3,0,0.00,32.37,21.97,
16.382,93.48786124221121,95.7887139738233,-3.0,-1.0,0.0,5,7,3,1,5,3,0,0.00,32.57,21.97,
16.397,93.51678612422111,95.78087139738233,-3.0,-1.0,0.0,5,7,3,1,5,3,0,0.00,32.86,22.07,
16.41,93.53767861242211,95.70808713973824,-3.0,-1.0,0.0,5,7,3,1,5,3,0,0.00,33.35,22.17,
16.424,93.5487678612422,95.65580871397383,-3.0,-1.0,0.0,5,7,3,1,5,3,0,0.00,33.55,22.17,
16.439,93.53187678612423,95.65958087139737,-3.0,-1.0,0.0,5,7,3,1,5,3,0,0.00,33.75,21.97,
16.453,93.80918767861243,95.79495808713973,-3.0,-2.0,-3.0,5,7,3,1,5,3,0,0.00,33.94,21.88,
16.467,93.81891876786125,95.70049580871397,-3.0,-1.0,-1.0,5,7,3,1,5,3,0,0.00,34.43,21.88,
16.482,93.72089187678613,95.7180495808714,-3.0,-1.0,0.0,5,7,3,1,5,3,0,0.00,34.53,21.88,
16.496,93.69308918767861,95.71080495808714,-3.0,-1.0,0.0,5,7,3,1,5,2,0,0.00,34.73,21.88,
16.51,93.68130891876787,95.68308049580872,-3.0,-1.0,0.0,5,7,3,1,5,2,0,0.00,35.02,21.78,
16.524,93.60813089187678,95.61730804958088,-2.0,0.0,0.0,5,7,3,1,5,2,0,0.00,35.51,21.68,
16.538,93.60081308918767,95.6107308049581,-3.0,-1.0,0.0,6,7,3,1,5,2,0,0.00,35.71,21.68,
16.552,93.55508130891876,95.58307308049581,-2.0,-1.0,-1.0,6,7,3,1,5,2,0,0.00,36.00,21.68,
16.567,93.47850813089188,95.61630730804958,-2.0,-1.0,-1.0,5,7,3,1,5,2,0,0.00,36.30,21.58,
16.581,93.45285081308919,95.68263073080496,-2.0,-1.0,0.0,6,7,3,1,5,2,0,0.00,36.40,21.68,
16.595,93.4592850813089,95.6532630730805,-2.0,0.0,-1.0,6,7,3,1,5,2,0,0.00,36.40,21.68,
16.61,93.4959285081309,95.63232630730803,-3.0,-1.0,0.0,6,7,3,1,5,2,0,0.00,36.40,21.58,
16.624,93.5265928508131,95.60323263073079,-3.0,-1.0,-1.0,6,7,3,1,5,2,0,0.00,36.40,21.58,
16.638,93.47565928508132,95.51932326307308,-2.0,-1.0,-1.0,6,7,3,1,5,2,0,0.00,36.59,21.48,
16.652,93.46156592850812,95.48393232630731,-2.0,0.0,-1.0,6,7,3,1,5,2,0,0.00,36.79,21.48,
16.666,93.4241565928508,95.47139323263073,-2.0,0.0,-1.0,6,7,3,1,5,2,0,0.00,36.69,21.39,
16.68,93.43841565928508,95.46113932326307,-3.0,0.0,-1.0,6,7,3,1,5,2,0,0.00,36.59,21.29,
16.695,93.4398415659285,95.45111393232631,-2.0,0.0,-1.0,6,7,3,1,5,2,0,0.00,36.49,21.19,
16.709,93.43098415659286,95.45011139323263,-2.0,-1.0,-1.0,6,7,3,1,5,2,0,0.00,36.49,21.19,
16.723,93.47509841565929,95.45901113932327,-2.0,-1.0,-1.0,6,7,3,1,5,2,0,0.00,36.59,21.09,
16.738,93.45250984156593,95.45090111393233,-2.0,-1.0,-1.0,6,7,3,1,5,2,0,0.00,36.40,20.90,
16.752,93.4682509841566,95.45009011139324,-2.0,-1.0,-1.0,6,7,3,1,5,2,0,0.00,36.49,20.80,
16.766,93.48782509841564,95.45000901113931,-2.0,-1.0,-1.0,6,7,3,1,5,2,0,0.00,36.40,20.70,
16.781,93.44478250984156,95.48600090111393,-2.0,-1.0,0.0,6,7,3,1,5,2,0,0.00,36.49,20.70,
16.794,93.43147825098416,95.5076000901114,-2.0,-1.0,0.0,6,7,3,1,5,2,0,0.00,36.59,20.70,
16.808,93.43914782509842,95.65376000901115,-3.0,-1.0,1.0,6,7,3,1,5,2,0,0.00,36.59,20.60,
16.823,93.37691478250984,95.64137600090112,-3.0,-1.0,0.0,6,7,3,1,5,2,0,0.00,37.08,20.50,
16.837,93.35269147825099,95.54113760009011,-3.0,-1.0,0.0,6,7,3,1,5,2,0,0.00,37.28,20.50,
16.851,93.3232691478251,95.54911376000902,-2.0,-1.0,0.0,6,7,3,1,5,2,0,0.00,37.47,20.40,
16.866,93.29332691478253,95.5319113760009,-3.0,-1.0,0.0,6,7,3,1,5,2,0,0.00,37.87,20.21,
16.88,93.26333269147827,95.5301911376001,-3.0,-1.0,-1.0,6,7,3,1,5,2,0,0.00,38.06,20.11,
16.894,93.25133326914782,95.50301911376002,-3.0,-1.0,-1.0,6,7,3,1,5,2,0,0.00,38.16,19.91,
16.908,93.21413332691478,95.527301911376,-3.0,-1.0,-1.0,6,7,3,1,5,2,0,0.00,38.36,19.82,
16.922,93.18341333269149,95.4487301911376,-2.0,-1.0,-1.0,6,7,3,1,5,2,0,0.00,38.65,19.62,
16.936,93.17134133326915,95.48587301911377,-3.0,-2.0,0.0,6,7,3,1,5,2,0,0.00,38.75,19.33,
16.951,93.09813413332692,95.48058730191138,-3.0,-2.0,-1.0,6,7,3,1,5,2,0,0.00,38.85,19.23,
16.965,93.07281341333268,95.47105873019115,-3.0,-2.0,0.0,6,7,3,1,5,2,0,0.00,39.04,19.03,
16.979,93.03428134133327,95.4251058730191,-3.0,-2.0,-1.0,6,7,3,1,5,2,0,0.00,39.34,18.93,
16.994,93.07542813413333,95.37551058730192,-3.0,-1.0,0.0,6,7,3,1,5,2,0,0.00,39.44,18.54,
17.42,92.48554281341333,95.41555105873019,-3.0,0.0,0.0,6,7,3,1,5,2,0,0.00,41.69,16.97,
17.434,92.39955428134132,95.37455510587303,-3.0,0.0,0.0,6,7,3,1,5,2,0,0.00,42.48,17.07,
17.448,92.40895542813413,95.3524555105873,-3.0,0.0,0.0,6,7,3,1,5,2,0,0.00,42.87,17.27,
17.463,92.31989554281341,95.29624555105875,-2.0,0.0,0.0,6,7,3,1,5,2,0,0.00,43.16,17.36,
17.476,92.38298955428134,95.33562455510588,-3.0,0.0,0.0,6,7,3,1,5,2,0,0.00,44.05,17.56,
17.49,92.42529895542815,95.30356245551059,-2.0,-1.0,0.0,6,7,3,1,5,2,0,0.00,44.44,17.56,
17.505,92.44752989554281,95.26435624555107,-2.0,-1.0,0.0,6,7,3,1,5,2,0,0.00,44.73,17.56,
17.519,92.49475298955429,95.2694356245551,-2.0,-1.0,0.0,6,7,3,1,5,2,0,0.00,44.83,17.56,
17.533,92.51747529895543,95.2699435624555,-2.0,0.0,0.0,6,7,3,1,5,2,0,0.00,45.13,17.56,
17.547,92.54674752989554,95.26999435624555,-2.0,0.0,0.0,6,7,3,1,5,2,0,0.00,45.22,17.56,
17.561,92.53167475298955,95.35099943562454,-2.0,0.0,0.0,6,7,3,1,5,2,0,0.00,45.32,17.66,
17.575,92.57516747529895,95.35909994356246,-2.0,0.0,0.0,6,7,3,1,5,2,0,0.00,45.52,17.76,
17.59,92.5705167475299,95.35990999435624,-2.0,-1.0,0.0,5,7,3,1,5,2,0,0.00,45.71,17.76,
17.604,92.62405167475299,95.34199099943564,-2.0,0.0,0.0,5,7,3,1,5,2,0,0.00,45.81,17.85,
17.617,92.5574051674753,95.24119909994357,-2.0,-1.0,-1.0,5,7,3,1,5,2,0,0.00,46.01,17.85,
17.632,92.48774051674752,95.18611990999436,-2.0,0.0,-1.0,5,7,3,1,5,2,0,0.00,46.11,17.85,
17.646,92.45377405167474,95.23461199099943,-2.0,0.0,-1.0,5,7,3,1,5,2,0,0.00,46.11,17.66,
17.66,92.45037740516747,95.19446119909995,-2.0,0.0,-1.0,5,7,3,1,5,2,0,0.00,45.91,17.46,
17.675,92.49503774051675,95.16344611990999,-2.0,0.0,-1.0,5,7,3,1,5,2,0,0.00,45.62,17.36,
17.689,92.48150377405167,95.142344611991,-2.0,0.0,-1.0,5,7,3,1,5,2,0,0.00,45.22,17.17,
17.703,92.50715037740517,95.1672344611991,-2.0,0.0,-1.0,5,7,3,1,5,2,0,0.00,44.83,16.87,
17.717,92.57271503774052,95.16072344611992,-2.0,0.0,-1.0,5,7,3,1,5,2,0,0.00,44.64,16.68,
17.731,92.52527150377405,95.16007234461199,-2.0,0.0,-1.0,5,7,3,1,5,2,0,0.00,44.54,16.58,
17.745,92.4575271503774,95.1960072344612,-2.0,0.0,-1.0,5,7,3,1,5,2,0,0.00,44.54,16.48,
17.76,92.34275271503773,95.28960072344611,-2.0,-1.0,-1.0,5,7,3,1,5,2,0,0.00,44.54,16.38,
17.774,92.31327527150378,95.2719600723446,-3.0,-2.0,-1.0,5,7,3,1,5,2,0,0.00,44.64,16.48,
17.788,92.31932752715036,95.25219600723446,-2.0,-1.0,0.0,5,7,3,1,5,2,0,0.00,45.13,16.48,
17.803,92.34693275271503,95.23221960072345,-2.0,-1.0,0.0,5,7,3,1,5,2,0,0.00,45.42,16.48,
17.817,92.42169327527151,95.24822196007236,-3.0,-1.0,0.0,5,7,3,1,5,2,0,0.00,45.81,16.58,
17.83,92.41116932752715,95.24082219600723,-3.0,-1.0,0.0,5,7,3,1,5,2,0,0.00,46.21,16.68,
17.845,92.50011693275272,95.22208221960074,-3.0,-1.0,-1.0,5,7,3,1,5,1,0,0.00,46.89,16.68,
17.859,92.50001169327527,95.08520822196007,-3.0,0.0,-1.0,5,7,3,1,5,1,0,0.00,47.19,16.68,
17.873,92.55400116932753,95.062520822196,-4.0,-1.0,-1.0,5,7,3,1,5,1,0,0.00,47.58,16.58,
17.888,92.55040011693275,95.0962520822196,-4.0,0.0,-1.0,5,7,3,1,5,1,0,0.00,48.17,16.48,
17.902,92.50504001169327,95.06362520822196,-4.0,0.0,-2.0,5,7,3,1,5,1,0,0.00,48.17,16.38,
17.916,92.42850400116933,95.0693625208222,-3.0,0.0,-2.0,5,6,3,1,5,1,0,0.00,48.27,15.89,
17.931,92.41185040011693,94.96193625208221,-3.0,0.0,-2.0,5,6,3,1,5,1,0,0.00,48.17,15.70,
17.944,92.43718504001168,94.93319362520823,-3.0,0.0,-2.0,5,6,3,1,4,1,0,0.00,48.07,15.50,
17.958,92.39471850400116,94.88531936252082,-3.0,-1.0,-1.0,5,6,3,1,4,1,0,0.00,48.07,15.11,
17.973,92.42647185040013,94.88053193625208,-2.0,0.0,-1.0,5,6,3,1,4,1,0,0.00,48.07,14.91,
17.987,92.42064718504001,94.8350531936252,-2.0,0.0,-1.0,5,6,3,1,4,1,0,0.00,47.77,14.62,
18.001,92.42906471850401,94.77650531936251,-2.0,0.0,-1.0,5,6,3,1,4,1,0,0.00,47.58,14.52,
18.016,92.4749064718504,94.77065053193624,-1.0,0.0,-1.0,5,6,3,1,4,1,0,0.00,47.38,14.42,
18.03,92.44349064718503,94.77006505319362,-2.0,0.0,-1.0,5,6,3,1,4,1,0,0.00,47.09,14.32,
18.043,92.4493490647185,94.78800650531937,-2.0,0.0,0.0,5,6,3,1,4,1,0,0.00,46.70,14.22,
18.058,92.41393490647184,94.84380065053193,-1.0,-1.0,0.0,5,6,3,1,5,1,0,0.00,46.40,14.22,
18.072,92.32039349064719,94.85838006505318,-1.0,-1.0,0.0,5,6,3,1,5,1,0,0.00,46.11,14.22,
18.086,92.29303934906473,94.87783800650531,-1.0,0.0,-1.0,5,6,3,1,5,1,0,0.00,46.01,14.22,
18.101,92.24530393490646,94.87078380065054,-1.0,0.0,0.0,5,6,3,1,5,1,0,0.00,45.32,14.22,
18.114,92.25853039349064,94.87907838006505,-1.0,0.0,-1.0,5,6,3,1,5,1,0,0.00,45.03,14.03,
18.128,92.28685303934907,94.89790783800652,-1.0,0.0,0.0,5,6,3,1,5,1,0,0.00,44.64,13.93,
18.143,92.26268530393492,94.89079078380064,-2.0,0.0,-1.0,5,6,3,1,5,1,0,0.00,44.15,13.93,
18.157,92.2872685303935,94.89907907838007,-2.0,0.0,-1.0,5,6,3,1,5,2,0,0.00,43.75,13.83,
18.171,92.29872685303934,94.917907907838,-2.0,-1.0,-1.0,5,6,3,1,5,2,0,0.00,43.56,13.83,
18.186,92.24587268530392,94.9377907907838,-2.0,0.0,-1.0,5,6,3,1,5,2,0,0.00,43.26,13.73,
18.2,92.27658726853039,94.94877907907838,-1.0,0.0,0.0,5,6,3,1,5,2,0,0.00,42.97,13.73,
18.213,92.27065872685303,94.93187790790785,-1.0,0.0,-1.0,5,6,3,1,5,2,0,0.00,42.77,13.44,
18.228,92.26106587268531,94.9031877907908,-2.0,0.0,0.0,5,6,3,1,5,1,0,0.00,42.58,13.34,
18.242,92.26010658726854,94.92731877907909,-2.0,-1.0,-1.0,5,6,3,1,5,2,0,0.00,42.28,13.34,
18.256,92.26001065872686,94.8937318779079,-2.0,-1.0,0.0,5,6,3,1,5,2,0,0.00,41.89,13.34,
18.271,92.28700106587269,94.8723731877908,-1.0,0.0,0.0,5,6,3,1,5,2,0,0.00,41.89,13.24,
18.284,92.29870010658726,94.88823731877908,-1.0,0.0,-1.0,5,6,3,1,5,2,0,0.00,41.79,13.24,
18.298,92.31787001065872,94.92582373187791,-1.0,0.0,-1.0,5,6,3,1,5,2,0,0.00,41.40,13.24,
18.313,92.28378700106587,94.97458237318779,-1.0,0.0,-1.0,5,6,3,1,5,2,0,0.00,41.10,13.15,
18.327,92.2803787001066,94.98845823731878,-1.0,0.0,0.0,5,6,3,1,5,2,0,0.00,40.81,13.05,
18.341,92.28003787001066,94.98084582373187,-1.0,-1.0,-1.0,6,6,3,1,5,2,0,0.00,40.42,12.95,
18.356,92.30700378700107,95.01608458237318,-1.0,-1.0,-1.0,6,6,3,1,5,2,0,0.00,39.93,12.95,
18.37,92.30970037870011,95.03760845823732,-1.0,0.0,-1.0,6,6,3,1,5,2,0,0.00,39.83,12.95,
18.384,92.28297003787002,95.01276084582373,-1.0,0.0,-1.0,6,6,3,1,5,2,0,0.00,39.63,12.95,
18.398,92.26229700378701,95.03727608458237,-1.0,0.0,-1.0,5,6,3,1,5,2,0,0.00,39.44,12.95,
18.412,92.26922970037869,95.05772760845824,-1.0,0.0,-1.0,5,6,3,1,5,2,0,0.00,39.24,12.95,
18.426,92.22492297003787,95.06877276084583,-1.0,0.0,-1.0,5,6,3,1,5,2,0,0.00,39.14,12.85,
18.441,92.20249229700379,95.06087727608458,-2.0,0.0,-1.0,5,6,3,1,5,2,0,0.00,38.95,12.75,
18.455,92.22724922970038,95.09608772760846,-1.0,0.0,-1.0,5,6,3,1,5,2,0,0.00,38.65,12.85,
18.469,92.22072492297004,95.13560877276085,-2.0,0.0,-1.0,5,6,3,1,5,2,0,0.00,38.46,12.75,
18.483,92.220072492297,95.17556087727608,-1.0,0.0,-1.0,5,6,3,1,5,2,0,0.00,38.36,12.65,
18.497,92.22900724922971,95.1615560877276,-1.0,0.0,-1.0,5,6,3,1,5,2,0,0.00,38.26,12.75,
18.511,92.22990072492297,95.20515560877276,-1.0,0.0,-1.0,5,6,3,1,5,2,0,0.00,38.06,12.75,
18.526,92.1759900724923,95.20951556087726,-1.0,0.0,-1.0,5,6,3,1,5,2,0,0.00,37.96,12.75,
18.54,92.20659900724922,95.17395155608773,-1.0,0.0,-1.0,5,6,3,1,5,2,0,0.00,38.06,12.85,
18.554,92.20065990072493,95.17939515560877,-1.0,0.0,-1.0,5,6,3,1,5,2,0,0.00,37.77,12.85,
18.569,92.20006599007249,95.20693951556086,-1.0,0.0,-1.0,6,6,3,1,5,2,0,0.00,37.67,12.85,
18.582,92.18200659900725,95.23669395155608,-1.0,0.0,-1.0,5,6,3,1,5,2,0,0.00,37.57,13.05,
18.596,92.15320065990073,95.23066939515562,-1.0,0.0,-1.0,5,6,3,1,5,2,0,0.00,37.47,13.15,
18.611,92.16832006599007,95.23906693951555,-1.0,0.0,-1.0,6,6,3,1,5,2,0,0.00,37.38,13.15,
18.625,92.17883200659901,95.25790669395155,-1.0,0.0,-1.0,6,6,3,1,5,2,0,0.00,37.18,13.15,
18.639,92.1798832006599,95.26879066939514,-1.0,-1.0,-1.0,6,6,3,1,5,2,0,0.00,37.08,13.15,
18.654,92.06298832006598,95.28787906693952,-1.0,0.0,-1.0,6,6,3,1,5,2,0,0.00,36.98,13.05,
18.668,92.0602988320066,95.27178790669394,-1.0,0.0,-1.0,6,6,3,1,5,2,0,0.00,36.89,13.05,
18.681,92.05102988320066,95.2251787906694,-1.0,0.0,-1.0,6,6,3,1,5,2,0,0.00,36.79,13.34,
18.696,92.05910298832006,95.28351787906695,-1.0,0.0,0.0,6,6,3,1,5,2,0,0.00,36.69,13.44,
18.71,92.07791029883201,95.2713517879067,-1.0,0.0,-1.0,6,6,3,1,5,2,0,0.00,36.79,13.44,
18.724,92.0527910298832,95.29713517879067,-1.0,0.0,-1.0,6,6,3,1,5,2,0,0.00,36.79,13.54,
18.739,92.09527910298831,95.26371351787907,-1.0,-1.0,0.0,6,6,3,1,5,2,0,0.00,36.69,13.54,
18.753,92.12652791029883,95.27837135178791,-1.0,-1.0,-1.0,6,7,3,1,5,2,0,0.00,36.69,13.64,
18.767,92.09365279102988,95.32483713517878,-1.0,0.0,-1.0,6,7,3,1,5,2,0,0.00,36.69,13.54,
18.781,92.22536527910297,95.40148371351788,-1.0,0.0,0.0,6,7,3,1,5,2,0,0.00,36.59,13.73,
18.795,92.2295365279103,95.4001483713518,-1.0,0.0,0.0,6,7,3,1,5,2,0,0.00,36.49,13.73,
18.809,92.22995365279104,95.41801483713517,-2.0,0.0,0.0,6,7,3,1,5,2,0,0.00,36.59,13.73,
18.824,92.18499536527911,95.44680148371351,-1.0,0.0,-1.0,6,7,3,1,5,2,0,0.00,36.49,13.83,
18.838,92.1714995365279,95.42268014837134,-1.0,0.0,-1.0,6,7,3,1,5,2,0,0.00,36.49,13.93,
18.851,92.1521499536528,95.37526801483715,-1.0,0.0,0.0,6,7,3,1,5,2,0,0.00,36.59,14.13,
18.866,92.11421499536527,95.3885268014837,-1.0,0.0,0.0,6,7,3,1,5,2,0,0.00,36.59,14.32,
18.88,92.11042149953653,95.38085268014837,-1.0,0.0,0.0,6,7,3,1,5,2,0,0.00,36.59,14.42,
18.894,92.10104214995366,95.34408526801485,-1.0,-1.0,0.0,6,7,3,1,5,2,0,0.00,36.59,14.42,
18.909,92.10010421499537,95.35840852680148,-1.0,0.0,0.0,6,7,3,1,5,2,0,0.00,36.59,14.42,
18.922,92.11801042149953,95.40484085268014,-1.0,0.0,0.0,6,7,3,1,5,2,0,0.00,36.69,14.62,
18.936,92.15580104214996,95.40948408526802,-2.0,0.0,0.0,6,7,3,1,5,2,0,0.00,36.69,14.62,
18.951,92.159580104215,95.4099484085268,-2.0,0.0,0.0,6,7,3,1,5,2,0,0.00,36.69,14.81,
18.965,92.1329580104215,95.39199484085267,-2.0,0.0,0.0,6,7,3,1,5,2,0,0.00,36.59,14.81,
18.978,92.16629580104215,95.39019948408526,-2.0,0.0,-1.0,6,7,3,1,5,2,0,0.00,36.49,14.81,
18.993,92.2056295801042,95.37201994840854,-1.0,0.0,-1.0,6,7,3,1,5,2,0,0.00,36.49,14.91,
19.007,92.26356295801041,95.32520199484085,-1.0,0.0,-1.0,6,7,3,1,5,2,0,0.00,36.40,15.01,
19.021,92.29635629580103,95.28452019948409,-1.0,0.0,-1.0,6,7,3,1,5,2,0,0.00,36.00,15.11,
19.036,92.2456356295801,95.3254520199484,-1.0,0.0,-1.0,6,7,3,1,5,2,0,0.00,35.81,15.21,
19.05,92.28556356295802,95.32054520199483,-1.0,0.0,-1.0,6,7,3,1,5,2,0,0.00,35.71,15.21,
19.064,92.2355563562958,95.32005452019948,-1.0,0.0,-1.0,6,7,3,1,5,2,0,0.00,35.51,15.30,
19.078,92.26655563562957,95.30200545201994,-1.0,0.0,-1.0,6,7,3,1,5,2,0,0.00,34.83,15.30,
19.092,92.29665556356295,95.31820054520199,-1.0,0.0,-1.0,6,7,3,1,5,2,0,0.00,34.53,15.50,
19.106,92.2906655563563,95.3828200545202,0.0,0.0,-1.0,6,7,3,1,5,2,0,0.00,34.34,15.40,
19.121,92.33506655563563,95.46128200545202,0.0,0.0,-1.0,6,7,3,1,5,2,0,0.00,33.75,15.40,
19.135,92.28550665556357,95.4691282005452,-1.0,0.0,0.0,6,7,3,1,5,2,0,0.00,33.45,15.50,
19.148,92.29855066555635,95.46091282005452,-1.0,0.0,0.0,6,7,3,1,5,2,0,0.00,33.26,15.60,
19.163,92.32685506655562,95.45109128200545,-1.0,0.0,-1.0,6,7,3,1,5,2,0,0.00,32.96,15.70,
19.177,92.31168550665556,95.50410912820055,-1.0,0.0,0.0,6,7,3,1,5,2,0,0.00,32.77,15.79,
19.191,92.29216855066556,95.53641091282006,-1.0,0.0,0.0,6,7,3,1,5,2,0,0.00,32.77,15.99,
19.205,92.31721685506655,95.54864109128201,-1.0,0.0,0.0,6,7,3,1,5,2,0,0.00,32.77,16.09,
19.219,92.35572168550665,95.5678641091282,-1.0,0.0,0.0,6,7,3,1,5,2,0,0.00,32.77,16.09,
19.233,92.25157216855065,95.58778641091283,-1.0,0.0,-1.0,6,7,3,1,5,2,0,0.00,32.67,16.09,
19.248,92.22315721685507,95.54477864109128,-1.0,0.0,-1.0,6,7,3,1,5,2,0,0.00,32.67,16.28,
19.262,92.22931572168551,95.55847786410914,-1.0,0.0,-1.0,6,7,3,1,5,2,0,0.00,32.57,16.28,
19.276,92.23893157216854,95.55984778641091,-2.0,0.0,0.0,6,7,3,1,5,2,0,0.00,32.57,16.38,
19.29,92.25789315721686,95.5869847786411,-2.0,0.0,0.0,6,7,3,1,5,2,0,0.00,32.47,16.48,
19.304,92.21478931572167,95.63469847786412,-2.0,0.0,0.0,6,7,3,1,5,2,0,0.00,32.57,16.58,
19.318,92.20147893157217,95.61246984778641,-2.0,0.0,0.0,6,7,3,1,5,2,0,0.00,32.57,16.78,
19.333,92.21814789315722,95.62824698477863,-2.0,0.0,0.0,6,7,3,1,5,2,0,0.00,32.96,16.78,
19.346,92.16581478931572,95.62982469847785,-2.0,0.0,0.0,6,7,3,1,5,2,0,0.00,33.06,16.97,
19.36,92.16058147893158,95.64798246984779,-2.0,0.0,0.0,6,7,3,1,5,2,0,0.00,33.06,16.97,
19.375,92.13305814789315,95.61379824698479,-2.0,0.0,0.0,6,7,3,1,5,2,0,0.00,33.16,17.07,
19.389,92.15730581478931,95.59237982469848,-2.0,0.0,0.0,6,7,3,1,5,2,0,0.00,33.45,17.07,
19.402,92.19573058147893,95.54523798246984,-2.0,0.0,0.0,6,7,3,1,5,2,0,0.00,33.65,17.27,
19.417,92.19957305814789,95.540523798247,-2.0,0.0,-1.0,6,7,3,1,5,2,0,0.00,33.65,17.17,
19.431,92.2809573058148,95.5760523798247,-2.0,0.0,-1.0,6,7,3,1,5,2,0,0.00,33.75,17.17,
19.445,92.28009573058148,95.52560523798248,-2.0,0.0,-1.0,6,7,3,1,5,2,0,0.00,33.75,17.27,
19.46,92.28000957305815,95.53856052379825,-2.0,0.0,-1.0,6,7,3,1,5,2,0,0.00,33.84,17.27,
19.474,92.2980009573058,95.57585605237983,-2.0,0.0,-1.0,6,7,3,1,5,2,0,0.00,33.75,17.27,
19.487,92.35380009573058,95.606585605238,-2.0,0.0,0.0,6,7,3,1,5,2,0,0.00,33.75,17.27,
19.502,92.28738000957307,95.67265856052381,-2.0,0.0,-1.0,6,7,3,1,5,2,0,0.00,33.75,17.27,
19.516,92.25373800095731,95.63426585605237,-2.0,0.0,-1.0,6,7,3,1,5,2,0,0.00,33.65,17.36,
19.53,92.29537380009572,95.61242658560525,-2.0,0.0,0.0,6,7,3,1,5,2,0,0.00,33.65,17.36,
19.545,92.30853738000958,95.67324265856053,-2.0,0.0,-1.0,6,7,3,1,5,2,0,0.00,33.55,17.36,
19.559,92.28285373800097,95.61632426585606,-2.0,0.0,-1.0,6,7,3,1,5,2,0,0.00,33.45,17.36,
19.572,92.2802853738001,95.6826324265856,-2.0,0.0,-1.0,6,7,3,1,5,2,0,0.00,33.35,17.36,
19.587,92.23502853738002,95.69826324265857,-2.0,0.0,0.0,6,7,3,1,5,2,0,0.00,33.16,17.27,
19.601,92.167502853738,95.71782632426584,-2.0,0.0,-1.0,6,7,3,1,6,2,0,0.00,33.06,17.36,
19.615,92.14275028537381,95.6567826324266,-2.0,0.0,-1.0,6,7,3,1,5,2,0,0.00,33.06,17.36,
19.63,92.16727502853738,95.68667826324265,-1.0,0.0,-1.0,6,7,3,1,5,2,0,0.00,32.86,17.36,
19.644,92.19672750285375,95.71666782632425,-1.0,0.0,0.0,6,7,3,1,5,2,0,0.00,32.67,17.36,
19.657,92.23567275028536,95.78266678263243,-1.0,-1.0,-1.0,6,7,3,1,5,2,0,0.00,32.47,17.36,
19.672,92.22156727502853,95.75326667826323,-1.0,-1.0,0.0,6,7,3,1,5,2,0,0.00,32.27,17.27,
19.686,92.24715672750285,95.71432666782631,-2.0,0.0,-1.0,6,7,3,1,6,2,0,0.00,32.37,17.27,
19.7,92.20471567275028,95.73743266678262,-2.0,0.0,-1.0,6,7,3,1,6,2,0,0.00,32.37,17.36,
19.715,92.20947156727502,95.76674326667826,-1.0,0.0,-1.0,6,7,3,1,6,2,0,0.00,32.37,17.27,
19.729,92.28194715672751,95.73367432666784,-2.0,0.0,0.0,6,7,3,1,6,2,0,0.00,32.27,17.27,
19.743,92.29819471567274,95.72136743266678,-1.0,0.0,-1.0,6,7,3,1,6,2,0,0.00,32.08,17.27,
19.757,92.27281947156726,95.79213674326667,-2.0,0.0,0.0,6,7,3,1,6,2,0,0.00,31.98,17.27,
19.771,92.32428194715672,95.77221367432666,-2.0,-1.0,-1.0,6,7,3,1,6,2,0,0.00,31.88,17.17,
19.785,92.34742819471566,95.73422136743267,-2.0,-1.0,-1.0,6,7,3,1,6,2,0,0.00,31.88,17.17,
19.8,92.36774281947157,95.71242213674326,-2.0,-1.0,-1.0,6,7,3,1,6,2,0,0.00,31.69,17.17,
19.814,92.30677428194716,95.71024221367432,-2.0,0.0,-1.0,6,7,3,1,6,2,0,0.00,31.78,16.97,
19.828,92.29167742819472,95.70102422136745,-1.0,0.0,-1.0,6,7,3,1,6,2,0,0.00,31.69,16.97,
19.843,92.29916774281946,95.68210242213675,-2.0,0.0,-1.0,6,7,3,1,6,2,0,0.00,31.39,16.78,
19.857,92.32691677428194,95.68921024221368,-2.0,-1.0,0.0,6,7,3,1,6,2,0,0.00,31.39,16.78,
19.87,92.32969167742819,95.64492102422138,-2.0,-1.0,-1.0,6,7,3,1,6,2,0,0.00,31.49,16.78,
19.885,92.28496916774282,95.63149210242213,-2.0,0.0,-1.0,6,7,3,1,6,2,0,0.00,31.59,16.68,
19.899,92.28049691677428,95.63914921024222,-1.0,-1.0,-1.0,6,7,3,1,6,2,0,0.00,31.49,16.68,
19.913,92.28904969167743,95.63991492102423,-2.0,0.0,-1.0,6,7,3,1,6,2,0,0.00,31.49,16.48,
19.928,92.30790496916775,95.67599149210243,-2.0,0.0,-1.0,6,7,3,1,6,2,0,0.00,31.39,16.58,
19.942,92.35479049691676,95.75159914921025,-2.0,0.0,-1.0,6,7,3,1,6,2,0,0.00,31.29,16.58,
19.956,92.37747904969167,95.75915991492104,-2.0,0.0,-1.0,6,7,3,1,6,2,0,0.00,31.29,16.48,
19.971,92.37074790496918,95.7419159914921,-2.0,0.0,-1.0,6,7,3,1,6,2,0,0.00,31.29,16.19,
19.984,92.34307479049693,95.74919159914921,-2.0,0.0,-1.0,6,7,3,1,6,2,0,0.00,31.29,16.19,
19.998,92.3673074790497,95.69591915991492,-2.0,0.0,-1.0,6,7,3,1,6,2,0,0.00,31.29,16.28,
20.013,92.40573074790497,95.71759191599149,-2.0,0.0,-1.0,6,7,3,1,6,2,0,0.00,31.20,16.28,
20.027,92.4005730747905,95.72875919159915,-2.0,0.0,-1.0,6,7,3,1,6,2,0,0.00,31.10,16.19,
20.041,92.37305730747906,95.67587591915992,-2.0,0.0,-1.0,6,7,3,1,6,2,0,0.00,30.90,16.19,
20.056,92.3523057307479,95.679587591916,-1.0,0.0,-1.0,6,7,3,1,6,2,0,0.00,30.71,16.19,
20.07,92.3682305730748,95.6709587591916,-2.0,0.0,-1.0,6,7,3,1,6,2,0,0.00,30.61,15.99,
20.083,92.37882305730747,95.71509587591916,-2.0,-1.0,-1.0,6,7,3,1,6,2,0,0.00,30.51,15.99,
20.098,92.37088230573076,95.69250958759191,-2.0,0.0,-1.0,6,7,3,1,6,2,0,0.00,30.31,15.79,
20.112,92.33408823057307,95.73525095875918,-2.0,0.0,0.0,6,7,3,1,6,2,0,0.00,30.21,15.70,
20.126,92.36640882305731,95.7395250958759,-2.0,0.0,0.0,6,7,3,1,6,2,0,0.00,30.12,15.60,
20.141,92.30664088230571,95.77595250958758,-2.0,-1.0,0.0,6,7,3,1,6,2,0,0.00,30.12,15.60,
20.155,92.23766408823057,95.80659525095875,-2.0,0.0,0.0,6,7,3,1,6,2,0,0.00,30.12,15.50,
20.168,92.22176640882306,95.80965952509587,-2.0,0.0,0.0,6,7,3,1,6,2,0,0.00,30.12,15.70,
20.183,92.21117664088229,95.80996595250959,-2.0,0.0,-1.0,6,7,3,1,6,2,0,0.00,30.12,15.50,
20.197,92.22811766408823,95.80999659525095,-2.0,-1.0,0.0,6,7,3,1,6,2,0,0.00,30.21,15.60,
20.211,92.21181176640881,95.81899965952509,-2.0,-1.0,0.0,6,7,3,1,6,2,0,0.00,30.31,15.60,
20.226,92.16518117664089,95.8198999659525,-2.0,0.0,-1.0,6,7,3,1,6,2,0,0.00,30.31,15.40,
20.24,92.1515181176641,95.78398999659524,-2.0,0.0,0.0,6,7,3,1,6,2,0,0.00,30.31,15.30,
20.253,92.1681518117664,95.71739899965952,-2.0,0.0,0.0,6,7,3,1,6,2,0,0.00,30.41,15.11,
20.268,92.21481518117665,95.66573989996594,-2.0,-1.0,-1.0,6,7,3,1,6,2,0,0.00,30.51,15.01,
20.282,92.21948151811768,95.67857398999661,-2.0,-1.0,0.0,6,7,3,1,6,2,0,0.00,30.61,15.01,
20.296,92.17494815181178,95.64385739899967,-2.0,0.0,0.0,6,7,3,1,6,2,0,0.00,30.61,14.91,
20.311,92.17949481518119,95.62238573989997,-2.0,0.0,-1.0,6,7,3,1,6,2,0,0.00,30.51,14.91,
20.324,92.17094948151812,95.62923857399,-2.0,-1.0,-1.0,6,7,3,1,6,2,0,0.00,30.51,14.81,
20.338,92.17009494815181,95.611923857399,-2.0,-1.0,-1.0,6,7,3,1,6,2,0,0.00,30.61,14.72,
20.353,92.16100949481518,95.61919238573991,-2.0,0.0,-1.0,6,7,3,1,6,2,0,0.00,30.71,14.62,
20.367,92.16910094948152,95.673919238574,-2.0,-1.0,0.0,6,7,3,1,6,2,0,0.00,30.71,14.52,
20.381,92.18791009494815,95.7153919238574,-2.0,-1.0,0.0,6,7,3,1,6,2,0,0.00,30.71,14.32,
20.396,92.21679100949481,95.72853919238575,-2.0,-1.0,-1.0,6,7,3,1,5,2,0,0.00,30.80,14.32,
20.41,92.18367910094949,95.71185391923856,-2.0,-1.0,-1.0,6,7,3,1,5,2,0,0.00,31.10,14.13,
20.424,92.15336791009494,95.71018539192386,-2.0,-1.0,-1.0,6,7,3,1,5,2,0,0.00,31.10,14.13,
20.439,92.09633679100949,95.72801853919239,-2.0,-1.0,-1.0,6,7,3,1,5,2,0,0.00,31.10,14.13,
20.453,92.07263367910095,95.69380185391924,-2.0,-1.0,-1.0,6,7,3,1,5,2,0,0.00,31.10,13.93,
20.467,92.05226336791009,95.69038018539192,-2.0,-1.0,-1.0,6,7,3,1,5,2,0,0.00,31.10,13.83,
20.482,92.05022633679101,95.6450380185392,-2.0,-1.0,-1.0,6,7,3,1,5,2,0,0.00,31.20,13.54,
20.496,92.0500226336791,95.58650380185392,-2.0,-1.0,-1.0,6,7,3,1,5,2,0,0.00,31.20,13.54,
20.51,91.9960022633679,95.5626503801854,-2.0,-1.0,-1.0,6,7,3,1,5,2,0,0.00,30.90,13.24,
20.524,91.99060022633678,95.56026503801854,-2.0,-1.0,-1.0,6,7,3,1,5,2,0,0.00,30.71,12.95,
20.538,91.98106002263368,95.55102650380186,-1.0,-1.0,-1.0,6,7,3,1,5,2,0,0.00,30.51,12.75,
20.552,91.97110600226335,95.58610265038018,-1.0,-1.0,-1.0,6,7,3,1,5,2,0,0.00,30.02,12.46,
20.567,91.96111060022633,95.52661026503802,-1.0,-1.0,-1.0,6,7,3,1,5,2,0,0.00,29.53,12.26,
20.581,91.92411106002264,95.5206610265038,-1.0,-1.0,-1.0,6,7,3,1,5,2,0,0.00,28.94,11.67,
20.595,91.90241110600226,95.59206610265036,-1.0,-1.0,-1.0,6,7,3,1,5,2,0,0.00,28.35,11.38,
20.61,91.85524111060022,95.65320661026503,-1.0,-1.0,-1.0,6,7,3,1,5,2,0,0.00,27.37,11.09,
20.624,91.85052411106001,95.6863206610265,-2.0,-2.0,-1.0,6,7,3,1,5,2,0,0.00,26.88,10.69,
20.638,91.796052411106,95.70763206610265,-2.0,-2.0,-1.0,6,7,3,1,5,2,0,0.00,26.59,10.50,
20.653,91.7546052411106,95.75476320661028,-2.0,-2.0,-1.0,6,7,3,1,5,2,0,0.00,26.29,10.30,
21.078,91.64246052411106,95.63347632066103,-1.0,-1.0,-1.0,5,6,3,0,5,1,0,0.00,26.09,7.36,
21.091,91.5772460524111,95.6213476320661,-1.0,-1.0,-1.0,5,6,3,0,5,1,0,0.00,25.80,7.16,
21.105,91.54372460524112,95.6291347632066,-1.0,-1.0,-1.0,5,6,3,0,5,1,0,0.00,25.51,7.16,
21.12,91.49537246052411,95.59391347632067,-1.0,-1.0,-1.0,5,6,3,0,5,1,0,0.00,24.92,7.06,
21.134,91.45453724605241,95.61739134763206,-1.0,-1.0,-1.0,5,6,3,0,5,1,0,0.00,24.62,6.87,
21.148,91.45045372460524,95.61073913476321,-1.0,-1.0,-1.0,5,6,3,0,5,1,0,0.00,24.43,6.77,
21.163,91.43204537246052,95.58307391347633,-2.0,-1.0,-1.0,5,6,3,0,5,1,0,0.00,24.13,6.67,
21.177,91.42120453724606,95.61630739134763,-2.0,-1.0,-1.0,5,6,3,0,5,1,0,0.00,23.94,6.57,
21.19,91.3841204537246,95.60163073913475,-1.0,-1.0,-1.0,5,6,3,0,5,1,0,0.00,23.84,6.57,
21.204,91.35341204537247,95.59116307391348,-1.0,-1.0,-1.0,5,6,3,0,5,1,0,0.00,23.74,6.47,
21.219,91.31434120453724,95.61711630739136,-1.0,-1.0,-1.0,5,6,3,0,5,1,0,0.00,23.54,6.38,
21.233,91.29243412045372,95.64671163073913,-1.0,0.0,-1.0,5,6,3,0,5,1,0,0.00,23.35,6.38,
21.248,91.30824341204537,95.7036711630739,-1.0,-1.0,-1.0,5,6,3,0,5,1,0,0.00,23.35,6.28,
21.262,91.28282434120453,95.67336711630739,-2.0,0.0,-1.0,5,6,3,0,5,1,0,0.00,23.15,6.28,
21.275,91.29828243412045,95.68833671163074,-2.0,0.0,-1.0,5,6,3,0,5,1,0,0.00,22.76,6.28,
21.289,91.34482824341205,95.67183367116309,-1.0,0.0,-1.0,5,6,3,0,5,1,0,0.00,22.56,6.18,
21.304,91.35848282434121,95.72418336711632,-1.0,-1.0,-1.0,5,6,3,0,5,1,0,0.00,22.46,6.18,
21.318,91.27884828243413,95.70241833671164,-1.0,-1.0,-1.0,5,6,3,0,5,1,0,0.00,22.37,6.28,
21.332,91.27088482824341,95.68224183367117,-1.0,-1.0,-1.0,5,6,3,0,5,1,0,0.00,22.27,6.28,
21.347,91.26108848282433,95.72522418336712,-1.0,0.0,-1.0,5,6,3,0,5,1,0,0.00,22.27,6.18,
21.36,91.25110884828243,95.73852241833671,-1.0,0.0,0.0,5,6,3,0,5,1,0,0.00,22.07,6.28,
21.374,91.29511088482825,95.74885224183367,-1.0,0.0,-1.0,5,6,3,0,5,1,0,0.00,21.78,6.28,
21.389,91.38051108848282,95.74088522418336,-2.0,0.0,-1.0,5,6,3,0,5,1,0,0.00,21.78,6.28,
21.403,91.39805110884828,95.69508852241833,-2.0,0.0,-1.0,5,6,3,0,5,1,0,0.00,21.68,6.38,
21.416,91.39080511088483,95.68150885224185,-2.0,0.0,-1.0,5,6,3,0,5,1,0,0.00,21.68,6.38,
21.431,91.38108051108848,95.65315088522419,-2.0,0.0,-1.0,5,6,3,0,5,1,0,0.00,21.58,6.38,
21.445,91.40710805110885,95.64131508852242,-2.0,0.0,-1.0,5,6,3,0,5,1,0,0.00,21.58,6.38,
21.459,91.41871080511089,95.64013150885225,-2.0,0.0,-1.0,5,6,3,0,5,1,0,0.00,21.58,6.38,
21.473,91.41987108051109,95.63101315088522,-2.0,0.0,-1.0,5,6,3,0,5,2,0,0.00,21.58,6.28,
21.487,91.41098710805112,95.62110131508852,-2.0,0.0,-1.0,5,6,3,0,5,1,0,0.00,21.48,6.28,
21.501,91.38309871080511,95.63811013150885,-2.0,0.0,-1.0,5,6,3,0,5,2,0,0.00,21.39,6.18,
21.516,91.38930987108051,95.70281101315088,-2.0,0.0,-1.0,5,6,3,0,5,1,0,0.00,21.29,6.08,
21.53,91.37193098710806,95.7002811013151,-2.0,0.0,-1.0,5,6,3,0,5,1,0,0.00,21.19,6.08,
21.543,91.35219309871081,95.64602811013151,-2.0,0.0,-1.0,5,6,3,0,5,1,0,0.00,21.19,6.08,
21.558,91.31421930987108,95.65860281101314,-2.0,0.0,-1.0,5,6,3,0,5,1,0,0.00,21.09,5.98,
21.572,91.46342193098711,95.51586028110131,-3.0,1.0,1.0,5,6,3,0,5,1,0,0.00,20.99,5.89,
21.586,91.4603421930987,95.69958602811013,-2.0,0.0,-1.0,5,6,3,0,5,1,0,0.00,20.90,5.79,
21.6,91.45103421930988,95.68195860281102,-2.0,0.0,-1.0,5,6,3,0,5,1,0,0.00,20.80,5.79,
21.614,91.43210342193099,95.71619586028109,-2.0,0.0,0.0,5,6,3,0,5,1,0,0.00,20.80,5.69,
21.628,91.3672103421931,95.7196195860281,-2.0,0.0,0.0,5,6,3,0,5,1,0,0.00,20.80,5.69,
21.642,91.29772103421931,95.73796195860281,-2.0,-1.0,0.0,5,6,3,0,5,1,0,0.00,20.80,5.69,
21.656,91.25477210342193,95.72179619586028,-2.0,-1.0,0.0,5,6,3,0,5,1,0,0.00,20.70,5.59,
21.67,91.41247721034219,95.54917961958603,-2.0,0.0,-1.0,5,6,3,0,5,1,0,0.00,20.70,5.49,
21.685,91.49124772103423,95.67591796195859,-2.0,-2.0,0.0,5,6,3,0,5,1,0,0.00,20.70,5.40,
21.699,91.53512477210343,95.64359179619586,-2.0,-1.0,0.0,5,6,3,0,4,1,0,0.00,20.90,5.30,
21.712,91.50351247721035,95.6133591796196,-2.0,-1.0,0.0,5,6,3,0,4,1,0,0.00,20.99,5.30,
21.727,91.49135124772103,95.55633591796196,-2.0,-1.0,0.0,5,6,3,0,4,1,0,0.00,21.09,5.30,
21.741,91.4001351247721,95.5236335917962,-2.0,0.0,0.0,5,6,3,0,4,1,0,0.00,21.19,5.30,
21.755,91.38201351247722,95.43936335917964,-2.0,0.0,0.0,5,6,3,0,4,1,0,0.00,21.29,5.10,
21.769,91.37120135124772,95.43093633591798,-2.0,0.0,0.0,5,6,3,0,4,1,0,0.00,21.29,5.20,
21.783,91.44212013512478,95.43009363359181,-2.0,0.0,0.0,5,6,3,0,4,1,0,0.00,21.19,5.00,
21.797,91.43121201351248,95.50200936335918,-2.0,0.0,-1.0,5,6,3,0,4,1,0,0.00,21.09,5.00,
21.811,91.45712120135124,95.51820093633592,-2.0,-1.0,0.0,5,6,3,0,4,1,0,0.00,21.19,5.00,
21.825,91.41471212013514,95.4928200936336,-2.0,-1.0,0.0,5,6,3,0,4,1,0,0.00,21.19,5.00,
21.839,91.40147121201352,95.51728200936336,-2.0,0.0,-1.0,5,6,3,0,4,1,0,0.00,21.19,4.91,
21.854,91.31014712120135,95.49272820093634,-2.0,0.0,-1.0,5,6,3,0,4,1,0,0.00,21.29,4.91,
21.868,91.24701471212013,95.54427282009364,-2.0,0.0,-1.0,5,6,3,0,4,1,0,0.00,21.29,4.91,
21.881,91.267701471212,95.54942728200936,-2.0,0.0,-1.0,5,6,3,0,4,1,0,0.00,21.19,4.91,
21.896,91.27877014712121,95.54994272820093,-2.0,0.0,-1.0,5,6,3,0,4,1,0,0.00,21.09,4.91,
21.91,91.30687701471211,95.5589942728201,-2.0,-1.0,0.0,5,6,3,0,4,1,0,0.00,20.99,4.91,
21.924,91.33668770147122,95.56889942728199,-2.0,-1.0,-1.0,5,6,3,0,4,1,0,0.00,20.90,4.81,
21.938,91.28566877014713,95.57888994272821,-2.0,-1.0,-1.0,5,6,3,0,4,1,0,0.00,20.99,4.81,
21.952,91.2265668770147,95.54388899427282,-2.0,-1.0,-1.0,5,6,3,0,4,1,0,0.00,20.90,4.71,
21.966,91.15765668770148,95.57638889942729,-2.0,-1.0,-1.0,5,6,3,0,4,1,0,0.00,20.80,4.71,
21.981,91.12376566877015,95.59763888994271,-2.0,-1.0,-1.0,5,6,3,0,4,1,0,0.00,20.70,4.61,
21.995,91.12037656687703,95.54576388899427,-2.0,-1.0,-1.0,5,6,3,0,4,1,0,0.00,20.60,4.51,
22.009,91.09303765668771,95.55857638889943,-2.0,-1.0,-1.0,5,6,3,0,4,1,0,0.00,20.40,4.51,
22.024,91.01830376566878,95.46985763888995,-2.0,0.0,0.0,5,6,3,0,4,1,0,0.00,20.31,4.41,
22.037,91.01983037656687,95.460985763889,-2.0,0.0,-1.0,5,6,3,0,4,1,0,0.00,20.11,4.32,
22.051,91.02898303765669,95.5230985763889,-2.0,-2.0,-1.0,5,6,3,0,4,1,0,0.00,19.91,4.22,
22.066,91.00289830376568,95.51130985763889,-2.0,-2.0,-1.0,5,6,3,0,4,1,0,0.00,19.72,4.12,
22.08,90.89228983037657,95.59113098576388,-2.0,-2.0,-1.0,5,6,3,0,4,1,0,0.00,19.62,4.02,
22.094,90.80022898303767,95.62611309857638,-2.0,0.0,-1.0,5,6,3,0,4,1,0,0.00,19.52,3.92,
22.109,90.75502289830376,95.68361130985764,-3.0,0.0,-1.0,5,6,3,0,4,1,0,0.00,19.33,3.83,
22.122,90.83150228983038,95.60836113098576,-2.0,0.0,-1.0,5,6,3,0,4,1,0,0.00,19.33,3.63,
22.136,90.85715022898304,95.57383611309857,-2.0,0.0,-1.0,5,6,3,0,4,1,0,0.00,19.23,3.63,
22.151,90.8237150228983,95.57938361130986,-2.0,-1.0,-1.0,5,6,3,0,4,1,0,0.00,19.23,3.53,
22.165,90.82037150228983,95.56193836113098,-2.0,0.0,-1.0,5,6,3,0,4,1,0,0.00,19.13,3.43,
22.178,90.84703715022899,95.5241938361131,-2.0,0.0,-1.0,5,6,3,0,4,1,0,0.00,19.03,3.34,
22.193,90.9127037150229,95.47541938361131,-2.0,0.0,-1.0,5,6,3,0,4,1,0,0.00,18.93,3.34,
22.207,90.9732703715023,95.46154193836114,-2.0,0.0,-1.0,5,5,3,0,4,1,0,0.00,18.84,3.34,
22.221,91.06932703715022,95.46915419383612,-2.0,0.0,0.0,5,5,3,0,4,1,0,0.00,18.74,3.34,
22.235,91.05193270371501,95.44291541938361,-2.0,0.0,-1.0,5,5,3,0,4,1,0,0.00,18.64,3.14,
22.249,91.0501932703715,95.48529154193837,-2.0,0.0,-1.0,5,5,3,0,4,1,0,0.00,18.54,3.04,
22.263,91.08601932703715,95.46252915419383,-2.0,0.0,-1.0,4,5,3,0,4,1,0,0.00,18.34,3.04,
22.278,90.9726019327037,95.49625291541938,-2.0,0.0,-1.0,4,5,3,0,3,1,0,0.00,18.34,3.04,
22.292,90.95226019327038,95.43662529154196,-2.0,0.0,-1.0,4,5,2,0,3,1,0,0.00,18.25,2.94,
22.305,90.88722601932704,95.45766252915419,-1.0,0.0,-2.0,4,5,3,0,3,1,0,0.00,18.05,2.94,
22.32,90.9617226019327,95.47776625291542,-2.0,0.0,-2.0,4,5,2,0,3,1,0,0.00,17.66,2.94,
22.334,90.99617226019328,95.49777662529155,-2.0,0.0,-1.0,4,5,2,0,3,1,0,0.00,17.36,2.84,
22.348,91.05361722601933,95.53577766252916,-2.0,0.0,-1.0,4,5,2,0,3,1,0,0.00,17.07,2.84,
22.362,91.08636172260194,95.49457776625292,-2.0,0.0,-1.0,4,5,2,0,3,1,0,0.00,16.68,2.84,
22.376,91.0626361722602,95.52645777662529,-2.0,0.0,-1.0,4,5,2,0,3,1,0,0.00,16.68,2.84,
22.39,90.97026361722601,95.59264577766251,-2.0,0.0,-1.0,4,5,2,0,3,1,0,0.00,16.58,2.65,
22.405,90.9340263617226,95.59026457776625,-2.0,0.0,-1.0,4,5,2,0,3,1,0,0.00,16.48,2.65,
22.418,90.94840263617226,95.54502645777663,-2.0,-1.0,-2.0,4,5,2,0,3,1,0,0.00,16.19,2.65,
22.432,90.99484026361723,95.58550264577767,-2.0,0.0,-1.0,4,5,2,0,3,1,0,0.00,15.99,2.55,
22.447,91.08948402636172,95.52655026457776,-2.0,0.0,-1.0,4,5,2,0,3,1,0,0.00,15.79,2.65,
22.461,91.08094840263617,95.53865502645777,-2.0,0.0,-1.0,4,5,2,0,3,1,0,0.00,15.70,2.55,
