time,pitch,roll,gyrx,gyry,gyrz,f1,f2,f3,f4,f5,f6,f7,g1,g2,g3
0.394,38.0,44.67,-5.66,0.56,3.15,4.0,0.0,0.0,0.0,0.0,0.0,0.0,0.0,0.1,0.59,
0.417,43.625,51.348000000000006,-5.27,-1.63,8.46,4.0,0.0,0.0,0.0,0.0,0.0,0.0,0.0,0.2,0.59,
0.441,48.8585,57.343799999999995,-5.32,-1.34,8.74,4.0,0.0,0.0,0.0,0.0,0.0,0.0,0.0,0.1,0.69,
0.464,53.34185,62.47037999999999,-4.5,-0.73,4.93,4.0,0.0,0.0,0.0,0.0,0.0,0.0,0.0,0.1,2.06,
0.489,57.120185,66.763038,-2.76,-1.45,1.58,4.0,0.0,0.0,0.0,0.0,0.0,0.0,0.0,0.0,0.0,
0.513,60.405018500000004,70.25230379999999,-1.29,-2.7,-2.02,4.0,0.0,0.0,0.0,0.0,0.0,0.0,0.0,0.1,0.59,
0.537,63.39750185,73.48123038,-2.18,-1.66,-1.42,4.0,0.0,0.0,0.0,0.0,0.0,0.0,0.0,0.1,0.78,
0.561,65.910750185,76.297123038,-3.56,-1.15,3.21,4.0,0.0,0.0,0.0,0.0,0.0,0.0,0.0,0.1,0.69,
0.584,67.9530750185,78.2167123038,-4.24,-1.65,3.27,4.0,0.0,0.0,0.0,0.0,0.0,0.0,0.0,0.1,0.69,
0.609,69.77730750185,79.92967123038,-4.21,-1.15,-1.4,4.0,0.0,0.0,0.0,0.0,0.0,0.0,0.0,0.1,0.78,
0.632,71.516730750185,81.675967123038,-4.51,0.76,-1.24,4.0,0.0,0.0,0.0,0.0,0.0,0.0,0.0,0.2,0.88,
0.657,72.9506730750185,83.26359671230381,-5.7,0.85,2.97,4.0,0.0,0.0,0.0,0.0,0.0,0.0,0.0,0.1,0.98,
0.68,74.00306730750187,84.47535967123038,-6.05,0.61,4.92,4.0,0.0,0.0,0.0,0.0,0.0,0.0,0.0,0.1,0.88,
0.704,74.95430673075019,85.47853596712304,-5.34,1.4,2.82,4.0,0.0,0.0,0.0,0.0,0.0,0.0,0.0,0.1,0.98,
0.728,75.80543067307502,86.34385359671231,-4.24,2.95,1.4,4.0,0.0,0.0,0.0,0.0,0.0,0.0,0.0,0.1,0.98,
0.752,76.46654306730751,86.95238535967123,-4.15,1.92,-0.02,4.0,0.0,0.0,0.0,0.0,0.0,0.0,0.0,0.1,0.78,
0.776,77.20765430673076,87.46323853596712,-5.02,1.99,-1.23,4.0,0.0,0.0,0.0,0.0,0.0,0.0,0.0,0.1,0.98,
0.799,77.83976543067307,88.10832385359672,-5.69,3.52,0.56,4.0,0.0,0.0,0.0,0.0,0.0,0.0,0.0,0.0,0.88,
0.824,78.26297654306731,88.59583238535969,-6.19,3.78,3.29,4.0,0.0,0.0,0.0,0.0,0.0,0.0,0.0,0.1,0.88,
0.847,78.40429765430673,88.72558323853596,-5.9,2.14,2.06,4.0,0.0,0.0,0.0,0.0,0.0,0.0,0.0,0.1,0.98,
0.871,78.55342976543066,88.99055832385359,-5.53,2.18,-1.24,4.0,0.0,0.0,0.0,0.0,0.0,0.0,0.0,0.1,0.88,
0.894,78.80234297654307,89.39505583238535,-4.97,1.24,-0.82,4.0,0.0,0.0,0.0,0.0,0.0,0.0,0.0,0.0,0.98,
0.919,78.9442342976543,89.74150558323853,-5.08,0.6,0.04,4.0,0.0,0.0,0.0,0.0,0.0,0.0,0.0,0.1,0.98,
0.943,79.08442342976542,90.14515055832386,-5.12,0.35,1.0,4.0,0.0,0.0,0.0,0.0,0.0,0.0,0.0,0.2,1.08,
0.966,79.13444234297654,90.46451505583238,-4.9,-0.35,1.98,4.0,0.0,0.0,0.0,0.0,0.0,0.0,0.0,0.2,0.98,
0.991,79.19344423429766,90.67645150558324,-3.66,-1.63,1.41,4.0,0.0,0.0,0.0,0.0,0.0,0.0,0.0,0.0,0.98,
1.014,79.32534442342977,90.85064515055832,-2.05,-0.88,-0.3,4.0,0.0,0.0,0.0,0.0,0.0,0.0,0.0,0.1,1.08,
1.038,79.42853444234296,90.86806451505583,-1.4,-1.32,-0.86,4.0,0.0,0.0,0.0,0.0,0.0,0.0,0.0,0.1,1.18,
1.062,79.60985344423429,90.97780645150557,-1.98,-1.8,0.12,4.0,0.0,0.0,0.0,0.0,0.0,0.0,0.0,0.1,1.18,
1.086,79.79898534442341,91.10578064515056,-2.31,-1.06,2.04,4.0,0.0,0.0,0.0,0.0,0.0,0.0,0.0,0.1,1.08,
1.111,79.83589853444235,90.92057806451506,-1.05,-1.02,2.37,4.0,0.0,0.0,0.0,0.0,0.0,0.0,0.0,0.1,1.08,
1.134,79.88458985344423,90.67705780645151,-0.78,-1.41,-0.27,4.0,0.0,0.0,0.0,0.0,0.0,0.0,0.0,0.0,1.18,
1.158,80.05145898534442,90.70670578064514,-1.85,-0.23,-0.29,4.0,0.0,0.0,0.0,0.0,0.0,0.0,0.0,0.0,0.69,
1.182,80.13114589853444,90.78167057806452,-2.49,-0.77,2.65,4.0,0.0,0.0,0.0,0.0,0.0,0.0,0.0,0.0,0.39,
1.206,80.13011458985345,90.57316705780646,-2.66,-1.78,2.62,4.0,0.0,0.0,0.0,0.0,0.0,0.0,0.0,0.1,0.49,
1.23,80.20201145898534,90.39931670578065,-2.73,-1.34,-0.59,4.0,0.0,0.0,0.0,0.0,0.0,0.0,0.0,0.2,0.59,
1.254,80.37120114589854,90.48993167057807,-3.04,-0.7,-1.1,4.0,0.0,0.0,0.0,0.0,0.0,0.0,0.0,0.2,0.78,
1.277,80.45112011458986,90.66099316705781,-3.94,-0.79,0.27,4.0,0.0,0.0,0.0,0.0,0.0,0.0,0.0,0.2,0.69,
1.302,80.48611201145899,90.70509931670577,-3.89,-1.32,1.07,4.0,0.0,0.0,0.0,0.0,0.0,0.0,0.0,0.1,0.59,
1.326,80.5256112011459,90.72750993167058,-4.11,-0.87,0.63,4.0,0.0,0.0,0.0,0.0,0.0,0.0,0.0,0.0,0.69,
1.35,80.5475611201146,90.70275099316706,-4.15,-0.79,0.61,4.0,0.0,0.0,0.0,0.0,0.0,0.0,0.0,0.0,0.69,
1.374,80.55875611201147,90.68227509931671,-4.4,-0.81,0.31,4.0,0.0,0.0,0.0,0.0,0.0,0.0,0.0,0.0,0.78,
1.397,80.55987561120115,90.77022750993167,-3.81,-1.31,-0.15,4.0,0.0,0.0,0.0,0.0,0.0,0.0,0.0,0.0,0.69,
1.422,80.65898756112013,90.82402275099317,-3.13,-1.81,-0.83,4.0,0.0,0.0,0.0,0.0,0.0,0.0,0.0,0.0,0.78,
1.445,80.785898756112,90.83840227509931,-2.92,-1.41,-0.64,4.0,0.0,0.0,0.0,0.0,0.0,0.0,0.0,0.0,0.78,
1.469,80.8525898756112,90.88484022750993,-3.15,-0.93,-0.42,4.0,0.0,0.0,0.0,0.0,0.0,0.0,0.0,0.0,0.78,
1.494,80.85025898756112,91.150484022751,-3.62,0.26,1.39,4.0,0.0,0.0,0.0,0.0,0.0,0.0,0.0,0.1,0.88,
1.517,80.73302589875611,91.4020484022751,-3.45,0.01,3.27,4.0,0.0,0.0,0.0,0.0,0.0,0.0,0.0,0.0,0.88,
1.541,80.50530258987561,91.40020484022752,-1.38,-1.1,1.29,4.0,0.0,0.0,0.0,0.0,0.0,0.0,0.0,0.0,0.88,
1.565,80.53653025898757,91.64302048402274,-0.49,-0.04,-0.44,4.0,0.0,0.0,0.0,0.0,0.0,0.0,0.0,0.0,0.98,
1.589,80.50365302589876,91.94630204840229,-0.23,-0.11,1.9,4.0,0.0,0.0,0.0,0.0,0.0,0.0,0.0,0.0,0.88,
1.613,80.12236530258988,92.12063020484023,-0.11,-1.64,2.63,4.0,0.0,0.0,0.0,0.0,0.0,0.0,0.0,0.0,0.88,
1.637,79.73323653025899,91.85006302048401,1.82,-3.1,-3.57,4.0,0.0,0.0,0.0,0.0,0.0,0.0,0.0,0.0,0.98,
1.66,79.6043236530259,91.8500063020484,3.27,-3.87,-8.82,4.0,0.0,0.0,0.0,0.0,0.0,0.0,0.0,0.0,1.08,
1.685,79.5194323653026,91.83200063020485,2.51,-3.26,-9.37,4.0,0.0,0.0,0.0,0.0,0.0,0.0,0.0,0.0,0.98,
1.709,79.37594323653026,91.48820006302049,-0.75,-1.43,-12.98,4.0,0.0,0.0,0.0,0.0,0.0,0.0,0.0,0.0,1.08,
1.732,79.24459432365303,91.21982000630204,-4.85,5.76,-18.21,4.0,0.0,0.0,0.0,0.0,0.0,0.0,0.0,0.0,1.08,
1.757,79.44745943236529,90.6979820006302,-7.2,10.95,-25.02,3.0,0.0,0.0,0.0,0.0,0.0,0.0,0.0,0.0,1.28,
1.78,80.07074594323653,90.45679820006303,-8.94,12.93,-23.97,3.0,0.0,0.0,0.0,0.0,0.0,0.0,0.0,0.0,1.37,
1.805,80.98807459432366,90.27067982000631,-8.65,14.37,-18.64,3.0,0.0,0.0,0.0,0.0,0.0,0.0,0.0,0.0,1.18,
1.828,81.56580745943236,90.06306798200063,-8.89,7.43,-11.53,3.0,0.0,0.0,0.0,0.0,0.0,0.0,0.0,0.0,1.18,
1.852,81.83958074594324,89.77230679820005,-11.4,1.1,-7.78,3.0,0.0,0.0,0.0,0.0,0.0,0.0,0.0,0.0,1.18,
1.876,81.96595807459434,89.32023067982001,-11.91,-3.26,-6.79,3.0,0.0,0.0,0.0,0.0,0.0,0.0,0.0,0.0,1.18,
1.9,82.05059580745943,88.98702306798201,-12.51,-3.73,-9.04,3.0,0.0,0.0,0.0,0.0,0.0,0.0,0.0,0.0,0.88,
1.925,82.09505958074594,88.8907023067982,-13.5,0.92,-11.49,3.0,0.0,0.0,0.0,0.0,0.0,0.0,0.0,0.0,0.69,
1.948,82.08150595807459,88.80007023067982,-14.26,3.86,-13.92,3.0,0.0,0.0,0.0,0.0,0.0,0.0,0.0,0.0,0.78,
1.973,82.17915059580746,88.80900702306798,-12.22,3.3,-14.74,3.0,0.0,0.0,0.0,0.0,0.0,0.0,0.0,0.0,0.88,
1.996,82.37791505958076,89.00790070230681,-12.56,3.06,-12.79,3.0,0.0,0.0,0.0,0.0,0.0,0.0,0.0,0.0,0.88,
2.02,82.54179150595807,89.06379007023068,-14.33,4.15,-8.4,3.0,0.0,0.0,0.0,0.0,0.0,0.0,0.0,0.0,0.88,
2.044,82.4951791505958,88.77237900702306,-15.1,2.01,-7.12,3.0,0.0,0.0,0.0,0.0,0.0,0.0,0.0,0.0,0.88,
2.068,82.31051791505959,88.5902379007023,-14.05,0.44,-10.29,3.0,0.0,0.0,0.0,0.0,0.0,0.0,0.0,0.0,0.49,
2.092,82.13005179150596,88.63502379007022,-13.97,1.01,-12.87,3.0,0.0,0.0,0.0,0.0,0.0,0.0,0.0,0.0,0.49,
2.116,82.1840051791506,88.60350237900701,-11.44,-0.72,-14.19,3.0,0.0,0.0,0.0,0.0,0.0,0.0,0.0,0.0,0.69,
2.14,82.24340051791506,88.88835023790071,-9.3,-3.83,-11.69,3.0,0.0,0.0,0.0,0.0,0.0,0.0,0.0,0.0,0.69,
2.164,82.3213400517915,89.07883502379006,-7.59,-5.34,-7.11,3.0,0.0,0.0,0.0,0.0,0.0,0.0,0.0,1.67,0.69,
2.188,82.30213400517914,88.84588350237901,-8.21,-4.89,-6.02,3.0,0.0,0.0,0.0,0.0,0.0,0.0,0.0,3.14,0.59,
2.211,82.30921340051792,88.72358835023789,-5.67,-2.45,-7.2,3.0,0.0,0.0,0.0,0.0,0.0,0.0,0.0,3.24,0.69,
2.236,82.4719213400518,88.5223588350238,-2.27,-2.24,-9.34,3.0,0.0,0.0,0.0,0.0,0.0,0.0,0.0,4.22,0.69,
2.259,82.84819213400517,88.26823588350237,-1.0,-4.33,-8.71,3.0,0.0,0.0,0.0,0.0,0.0,0.0,0.0,3.63,0.59,
2.283,83.1288192134005,87.88282358835025,-2.94,-2.17,-6.02,3.0,0.0,0.0,0.0,0.0,0.0,0.0,0.0,4.12,0.39,
2.308,83.31888192134005,87.26828235883502,-7.25,0.72,-5.23,3.0,0.0,0.0,0.0,0.0,0.0,0.0,0.0,4.71,0.29,
2.331,83.337888192134,86.6668282358835,-10.5,3.04,-5.82,3.0,0.0,0.0,0.0,0.0,0.0,0.0,0.0,4.32,0.88,
2.355,83.1957888192134,85.89568282358834,-12.02,2.4,-9.18,3.0,0.0,0.0,0.0,0.0,0.0,0.0,0.0,6.08,0.78,
2.378,83.23557888192134,85.32356828235885,-12.21,1.53,-14.11,3.0,0.0,0.0,0.0,0.0,0.0,0.0,0.0,10.99,0.59,
2.403,83.42855788819213,85.18535682823588,-12.96,4.44,-15.44,3.0,0.0,0.0,0.0,0.0,0.0,0.0,0.0,20.11,0.0,
2.426,83.88885578881921,85.23453568282358,-14.18,9.06,-15.33,3.0,0.0,0.0,0.0,0.0,0.0,0.0,0.0,19.91,0.88,
2.451,84.51088557888193,85.13145356828235,-24.31,14.51,-13.71,3.0,0.0,0.0,0.0,0.0,0.0,0.0,0.0,20.7,0.88,
2.475,85.4460885578882,86.08414535682823,-21.56,8.32,-7.01,3.0,0.0,0.0,0.0,0.0,0.0,0.0,0.0,21.19,0.2,
2.499,85.73760885578882,87.18741453568283,-15.94,-0.78,2.03,2.0,0.0,0.0,0.0,0.0,0.0,0.0,0.0,17.07,0.88,
2.523,85.27176088557889,86.55074145356829,-27.23,-4.24,13.16,3.0,0.0,0.0,0.0,0.0,0.0,0.0,0.0,1.67,0.0,
2.546,84.1361760885579,85.21807414535684,-27.53,-2.4,-3.85,3.0,0.0,0.0,0.0,0.0,0.0,0.0,0.0,1.67,0.0,
2.571,83.46461760885579,84.56280741453568,-27.44,5.99,-2.45,3.0,0.0,0.0,0.0,0.0,0.0,0.0,0.0,3.34,0.0,
2.594,83.62246176088557,83.91228074145357,-23.98,7.25,-9.33,3.0,0.0,0.0,1.0,0.0,0.0,0.0,0.0,4.81,0.0,
2.619,84.14224617608856,83.41522807414536,-22.07,4.42,0.21,3.0,0.0,0.0,1.0,0.0,0.0,0.0,0.0,5.69,0.0,
2.642,84.92322461760885,82.78052280741453,-19.11,-0.8,2.11,3.0,0.0,0.0,2.0,0.0,0.0,0.0,0.0,5.0,0.0,
2.667,85.28032246176087,82.06005228074146,-14.3,-5.09,3.62,3.0,0.0,0.0,2.0,0.0,0.0,1.0,0.0,3.92,0.0,
2.691,85.07303224617608,81.40300522807415,-9.78,-7.22,3.04,4.0,0.0,0.0,3.0,0.0,0.0,1.0,0.0,3.73,0.0,
2.715,84.5213032246176,80.8333005228074,-6.58,-10.02,-1.82,5.0,0.0,0.0,3.0,0.0,0.0,1.0,0.0,3.04,0.0,
2.739,84.21413032246177,80.63233005228075,-5.69,-6.37,-1.76,5.0,0.0,0.0,4.0,0.0,0.0,1.0,0.0,2.06,0.0,
2.763,84.10241303224619,80.47723300522807,-5.22,-4.4,-1.5,6.0,0.0,0.0,4.0,0.0,0.0,1.0,0.0,2.55,0.0,
2.787,84.04624130322463,80.3177233005228,-4.54,-2.86,1.66,6.0,0.0,0.0,5.0,0.0,0.0,1.0,0.0,2.75,0.0,
2.811,84.06762413032246,80.14877233005228,-2.01,-3.38,-0.75,6.0,0.0,0.0,5.0,0.0,0.0,1.0,0.0,3.14,0.0,
2.835,84.07876241303224,80.14087723300523,-1.67,-3.0,-0.92,7.0,0.0,0.0,5.0,0.0,0.0,1.0,0.0,3.43,0.0,
2.86,84.09787624130323,80.15808772330053,-2.77,-2.68,0.72,7.0,0.0,0.0,5.0,0.0,0.0,1.0,0.0,3.63,0.0,
2.883,84.00078762413031,80.07880877233005,-3.22,-2.63,0.38,8.0,0.0,0.0,6.0,0.0,0.0,1.0,0.0,4.02,0.2,
2.908,84.00007876241304,80.03488087723301,-2.15,-2.37,-0.59,8.0,0.0,0.0,6.0,0.0,0.0,1.0,0.0,3.83,0.1,
2.931,84.05400787624131,80.0934880877233,-2.02,-1.98,0.24,8.0,0.0,0.0,6.0,0.0,0.0,1.0,0.0,3.92,0.0,
2.956,84.05040078762413,80.11734880877233,-1.98,-2.45,1.14,8.0,0.0,0.0,6.0,0.0,0.0,1.0,0.0,4.32,0.0,
2.979,83.9960400787624,80.18273488087723,-2.46,-1.93,1.3,8.0,0.0,0.0,6.0,0.0,0.0,1.0,0.0,4.41,0.0,
3.004,83.99060400787623,80.18927348808774,-2.47,-2.89,0.6,9.0,0.0,0.0,6.0,0.0,0.0,1.0,0.0,4.51,4.12,
3.027,84.02606040078763,80.25292734880878,-2.39,-4.5,0.26,9.0,0.0,0.0,6.0,0.0,0.0,1.0,0.0,4.51,0.0,
3.052,83.90360604007877,80.22329273488089,-2.53,-4.22,0.44,9.0,0.0,0.0,6.0,0.0,0.0,1.0,0.0,4.51,0.0,
3.076,83.87336060400789,80.25632927348809,-2.89,-4.05,0.0,9.0,0.0,0.0,6.0,0.0,0.0,1.0,0.0,4.61,0.0,
3.099,83.81633606040079,80.23263292734882,-3.17,-3.34,0.25,9.0,0.0,0.0,5.0,0.0,0.0,1.0,0.0,4.51,0.0,
3.124,83.78363360604008,80.20326329273489,-3.24,-2.66,0.35,9.0,0.0,0.0,6.0,0.0,0.0,1.0,0.0,4.51,0.0,
3.147,83.64536336060401,80.1913263292735,-3.49,-1.78,0.23,10.0,0.0,0.0,6.0,0.0,0.0,1.0,0.0,4.71,2.35,
3.172,83.5505363360604,80.17213263292736,-3.33,-1.36,-0.31,10.0,0.0,0.0,6.0,0.0,0.0,1.0,0.0,4.81,18.34,
3.196,83.58605363360604,80.17921326329274,-2.8,-1.53,-0.11,10.0,0.0,0.0,6.0,0.0,0.0,1.0,0.0,5.0,0.0,
3.22,83.58960536336062,80.19792132632928,-3.15,-0.98,-0.11,10.0,0.0,0.0,6.0,0.0,0.0,1.0,0.0,5.0,0.0,
3.245,83.54496053633606,80.21779213263294,-3.46,-0.27,0.6,10.0,0.0,0.0,6.0,0.0,0.0,1.0,0.0,5.1,4.61,
3.268,83.5224960536336,80.13877921326329,-3.53,-0.43,0.66,10.0,0.0,0.0,6.0,0.0,0.0,1.0,0.0,5.2,0.0,
3.293,83.53824960536336,80.14887792132633,-3.3,-0.24,1.19,10.0,0.0,0.0,6.0,0.0,0.0,1.0,0.0,5.2,0.0,
3.316,83.55782496053634,80.11388779213263,-2.68,-0.53,1.07,10.0,0.0,0.0,6.0,0.0,0.0,1.0,0.0,5.1,0.0,
3.341,83.56878249605363,80.11038877921327,-2.48,0.02,0.85,10.0,0.0,0.0,6.0,0.0,0.0,1.0,0.0,5.49,0.0,
3.364,83.56987824960535,80.13703887792133,-2.89,0.21,1.82,10.0,0.0,0.0,6.0,0.0,0.0,1.0,0.0,5.79,0.0,
3.389,83.57898782496054,80.14870388779214,-3.15,-0.11,1.76,10.0,0.0,0.0,6.0,0.0,0.0,1.0,0.0,5.89,0.0,
3.414,83.60689878249605,80.14987038877922,-3.2,-0.33,1.69,10.0,0.0,0.0,6.0,0.0,0.0,1.0,0.0,5.98,0.0,
3.437,83.59168987824961,80.13198703887792,-3.3,-0.02,1.65,10.0,0.0,0.0,6.0,0.0,0.0,1.0,0.0,5.98,2.75,
3.462,83.60816898782495,80.1211987038878,-2.91,0.11,1.74,10.0,0.0,0.0,6.0,0.0,0.0,1.0,0.0,6.08,0.0,
3.485,83.57381689878248,80.10211987038878,-2.56,0.14,1.59,10.0,0.0,0.0,6.0,0.0,0.0,1.0,0.0,6.18,0.0,
3.509,83.64238168987826,80.15421198703888,-2.84,-0.11,1.81,10.0,0.0,0.0,6.0,0.0,0.0,1.0,0.0,6.18,0.0,
3.533,83.67623816898784,80.1684211987039,-3.02,-0.12,1.63,10.0,0.0,0.0,6.0,0.0,0.0,1.0,0.0,6.38,0.0,
3.558,83.73362381689878,80.1788421198704,-2.64,-0.15,1.2,10.0,0.0,0.0,6.0,0.0,0.0,1.0,0.0,6.47,0.0,
3.581,83.79336238168987,80.24288421198705,-2.52,-0.3,1.86,10.0,0.0,0.0,6.0,0.0,0.0,1.0,0.0,6.47,0.0,
3.606,83.77233623816899,80.27628842119871,-2.81,0.48,0.58,10.0,0.0,0.0,6.0,0.0,0.0,1.0,0.0,6.47,0.0,
3.63,83.77923362381689,80.31562884211986,-2.7,0.5,1.21,10.0,0.0,0.0,6.0,0.0,0.0,1.0,0.0,6.47,0.0,
3.654,83.8249233623817,80.30156288421198,-2.95,0.21,1.04,10.0,0.0,0.0,6.0,0.0,0.0,1.0,0.0,6.57,0.0,
3.678,83.82949233623818,80.2821562884212,-2.82,0.11,0.59,10.0,0.0,0.0,6.0,0.0,0.0,1.0,0.0,6.57,0.88,
3.701,83.93794923362383,80.28921562884213,-3.02,-0.41,0.71,10.0,0.0,0.0,6.0,0.0,0.0,1.0,0.0,6.57,0.49,
3.726,84.02979492336239,80.33492156288422,-3.37,-1.05,0.24,10.0,0.0,0.0,6.0,0.0,0.0,1.0,0.0,6.67,0.49,
3.75,84.04797949233624,80.37549215628842,-3.48,-1.18,0.73,10.0,0.0,0.0,6.0,0.0,0.0,1.0,0.0,6.57,0.59,
3.774,84.03179794923363,80.37954921562884,-3.68,-1.02,0.49,10.0,0.0,0.0,6.0,0.0,0.0,1.0,0.0,6.67,0.0,
3.799,84.00317979492337,80.36195492156288,-3.44,-0.85,0.27,10.0,0.0,0.0,6.0,0.0,0.0,1.0,0.0,6.67,0.0,
3.822,84.04531797949232,80.37819549215628,-3.34,-0.8,0.62,10.0,0.0,0.0,6.0,0.0,0.0,1.0,0.0,6.77,0.0,
3.847,84.04953179794923,80.37081954921564,-3.11,-0.47,0.55,10.0,0.0,0.0,6.0,0.0,0.0,1.0,0.0,6.77,0.0,
3.87,84.03195317979493,80.28908195492157,-3.16,-0.5,0.24,10.0,0.0,0.0,6.0,0.0,0.0,1.0,0.0,6.77,0.0,
3.895,84.07519531797949,80.27190819549214,-3.0,-0.78,0.34,10.0,0.0,0.0,6.0,0.0,0.0,1.0,0.0,6.77,0.0,
3.918,84.05251953179794,80.30619081954923,-3.15,-0.79,0.24,10.0,0.0,0.0,6.0,0.0,0.0,1.0,0.0,6.77,0.0,
3.943,84.0232519531798,80.31861908195492,-3.36,-1.02,0.37,10.0,0.0,0.0,6.0,0.0,0.0,1.0,0.0,6.87,0.2,
3.968,84.03832519531798,80.2298619081955,-3.35,-1.12,0.02,10.0,0.0,0.0,6.0,0.0,0.0,1.0,0.0,6.87,0.0,
3.991,84.0848325195318,80.25698619081956,-3.1,-0.7,-0.18,10.0,0.0,0.0,6.0,0.0,0.0,1.0,0.0,6.87,0.0,
4.016,84.06248325195318,80.29569861908195,-2.79,-0.68,0.21,10.0,0.0,0.0,6.0,0.0,0.0,1.0,0.0,6.87,0.0,
4.039,84.11424832519533,80.27256986190818,-2.92,-0.82,0.39,10.0,0.0,0.0,6.0,0.0,0.0,1.0,0.0,6.97,0.0,
4.064,84.11942483251954,80.27025698619082,-3.03,-0.95,-0.12,10.0,0.0,0.0,6.0,0.0,0.0,1.0,0.0,7.06,0.0,
4.087,84.11094248325195,80.27002569861908,-2.81,-1.08,0.11,10.0,0.0,0.0,6.0,0.0,0.0,1.0,0.0,7.06,0.2,
4.112,84.1370942483252,80.3510025698619,-2.82,-0.76,-0.21,10.0,0.0,0.0,6.0,0.0,0.0,1.0,0.0,7.06,0.2,
4.136,84.13970942483252,80.4221002569862,-3.05,-0.92,0.08,10.0,0.0,0.0,6.0,0.0,0.0,1.0,0.0,7.16,0.0,
4.16,84.11297094248324,80.36621002569862,-3.21,-0.99,0.01,10.0,0.0,0.0,6.0,0.0,0.0,1.0,0.0,7.16,0.2,
4.185,84.13729709424832,80.38762100256986,-3.27,-0.97,0.13,10.0,0.0,0.0,6.0,0.0,0.0,1.0,0.0,7.16,0.98,
4.208,84.16672970942483,80.40776210025699,-3.1,-1.44,0.07,10.0,0.0,0.0,6.0,0.0,0.0,1.0,0.0,7.06,0.88,
4.233,84.18767297094249,80.4097762100257,-3.15,-1.32,0.43,10.0,0.0,0.0,6.0,0.0,0.0,1.0,0.0,7.16,1.47,
4.256,84.21676729709425,80.38297762100257,-3.17,-1.09,-0.11,10.0,0.0,0.0,6.0,0.0,0.0,1.0,0.0,7.06,1.67,
4.281,84.20167672970942,80.44329776210026,-3.1,-1.26,0.02,10.0,0.0,0.0,6.0,0.0,0.0,1.0,0.0,7.06,0.0,
4.304,84.15516767297095,80.47632977621002,-2.85,-0.8,0.18,10.0,0.0,0.0,6.0,0.0,0.0,1.0,0.0,6.87,0.0,
4.329,84.1775167672971,80.43463297762102,-2.93,-0.5,0.02,10.0,0.0,0.0,6.0,0.0,0.0,1.0,0.0,6.97,0.0,
4.353,84.21575167672971,80.4214632977621,-3.07,-1.19,0.24,10.0,0.0,0.0,6.0,0.0,0.0,1.0,0.0,7.06,0.0,
4.377,84.22857516767297,80.40214632977623,-3.1,-1.2,-0.16,10.0,0.0,0.0,6.0,0.0,0.0,1.0,0.0,6.97,0.0,
4.402,84.2028575167673,80.42721463297764,-2.87,-1.04,0.17,10.0,0.0,0.0,6.0,0.0,0.0,1.0,0.0,6.87,0.2,
4.425,84.26328575167673,80.45672146329777,-2.87,-1.26,0.31,10.0,0.0,0.0,6.0,0.0,0.0,1.0,0.0,6.87,0.49,
4.45,84.25132857516768,80.44167214632978,-3.14,-1.44,0.33,10.0,0.0,0.0,6.0,0.0,0.0,1.0,0.0,6.77,0.2,
4.473,84.21413285751677,80.43116721463299,-3.21,-1.22,0.3,10.0,0.0,0.0,6.0,0.0,0.0,1.0,0.0,6.77,0.0,
4.498,84.14741328575167,80.4391167214633,-2.76,-1.05,0.31,10.0,0.0,0.0,6.0,0.0,0.0,1.0,0.0,6.77,0.29,
4.521,84.26674132857516,80.44891167214632,-2.88,-1.21,0.15,10.0,0.0,0.0,6.0,0.0,0.0,1.0,0.0,6.57,0.0,
4.546,84.29667413285752,80.48589116721463,-2.82,-1.07,0.37,10.0,0.0,0.0,6.0,0.0,0.0,1.0,0.0,6.47,0.0,
4.57,84.29066741328576,80.49858911672146,-2.49,-1.34,0.2,9.0,0.0,0.0,6.0,0.0,0.0,1.0,0.0,6.47,0.39,
4.594,84.30806674132857,80.45485891167215,-2.5,-1.19,0.15,9.0,0.0,0.0,5.0,0.0,0.0,1.0,0.0,6.28,0.88,
4.618,84.28280667413286,80.48648589116722,-2.73,-1.07,0.79,9.0,0.0,0.0,5.0,0.0,0.0,1.0,0.0,6.38,0.78,
4.642,84.2712806674133,80.50764858911673,-2.53,-0.42,0.98,9.0,0.0,0.0,5.0,0.0,0.0,1.0,0.0,6.18,0.39,
4.666,84.28812806674134,80.54576485891168,-2.44,-0.47,0.61,9.0,0.0,0.0,5.0,0.0,0.0,1.0,0.0,6.08,0.78,
4.69,84.32581280667414,80.54057648589117,-2.79,-0.44,0.95,9.0,0.0,0.0,5.0,0.0,0.0,1.0,0.0,5.98,0.98,
4.714,84.36558128066741,80.52205764858911,-3.14,-0.7,0.98,9.0,0.0,0.0,5.0,0.0,0.0,1.0,0.0,5.98,0.49,
4.739,84.34255812806674,80.52020576485891,-3.11,-0.66,0.55,9.0,0.0,0.0,5.0,0.0,0.0,1.0,0.0,5.98,0.39,
4.762,84.34025581280667,80.54702057648589,-3.16,-0.77,1.19,9.0,0.0,0.0,5.0,0.0,0.0,1.0,0.0,5.89,0.1,
4.787,84.36702558128067,80.55870205764859,-3.4,-0.12,1.34,9.0,0.0,0.0,5.0,0.0,0.0,1.0,0.0,5.79,0.2,
4.81,84.35170255812805,80.55087020576487,-2.97,-0.48,1.54,9.0,0.0,0.0,5.0,0.0,0.0,1.0,0.0,5.89,0.59,
4.835,84.42217025581282,80.55008702057648,-2.98,-0.43,1.09,9.0,0.0,0.0,5.0,0.0,0.0,1.0,0.0,5.89,0.1,
4.858,84.41121702558128,80.55900870205765,-3.51,-0.56,1.8,9.0,0.0,0.0,5.0,0.0,0.0,1.0,0.0,6.08,0.1,
4.882,84.41012170255811,80.55990087020577,-3.36,0.21,2.14,9.0,0.0,0.0,5.0,0.0,0.0,1.0,0.0,5.98,0.29,
4.907,84.47301217025583,80.58699008702058,-3.19,0.0,1.28,9.0,0.0,0.0,5.0,0.0,0.0,1.0,0.0,6.08,0.0,
4.93,84.47030121702558,80.58969900870207,-4.09,0.15,1.9,9.0,0.0,0.0,5.0,0.0,0.0,1.0,0.0,6.28,0.0,
4.955,84.42503012170256,80.56296990087021,-4.6,0.21,0.72,9.0,0.0,0.0,4.0,0.0,0.0,1.0,0.0,6.77,0.0,
4.978,84.53750301217025,80.54229699008702,-4.69,-0.21,0.71,9.0,0.0,0.0,5.0,0.0,0.0,1.0,0.0,7.46,0.0,
5.002,84.62075030121703,80.4232296990087,-4.83,-2.69,0.99,9.0,0.0,0.0,5.0,0.0,1.0,1.0,0.0,7.95,0.0,
5.026,84.6380750301217,80.40232296990088,-4.58,-1.15,0.05,9.0,0.0,0.0,5.0,0.0,1.0,1.0,0.0,8.63,0.0,
5.05,84.70280750301215,80.45423229699009,-4.24,-0.39,0.62,10.0,0.0,0.0,5.0,0.0,1.0,1.0,0.0,9.22,0.0,
5.074,84.56528075030121,80.29742322969902,-3.97,-0.64,0.65,10.0,0.0,0.0,5.0,0.0,1.0,1.0,0.0,10.3,0.29,
5.098,84.65952807503012,80.24574232296989,-6.02,-0.66,0.65,11.0,0.0,0.0,5.0,0.0,1.0,2.0,0.0,11.18,1.96,
5.123,84.63295280750302,79.95257423229698,-6.13,-5.05,-1.57,12.0,0.0,0.0,5.0,0.0,1.0,2.0,0.0,12.56,3.24,
5.147,84.6392952807503,80.1032574232297,-4.63,-7.33,-3.25,0.0,0.0,0.0,5.0,0.0,1.0,2.0,0.0,13.54,3.63,
5.171,84.65792952807503,80.25332574232297,-5.69,-11.2,-3.89,2.0,0.0,0.0,6.0,0.0,1.0,2.0,0.0,14.52,4.51,
5.195,84.5877929528075,79.94433257423229,-6.45,-12.11,-2.95,4.0,0.0,0.0,6.0,0.0,2.0,2.0,0.0,15.01,10.1,
5.22,84.53577929528075,79.67043325742323,-7.36,-9.76,-0.6,5.0,0.0,0.0,6.0,0.0,2.0,2.0,0.0,15.01,9.91,
5.243,84.24257792952807,79.54404332574232,-6.45,-10.26,-1.01,6.0,0.0,0.0,6.0,0.0,2.0,2.0,0.0,14.32,0.0,
5.268,84.1772577929528,79.43240433257424,-7.24,-9.67,-0.9,8.0,0.0,0.0,6.0,0.0,2.0,2.0,0.0,14.42,0.0,
5.293,84.08972577929528,79.39424043325744,-7.16,-5.88,-0.41,10.0,0.0,0.0,6.0,0.0,2.0,2.0,0.0,14.81,2.06,
5.316,83.89197257792954,79.39042404332575,-6.79,-4.08,1.05,11.0,0.0,0.0,6.0,0.0,2.0,2.0,0.0,15.6,1.47,
5.341,83.86319725779296,79.50704240433257,-6.97,-3.5,1.47,12.0,0.0,0.0,6.0,0.0,2.0,3.0,0.0,16.78,8.14,
5.365,83.7703197257793,79.40170424043326,-6.31,-4.66,1.49,14.0,0.0,0.0,6.0,0.0,2.0,3.0,0.0,18.05,1.18,
5.389,83.73403197257792,79.31917042404334,-4.73,-6.53,0.05,16.0,0.0,0.0,7.0,0.0,2.0,3.0,0.0,19.13,6.87,
5.413,83.61340319725778,79.24791704240434,-4.48,-7.59,-0.95,18.0,0.0,0.0,7.0,0.0,3.0,3.0,0.0,19.91,3.24,
5.438,83.43934031972577,79.17779170424043,-4.27,-8.78,-1.8,18.0,0.0,0.0,7.0,0.0,3.0,3.0,0.0,20.01,0.0,
5.462,83.16993403197259,79.04477917042405,-2.47,-10.56,-2.73,20.0,0.0,0.0,7.0,0.0,3.0,3.0,0.0,19.13,0.0,
5.486,82.78299340319725,79.00447791704241,-1.27,-10.91,-1.65,22.0,0.0,0.0,7.0,0.0,3.0,3.0,0.0,17.07,0.0,
5.511,82.56429934031972,79.07244779170423,-1.45,-9.66,-1.47,20.0,0.0,0.0,7.0,0.0,3.0,2.0,0.0,15.21,3.14,
5.535,82.39842993403197,79.14224477917044,-1.48,-10.11,0.51,19.0,0.0,0.0,7.0,0.0,2.0,2.0,0.0,13.44,2.84,
5.559,82.2378429934032,79.15822447791705,-1.04,-9.42,2.23,17.0,0.0,0.0,7.0,0.0,2.0,2.0,0.0,11.58,1.08,
5.583,81.78978429934033,79.2228224477917,-0.4,-7.53,3.22,16.0,0.0,0.0,6.0,0.0,2.0,1.0,0.0,9.81,0.98,
5.608,81.63697842993405,79.33728224477916,-0.85,-3.03,2.96,14.0,0.0,0.0,6.0,0.0,2.0,1.0,0.0,7.95,4.91,
5.632,81.4416978429934,79.51972822447793,-6.85,3.0,2.9,14.0,0.0,0.0,6.0,0.0,2.0,1.0,0.0,6.67,9.22,
5.656,81.48516978429933,79.47497282244778,-11.48,4.93,5.23,14.0,0.0,0.0,6.0,0.0,2.0,1.0,0.0,6.18,2.45,
5.68,81.48951697842992,79.30849728224479,-11.76,5.08,5.4,14.0,0.0,0.0,7.0,0.0,2.0,1.0,0.0,5.59,0.0,
5.704,81.534951697843,79.14784972822447,-10.63,4.68,6.19,13.0,0.0,0.0,7.0,0.0,3.0,2.0,0.0,5.49,0.0,
5.728,81.4584951697843,79.21278497282245,-6.61,11.31,10.89,14.0,0.0,0.0,7.0,0.0,3.0,2.0,0.0,6.08,0.39,
5.752,81.66684951697843,78.99427849728225,-6.8,12.11,3.26,15.0,0.0,0.0,8.0,0.0,3.0,2.0,0.0,7.06,1.86,
5.776,81.97568495169786,79.04442784972822,-8.77,14.88,7.66,16.0,0.0,0.0,8.0,0.0,4.0,3.0,0.0,8.73,0.0,
5.8,82.2585684951698,78.79744278497282,-9.69,12.95,7.76,17.0,0.0,0.0,8.0,0.0,4.0,3.0,0.0,10.79,0.0,
5.825,82.72785684951698,79.10574427849728,-7.69,13.56,9.21,17.0,0.0,0.0,8.0,0.0,5.0,4.0,0.0,13.24,0.0,
5.849,83.03578568495169,79.34357442784973,-4.67,9.71,10.12,18.0,0.0,0.0,9.0,0.0,5.0,4.0,0.0,16.38,0.0,
5.873,83.26457856849518,79.25035744278497,-5.06,5.44,10.89,19.0,0.0,0.0,9.0,0.0,5.0,4.0,0.0,43.65,0.0,
5.897,83.31445785684951,79.20503574427849,-7.19,0.71,10.68,19.0,0.0,0.0,9.0,0.0,6.0,5.0,0.0,51.4,0.0,
5.921,83.27444578568495,78.76850357442785,-7.31,0.89,5.66,20.0,0.0,0.0,9.0,0.0,6.0,5.0,0.0,52.09,0.0,
5.946,83.4324445785685,78.57185035744277,-7.37,1.96,2.92,23.0,0.0,0.0,9.0,0.0,6.0,5.0,0.1,53.27,0.0,
5.969,83.53824445785685,78.26418503574429,-6.59,-0.67,0.47,22.0,0.0,0.0,10.0,0.0,7.0,6.0,0.49,57.49,1.57,
5.994,83.4768244457857,78.21541850357443,-6.35,-2.19,0.12,24.0,0.0,0.0,10.0,0.0,7.0,6.0,0.88,58.27,0.0,
6.019,83.43468244457857,78.08454185035743,-5.79,-0.41,-1.58,25.0,0.0,0.0,10.0,0.0,7.0,6.0,1.57,58.96,0.0,
6.043,83.47546824445786,78.03545418503575,-4.15,0.07,-2.63,26.0,0.0,0.0,10.0,0.0,7.0,6.0,1.86,61.41,0.0,
6.068,83.58754682444578,77.96754541850358,-2.27,-0.01,-1.98,27.0,0.0,0.0,10.0,0.0,7.0,6.0,2.26,62.39,0.0,
6.092,83.56275468244459,77.96975454185036,-2.56,-0.47,-1.44,28.0,0.0,0.0,10.0,0.0,7.0,6.0,2.45,62.78,0.0,
6.117,83.49727546824445,77.93397545418505,-1.15,2.39,-2.46,30.0,0.0,0.0,10.0,0.0,7.0,6.0,2.65,66.22,1.57,
6.14,83.56272754682443,77.9483975454185,-0.26,2.75,-0.8,31.0,0.0,0.0,10.0,0.0,7.0,6.0,2.65,67.59,6.57,
6.165,83.75827275468244,78.01283975454186,-0.37,2.61,0.19,30.0,0.0,0.0,10.0,0.0,7.0,6.0,2.94,69.36,1.37,
6.19,83.80482727546824,78.14528397545418,-2.26,1.89,0.92,31.0,0.0,0.0,11.0,0.0,7.0,6.0,2.84,69.45,0.0,
6.214,83.84548272754682,78.14052839754542,-3.21,1.63,0.66,32.0,0.0,0.0,-33.0,0.0,7.0,6.0,3.14,72.99,2.65,
6.239,84.0385482727547,78.15805283975453,-3.86,0.31,0.37,31.0,0.0,0.0,-33.0,0.0,7.0,6.0,3.43,79.95,0.0,
6.262,84.21085482727547,78.23180528397545,-4.43,-0.17,0.5,31.0,0.0,0.0,-33.0,0.0,7.0,6.0,3.63,84.37,0.0,
6.287,84.12008548272755,78.20318052839755,-4.64,0.33,1.71,32.0,0.0,0.0,-33.0,0.0,7.0,6.0,3.92,88.29,0.2,
6.311,84.12900854827275,78.09231805283976,-4.89,0.18,0.56,34.0,0.0,0.0,-33.0,0.0,7.0,6.0,4.51,92.51,0.0,
6.336,84.04890085482728,78.07223180528396,-3.97,-0.12,0.13,35.0,0.0,0.0,-33.0,0.0,7.0,6.0,5.0,96.73,0.0,
6.361,84.09489008548272,77.9532231805284,-3.03,1.29,-0.92,34.0,0.0,0.0,-33.0,0.0,7.0,6.0,5.3,99.38,0.0,
6.385,84.13548900854826,77.94132231805284,-2.56,0.69,-0.3,37.0,0.0,0.0,-33.0,0.0,7.0,6.0,5.59,99.47,1.08,
6.41,84.17554890085484,77.96713223180528,-3.71,0.81,-0.39,35.0,0.0,0.0,-33.0,0.0,7.0,6.0,5.98,98.49,0.0,
6.434,84.16155489008548,77.82571322318054,-2.99,1.24,-1.4,32.0,0.0,0.0,-33.0,0.0,7.0,6.0,6.47,86.62,0.0,
6.459,84.22315548900855,77.82057132231805,-0.26,3.54,-2.69,37.0,0.0,0.0,-33.0,0.0,7.0,6.0,6.77,83.29,0.0,
6.483,84.37331554890086,77.9460571322318,0.5,4.34,-2.79,37.0,0.0,0.0,-33.0,0.0,7.0,6.0,6.77,71.81,0.0,
6.507,84.53233155489008,77.98560571322318,1.4,4.48,-2.15,37.0,0.0,0.0,-33.0,0.0,6.0,6.0,6.87,72.01,0.0,
6.532,84.584233155489,77.99856057132232,2.63,4.56,-3.27,39.0,0.0,0.0,-33.0,0.0,6.0,5.0,6.77,88.98,0.0,
6.556,84.6794233155489,78.08085605713224,3.54,4.59,-5.35,39.0,0.0,0.0,-33.0,0.0,6.0,5.0,6.57,92.61,0.0,
6.581,85.0039423315549,78.20608560571321,5.62,1.8,-4.34,39.0,0.0,0.0,-33.0,0.0,5.0,4.0,5.89,97.12,0.0,
6.605,85.07239423315549,78.47060856057132,1.43,0.82,-1.6,40.0,0.0,0.0,-33.0,0.0,5.0,4.0,5.1,96.73,0.2,
6.63,85.08823942331556,78.60506085605714,-0.95,1.95,-0.62,40.0,0.0,0.0,-33.0,0.0,5.0,4.0,4.71,95.75,0.39,
6.654,85.24282394233157,78.6005060856057,-2.01,0.89,-0.98,40.0,0.0,0.0,-33.0,0.0,5.0,4.0,4.61,102.02,0.0,
6.679,85.37528239423315,78.66305060856057,-3.31,-0.47,-0.6,42.0,0.0,0.0,-33.0,0.0,5.0,4.0,4.61,105.07,0.0,
6.704,85.42452823942332,78.71430506085605,-3.89,-0.89,-0.52,42.0,0.0,0.0,-33.0,0.0,5.0,4.0,5.0,103.4,0.0,
6.728,85.46545282394233,78.7644305060856,-3.79,-1.32,-0.29,42.0,0.0,0.0,-33.0,0.0,5.0,4.0,5.1,98.79,0.0,
6.753,85.50554528239424,78.85944305060856,-3.76,-1.18,-0.4,44.0,0.0,0.0,-33.0,0.0,5.0,4.0,5.3,103.5,0.2,
6.777,85.48255452823942,78.85994430506086,-4.44,-0.08,-0.56,44.0,0.0,0.0,-33.0,0.0,5.0,4.0,5.49,107.32,0.1,
6.802,85.59725545282394,78.82399443050609,-3.51,-0.16,0.08,44.0,0.0,0.0,-33.0,0.0,5.0,4.0,5.79,95.45,0.0,
6.827,85.6357255452824,78.8203994430506,-3.11,0.11,0.06,44.0,0.0,0.0,-33.0,0.0,5.0,4.0,6.08,106.44,0.0,
6.851,85.71157255452823,78.78403994430506,-2.74,-0.5,0.32,44.0,0.0,0.0,-33.0,0.0,5.0,4.0,6.38,109.77,0.0,
6.876,85.73715725545281,78.7894039944305,-3.11,-1.37,0.82,44.0,0.0,0.0,-33.0,0.0,5.0,4.0,6.38,109.48,0.0,
6.9,85.7307157255453,78.78994039944305,-2.61,-1.48,0.69,44.0,0.0,0.0,-33.0,0.0,5.0,4.0,6.38,109.77,0.0,
6.925,85.74807157255452,78.7719940399443,-2.77,-1.34,0.38,44.0,0.0,0.0,-33.0,0.0,5.0,4.0,6.18,109.09,0.0,
6.949,85.74980715725545,78.81519940399443,-2.76,-1.59,0.43,44.0,0.0,0.0,-33.0,0.0,5.0,4.0,6.08,108.4,0.49,
6.974,85.76798071572554,78.82851994039945,-2.58,-2.03,0.82,42.0,0.0,0.0,-33.0,0.0,5.0,4.0,5.89,108.89,1.77,
6.999,85.80579807157255,78.83885199403994,-2.93,-2.24,1.02,42.0,0.0,0.0,-33.0,0.0,5.0,4.0,5.79,108.01,0.0,
7.023,85.77357980715725,78.830885199404,-3.17,-2.34,0.7,42.0,0.0,0.0,-33.0,0.0,5.0,4.0,5.59,108.2,0.29,
7.048,85.77035798071572,78.8570885199404,-3.28,-2.37,0.6,42.0,0.0,0.0,-33.0,0.0,5.0,4.0,5.4,108.01,0.0,
7.072,85.72503579807156,78.87770885199404,-4.19,-3.06,0.6,42.0,0.0,0.0,-33.0,0.0,5.0,4.0,5.2,105.95,0.49,
7.097,85.70250357980717,78.8437708851994,-4.72,-3.3,0.63,40.0,0.0,0.0,-33.0,0.0,5.0,4.0,5.1,106.05,0.0,
7.121,85.67325035798072,78.83137708851994,-4.06,-3.85,0.66,42.0,0.0,0.0,-33.0,0.0,5.0,4.0,5.1,105.75,0.0,
7.146,85.61632503579807,78.839137708852,-3.63,-3.37,0.89,44.0,0.0,0.0,3300.0,0.0,5.0,4.0,4.91,104.08,0.0,
7.171,85.5386325035798,78.7949137708852,-3.08,-2.64,0.92,40.0,0.0,0.0,-33.0,0.0,5.0,4.0,4.91,103.0,0.39,
7.195,85.47686325035798,78.76349137708851,-2.96,-2.44,0.88,40.0,0.0,0.0,-33.0,0.0,5.0,4.0,4.81,102.91,0.1,
7.22,85.40768632503581,78.74234913770886,-2.85,-2.57,0.74,40.0,0.0,0.0,-33.0,0.0,5.0,4.0,4.61,103.3,0.0,
7.244,85.36476863250358,78.74023491377088,-3.06,-1.85,0.72,40.0,0.0,0.0,-33.0,0.0,5.0,4.0,4.51,102.12,0.2,
7.269,85.35147686325035,78.74902349137709,-2.79,-1.77,0.31,40.0,0.0,0.0,-33.0,0.0,4.0,4.0,4.41,101.83,0.39,
7.293,85.32314768632503,78.78590234913771,-2.75,-1.86,0.58,40.0,0.0,0.0,-33.0,0.0,4.0,4.0,4.22,101.24,0.88,
7.318,85.3293147686325,78.81659023491378,-3.17,-1.98,0.65,39.0,0.0,0.0,-33.0,0.0,4.0,4.0,4.12,100.26,0.39,
7.343,85.34793147686325,78.81965902349138,-3.01,-2.14,0.41,40.0,0.0,0.0,-33.0,0.0,4.0,4.0,4.12,98.79,0.29,
7.367,85.33179314768633,78.85596590234914,-3.28,-2.6,0.4,39.0,0.0,0.0,-33.0,0.0,4.0,4.0,3.92,98.2,0.2,
7.392,85.30317931476863,78.85059659023491,-3.71,-1.97,0.18,39.0,0.0,0.0,-33.0,0.0,4.0,4.0,3.83,97.81,0.0,
7.416,85.32731793147686,78.8410596590235,-3.03,-2.27,0.01,39.0,0.0,0.0,-33.0,0.0,4.0,4.0,3.83,98.0,0.0,
7.441,85.30273179314769,78.85810596590235,-3.4,-2.48,0.34,39.0,0.0,0.0,-33.0,0.0,4.0,4.0,3.83,97.32,0.0,
7.464,85.28227317931477,78.82381059659023,-3.76,-2.18,0.1,39.0,0.0,0.0,-33.0,0.0,4.0,4.0,3.73,96.73,0.59,
7.489,85.25322731793149,78.80238105965903,-3.15,-2.15,0.28,39.0,0.0,0.0,-33.0,0.0,4.0,4.0,3.63,95.26,0.0,
7.514,85.16932273179316,78.8272381059659,-3.27,-2.5,0.3,39.0,0.0,0.0,-33.0,0.0,4.0,4.0,3.53,94.08,0.1,
7.538,85.24193227317932,78.85672381059659,-3.24,-2.1,0.31,39.0,0.0,0.0,-33.0,0.0,4.0,4.0,3.43,94.57,0.0,
7.563,85.24019322731792,78.93167238105967,-2.79,-1.98,0.38,39.0,0.0,0.0,-33.0,0.0,4.0,4.0,3.34,94.37,0.0,
7.587,85.2220193227318,78.91216723810597,-2.78,-2.17,0.25,39.0,0.0,0.0,-33.0,0.0,4.0,4.0,3.24,93.88,0.69,
7.612,85.17520193227318,78.8832167238106,-2.42,-1.85,-0.02,37.0,0.0,0.0,-33.0,0.0,4.0,3.0,3.14,92.8,1.28,
7.636,85.14352019322732,78.92532167238106,-2.37,-1.37,-0.24,37.0,0.0,0.0,-33.0,0.0,4.0,3.0,2.94,95.35,0.0,
7.661,85.12235201932273,78.93853216723811,-2.64,-1.5,-0.18,37.0,0.0,0.0,-33.0,0.0,4.0,3.0,2.75,94.27,0.29,
7.686,85.06623520193227,78.93985321672382,-2.22,-1.4,-0.4,37.0,0.0,0.0,-33.0,0.0,4.0,3.0,2.65,93.69,1.18,
7.71,85.12362352019323,79.02098532167238,-2.3,-1.74,-0.22,37.0,0.0,0.0,-33.0,0.0,4.0,3.0,2.45,92.9,0.59,
7.735,85.15636235201933,79.03809853216725,-2.85,-1.24,-0.52,35.0,0.0,0.0,-33.0,0.0,4.0,3.0,2.35,93.1,0.2,
7.759,85.15063623520194,79.00380985321674,-3.27,-0.82,-0.5,37.0,0.0,0.0,-33.0,0.0,4.0,3.0,2.16,91.23,0.0,
7.784,85.1410636235202,79.00938098532168,-2.66,-0.95,-0.5,35.0,0.0,0.0,-33.0,0.0,4.0,3.0,2.16,92.31,0.0,
7.809,85.20310636235202,79.01893809853216,-2.4,-1.12,-0.27,35.0,0.0,0.0,-33.0,0.0,4.0,3.0,2.06,91.04,0.29,
7.833,85.2003106362352,79.03789380985323,-2.56,-1.63,-0.49,37.0,0.0,0.0,-33.0,0.0,4.0,3.0,2.06,90.94,0.59,
7.858,85.13703106362352,79.01278938098532,-2.17,-0.47,-0.64,35.0,0.0,0.0,-33.0,0.0,4.0,3.0,1.96,90.35,0.49,
7.882,85.12170310636236,79.03727893809854,-2.37,-0.03,-0.86,35.0,0.0,0.0,-33.0,0.0,4.0,3.0,1.96,90.06,0.29,
7.907,85.12917031063624,78.98572789380987,-1.47,-0.2,-0.99,37.0,0.0,0.0,-33.0,0.0,4.0,3.0,1.96,89.76,0.1,
7.931,85.14791703106363,78.98957278938099,-1.21,-0.84,-0.91,37.0,0.0,0.0,-33.0,0.0,4.0,3.0,1.86,90.15,0.29,
7.956,85.15879170310637,78.99895727893811,-1.83,0.09,-0.82,35.0,0.0,0.0,-33.0,0.0,4.0,3.0,1.67,90.45,0.69,
7.981,85.23187917031063,78.99989572789381,-1.65,-0.15,-0.81,37.0,0.0,0.0,-33.0,0.0,4.0,3.0,1.57,90.84,0.0,
8.005,85.20318791703107,79.02698957278939,-2.24,-0.6,-0.64,37.0,0.0,0.0,-33.0,0.0,4.0,3.0,1.57,93.29,0.0,
8.03,85.22731879170311,78.99369895727894,-2.49,-0.37,-0.93,39.0,0.0,0.0,-33.0,0.0,4.0,3.0,1.57,93.98,0.1,
8.054,85.24773187917032,78.9813698957279,-2.42,-0.85,-0.62,37.0,0.0,0.0,-33.0,0.0,4.0,3.0,1.57,94.27,0.0,
8.079,85.24977318791704,79.06113698957279,-2.56,-1.46,-0.75,37.0,0.0,0.0,-33.0,0.0,4.0,3.0,1.77,94.27,0.0,
8.103,85.2319773187917,79.07811369895728,-2.73,-1.23,-0.38,35.0,0.0,0.0,-33.0,0.0,4.0,3.0,1.67,93.98,0.0,
8.128,85.23019773187917,79.09781136989572,-2.87,-0.89,0.08,37.0,0.0,0.0,-33.0,0.0,4.0,3.0,1.67,94.08,0.0,
8.153,85.23001977318792,79.09978113698956,-2.86,-1.18,0.08,37.0,0.0,0.0,-33.0,0.0,4.0,3.0,1.96,93.0,0.29,
8.177,85.22100197731879,79.10897811369895,-3.01,-1.76,-0.02,37.0,0.0,0.0,-33.0,0.0,4.0,3.0,1.86,93.59,0.39,
8.202,85.19310019773188,79.17289781136991,-2.73,-2.02,0.13,37.0,0.0,0.0,-33.0,0.0,4.0,3.0,1.86,93.39,0.39,
8.226,85.17231001977319,79.179289781137,-2.7,-1.38,-0.27,37.0,0.0,0.0,-33.0,0.0,4.0,3.0,1.77,92.9,0.1,
8.251,85.25123100197733,79.2339289781137,-2.38,-1.34,-0.05,37.0,0.0,0.0,-33.0,0.0,4.0,3.0,1.77,92.9,0.29,
8.275,85.21412310019772,79.26639289781137,-2.66,-1.4,0.04,37.0,0.0,0.0,-33.0,0.0,4.0,3.0,1.67,93.0,0.0,
8.3,85.21041231001976,79.25163928978114,-2.39,-1.93,-0.2,39.0,0.0,0.0,-33.0,0.0,4.0,3.0,1.47,94.86,0.0,
8.325,85.22804123100198,79.20516392897811,-2.22,-3.09,0.46,37.0,0.0,0.0,-33.0,0.0,4.0,3.0,1.37,94.27,0.29,
8.349,85.1488041231002,79.10151639289782,-1.99,-1.09,-0.53,37.0,0.0,0.0,-33.0,0.0,4.0,3.0,1.18,92.9,0.69,
8.374,85.09588041231002,78.91115163928978,-2.23,-1.95,1.6,39.0,0.0,0.0,-33.0,0.0,3.0,3.0,1.08,91.72,0.98,
8.398,85.108588041231,78.95511516392897,-1.59,-1.68,-0.17,40.0,0.0,0.0,-33.0,0.0,3.0,3.0,0.98,92.7,1.08,
8.423,85.12785880412311,79.04951151639291,-1.09,-1.77,-0.21,35.0,0.0,0.0,-33.0,0.0,3.0,3.0,0.78,93.19,0.59,
8.448,85.05778588041231,79.1489511516393,-1.4,-1.05,-0.27,35.0,0.0,0.0,-33.0,0.0,3.0,3.0,0.49,93.29,0.59,
8.471,85.06877858804123,79.23989511516393,-1.14,-1.33,-0.22,35.0,0.0,0.0,-33.0,0.0,3.0,3.0,0.29,93.39,0.98,
8.496,85.15087785880412,79.3569895115164,-1.15,-0.89,0.4,35.0,0.0,0.0,-33.0,0.0,3.0,3.0,0.1,93.49,1.47,
8.52,85.15908778588042,79.46769895115165,-2.07,-0.73,0.38,35.0,0.0,0.0,-33.0,0.0,3.0,2.0,0.0,93.59,1.37,
8.545,85.20490877858803,79.46976989511516,-2.41,-1.03,-0.03,35.0,0.0,0.0,-33.0,0.0,3.0,2.0,0.0,93.69,1.08,
8.569,85.22749087785881,79.51497698951151,-2.53,-1.27,-0.13,35.0,0.0,0.0,-33.0,0.0,3.0,2.0,0.0,93.88,0.49,
8.594,85.19374908778589,79.52849769895114,-2.69,-1.2,-0.31,35.0,0.0,0.0,-33.0,0.0,3.0,3.0,0.0,94.76,0.2,
8.619,85.2173749087786,79.56584976989511,-2.66,-1.53,-0.06,35.0,0.0,0.0,-33.0,0.0,3.0,2.0,0.0,94.76,0.0,
8.642,85.22873749087786,79.5785849769895,-2.78,-1.5,-0.18,35.0,0.0,0.0,-33.0,0.0,3.0,3.0,0.0,94.37,0.0,
8.667,85.22987374908779,79.58885849769895,-2.9,-1.53,-0.05,34.0,0.0,0.0,-33.0,0.0,3.0,3.0,0.0,93.59,0.0,
8.691,85.21198737490877,79.6258858497699,-2.84,-1.23,0.16,35.0,0.0,0.0,-33.0,0.0,3.0,3.0,0.0,91.92,0.29,
8.716,85.17419873749088,79.62958858497699,-3.24,-1.76,0.03,34.0,0.0,0.0,-33.0,0.0,3.0,3.0,0.0,92.51,0.39,
8.74,85.1704198737491,79.6479588584977,-3.45,-1.73,0.24,35.0,0.0,0.0,-33.0,0.0,3.0,3.0,0.0,92.31,0.2,
8.765,85.2330419873749,79.61379588584977,-3.27,-1.85,0.02,35.0,0.0,0.0,-33.0,0.0,3.0,3.0,0.0,92.12,0.0,
8.788,85.2303041987375,79.68237958858498,-3.36,-1.44,0.39,35.0,0.0,0.0,-33.0,0.0,3.0,3.0,0.0,91.33,0.1,
8.813,85.16703041987375,79.6802379588585,-3.63,-1.35,0.35,35.0,0.0,0.0,-33.0,0.0,3.0,3.0,0.0,91.04,0.49,
8.838,85.18770304198738,79.70702379588585,-3.4,-1.63,0.34,35.0,0.0,0.0,-33.0,0.0,3.0,3.0,0.0,89.76,0.69,
8.862,85.22577030419875,79.68270237958859,-3.24,-1.68,0.26,35.0,0.0,0.0,-33.0,0.0,3.0,3.0,0.0,90.06,0.69,
8.887,85.15757703041987,79.70727023795885,-3.8,-1.64,0.14,34.0,0.0,0.0,-33.0,0.0,3.0,3.0,0.0,89.57,0.29,
8.91,85.16875770304199,79.69172702379589,-3.48,-1.15,-0.24,35.0,0.0,0.0,-33.0,0.0,3.0,3.0,0.1,89.57,0.2,
8.935,85.1878757703042,79.7171727023796,-3.11,-1.97,-0.38,34.0,0.0,0.0,-33.0,0.0,3.0,3.0,0.0,90.06,0.0,
8.96,85.18978757703043,79.69271727023796,-3.37,-2.01,-0.66,35.0,0.0,0.0,-33.0,0.0,3.0,3.0,0.1,89.57,0.0,
8.984,85.18097875770304,79.6452717270238,-3.47,-2.01,-0.83,35.0,0.0,0.0,-33.0,0.0,3.0,3.0,0.0,87.51,0.0,
9.009,85.2070978757703,79.64052717270238,-2.69,-2.37,-1.08,35.0,0.0,0.0,-33.0,0.0,3.0,3.0,0.0,87.01,0.0,
9.033,85.17370978757704,79.64005271727024,-2.81,-2.55,-1.11,35.0,0.0,0.0,-33.0,0.0,3.0,3.0,0.0,86.82,0.39,
9.058,85.1253709787577,79.64900527172702,-3.32,-2.56,-0.95,35.0,0.0,0.0,-33.0,0.0,3.0,3.0,0.0,86.23,0.29,
9.082,85.07553709787577,79.6139005271727,-2.88,-2.34,-0.92,35.0,0.0,0.0,-33.0,0.0,3.0,3.0,0.0,85.94,0.0,
9.107,85.02555370978757,79.65539005271727,-2.67,-2.43,-0.96,35.0,0.0,0.0,-33.0,0.0,3.0,3.0,0.0,86.13,0.0,
9.131,85.03855537097876,79.61453900527172,-2.24,-2.41,-1.02,35.0,0.0,0.0,-33.0,0.0,3.0,3.0,0.0,85.54,0.49,
9.155,85.03985553709788,79.65545390052718,-1.66,-2.2,-0.44,34.0,0.0,0.0,-33.0,0.0,3.0,3.0,0.0,85.25,0.88,
9.18,85.00398555370978,79.64154539005271,-2.08,-2.05,-0.66,34.0,0.0,0.0,-33.0,0.0,3.0,3.0,0.0,84.76,1.96,
9.204,84.94639855537098,79.62215453900527,-0.72,-2.22,-0.79,34.0,0.0,0.0,44.0,0.0,3.0,3.0,0.0,84.27,1.77,
9.229,84.9766398555371,79.71921545390053,-0.05,-2.05,-0.05,34.0,0.0,0.0,34.0,0.0,3.0,2.0,0.0,84.66,0.0,
9.253,85.02466398555372,79.88192154539006,-0.86,-2.31,0.47,34.0,0.0,0.0,23.0,0.0,3.0,2.0,0.0,85.64,1.86,
9.277,85.02946639855537,79.853192154539,-2.07,0.02,-0.53,34.0,0.0,0.0,17.0,0.0,3.0,2.0,0.0,86.72,0.78,
9.302,84.97594663985554,79.8593192154539,-1.12,0.01,-0.29,34.0,0.0,0.0,9.0,0.0,3.0,3.0,0.0,87.8,0.0,
9.326,85.01559466398555,79.91393192154538,-1.58,-0.15,0.18,34.0,0.0,0.0,9.0,0.0,3.0,3.0,0.0,86.92,0.0,
9.35,85.03755946639856,80.00939319215453,-3.98,-0.11,-0.13,34.0,0.0,0.0,9.0,0.0,3.0,3.0,0.0,88.09,1.67,
9.374,85.05775594663986,79.96493931921545,-4.21,-0.18,0.22,34.0,0.0,0.0,9.0,0.0,3.0,3.0,0.0,89.47,1.37,
9.399,85.10477559466399,79.95149393192155,-4.69,-1.08,0.63,35.0,0.0,0.0,9.0,0.0,3.0,3.0,0.0,89.86,0.98,
9.422,85.1724775594664,79.95014939319215,-5.46,-1.54,0.96,35.0,0.0,0.0,9.0,0.0,3.0,3.0,0.0,89.96,0.0,
9.447,85.19724775594665,79.97701493931922,-5.73,-1.84,1.47,35.0,0.0,0.0,9.0,0.0,3.0,3.0,0.0,89.76,1.08,
9.47,85.16372477559467,79.96170149393191,-6.05,-1.97,1.28,35.0,0.0,0.0,9.0,0.0,3.0,3.0,0.0,88.29,0.0,
9.495,85.12437247755948,79.86117014939319,-6.27,-1.66,1.28,35.0,0.0,0.0,9.0,0.0,3.0,3.0,0.0,88.09,0.0,
9.52,85.13843724775595,79.76111701493932,-5.4,-1.63,1.0,35.0,0.0,0.0,10.0,0.0,3.0,3.0,0.0,87.01,0.29,
9.543,85.1038437247756,79.71511170149392,-4.18,-1.85,0.73,35.0,0.0,0.0,10.0,0.0,3.0,3.0,0.0,86.43,0.0,
9.568,85.10938437247756,79.6745111701494,-3.87,-1.97,0.44,35.0,0.0,0.0,10.0,0.0,3.0,3.0,0.0,85.94,0.0,
9.592,85.10993843724776,79.60745111701493,-4.11,-1.76,0.45,35.0,0.0,0.0,10.0,0.0,3.0,3.0,0.0,85.74,0.1,
9.617,85.07399384372478,79.56474511170148,-3.97,-1.95,-0.04,35.0,0.0,0.0,10.0,0.0,3.0,3.0,0.0,85.94,0.29,
9.64,85.04339938437248,79.57847451117014,-4.08,-1.74,0.15,37.0,0.0,0.0,10.0,0.0,3.0,3.0,0.0,86.23,0.59,
9.665,85.01333993843724,79.57084745111702,-4.18,-1.95,0.34,35.0,0.0,0.0,18.0,0.0,3.0,3.0,0.0,85.64,0.2,
9.69,84.95633399384371,79.5520847451117,-4.51,-2.18,0.24,35.0,0.0,0.0,25.0,0.0,3.0,3.0,0.1,84.07,0.2,
9.714,84.89663339938437,79.45120847451116,-3.94,-2.01,-0.16,35.0,0.0,0.0,-33.0,0.0,3.0,3.0,0.29,83.78,0.0,
9.739,84.84566333993844,79.42312084745112,-2.93,-1.69,-0.29,35.0,0.0,0.0,-33.0,0.0,3.0,3.0,0.29,84.27,1.96,
9.763,84.84056633399385,79.44731208474512,-2.88,-1.59,-0.52,35.0,0.0,0.0,-33.0,0.0,3.0,3.0,0.29,84.56,0.29,
9.788,84.87605663339937,79.47673120847452,-2.68,-1.6,-0.22,35.0,0.0,0.0,-33.0,0.0,3.0,3.0,0.29,85.25,0.49,
9.812,84.84360566333994,79.44367312084745,-2.58,-1.45,-0.23,35.0,0.0,0.0,-33.0,0.0,3.0,3.0,0.2,85.64,0.69,
9.837,84.813360566334,79.51236731208473,-3.15,-0.89,-0.27,35.0,0.0,0.0,-33.0,0.0,3.0,3.0,0.2,86.33,0.49,
9.862,84.82833605663339,79.46523673120846,-2.43,-0.53,-0.48,35.0,0.0,0.0,-33.0,0.0,3.0,3.0,0.1,86.52,0.59,
9.886,84.87483360566333,79.51452367312085,-2.22,-0.86,-0.47,35.0,0.0,0.0,-33.0,0.0,3.0,3.0,0.1,86.13,0.49,
9.911,84.80748336056632,79.51945236731208,-2.95,-0.99,-0.3,35.0,0.0,0.0,-33.0,0.0,3.0,3.0,0.0,86.23,0.1,
9.935,84.74674833605663,79.5289452367312,-3.7,-0.85,-0.65,35.0,0.0,0.0,-33.0,0.0,3.0,3.0,0.0,86.52,0.2,
9.96,84.77667483360567,79.54789452367312,-3.79,-0.76,-0.56,35.0,0.0,0.0,-33.0,0.0,3.0,3.0,0.0,87.6,0.0,
9.985,84.80666748336057,79.54078945236732,-3.49,-0.73,-0.02,37.0,0.0,0.0,-33.0,0.0,3.0,3.0,0.29,87.9,0.0,
10.009,84.86366674833607,79.54007894523674,-3.21,-0.95,-0.15,37.0,0.0,0.0,-33.0,0.0,3.0,3.0,0.49,87.9,0.0,
10.034,84.9593666748336,79.60300789452367,-3.43,-1.04,0.37,37.0,0.0,0.0,-33.0,0.0,3.0,3.0,0.49,87.9,0.2,
10.058,84.95993666748336,79.60030078945236,-4.26,-1.13,0.31,37.0,0.0,0.0,-33.0,0.0,3.0,3.0,0.59,88.19,0.0,
10.083,84.98699366674833,79.58203007894524,-4.44,-1.2,0.41,37.0,0.0,0.0,-33.0,0.0,3.0,3.0,0.69,88.68,0.0,
10.107,85.04369936667483,79.52620300789452,-4.25,-1.15,0.98,37.0,0.0,0.0,-33.0,0.0,4.0,3.0,0.98,88.68,0.0,
10.132,85.09436993666749,79.43962030078946,-3.68,-1.21,1.56,37.0,0.0,0.0,-33.0,0.0,4.0,3.0,1.18,89.86,0.0,
10.157,85.04543699366675,79.38596203007894,-2.9,-1.53,1.42,37.0,0.0,0.0,-33.0,0.0,4.0,3.0,1.18,89.47,0.69,
10.181,85.00454369936668,79.3985962030079,-2.76,-1.51,1.79,37.0,0.0,0.0,-33.0,0.0,4.0,3.0,1.18,89.47,0.49,
10.206,85.00945436993666,79.3728596203008,-3.65,-1.5,1.66,37.0,0.0,0.0,-33.0,0.0,4.0,3.0,1.08,88.98,0.49,
10.23,84.99194543699366,79.35228596203007,-4.42,-1.56,1.18,37.0,0.0,0.0,-33.0,0.0,4.0,3.0,0.98,88.68,0.29,
10.255,85.02619454369936,79.33222859620301,-4.63,-1.5,0.47,35.0,0.0,0.0,-33.0,0.0,4.0,3.0,1.08,89.07,0.2,
10.279,84.98461945436993,79.32122285962029,-4.26,-1.68,0.34,40.0,0.0,0.0,-33.0,0.0,4.0,3.0,1.28,88.88,0.0,
10.304,84.94446194543698,79.30212228596203,-4.08,-2.34,0.33,37.0,0.0,0.0,-33.0,0.0,4.0,3.0,1.47,89.07,0.0,
10.329,84.90444619454371,79.3182122285962,-5.31,-2.24,0.44,37.0,0.0,0.0,-33.0,0.0,4.0,3.0,1.47,88.98,0.0,
10.353,84.85544461945436,79.22982122285961,-5.0,-1.51,0.16,37.0,0.0,0.0,-33.0,0.0,4.0,3.0,1.57,88.39,0.0,
10.378,84.83254446194543,79.17598212228596,-4.08,-1.56,-0.18,37.0,0.0,0.0,-33.0,0.0,4.0,3.0,1.67,88.58,0.2,
10.402,84.80325444619453,79.1165982122286,-4.61,-1.63,0.31,39.0,0.0,0.0,-33.0,0.0,4.0,3.0,1.77,88.68,0.2,
10.427,84.74632544461944,79.08365982122285,-4.79,-1.44,0.37,39.0,0.0,0.0,-33.0,0.0,4.0,3.0,1.86,88.78,0.0,
10.451,84.73163254446195,79.08036598212229,-4.31,-1.27,-0.02,39.0,0.0,0.0,-33.0,0.0,4.0,4.0,1.86,88.78,0.0,
10.476,84.76616325444618,79.03503659821223,-3.69,-1.69,0.02,39.0,0.0,0.0,-33.0,0.0,4.0,4.0,2.06,89.37,0.2,
10.501,84.78761632544462,79.05750365982124,-3.68,-2.31,0.26,39.0,0.0,0.0,-33.0,0.0,4.0,4.0,1.96,89.57,0.49,
10.525,84.69976163254447,79.05975036598213,-4.1,-2.58,0.35,39.0,0.0,0.0,-33.0,0.0,4.0,4.0,1.86,89.66,0.1,
10.55,84.53797616325444,78.96097503659821,-2.67,-1.79,-3.67,39.0,0.0,0.0,-33.0,0.0,4.0,4.0,1.96,89.86,0.1,
10.574,84.53079761632544,78.98709750365981,-3.45,-2.08,-0.27,39.0,0.0,0.0,-33.0,0.0,4.0,4.0,1.86,90.45,0.1,
10.599,84.62007976163254,79.16970975036598,-2.56,-1.19,0.23,39.0,0.0,0.0,-33.0,0.0,4.0,4.0,1.86,90.06,0.29,
10.624,84.57500797616325,79.13397097503659,-2.48,-1.48,0.06,37.0,0.0,0.0,-33.0,0.0,4.0,3.0,1.86,89.66,0.0,
10.648,84.53450079761632,79.11239709750366,-2.46,-1.64,0.04,37.0,0.0,0.0,-33.0,0.0,4.0,3.0,1.77,88.39,0.0,
10.673,84.49445007976163,79.08323970975036,-2.85,-1.31,-0.3,37.0,0.0,0.0,-33.0,0.0,4.0,3.0,1.57,87.9,0.2,
10.698,84.55344500797617,79.08932397097504,-2.63,-0.95,-0.4,37.0,0.0,0.0,-33.0,0.0,4.0,3.0,1.47,88.29,0.69,
10.723,84.56834450079762,79.1079323970975,-3.03,-1.15,-0.5,37.0,0.0,0.0,-33.0,0.0,4.0,3.0,1.37,89.07,0.69,
10.747,84.62383445007976,79.09179323970976,-3.21,-1.24,-0.37,37.0,0.0,0.0,-33.0,0.0,4.0,3.0,1.47,89.37,0.59,
10.772,84.63838344500797,79.05417932397097,-2.73,-0.83,-0.69,37.0,0.0,0.0,-33.0,0.0,4.0,3.0,1.57,89.07,0.29,
10.797,84.5318383445008,79.0774179323971,-2.11,-0.63,-1.2,39.0,0.0,0.0,-33.0,0.0,4.0,3.0,1.57,89.57,0.29,
10.821,84.51218383445008,79.0977417932397,-1.82,0.14,-1.99,39.0,0.0,0.0,-33.0,0.0,4.0,3.0,1.57,90.64,0.0,
10.846,84.57321838344501,79.11777417932399,-1.7,0.26,-2.33,37.0,0.0,0.0,-33.0,0.0,4.0,3.0,1.67,91.23,0.0,
10.87,84.6063218383445,79.1287774179324,-1.59,-0.07,-1.81,39.0,0.0,0.0,-33.0,0.0,4.0,3.0,1.86,93.1,0.0,
10.895,84.69063218383445,79.19287774179324,-1.98,-0.84,-1.24,39.0,0.0,0.0,-33.0,0.0,4.0,3.0,2.16,93.39,0.0,
10.919,84.71706321838344,79.19028777417932,-2.58,-1.57,-0.21,39.0,0.0,0.0,-33.0,0.0,4.0,3.0,2.35,93.78,0.39,
10.944,84.69270632183834,79.19002877741794,-2.47,-2.82,0.21,39.0,0.0,0.0,-33.0,0.0,4.0,3.0,2.45,94.37,0.0,
10.969,84.62727063218384,79.19000287774179,-2.96,-2.87,-0.15,39.0,0.0,0.0,-33.0,0.0,3.0,3.0,2.35,94.47,0.29,
10.993,84.59372706321838,79.24400028777418,-3.71,-2.54,-0.08,39.0,0.0,0.0,-33.0,0.0,3.0,3.0,2.35,94.37,0.0,
11.018,84.59037270632183,79.23140002877741,-4.94,-3.4,1.72,35.0,0.0,0.0,-33.0,0.0,3.0,3.0,2.55,95.45,0.69,
11.042,84.68003727063218,79.58114000287775,-7.62,-4.31,6.47,32.0,0.0,0.0,-33.0,0.0,3.0,3.0,2.65,95.06,0.59,
11.067,84.57200372706322,79.46311400028779,-7.99,-8.4,13.18,27.0,0.0,0.0,-33.0,0.0,3.0,3.0,2.35,95.55,0.0,
11.092,83.77820037270632,80.26131140002877,-11.09,-17.73,22.28,16.0,0.0,0.0,-33.0,0.0,2.0,3.0,1.86,93.1,0.0,
11.117,83.18582003727064,80.30513114000289,-17.63,-6.97,12.05,4.0,0.0,0.0,8.0,0.0,2.0,3.0,1.08,89.17,0.0,
11.141,83.41458200372706,80.59751311400028,-33.56,7.16,-6.99,7.0,0.0,0.0,5.0,0.0,1.0,2.0,0.0,81.91,1.96,
11.165,84.2654582003727,83.48875131140002,-27.73,44.66,-18.69,4.0,0.0,0.0,3.0,0.0,1.0,1.0,0.0,72.99,20.99,
11.19,86.02454582003728,86.58587513114001,-24.71,21.02,32.92,4.0,0.0,0.0,3.0,0.0,0.0,0.0,0.0,65.92,188.35,
11.214,86.11945458200373,90.52258751311399,-13.15,-10.92,49.6,4.0,0.0,0.0,2.0,0.0,0.0,0.0,0.0,63.67,305.19,
11.239,84.25694545820036,94.1922587513114,-2.47,-30.42,75.63,4.0,0.0,0.0,2.0,0.0,0.0,0.0,0.0,62.39,129.69,
11.264,81.50569454582003,97.78122587513114,12.58,-34.07,88.37,4.0,0.0,0.0,1.0,0.0,0.0,0.0,0.0,65.43,53.27,
11.287,78.989569454582,100.81312258751312,32.3,-36.45,80.92,4.0,0.0,0.0,1.0,0.0,0.0,0.0,0.0,66.81,29.23,
11.312,76.6859569454582,101.8453122587513,49.68,-37.02,58.88,4.0,0.0,0.0,1.0,0.0,0.0,0.0,0.0,72.89,10.59,
11.336,74.69159569454581,101.99353122587515,64.21,-22.72,18.44,4.0,0.0,0.0,1.0,0.0,0.0,0.0,0.0,52.88,5.2,
11.361,74.33015956945458,102.1883531225875,83.94,1.82,-15.63,4.0,0.0,0.0,1.0,0.0,0.0,0.0,0.0,9.61,46.4,
11.384,75.95901595694545,97.40183531225875,98.65,-41.82,-31.89,4.0,0.0,0.0,1.0,0.0,0.0,0.0,0.0,0.0,12.56,
11.409,72.14390159569454,91.96418353122587,101.26,39.67,-115.6,4.0,0.0,0.0,1.0,0.0,0.0,0.0,0.0,0.0,4.12,
11.433,71.61839015956946,89.98041835312259,97.63,33.93,-4.11,3.0,0.0,0.0,1.0,0.0,0.0,0.0,0.0,0.0,6.38,
11.457,89.61083901595694,69.65804183531226,75.23,-112.82,-95.91,4.0,0.0,0.0,1.0,0.0,0.0,0.0,0.0,0.0,2.35,
11.482,86.2620839015957,65.86180418353122,73.76,27.35,-6.24,4.0,0.0,0.0,1.0,0.0,0.0,0.0,0.0,0.0,2.55,
11.505,84.03720839015958,66.61618041835312,85.38,-57.89,28.03,4.0,0.0,0.0,1.0,0.0,0.0,0.0,0.0,0.0,0.39,
11.53,84.35472083901597,67.6276180418353,75.28,94.61,-61.43,4.0,0.0,0.0,1.0,0.0,0.0,0.0,0.0,0.0,1.86,
11.553,85.0794720839016,67.72876180418352,22.92,-39.06,103.26,4.0,0.0,0.0,0.0,0.0,0.0,0.0,0.0,0.0,0.0,
11.578,84.85494720839016,66.28987618041835,-6.72,11.88,51.49,4.0,0.0,0.0,0.0,0.0,0.0,0.0,0.0,0.0,0.0,
11.601,83.92349472083902,63.62598761804183,-25.18,40.59,-5.64,3.0,0.0,0.0,0.0,0.0,0.0,0.0,0.0,0.0,0.0,
11.626,83.6413494720839,61.15459876180418,-68.26,37.74,-29.89,3.0,0.0,0.0,0.0,0.0,0.0,0.0,0.0,12.46,0.0,
11.65,81.73213494720838,67.77445987618043,-51.79,16.72,-58.66,2.0,0.0,0.0,0.0,0.0,0.0,0.0,0.0,14.22,0.0,
11.674,82.01821349472084,71.26244598761805,-65.31,47.69,-47.0,1.0,0.0,0.0,0.0,0.0,0.0,0.0,0.0,15.01,2.45,
11.698,82.13682134947209,75.21124459876181,-86.81,34.08,-35.59,0.0,0.0,0.0,0.0,0.0,0.0,0.0,0.0,30.8,0.0,
11.722,81.80668213494721,76.04712445987617,-124.28,27.19,-16.18,1.0,0.0,0.0,0.0,0.0,0.0,0.0,0.2,91.72,0.0,
11.747,81.55766821349474,76.04971244598761,-109.76,41.69,-29.08,4.0,0.0,0.0,0.0,0.0,0.0,0.0,0.49,104.08,6.77,
11.77,83.35076682134947,75.46497124459877,-78.2,42.73,-45.4,7.0,0.0,0.0,0.0,0.0,0.0,0.0,0.98,77.5,0.0,
11.795,83.82707668213494,75.46049712445988,-47.8,11.25,-38.37,10.0,0.0,0.0,1.0,0.0,0.0,0.0,0.88,75.05,0.0,
11.82,84.8467076682135,76.13504971244599,-37.89,-4.69,-23.94,3.0,0.0,0.0,2.0,0.0,0.0,0.0,0.59,71.91,0.0,
11.844,84.83167076682135,76.5895049712446,-37.46,-8.95,-19.99,17.0,0.0,0.0,4.0,0.0,0.0,0.0,0.0,67.1,0.0,
11.869,85.21716707668214,77.09395049712447,-27.31,1.37,-4.86,27.0,0.0,0.0,5.0,0.0,1.0,0.0,0.0,77.4,0.0,
11.892,85.06671670766822,77.42339504971244,-17.98,4.97,-3.01,30.0,0.0,0.0,6.0,0.0,2.0,1.0,0.0,81.72,0.0,
11.917,84.96167167076682,77.91533950497124,-9.16,8.62,-1.63,34.0,0.0,0.0,7.0,0.0,3.0,1.0,0.0,87.41,0.0,
11.941,85.14016716707668,78.65753395049713,-8.85,11.07,-0.46,35.0,0.0,0.0,8.0,0.0,3.0,1.0,0.0,93.78,0.0,
11.966,85.98601671670767,79.01975339504972,-9.49,9.19,5.25,37.0,0.0,0.0,8.0,0.0,3.0,1.0,2.65,103.0,0.0,
11.99,86.34960167167077,80.45997533950498,-7.85,9.76,13.56,40.0,0.0,0.0,9.0,0.0,3.0,2.0,5.79,112.42,0.0,
12.014,86.69196016716708,80.8649975339505,-6.76,5.62,10.52,37.0,0.0,0.0,9.0,0.0,3.0,2.0,8.63,120.47,0.0,
12.039,86.95119601671672,81.16649975339504,-6.69,2.7,8.31,35.0,0.0,0.0,10.0,0.0,3.0,2.0,10.69,129.1,0.0,
12.063,87.37311960167168,81.17864997533951,-10.46,-1.02,11.41,37.0,0.0,0.0,10.0,0.0,3.0,2.0,12.56,135.38,0.0,
12.088,87.57731196016717,81.06286499753395,-12.98,-1.89,6.18,1633.0,0.0,0.0,11.0,0.0,3.0,3.0,13.34,143.81,0.0,
12.112,87.75973119601673,80.9342864997534,-14.11,-5.24,4.96,40.0,0.0,0.0,11.0,0.0,4.0,3.0,13.73,144.7,0.0,
12.137,87.73297311960168,80.66042864997533,-12.63,-7.26,1.21,73.0,0.0,0.0,12.0,0.0,4.0,3.0,12.95,140.58,0.0,
12.162,87.82029731196016,80.74104286499752,-14.08,-8.53,1.29,1633.0,0.0,0.0,0.0,0.0,5.0,3.0,11.97,134.1,0.0,
12.187,87.98202973119602,80.52410428649975,-18.0,-13.08,1.05,48.0,0.0,0.0,2.0,0.0,6.0,4.0,10.4,129.0,0.0,
12.212,88.1422029731196,80.22341042864998,-23.65,-27.37,-1.4,50.0,1.0,0.0,3.0,0.0,8.0,4.0,9.71,122.72,0.0,
12.236,87.67222029731197,79.698341042865,-17.82,-18.44,2.09,55.0,1.0,0.0,5.0,0.0,9.0,5.0,8.93,114.09,0.0,
12.261,86.8152220297312,79.49283410428649,-15.82,-11.19,1.33,55.0,1.0,0.0,-33.0,0.0,9.0,5.0,8.53,105.07,0.0,
12.285,86.34252220297311,79.22028341042865,-15.55,-9.17,4.25,58.0,1.0,0.0,-33.0,0.0,9.0,6.0,9.61,103.1,0.39,
12.31,86.13325222029731,78.69802834104286,-14.4,-7.76,8.4,58.0,1.0,0.0,-33.0,0.0,10.0,6.0,12.26,104.18,0.0,
12.336,85.88732522202973,78.70880283410429,-14.28,-6.92,14.09,58.0,1.0,0.0,-33.0,0.0,10.0,7.0,14.32,106.14,0.0,
12.36,85.52973252220298,78.52988028341044,-17.4,-7.74,21.23,58.0,1.0,0.0,-33.0,0.0,10.0,7.0,16.97,112.52,0.0,
12.386,85.26897325222029,78.39498802834105,-20.56,-11.9,15.19,58.0,1.0,0.0,-33.0,0.0,11.0,8.0,20.99,118.7,0.0,
12.41,85.30589732522203,78.2644988028341,-20.36,-21.71,19.76,55.0,0.0,0.0,-33.0,0.0,11.0,8.0,28.94,123.02,0.0,
12.436,85.28258973252221,78.61144988028342,-30.62,-27.57,21.53,3300.0,0.0,0.0,-33.0,0.0,11.0,9.0,34.24,125.57,0.0,
12.461,85.32525897325222,76.61214498802835,-33.6,-25.7,4.73,-33.0,0.0,0.0,-33.0,0.0,11.0,9.0,39.83,123.8,0.0,
12.486,84.69952589732522,75.79121449880284,-38.03,-18.15,-8.39,1633.0,0.0,0.0,-33.0,0.0,11.0,10.0,46.5,121.64,0.0,
12.511,83.87195258973252,75.4391214498803,-52.83,-12.17,-11.67,522.0,0.0,0.0,-33.0,1.0,11.0,11.0,53.76,115.76,0.0,
12.536,82.87119525897326,75.03491214498803,-65.8,5.21,-16.5,8.0,0.0,0.0,-33.0,1.0,11.0,12.0,66.22,106.14,0.29,
12.562,82.31211952589733,75.25549121449882,-82.04,11.77,-22.52,2.0,0.0,0.0,-33.0,1.0,11.0,1.0,73.48,81.23,5.79,
12.587,82.49921195258973,75.51154912144989,-111.56,23.44,-28.08,0.0,0.0,0.0,-33.0,0.0,11.0,1.0,72.01,62.1,24.33,
12.611,83.36392119525897,75.11415491214498,-131.95,31.4,-31.18,0.0,0.0,0.0,-33.0,0.0,11.0,0.0,57.29,49.34,302.25,
12.637,85.9793921195259,73.2834154912145,-122.59,32.95,-23.65,0.0,0.0,0.0,-33.0,0.0,9.0,10.0,25.21,37.77,314.12,
12.661,87.94193921195259,72.95634154912145,-116.29,-5.03,-26.31,0.0,0.0,0.0,5.0,0.0,7.0,6.0,11.87,31.98,227.49,
12.687,88.12019392119527,74.29163415491215,-90.83,10.03,5.74,2.0,0.0,0.0,2.0,0.0,2.0,2.0,4.71,22.37,190.61,
12.71,88.34501939211953,77.11616341549123,-57.59,-11.12,30.32,3.0,0.0,0.0,2.0,0.0,2.0,0.0,1.08,21.48,57.09,
12.735,86.80150193921195,78.93761634154912,-0.35,-15.27,11.33,3.0,0.0,0.0,2.0,0.0,2.0,0.0,0.0,21.39,24.13,
12.76,85.56715019392121,82.31476163415492,41.69,-33.66,-3.22,3.0,0.0,0.0,2.0,0.0,2.0,0.0,0.0,18.44,11.87,
12.784,84.41771501939212,86.9184761634155,71.48,-45.63,3.98,4.0,0.0,0.0,2.0,0.0,2.0,0.0,0.0,2.35,15.89,
12.808,81.27877150193922,88.96284761634155,84.59,-47.18,8.73,4.0,0.0,0.0,1.0,0.0,2.0,0.0,0.0,43.56,25.51,
12.832,78.26487715019394,89.53628476163415,104.74,-53.94,9.71,4.0,0.0,0.0,1.0,0.0,2.0,0.0,0.0,20.11,73.28,
12.857,75.9024877150194,88.82862847616342,116.57,-45.43,7.73,4.0,0.0,0.0,1.0,0.0,2.0,0.0,0.0,0.0,47.97,
12.88,73.21824877150193,87.09286284761635,123.08,-33.21,-0.69,4.0,0.0,0.0,1.0,0.0,2.0,0.0,0.0,29.82,9.52,
12.905,72.2658248771502,84.73228628476163,129.0,-35.95,-1.67,4.0,0.0,0.0,1.0,0.0,2.0,0.0,0.0,33.94,10.59,
12.93,72.05358248771502,82.12922862847617,116.21,-30.38,-6.88,3.0,0.0,0.0,1.0,0.0,2.0,0.0,0.0,3.34,5.59,
12.953,74.3183582487715,79.45692286284762,105.81,-24.11,-0.4,3.0,0.0,0.0,1.0,0.0,2.0,0.0,0.0,53.37,15.5,
12.978,75.03983582487716,76.12069228628476,80.4,-0.83,-5.03,3.0,0.0,0.0,1.0,0.0,2.0,0.0,0.0,63.57,14.22,
13.002,76.18298358248772,72.85306922862847,71.19,1.44,-5.71,3.0,0.0,0.0,0.0,0.0,2.0,0.0,0.0,53.66,23.74,
13.026,78.27729835824877,70.37530692286285,50.79,0.96,-16.8,2.0,0.0,0.0,0.0,0.0,2.0,0.0,0.0,143.62,0.0,
13.05,80.92572983582488,68.74153069228629,27.39,-0.21,-3.19,2.0,0.0,0.0,0.0,0.0,2.0,0.0,0.0,0.0,2.55,
13.074,83.7735729835825,67.11115306922864,-27.02,14.53,30.27,2.0,0.0,0.0,0.0,0.0,2.0,0.0,0.0,0.0,5.1,
13.099,85.59735729835825,64.41011530692286,-74.91,66.66,6.2,1.0,0.0,0.0,0.0,0.0,2.0,0.0,0.0,126.84,5.3,
13.122,92.15173572983582,60.15301153069229,-19.98,32.05,28.85,2.0,0.0,0.0,0.0,0.0,2.0,0.0,0.0,151.47,0.0,
13.147,89.89117357298358,59.69130115306923,-6.17,-12.06,-4.82,1.0,0.0,0.0,0.0,0.0,2.0,1.0,0.0,51.8,0.0,
13.171,88.66611735729836,62.91213011530693,-3.28,-27.75,-8.6,3.0,0.0,0.0,1.0,0.0,2.0,1.0,0.0,62.29,0.0,
13.195,86.05061173572985,61.96521301153069,-49.51,18.08,0.76,8.0,0.0,0.0,3.0,0.0,2.0,1.0,0.0,102.71,0.0,
13.219,82.86406117357298,62.41052130115307,-7.91,-29.06,-20.02,12.0,0.0,0.0,5.0,0.0,0.0,1.0,0.0,123.21,0.0,
13.244,81.6814061173573,64.5970521301153,-0.65,6.52,-15.34,4.0,0.0,0.0,5.0,0.0,0.0,2.0,0.0,142.34,0.0,
13.268,81.29314061173572,66.72370521301153,-9.32,15.24,-6.55,5.0,0.0,0.0,6.0,0.0,1.0,2.0,0.0,100.16,0.0,
13.293,81.27231406117357,67.83637052130115,-7.53,26.02,-4.47,6.0,0.0,0.0,6.0,0.0,1.0,2.0,0.0,98.49,0.0,
13.318,82.04423140611736,69.4236370521301,-2.19,20.95,13.75,7.0,0.0,0.0,7.0,0.0,1.0,3.0,0.0,98.59,0.0,
13.341,82.36442314061175,70.59036370521301,-0.34,11.23,1.73,11.0,0.0,0.0,8.0,0.0,2.0,3.0,0.0,98.59,0.0,
13.366,82.58544231406118,71.5350363705213,1.91,5.0,-2.37,14.0,0.0,0.0,8.0,0.0,2.0,3.0,0.0,109.09,0.0,
13.39,82.31954423140613,72.67350363705212,1.69,3.37,-2.43,18.0,0.0,0.0,9.0,0.0,2.0,3.0,0.0,111.93,0.0,
13.415,82.16695442314061,73.71435036370521,0.47,6.04,-2.62,20.0,0.0,0.0,10.0,0.0,2.0,3.0,0.0,98.59,0.0,
13.44,82.24169544231407,74.54743503637052,0.34,6.78,-2.46,22.0,0.0,0.0,10.0,0.0,2.0,4.0,0.2,98.59,0.0,
13.464,82.5821695442314,75.26074350363706,1.69,3.53,-2.25,23.0,0.0,0.0,11.0,0.0,2.0,3.0,0.49,98.49,0.0,
13.488,82.78721695442314,75.9080743503637,1.42,1.69,-1.18,24.0,0.0,0.0,11.0,0.0,2.0,3.0,0.78,98.69,0.0,
13.512,82.78072169544232,76.48580743503636,0.79,0.9,-0.61,24.0,0.0,0.0,11.0,0.0,2.0,3.0,0.88,98.59,0.0,
13.537,82.68107216954424,76.87658074350364,1.73,2.44,-0.6,25.0,0.0,0.0,12.0,0.0,2.0,3.0,0.69,98.69,0.0,
13.561,82.77910721695443,77.28465807435036,2.82,1.66,-1.72,25.0,0.0,0.0,12.0,0.0,2.0,3.0,0.69,98.59,0.0,
13.586,82.91491072169546,77.70346580743504,1.97,0.25,-1.46,26.0,0.0,0.0,12.0,0.0,2.0,3.0,0.69,98.69,0.0,
13.611,82.94649107216955,78.10534658074351,-0.05,-0.39,-0.94,26.0,0.0,0.0,12.0,0.0,2.0,3.0,0.59,98.79,0.0,
13.635,83.04864910721696,78.37053465807435,-0.15,-1.85,-0.79,28.0,0.0,0.0,12.0,0.0,2.0,3.0,0.49,98.69,0.0,
13.66,83.0588649107217,78.63105346580743,-0.21,-1.4,-0.75,27.0,0.0,0.0,0.0,0.0,1.0,3.0,0.29,98.59,0.0,
13.683,83.04188649107218,78.89110534658074,-1.02,-0.2,-0.47,30.0,0.0,0.0,0.0,0.0,1.0,3.0,0.2,98.69,0.0,
13.708,83.06718864910721,79.05211053465807,-0.84,0.5,-0.08,28.0,0.0,0.0,0.0,0.0,1.0,2.0,0.0,98.79,0.0,
13.732,83.15971886491073,79.33821105346581,-1.85,-0.06,0.76,30.0,0.0,0.0,0.0,0.0,1.0,2.0,0.0,98.79,0.0,
13.757,83.22297188649108,79.47482110534658,-3.75,-0.01,0.25,30.0,0.0,0.0,2.0,0.0,1.0,2.0,0.0,98.79,0.0,
13.782,83.18429718864911,79.51548211053465,-3.33,-0.28,0.15,30.0,0.0,0.0,0.0,0.0,1.0,3.0,0.2,98.69,0.1,
13.806,83.17142971886491,79.62754821105347,-2.14,-0.4,0.02,30.0,0.0,0.0,1.0,0.0,1.0,3.0,0.2,98.79,0.0,
13.83,83.17014297188649,79.71075482110535,-2.27,-0.44,0.72,30.0,0.0,0.0,1.0,0.0,1.0,3.0,0.2,98.69,0.0,
13.854,83.22401429718866,79.74607548211054,-3.13,-0.21,0.83,31.0,0.0,0.0,1.0,0.0,1.0,3.0,0.2,98.69,0.0,
13.879,83.26540142971886,79.74960754821106,-2.63,-0.09,0.49,31.0,0.0,0.0,1.0,0.0,1.0,3.0,0.29,98.79,0.0,
13.903,83.30554014297188,79.83096075482112,-2.27,-0.6,0.78,31.0,0.0,0.0,1.0,0.0,1.0,3.0,0.39,98.79,0.0,
13.928,83.28255401429719,79.9020960754821,-3.28,-0.7,1.05,31.0,0.0,0.0,1.0,0.0,1.0,3.0,0.49,98.79,0.0,
13.953,83.28025540142971,79.8912096075482,-3.99,-0.68,0.78,31.0,0.0,0.0,1.0,0.0,1.0,3.0,0.59,98.79,0.0,
13.976,83.28002554014297,79.89912096075483,-4.04,-0.96,1.15,31.0,0.0,0.0,1.0,0.0,2.0,3.0,0.69,98.79,0.0,
14.001,83.2620025540143,79.8999120960755,-5.27,-1.43,0.92,31.0,0.0,0.0,1.0,0.0,2.0,3.0,0.78,98.88,0.0,
14.025,83.28720025540144,79.91799120960755,-6.08,-1.02,0.62,32.0,0.0,0.0,1.0,0.0,2.0,3.0,0.98,98.88,0.0,
14.05,83.28972002554016,79.89279912096075,-6.02,-0.72,0.87,32.0,0.0,0.0,1.0,0.0,2.0,3.0,1.28,98.88,0.0,
14.074,83.35297200255401,79.85427991209608,-5.77,-0.58,1.1,32.0,0.0,0.0,1.0,0.0,2.0,3.0,1.67,98.88,0.0,
14.099,83.3952972002554,79.7514279912096,-5.57,-1.82,1.01,32.0,0.0,0.0,2.0,0.0,2.0,3.0,2.06,98.79,0.0,
14.123,83.39052972002554,79.68714279912096,-6.08,-1.4,0.92,32.0,0.0,0.0,2.0,0.0,2.0,3.0,2.45,98.79,0.0,
14.147,83.39905297200255,79.6807142799121,-6.11,-1.33,0.54,34.0,0.0,0.0,2.0,0.0,2.0,3.0,2.75,98.79,0.0,
14.172,83.40890529720025,79.5720714279912,-5.69,-1.24,0.6,34.0,0.0,0.0,2.0,0.0,2.0,3.0,3.14,98.88,0.0,
14.196,83.43689052972003,79.54320714279913,-5.43,-1.36,0.73,34.0,0.0,0.0,2.0,0.0,2.0,3.0,3.43,98.88,0.0,
14.221,83.448689052972,79.55832071427992,-5.48,-0.96,0.59,35.0,0.0,0.0,3.0,0.0,2.0,3.0,3.83,98.88,0.0,
14.245,83.4588689052972,79.47883207142799,-5.77,-0.73,0.0,34.0,0.0,0.0,4.0,0.0,2.0,3.0,3.92,98.98,0.0,
14.269,83.44188689052972,79.4348832071428,-4.24,-0.51,-3.37,34.0,0.0,0.0,4.0,0.0,2.0,3.0,4.12,98.98,0.0,
14.294,83.45818868905296,79.40348832071429,-4.6,-1.96,0.34,34.0,0.0,0.0,4.0,0.0,2.0,3.0,4.12,98.98,0.0,
14.318,83.4418188689053,79.49034883207142,-4.25,-1.54,1.83,34.0,0.0,0.0,4.0,0.0,2.0,3.0,4.12,98.98,0.0,
14.343,83.43118188689053,79.47203488320713,-4.05,-1.73,0.42,34.0,0.0,0.0,4.0,0.0,2.0,3.0,4.12,99.08,0.0,
14.367,83.38511818868905,79.38020348832072,-3.65,-1.97,-0.12,34.0,0.0,0.0,4.0,0.0,2.0,3.0,4.12,98.98,0.0,
14.392,83.38951181886891,79.39802034883208,-4.01,-2.13,-0.09,34.0,0.0,0.0,4.0,0.0,2.0,3.0,4.12,98.98,0.0,
14.416,83.40795118188689,79.36380203488321,-4.45,-1.21,0.04,34.0,0.0,0.0,5.0,0.0,2.0,3.0,4.12,98.98,0.0,
14.441,83.3917951181887,79.24338020348833,-4.21,-1.37,-0.07,34.0,0.0,0.0,5.0,0.0,2.0,3.0,4.22,98.98,0.0,
14.465,83.41717951181887,79.20433802034883,-3.42,-2.09,0.12,34.0,0.0,0.0,5.0,0.0,2.0,3.0,4.22,98.98,0.0,
14.489,83.37471795118189,79.19143380203488,-3.81,-2.15,0.38,34.0,0.0,0.0,5.0,0.0,2.0,3.0,4.22,98.98,0.0,
14.514,83.30747179511819,79.1541433802035,-4.02,-1.83,0.25,34.0,0.0,0.0,5.0,0.0,2.0,3.0,4.32,98.98,0.0,
14.538,83.25574717951181,79.06041433802034,-4.18,-1.89,0.16,34.0,0.0,0.0,5.0,0.0,2.0,3.0,4.22,98.98,0.0,
14.563,83.2325747179512,79.09604143380203,-3.69,-2.39,0.03,34.0,0.0,0.0,5.0,0.0,2.0,3.0,4.22,99.08,0.1,
14.587,83.17625747179513,79.1086041433802,-4.37,-2.05,0.28,34.0,0.0,0.0,5.0,0.0,2.0,3.0,4.22,98.98,0.29,
14.611,83.1076257471795,79.10086041433802,-4.61,-1.78,0.19,34.0,0.0,0.0,5.0,0.0,2.0,3.0,4.32,99.08,0.39,
14.636,83.12776257471793,79.04608604143381,-4.45,-1.73,0.09,34.0,0.0,0.0,5.0,0.0,2.0,3.0,4.51,98.98,0.2,
14.66,83.12977625747179,79.00460860414339,-4.31,-2.27,0.57,35.0,0.0,0.0,5.0,0.0,2.0,3.0,4.61,99.08,0.0,
14.685,83.17497762574719,79.00046086041435,-4.6,-2.1,0.87,34.0,0.0,0.0,5.0,0.0,2.0,3.0,4.71,99.08,0.0,
14.709,83.16149776257471,79.02704608604144,0.01,-1.44,3.36,35.0,0.0,0.0,5.0,0.0,3.0,3.0,4.71,99.08,0.0,
14.734,83.24114977625747,79.02970460860415,-3.76,-1.88,0.95,34.0,0.0,0.0,6.0,0.0,3.0,3.0,4.81,99.08,0.0,
14.757,83.21311497762574,79.05697046086043,-3.98,-1.09,0.71,37.0,0.0,0.0,5.0,0.0,3.0,3.0,4.81,99.08,0.0,
14.782,83.21931149776256,79.01469704608606,-4.56,-1.12,0.27,31.0,0.0,0.0,5.0,0.0,3.0,3.0,4.81,99.08,0.0,
14.807,83.22893114977626,78.9654697046086,-3.62,-1.47,0.55,34.0,0.0,0.0,5.0,0.0,3.0,3.0,4.91,99.08,0.1,
14.831,83.22089311497763,78.89754697046087,-3.51,-1.55,0.39,34.0,0.0,0.0,5.0,0.0,3.0,3.0,4.91,99.08,0.1,
14.856,83.20208931149777,78.87275469704609,-3.37,-1.78,0.39,34.0,0.0,0.0,6.0,0.0,3.0,3.0,4.91,99.08,0.0,
14.88,83.16420893114977,78.82527546970461,-3.27,-1.59,0.29,34.0,0.0,0.0,5.0,0.0,3.0,3.0,4.91,99.08,0.1,
14.904,83.11542089311499,78.80252754697047,-3.27,-1.48,0.02,34.0,0.0,0.0,5.0,0.0,3.0,3.0,4.91,99.18,0.29,
14.928,83.1015420893115,78.79125275469704,-2.86,-1.47,0.37,34.0,0.0,0.0,5.0,0.0,3.0,3.0,4.91,99.18,0.59,
14.953,83.08215420893116,78.7901252754697,-3.15,-1.18,0.45,34.0,0.0,0.0,4.0,0.0,3.0,3.0,4.91,99.08,0.59,
14.978,83.05321542089312,78.80801252754696,-3.64,-1.4,0.07,34.0,0.0,0.0,5.0,0.0,3.0,3.0,4.91,99.18,0.59,
15.002,83.05032154208932,78.7468012527547,-3.63,-1.14,0.04,34.0,0.0,0.0,5.0,0.0,3.0,3.0,4.81,99.08,0.1,
15.027,83.02303215420893,78.80368012527546,-3.0,-1.21,-0.02,34.0,0.0,0.0,5.0,0.0,3.0,3.0,4.81,99.08,0.49,
15.05,82.9843032154209,78.80936801252754,-2.98,-1.47,0.15,34.0,0.0,0.0,5.0,0.0,3.0,3.0,4.81,99.18,0.0,
15.075,82.98943032154209,78.81893680125276,-3.37,-1.63,0.3,34.0,0.0,0.0,5.0,0.0,3.0,3.0,4.71,99.18,0.0,
15.099,82.98094303215422,78.78389368012527,-3.22,-1.47,-0.24,34.0,0.0,0.0,5.0,0.0,3.0,3.0,4.81,99.18,0.49,
15.124,82.98909430321542,78.77138936801252,-2.68,-1.26,-0.15,34.0,0.0,0.0,5.0,0.0,3.0,3.0,4.71,99.18,0.0,
15.149,82.98090943032155,78.77913893680125,-2.47,-1.28,0.02,34.0,0.0,0.0,5.0,0.0,3.0,3.0,4.61,99.18,0.29,
15.173,82.97109094303215,78.77991389368012,-2.84,-1.23,-0.4,34.0,0.0,0.0,4.0,0.0,3.0,3.0,4.61,99.18,0.1,
15.198,82.91610909430321,78.752991389368,-3.14,-1.37,-0.34,35.0,0.0,0.0,4.0,0.0,3.0,3.0,4.51,99.18,0.1,
15.222,82.91061090943032,78.7412991389368,-3.11,-1.26,-0.38,34.0,0.0,0.0,5.0,0.0,3.0,3.0,4.51,99.28,0.2,
15.247,82.95506109094303,78.69512991389368,-2.55,-1.5,-0.42,32.0,0.0,0.0,4.0,0.0,3.0,3.0,4.41,99.18,0.59,
15.271,82.9505061090943,78.76251299138937,-2.59,-1.48,-0.1,34.0,0.0,0.0,4.0,0.0,3.0,3.0,4.32,99.18,0.69,
15.295,82.88705061090943,78.75125129913894,-2.32,-1.32,-0.33,34.0,0.0,0.0,4.0,0.0,3.0,3.0,4.22,99.18,0.59,
15.32,82.89870506109095,78.7501251299139,-2.03,-1.01,-0.6,34.0,0.0,0.0,4.0,0.0,3.0,3.0,4.22,99.18,0.59,
15.344,82.92687050610911,78.77701251299139,-1.77,-1.34,-0.29,34.0,0.0,0.0,4.0,0.0,3.0,3.0,4.02,99.18,0.59,
15.369,83.00168705061091,78.77070125129914,-1.66,-0.89,-0.34,31.0,0.0,0.0,4.0,0.0,3.0,3.0,4.02,99.18,0.39,
15.393,83.0361687050611,78.81507012512992,-1.44,-0.73,-0.44,34.0,0.0,0.0,3.0,0.0,2.0,3.0,3.83,99.28,0.1,
15.418,83.02161687050611,78.85550701251299,-1.02,-0.8,-0.5,34.0,0.0,0.0,3.0,0.0,2.0,3.0,3.83,99.28,0.0,
15.442,83.05616168705062,78.9135507012513,-0.92,-0.61,-0.6,34.0,0.0,0.0,3.0,0.0,2.0,2.0,3.73,99.28,0.29,
15.467,83.05061616870506,78.93735507012514,-0.82,-0.59,-0.83,32.0,0.0,0.0,2.0,0.0,2.0,2.0,3.53,99.28,0.49,
15.492,83.10406161687051,78.9577355070125,-0.79,-1.11,-0.37,32.0,0.0,0.0,2.0,0.0,2.0,2.0,3.43,99.28,0.39,
15.516,83.09140616168706,79.01377355070125,-1.04,-1.21,-0.21,32.0,0.0,0.0,2.0,0.0,2.0,2.0,3.34,99.18,0.39,
15.541,83.09014061616871,79.05537735507014,-1.93,-0.63,-0.34,32.0,0.0,0.0,2.0,0.0,2.0,2.0,3.24,99.28,0.39,
15.565,83.10801406161687,79.08653773550702,-1.54,-0.95,-0.21,32.0,0.0,0.0,2.0,0.0,2.0,2.0,3.14,99.28,0.49,
15.59,83.1458014061617,79.1616537735507,-2.23,-0.88,-0.08,32.0,0.0,0.0,1.0,0.0,2.0,2.0,3.14,99.28,0.59,
15.613,83.12258014061618,79.20516537735507,-2.77,-0.5,-0.31,32.0,0.0,0.0,1.0,0.0,2.0,2.0,3.04,99.28,0.59,
15.638,83.12025801406162,79.20051653773551,-2.63,-0.89,0.0,32.0,0.0,0.0,1.0,0.0,2.0,2.0,3.14,99.28,0.49,
15.663,83.11102580140617,79.20905165377356,-2.64,-1.0,0.19,32.0,0.0,0.0,1.0,0.0,2.0,2.0,3.14,99.28,0.59,
15.687,83.05610258014062,79.19190516537735,-2.92,-0.92,-0.05,32.0,0.0,0.0,1.0,0.0,2.0,2.0,3.14,99.28,0.39,
15.712,83.05961025801406,79.20819051653774,-2.98,-1.15,0.21,32.0,0.0,0.0,1.0,0.0,2.0,2.0,3.14,99.28,0.0,
15.736,83.04196102580141,79.26381905165377,-2.73,-1.15,0.25,32.0,0.0,0.0,1.0,0.0,2.0,2.0,3.14,99.28,0.0,
15.761,83.08519610258014,79.27838190516538,-2.89,-1.21,0.17,32.0,0.0,0.0,1.0,0.0,2.0,2.0,3.04,99.28,0.0,
15.785,83.11651961025802,79.29783819051654,-2.66,-1.07,0.02,32.0,0.0,0.0,1.0,0.0,2.0,2.0,3.14,99.28,0.2,
15.809,83.16465196102581,79.28178381905165,-2.57,-0.95,0.16,32.0,0.0,0.0,1.0,0.0,2.0,2.0,3.04,99.18,0.29,
15.834,83.21446519610258,79.31617838190516,-3.16,-1.18,-0.01,31.0,0.0,0.0,1.0,0.0,2.0,2.0,3.04,99.28,0.49,
15.858,83.18344651961027,79.32861783819052,-3.23,-1.13,-0.44,32.0,0.0,0.0,1.0,0.0,2.0,2.0,3.14,99.28,0.39,
15.883,83.25234465196104,79.32986178381906,-3.07,-1.27,-0.39,32.0,0.0,0.0,1.0,0.0,2.0,2.0,3.24,99.28,0.2,
15.907,83.3042344651961,79.35698617838192,-2.73,-1.24,-0.22,32.0,0.0,0.0,1.0,0.0,2.0,2.0,3.04,99.28,0.49,
15.932,83.2824234465196,79.36869861783819,-2.4,-1.34,-0.11,32.0,0.0,0.0,1.0,0.0,2.0,2.0,3.24,99.28,0.69,
15.956,83.25324234465195,79.36986986178383,-2.66,-1.2,-0.23,32.0,0.0,0.0,1.0,0.0,2.0,2.0,3.14,99.38,0.69,
15.981,83.2233242344652,79.36098698617839,-2.59,-0.73,-0.16,30.0,0.0,0.0,1.0,0.0,2.0,2.0,3.04,99.28,0.39,
16.006,83.26533242344652,79.31509869861785,-2.47,-1.05,-0.18,32.0,0.0,0.0,1.0,0.0,2.0,2.0,3.04,99.28,0.2,
16.03,83.31453324234465,79.37350986986178,-2.14,-0.79,-0.1,32.0,0.0,0.0,1.0,0.0,2.0,2.0,3.04,99.28,0.0,
16.055,83.32845332423446,79.39735098698618,-2.34,-0.49,-0.2,32.0,0.0,0.0,1.0,0.0,2.0,2.0,2.94,99.28,0.1,
16.078,83.32084533242345,79.44473509869863,-2.38,-0.69,-0.24,32.0,0.0,0.0,1.0,0.0,2.0,2.0,2.94,99.28,0.1,
16.103,83.33808453324234,79.48547350986986,-1.75,-1.04,-0.55,34.0,0.0,0.0,0.0,0.0,2.0,2.0,2.84,99.38,0.29,
16.128,83.39380845332424,79.57954735098699,-1.58,-1.04,-0.33,32.0,0.0,0.0,0.0,0.0,2.0,2.0,2.75,99.28,0.39,
16.152,83.38138084533243,79.6339547350987,-1.54,-1.07,-0.35,31.0,0.0,0.0,0.0,0.0,2.0,2.0,2.65,544.85,0.59,
16.177,83.31713808453324,79.70239547350985,-1.85,-1.08,-0.48,32.0,0.0,0.0,0.0,0.0,2.0,2.0,2.45,99.28,0.59,
16.201,83.35571380845332,79.71823954735099,-1.49,-1.22,-0.35,32.0,0.0,0.0,0.0,0.0,2.0,2.0,2.45,99.38,0.49,
16.226,83.44957138084533,79.7918239547351,-1.04,-1.13,-0.69,34.0,0.0,0.0,12.0,0.0,2.0,2.0,2.35,99.38,0.69,
16.25,83.44095713808454,79.79018239547352,-0.95,-1.12,-0.6,32.0,0.0,0.0,12.0,0.0,2.0,2.0,2.26,99.28,0.78,
16.275,83.34109571380846,79.83501823954737,-0.97,-1.06,0.07,31.0,0.0,0.0,12.0,0.0,2.0,2.0,2.06,99.28,0.98,
16.3,83.36710957138085,79.88450182395474,-1.62,-1.1,-0.08,31.0,0.0,0.0,12.0,0.0,2.0,2.0,1.96,99.38,0.49,
16.324,83.35171095713808,79.90745018239546,-1.82,-1.17,-0.08,31.0,0.0,0.0,12.0,0.0,2.0,2.0,1.86,99.38,0.39,
16.349,83.3681710957138,79.99974501823955,-1.6,-1.27,0.02,31.0,0.0,0.0,11.0,0.0,2.0,2.0,1.77,99.28,0.39,
16.373,83.42381710957139,80.04497450182396,-1.79,-0.96,-0.25,31.0,0.0,0.0,11.0,0.0,2.0,2.0,1.67,99.38,0.39,
16.398,83.42938171095714,80.0584974501824,-2.02,-0.56,0.03,31.0,0.0,0.0,12.0,0.0,2.0,2.0,1.57,99.38,0.39,
16.422,83.4839381710957,80.08684974501824,-2.0,-0.63,0.06,31.0,0.0,0.0,11.0,0.0,2.0,2.0,1.57,99.38,0.39,
16.447,83.49839381710957,80.12568497450182,-2.04,-0.92,0.19,31.0,0.0,0.0,11.0,0.0,2.0,2.0,1.57,99.38,0.39,
16.472,83.46383938171094,80.12056849745018,-2.23,-1.47,0.39,31.0,0.0,0.0,11.0,0.0,2.0,2.0,1.57,99.38,0.69,
16.495,83.43338393817109,80.15605684974503,-2.46,-1.15,-0.07,30.0,0.0,0.0,11.0,0.0,2.0,2.0,1.47,99.38,0.78,
16.521,83.39433839381711,80.14160568497451,-2.64,-0.42,-0.14,31.0,0.0,0.0,11.0,0.0,2.0,2.0,1.37,99.38,0.69,
16.545,83.42643383938172,80.17616056849745,-2.27,-0.92,0.19,30.0,0.0,0.0,11.0,0.0,2.0,2.0,1.57,99.28,0.39,
16.569,83.44764338393817,80.24261605684976,-2.01,-1.28,0.59,30.0,0.0,0.0,11.0,0.0,2.0,2.0,1.47,99.28,0.59,
16.593,83.43176433839382,80.26726160568496,-2.39,-0.94,0.11,30.0,0.0,0.0,11.0,0.0,2.0,2.0,1.28,99.38,0.39,
16.618,83.45717643383936,80.25172616056851,-2.53,-0.74,0.22,30.0,0.0,0.0,11.0,0.0,2.0,2.0,1.37,99.38,0.2,
16.643,83.49571764338394,80.26817261605684,-2.4,-1.05,0.25,30.0,0.0,0.0,11.0,0.0,2.0,2.0,1.28,99.38,0.29,
16.667,83.4815717643384,80.29681726160568,-2.82,-1.05,0.37,31.0,0.0,0.0,11.0,0.0,2.0,2.0,1.28,99.38,0.29,
16.692,83.40815717643385,80.34468172616056,-2.99,-0.27,0.18,30.0,0.0,0.0,11.0,0.0,2.0,2.0,1.28,99.38,0.29,
16.716,83.40981571764338,80.32246817261606,-2.87,-0.5,0.37,30.0,0.0,0.0,11.0,0.0,2.0,2.0,1.28,99.38,0.2,
16.741,83.50898157176432,80.36524681726162,-2.18,-0.44,0.26,30.0,0.0,0.0,11.0,0.0,2.0,2.0,1.37,99.38,0.0,
16.765,83.48289815717644,80.41452468172616,-2.44,-1.36,0.15,30.0,0.0,0.0,11.0,0.0,2.0,2.0,1.37,99.38,0.29,
16.79,83.48028981571764,80.46445246817262,-3.15,-1.16,-0.13,30.0,0.0,0.0,11.0,0.0,2.0,2.0,1.37,99.38,0.59,
16.815,83.50702898157176,80.41544524681726,-2.89,-1.04,-0.25,30.0,0.0,0.0,11.0,0.0,2.0,2.0,1.28,99.38,0.69,
16.839,83.49170289815717,80.42854452468174,-3.18,-1.24,-0.43,30.0,0.0,0.0,11.0,0.0,2.0,2.0,1.37,99.38,0.49,
16.864,83.47217028981572,80.42985445246819,-3.07,-1.73,-0.27,30.0,0.0,0.0,11.0,0.0,2.0,2.0,1.28,99.47,0.49,
16.888,83.54221702898157,80.40298544524683,-3.43,-1.11,-0.37,30.0,0.0,0.0,11.0,0.0,2.0,2.0,1.28,99.38,0.39,
16.913,83.53122170289816,80.37329854452469,-3.27,-1.08,-0.21,30.0,0.0,0.0,11.0,0.0,2.0,2.0,1.37,99.38,0.1,
16.937,83.5211221702898,80.37032985445248,-2.76,-1.19,-0.37,30.0,0.0,0.0,11.0,0.0,2.0,2.0,1.28,99.38,0.0,
16.962,83.54711221702897,80.43303298544525,-2.45,-1.28,0.15,31.0,0.0,0.0,11.0,0.0,2.0,2.0,1.47,99.38,0.0,
16.987,83.52271122170289,80.43030329854454,-2.79,-0.82,-0.37,31.0,0.0,0.0,11.0,0.0,2.0,2.0,1.37,99.38,0.2,
17.011,83.59227112217029,80.43003032985447,-2.47,-0.59,-0.1,31.0,0.0,0.0,11.0,0.0,2.0,2.0,1.28,99.38,0.29,
17.036,83.58122711221702,80.45700303298545,-2.02,-0.81,0.3,31.0,0.0,0.0,11.0,0.0,2.0,2.0,1.37,99.38,0.29,
17.059,83.58012271122169,80.47770030329855,-2.43,-0.05,0.03,30.0,0.0,0.0,11.0,0.0,2.0,2.0,1.37,99.38,0.29,
17.084,83.64301227112217,80.54277003032986,-2.39,0.31,-0.1,31.0,0.0,0.0,11.0,0.0,2.0,2.0,1.37,99.38,0.2,
17.108,83.66730122711222,80.52227700303298,-2.56,-0.07,0.07,31.0,0.0,0.0,11.0,0.0,2.0,2.0,1.37,99.38,0.29,
17.133,83.66973012271121,80.5472277003033,-2.5,-0.71,0.3,31.0,0.0,0.0,11.0,0.0,2.0,2.0,1.47,99.38,0.29,
17.158,83.73297301227112,80.52272277003033,-2.51,-0.99,0.37,31.0,0.0,0.0,11.0,0.0,2.0,2.0,1.47,99.38,0.49,
17.182,83.72129730122711,80.52927227700303,-2.82,-1.3,0.31,30.0,0.0,0.0,11.0,0.0,2.0,2.0,1.47,99.38,0.49,
17.207,83.76512973012271,80.5389272277003,-3.27,-1.25,0.37,31.0,0.0,0.0,11.0,0.0,2.0,2.0,1.57,99.38,0.29,
17.231,83.81451297301227,80.54889272277003,-3.3,-1.16,0.07,31.0,0.0,0.0,11.0,0.0,2.0,2.0,1.47,99.38,0.1,
17.256,83.79245129730123,80.57688927227701,-4.46,-1.58,-0.05,31.0,0.0,0.0,11.0,0.0,2.0,2.0,1.57,99.47,0.0,
17.281,83.79024512973012,80.5796889272277,-4.82,-1.82,-0.08,31.0,0.0,0.0,11.0,0.0,2.0,2.0,1.57,99.38,0.0,
17.305,83.781024512973,80.53496889272277,-4.64,-2.05,-0.66,30.0,0.0,0.0,12.0,0.0,2.0,2.0,1.67,99.47,0.0,
17.33,83.7531024512973,80.51249688927228,-4.82,-1.76,-0.48,31.0,0.0,0.0,12.0,0.0,2.0,2.0,1.77,99.38,0.29,
17.354,83.71431024512972,80.42924968892723,-4.5,-1.82,-0.78,31.0,0.0,0.0,12.0,0.0,2.0,2.0,1.86,99.38,0.29,
17.379,83.65643102451298,80.33992496889272,-3.08,-2.32,-0.96,31.0,0.0,0.0,12.0,0.0,2.0,2.0,1.96,99.38,0.39,
17.403,83.6416431024513,80.42999249688927,-3.0,-2.15,-0.54,32.0,0.0,0.0,12.0,0.0,2.0,2.0,1.86,99.38,0.39,
17.428,83.63116431024513,80.44799924968893,-3.7,-1.66,-0.76,32.0,0.0,0.0,12.0,0.0,2.0,2.0,1.77,99.47,0.39,
17.453,83.6391164310245,80.4227999249689,-3.59,-1.7,-0.56,34.0,0.0,0.0,12.0,0.0,2.0,2.0,1.67,99.47,0.59,
17.477,83.64891164310247,80.42027999249689,-3.31,-1.67,-0.11,32.0,0.0,0.0,12.0,0.0,2.0,2.0,1.67,99.38,0.78,
17.502,83.66789116431025,80.3750279992497,-2.95,-1.66,0.31,31.0,0.0,0.0,12.0,0.0,2.0,2.0,1.67,99.38,0.1,
17.526,83.62478911643103,80.35250279992496,-3.11,-1.4,0.34,32.0,0.0,0.0,12.0,0.0,2.0,2.0,1.67,99.38,0.2,
17.551,83.5934789116431,80.2962502799925,-3.18,-1.36,0.24,31.0,0.0,0.0,12.0,0.0,2.0,2.0,1.57,99.38,0.29,
17.575,83.5543478911643,80.34462502799924,-3.24,-1.92,0.65,31.0,0.0,0.0,12.0,0.0,2.0,2.0,1.47,99.38,0.39,
17.599,83.57743478911642,80.31346250279994,-3.03,-2.37,0.21,31.0,0.0,0.0,12.0,0.0,2.0,2.0,1.47,99.38,0.2,
17.624,83.61574347891165,80.28334625028,-2.62,-2.4,0.39,31.0,0.0,0.0,12.0,0.0,2.0,2.0,1.37,99.38,0.39,
17.648,83.53857434789117,80.262334625028,-2.55,-1.27,-0.08,31.0,0.0,0.0,11.0,0.0,2.0,2.0,1.28,99.38,0.69,
17.673,83.52185743478911,80.27823346250281,-3.09,-0.73,-0.22,31.0,0.0,0.0,12.0,0.0,2.0,2.0,1.18,99.38,0.78,
17.697,83.50218574347892,80.2888233462503,-3.34,-0.98,-0.31,31.0,0.0,0.0,12.0,0.0,2.0,2.0,1.18,99.38,0.78,
17.722,83.5362185743479,80.29888233462502,-3.18,-1.05,-0.27,31.0,0.0,0.0,12.0,0.0,2.0,2.0,1.18,99.38,0.59,
17.746,83.5396218574348,80.26388823346251,-2.4,-1.16,-0.2,31.0,0.0,0.0,12.0,0.0,2.0,2.0,1.28,99.47,0.29,
17.771,83.51296218574349,80.30538882334626,-2.47,-0.85,-0.2,31.0,0.0,0.0,12.0,0.0,2.0,2.0,1.18,99.38,0.49,
17.796,83.46529621857434,80.28253888233463,-2.82,-0.79,-0.13,31.0,0.0,0.0,12.0,0.0,2.0,2.0,1.18,99.38,0.29,
17.82,83.52352962185743,80.23525388823347,-2.53,-0.73,0.33,31.0,0.0,0.0,11.0,0.0,2.0,2.0,1.08,99.47,0.0,
17.845,83.56535296218574,80.32952538882336,-2.05,-1.17,0.17,31.0,0.0,0.0,11.0,0.0,2.0,2.0,1.28,99.47,0.0,
17.869,83.56053529621857,80.39295253888235,-2.28,-0.86,-0.31,31.0,0.0,0.0,12.0,0.0,2.0,2.0,1.18,99.38,0.2,
17.894,83.57805352962185,80.39929525388825,-2.47,-1.23,-0.91,31.0,0.0,0.0,11.0,0.0,2.0,2.0,1.08,99.38,0.39,
17.918,83.55280535296218,80.46292952538883,-2.84,-1.4,-1.03,31.0,0.0,0.0,12.0,0.0,2.0,2.0,1.08,99.38,0.39,
17.943,83.58628053529623,80.45129295253888,-2.98,-0.77,-1.05,31.0,0.0,0.0,12.0,0.0,2.0,2.0,1.08,99.38,0.29,
17.968,83.54462805352964,80.4321292952539,-1.4,-0.68,-0.95,31.0,0.0,0.0,12.0,0.0,2.0,2.0,0.98,99.38,0.39,
17.992,83.52246280535296,80.4122129295254,-0.78,-0.57,0.15,31.0,0.0,0.0,11.0,0.0,2.0,2.0,0.98,99.47,0.49,
18.017,83.4752462805353,80.49122129295255,-1.01,-0.19,0.3,31.0,0.0,0.0,11.0,0.0,2.0,2.0,0.78,99.38,0.78,
18.041,83.56052462805353,80.56212212929525,-0.7,-0.21,0.73,31.0,0.0,0.0,11.0,0.0,2.0,2.0,0.78,99.38,0.88,
18.066,83.63205246280535,80.63221221292953,-0.57,-0.47,0.66,30.0,0.0,0.0,11.0,0.0,2.0,1.0,0.69,99.38,0.69,
18.091,83.73820524628053,80.72922122129295,-0.96,-0.44,0.6,30.0,0.0,0.0,10.0,0.0,1.0,1.0,0.59,99.47,0.78,
18.114,83.70382052462804,80.7119221221293,-1.5,-0.71,0.16,30.0,0.0,0.0,10.0,0.0,1.0,1.0,0.49,99.38,0.39,
18.139,83.7363820524628,80.73719221221293,-2.92,-0.74,-0.43,31.0,0.0,0.0,10.0,0.0,1.0,1.0,0.49,99.38,0.0,
18.163,83.74863820524628,80.73971922122129,-3.37,-1.34,-0.61,31.0,0.0,0.0,10.0,0.0,1.0,2.0,0.49,99.38,0.0,
18.188,83.78586382052463,80.76697192212212,-3.44,-2.01,-0.69,31.0,0.0,0.0,10.0,0.0,1.0,2.0,0.49,99.47,0.2,
18.212,83.73558638205246,80.82369719221221,-3.55,-2.02,-0.2,31.0,0.0,0.0,11.0,0.0,1.0,2.0,0.49,99.38,0.59,
18.237,83.72155863820524,80.83836971922122,-3.97,-1.5,-0.37,31.0,0.0,0.0,11.0,0.0,2.0,2.0,0.69,99.38,0.59,
18.262,83.72015586382052,80.83083697192212,-3.66,-1.19,-0.12,31.0,0.0,0.0,11.0,0.0,2.0,2.0,0.69,99.47,0.49,
18.286,83.69301558638205,80.7760836971922,-3.35,-1.2,0.3,31.0,0.0,0.0,11.0,0.0,2.0,2.0,0.59,99.47,0.29,
18.311,83.7083015586382,80.80660836971921,-3.23,-1.4,0.34,31.0,0.0,0.0,11.0,0.0,2.0,2.0,0.69,99.38,0.29,
18.335,83.73683015586381,80.81866083697192,-2.87,-1.43,0.22,31.0,0.0,0.0,11.0,0.0,2.0,2.0,0.69,99.47,0.59,
18.36,83.73068301558638,80.8738660836972,-2.98,-1.21,0.33,32.0,0.0,0.0,11.0,0.0,2.0,2.0,0.59,99.38,0.88,
18.384,83.70306830155863,80.86138660836971,-3.15,-1.32,0.07,32.0,0.0,0.0,11.0,0.0,2.0,2.0,0.59,99.38,0.69,
18.409,83.70930683015587,80.83313866083697,-3.03,-1.4,0.29,31.0,0.0,0.0,11.0,0.0,2.0,2.0,0.69,99.38,0.29,
18.434,83.73693068301559,80.8033138660837,-3.36,-1.3,0.21,31.0,0.0,0.0,11.0,0.0,2.0,2.0,0.69,99.38,0.1,
18.458,83.75769306830156,80.80033138660836,-3.26,-1.07,0.29,32.0,0.0,0.0,11.0,0.0,2.0,2.0,0.78,99.38,0.0,
18.482,83.76876930683015,80.84503313866084,-3.38,-1.26,0.58,34.0,0.0,0.0,11.0,0.0,2.0,2.0,0.88,99.38,0.0,
18.506,83.79687693068301,80.84950331386608,-3.92,-1.05,0.23,32.0,0.0,0.0,11.0,0.0,2.0,2.0,0.88,99.47,0.0,
18.531,83.7906876930683,80.79595033138662,-4.1,-0.82,0.18,31.0,0.0,0.0,11.0,0.0,2.0,2.0,0.98,99.38,0.2,
18.555,83.79906876930683,80.76359503313867,-3.64,-0.92,0.3,32.0,0.0,0.0,11.0,0.0,2.0,2.0,1.08,99.38,0.39,
18.58,83.74590687693068,80.74235950331386,-3.93,-1.27,0.63,32.0,0.0,0.0,11.0,0.0,2.0,2.0,1.18,99.38,0.39,
18.605,83.78559068769307,80.69523595033138,-4.21,-1.19,0.18,32.0,0.0,0.0,11.0,0.0,2.0,2.0,1.18,99.38,0.29,
18.629,83.80755906876931,80.68152359503314,-4.14,-1.52,0.27,32.0,0.0,0.0,12.0,0.0,2.0,2.0,1.28,99.38,0.2,
18.654,83.83675590687693,80.68015235950332,-4.32,-1.46,0.33,34.0,0.0,0.0,11.0,0.0,2.0,2.0,1.37,99.38,0.29,
18.678,83.83067559068769,80.60801523595032,-5.02,-1.18,-0.39,32.0,0.0,0.0,11.0,0.0,2.0,2.0,1.47,99.38,0.78,
18.703,83.80306755906877,80.60080152359502,-4.73,-1.09,-0.25,34.0,0.0,0.0,12.0,0.0,2.0,2.0,1.67,99.47,0.78,
18.727,83.80930675590687,80.59108015235951,-4.31,-1.37,0.11,32.0,0.0,0.0,12.0,0.0,2.0,2.0,1.86,99.47,0.0,
18.752,83.77393067559069,80.54510801523595,-3.98,-1.52,0.15,32.0,0.0,0.0,12.0,0.0,2.0,2.0,1.86,99.38,0.0,
18.777,83.72539306755907,80.5495108015236,-4.31,-1.84,0.2,34.0,0.0,0.0,12.0,0.0,2.0,2.0,1.96,99.38,0.0,
18.801,83.74753930675591,80.50495108015237,-3.91,-1.98,0.14,34.0,0.0,0.0,0.0,0.0,2.0,2.0,1.96,99.38,0.0,
18.825,83.7047539306756,80.44649510801524,-4.01,-1.95,-0.08,34.0,0.0,0.0,12.0,0.0,2.0,2.0,1.96,99.47,0.0,
18.849,83.70947539306755,80.42264951080152,-3.84,-1.59,-0.12,34.0,0.0,0.0,12.0,0.0,2.0,2.0,2.06,99.38,0.0,
18.874,83.70994753930675,80.40226495108017,-3.45,-1.88,0.15,34.0,0.0,0.0,12.0,0.0,2.0,2.0,2.06,99.38,0.39,
18.898,83.69199475393067,80.39122649510801,-3.61,-1.78,-0.21,34.0,0.0,0.0,0.0,0.0,2.0,2.0,2.06,99.47,0.49,
18.923,83.68119947539307,80.4441226495108,-3.9,-2.06,-0.21,34.0,0.0,0.0,0.0,0.0,2.0,2.0,2.06,99.38,0.49,
18.948,83.66211994753931,80.39541226495108,-3.86,-1.91,-0.11,34.0,0.0,0.0,0.0,0.0,2.0,2.0,2.06,99.38,0.29,
18.972,83.64221199475392,80.39954122649512,-3.95,-1.56,0.03,34.0,0.0,0.0,0.0,0.0,2.0,2.0,2.16,99.38,0.39,
18.997,83.6492211994754,80.4359541226495,-3.95,-1.53,-0.03,34.0,0.0,0.0,0.0,0.0,2.0,2.0,2.06,99.38,0.0,
19.021,83.66792211994753,80.43059541226496,-4.05,-1.48,-0.34,34.0,0.0,0.0,0.0,0.0,2.0,2.0,2.16,99.38,0.2,
19.046,83.64279221199475,80.4750595412265,-3.81,-1.96,-0.2,34.0,0.0,0.0,0.0,0.0,2.0,2.0,2.26,99.38,0.29,
19.07,83.62227922119948,80.40750595412266,-4.14,-1.95,-0.11,34.0,0.0,0.0,0.0,0.0,2.0,2.0,2.35,99.38,0.29,
19.095,83.62022792211995,80.34675059541227,-4.18,-1.69,-0.12,35.0,0.0,0.0,0.0,0.0,2.0,2.0,2.35,99.38,0.2,
19.12,83.647022792212,80.34967505954123,-4.36,-1.79,0.47,35.0,0.0,0.0,1.0,0.0,2.0,2.0,2.35,99.38,0.2,
19.143,83.62270227922122,80.25996750595414,-4.54,-1.47,0.24,34.0,0.0,0.0,1.0,0.0,2.0,2.0,2.45,99.38,0.0,
19.168,83.57527022792212,80.23299675059542,-5.28,-1.84,0.25,34.0,0.0,0.0,1.0,0.0,2.0,2.0,2.55,99.38,0.0,
19.192,83.5255270227922,80.14929967505955,-4.98,-1.9,0.0,35.0,0.0,0.0,1.0,0.0,2.0,2.0,2.65,99.47,0.1,
19.217,83.51155270227923,80.11392996750595,-5.11,-2.2,-0.14,35.0,0.0,0.0,1.0,0.0,2.0,2.0,2.84,99.47,0.88,
19.241,83.55515527022793,80.07439299675059,-4.89,-2.31,-0.31,35.0,0.0,0.0,1.0,0.0,2.0,2.0,2.94,99.38,0.0,
19.266,83.52351552702278,80.07043929967506,-5.34,-2.64,-0.29,35.0,0.0,0.0,1.0,0.0,2.0,2.0,3.14,99.47,0.29,
19.291,83.52035155270227,79.98004392996751,-5.27,-2.02,-0.82,34.0,0.0,0.0,1.0,0.0,2.0,2.0,3.14,99.47,0.2,
19.314,83.57403515527022,79.94400439299675,-4.47,-2.3,-0.44,35.0,0.0,0.0,2.0,0.0,2.0,2.0,3.14,99.47,0.2,
19.339,83.58840351552703,79.91340043929966,-4.71,-1.89,-0.41,35.0,0.0,0.0,2.0,0.0,2.0,2.0,3.24,99.38,0.0,
19.363,83.5718403515527,79.82934004392996,-4.24,-2.08,-0.14,40.0,0.0,0.0,2.0,0.0,2.0,2.0,3.34,99.47,0.0,
19.388,83.48918403515528,79.81193400439301,-4.15,-2.08,-0.22,35.0,0.0,0.0,2.0,0.0,2.0,2.0,3.43,99.47,0.0,
19.412,83.48991840351552,79.7831934004393,-3.95,-1.97,-0.06,35.0,0.0,0.0,2.0,0.0,2.0,2.0,3.43,99.47,0.1,
19.437,83.48999184035154,79.73531934004393,-3.42,-1.68,0.14,35.0,0.0,0.0,2.0,0.0,2.0,2.0,3.34,99.47,0.29,
19.462,83.39999918403515,79.71253193400437,-3.41,-1.92,0.2,35.0,0.0,0.0,2.0,0.0,2.0,2.0,3.34,99.38,0.2,
19.486,83.36399991840352,79.68325319340045,-3.42,-1.65,0.49,35.0,0.0,0.0,2.0,0.0,2.0,2.0,3.43,99.47,0.0,
19.511,83.36039999184035,79.68032531934004,-3.4,-1.44,0.15,35.0,0.0,0.0,2.0,0.0,2.0,2.0,3.43,99.38,0.1,
19.534,83.28803999918404,79.671032531934,-2.98,-1.26,0.09,35.0,0.0,0.0,2.0,0.0,2.0,2.0,3.34,99.47,0.39,
19.559,83.3348039999184,79.7151032531934,-3.21,-1.44,0.31,35.0,0.0,0.0,2.0,0.0,2.0,2.0,3.34,99.38,0.59,
19.584,83.32148039999184,79.68351032531935,-3.41,-1.3,-0.01,35.0,0.0,0.0,3.0,0.0,2.0,2.0,3.34,99.38,0.69,
19.608,83.28414803999918,79.73435103253192,-3.25,-1.5,0.11,37.0,0.0,0.0,2.0,0.0,2.0,2.0,3.34,99.38,0.49,
19.633,83.31641480399992,79.6854351032532,-3.62,-1.29,0.09,35.0,0.0,0.0,2.0,0.0,2.0,2.0,3.43,99.38,0.29,
19.657,83.3286414804,79.66254351032532,-3.74,-1.17,0.25,35.0,0.0,0.0,2.0,0.0,2.0,2.0,3.53,99.38,0.39,
19.682,83.31186414804,79.63325435103253,-3.77,-1.26,0.31,37.0,0.0,0.0,3.0,0.0,2.0,2.0,3.53,99.38,0.0,
19.705,83.29218641480401,79.63032543510326,-3.91,-1.6,0.35,37.0,0.0,0.0,3.0,0.0,2.0,2.0,3.63,99.38,0.0,
19.73,83.2362186414804,79.59403254351032,-4.05,-1.3,-0.15,37.0,0.0,0.0,3.0,0.0,2.0,3.0,3.73,99.38,0.0,
19.755,83.21262186414803,79.61740325435103,-3.68,-1.53,0.12,35.0,0.0,0.0,3.0,0.0,2.0,3.0,3.73,99.47,0.0,
19.779,83.18326218641481,79.6287403254351,-3.38,-1.57,0.45,37.0,0.0,0.0,3.0,0.0,2.0,2.0,3.83,99.38,0.0,
19.804,83.16232621864147,79.57587403254351,-3.68,-1.55,-0.1,37.0,0.0,0.0,3.0,0.0,2.0,2.0,3.83,99.47,0.0,
19.828,83.20523262186414,79.53458740325435,-3.35,-1.76,0.02,37.0,0.0,0.0,3.0,0.0,2.0,3.0,3.83,99.38,0.0,
19.852,83.21852326218641,79.51245874032544,-3.54,-1.36,-0.16,37.0,0.0,0.0,3.0,0.0,2.0,3.0,3.83,99.47,0.2,
19.876,83.19285232621863,79.46524587403253,-3.71,-1.48,-0.24,37.0,0.0,0.0,3.0,0.0,2.0,3.0,3.92,99.38,0.49,
19.901,83.21728523262186,79.46052458740324,-3.25,-1.62,0.05,37.0,0.0,0.0,3.0,0.0,2.0,3.0,3.92,99.38,0.59,
19.926,83.21072852326218,79.44205245874032,-2.98,-1.67,0.09,37.0,0.0,0.0,3.0,0.0,2.0,3.0,3.92,99.38,0.49,
19.95,83.17407285232622,79.46720524587403,-2.96,-1.53,-0.18,35.0,0.0,0.0,3.0,0.0,2.0,3.0,3.92,99.38,0.39,
19.975,83.16140728523261,79.45172052458742,-3.44,-1.11,-0.27,37.0,0.0,0.0,3.0,0.0,2.0,3.0,3.92,99.47,0.29,
19.999,83.16014072852326,79.45017205245875,-3.11,-1.06,-0.18,35.0,0.0,0.0,3.0,0.0,2.0,3.0,3.83,99.47,0.2,
20.024,83.16001407285232,79.45901720524587,-3.15,-0.78,-0.14,37.0,0.0,0.0,3.0,0.0,2.0,3.0,3.92,99.38,0.0,
20.048,83.19600140728524,79.49590172052459,-3.24,-0.95,-0.23,37.0,0.0,0.0,3.0,0.0,2.0,3.0,3.92,99.38,0.0,
20.073,83.22660014072854,79.47259017205245,-2.95,-1.16,-0.32,40.0,0.0,0.0,3.0,0.0,2.0,3.0,4.02,99.38,0.2,
20.097,83.27466001407285,79.47025901720524,-2.99,-1.04,-0.08,37.0,0.0,0.0,2.0,0.0,2.0,3.0,4.02,99.38,0.29,
20.121,83.27046600140729,79.50602590172053,-3.39,-0.95,-0.24,35.0,0.0,0.0,3.0,0.0,2.0,3.0,4.12,99.47,0.2,
20.146,83.31504660014073,79.50960259017207,-3.3,-0.98,-0.21,37.0,0.0,0.0,3.0,0.0,2.0,3.0,4.02,99.47,0.1,
20.17,83.32850466001408,79.5279602590172,-3.21,-1.17,0.08,37.0,0.0,0.0,4.0,0.0,2.0,3.0,4.12,99.47,0.2,
20.195,83.3208504660014,79.55679602590172,-3.26,-0.96,-0.31,37.0,0.0,0.0,4.0,0.0,2.0,3.0,4.12,99.47,0.49,
20.219,83.33808504660014,79.57767960259017,-3.18,-1.54,0.16,37.0,0.0,0.0,4.0,0.0,2.0,3.0,4.12,99.47,0.39,
20.244,83.33080850466001,79.52576796025902,-3.12,-1.33,0.02,37.0,0.0,0.0,4.0,0.0,3.0,3.0,4.12,99.47,0.59,
20.269,83.29408085046602,79.47557679602589,-3.36,-1.4,-0.31,37.0,0.0,0.0,4.0,0.0,3.0,3.0,4.12,99.47,0.39,
20.293,83.28140808504659,79.5065576796026,-2.89,-0.96,-0.49,37.0,0.0,0.0,4.0,0.0,3.0,3.0,4.12,99.38,0.29,
20.318,83.29814080850466,79.56365576796026,-2.88,-0.96,-0.02,37.0,0.0,0.0,4.0,0.0,3.0,3.0,4.22,99.38,0.49,
20.341,83.28181408085047,79.55136557679603,-3.04,-0.99,-0.15,37.0,0.0,0.0,4.0,0.0,3.0,3.0,4.12,99.38,0.0,
20.366,83.27118140808504,79.57713655767961,-2.34,-0.62,0.06,37.0,0.0,0.0,4.0,0.0,3.0,3.0,4.12,99.47,0.0,
20.39,83.31511814080851,79.53471365576796,-2.56,-0.79,0.07,39.0,0.0,0.0,4.0,0.0,3.0,3.0,4.02,99.38,0.0,
20.415,83.33751181408086,79.54847136557679,-2.69,-0.75,0.08,37.0,0.0,0.0,4.0,0.0,3.0,3.0,4.02,99.38,0.2,
20.44,83.33975118140809,79.57684713655767,-2.35,-0.76,0.0,37.0,0.0,0.0,4.0,0.0,3.0,3.0,4.02,99.47,0.39,
20.464,83.34897511814081,79.60668471365577,-2.36,-0.86,0.15,39.0,0.0,0.0,4.0,0.0,3.0,3.0,3.92,99.47,0.29,
20.488,83.35889751181408,79.59166847136558,-2.83,-0.63,-0.17,40.0,0.0,0.0,4.0,0.0,3.0,3.0,3.92,99.38,0.29,
20.512,83.30588975118141,79.55416684713656,-2.4,-0.23,-0.66,37.0,0.0,0.0,4.0,0.0,3.0,3.0,3.92,99.47,0.29,
20.537,83.35458897511813,79.58641668471365,-2.14,-0.38,-0.15,37.0,0.0,0.0,4.0,0.0,3.0,3.0,3.92,99.47,0.39,
20.561,83.34145889751181,79.59864166847136,-2.37,-0.61,-0.21,39.0,0.0,0.0,4.0,0.0,3.0,3.0,3.92,99.47,0.59,
20.586,83.34914588975118,79.59086416684714,-2.26,-0.5,-0.39,39.0,0.0,0.0,4.0,0.0,3.0,3.0,3.92,99.47,0.69,
20.611,83.37691458897513,79.58108641668471,-2.1,-0.42,-0.16,39.0,0.0,0.0,4.0,0.0,3.0,3.0,3.83,99.38,0.49,
20.635,83.40669145889751,79.58910864166847,-2.42,-0.21,-0.23,39.0,0.0,0.0,4.0,0.0,3.0,3.0,3.83,99.38,0.29,
20.66,83.47266914588975,79.59891086416684,-2.25,-0.44,0.06,37.0,0.0,0.0,4.0,0.0,3.0,3.0,3.92,99.47,0.0,
20.684,83.50626691458898,79.62689108641669,-2.66,-0.62,-0.13,42.0,0.0,0.0,4.0,0.0,3.0,3.0,4.02,99.38,0.0,
20.709,83.5546266914589,79.56668910864167,-2.8,-0.66,-0.66,39.0,0.0,0.0,4.0,0.0,3.0,3.0,3.92,99.47,0.0,
20.733,83.57746266914589,79.59666891086417,-2.9,-0.78,-0.68,35.0,0.0,0.0,4.0,0.0,3.0,3.0,3.92,99.38,0.0,
20.758,83.62474626691458,79.62666689108642,-2.89,-1.17,-0.36,39.0,0.0,0.0,4.0,0.0,3.0,3.0,3.92,99.47,0.29,
20.783,83.54847462669146,79.60266668910864,-2.84,-0.86,-0.5,37.0,0.0,0.0,4.0,0.0,3.0,3.0,3.92,99.38,0.29,
20.806,83.54084746266915,79.61826666891086,-2.45,-1.01,-0.56,40.0,0.0,0.0,4.0,0.0,3.0,3.0,3.92,99.38,0.0,
20.831,83.55808474626693,79.61982666689109,-2.56,-0.43,-0.85,39.0,0.0,0.0,4.0,0.0,3.0,3.0,3.92,99.47,0.0,
20.855,83.6318084746267,79.66498266668911,-2.37,-1.14,-0.57,35.0,0.0,0.0,5.0,0.0,3.0,3.0,4.12,99.38,0.2,
20.88,83.57618084746267,79.7054982666689,-2.16,-0.66,-0.34,39.0,0.0,0.0,5.0,0.0,3.0,3.0,4.02,99.38,0.49,
20.904,83.59761808474626,79.75454982666689,-2.11,-0.14,-0.04,40.0,0.0,0.0,5.0,0.0,3.0,3.0,3.83,99.47,0.69,
20.929,83.59976180847463,79.7324549826667,-1.86,0.4,0.16,40.0,0.0,0.0,5.0,0.0,3.0,3.0,3.92,99.38,0.69,
20.954,83.63597618084745,79.78424549826667,-1.43,0.18,0.63,40.0,0.0,0.0,522.0,0.0,3.0,3.0,3.92,99.38,0.39,
20.978,83.63059761808474,79.85242454982667,-1.1,0.25,0.99,40.0,0.0,0.0,633.0,0.0,3.0,3.0,3.92,99.38,0.2,
21.003,83.63905976180847,79.88624245498266,-1.15,0.16,0.82,40.0,0.0,0.0,1077.0,0.0,3.0,3.0,3.92,99.47,0.0,
21.027,83.72090597618084,79.95262424549827,-1.63,-0.08,0.65,40.0,0.0,0.0,-33.0,0.0,2.0,3.0,3.92,99.47,0.0,
21.052,83.76509059761808,79.99526242454982,-1.83,-0.43,0.46,39.0,0.0,0.0,522.0,0.0,2.0,3.0,3.83,99.38,0.0,
21.076,83.7875090597618,80.01752624245498,-1.88,-0.95,0.03,40.0,0.0,0.0,1633.0,0.0,2.0,2.0,3.73,99.38,0.1,
21.101,83.79875090597618,80.0557526242455,-2.81,-0.96,-0.01,40.0,0.0,0.0,1633.0,0.0,2.0,2.0,3.83,99.38,0.29,
21.126,83.82687509059762,80.08657526242455,-3.62,-1.07,-0.89,40.0,0.0,0.0,-33.0,0.0,2.0,2.0,3.73,99.38,0.39,
21.15,83.89268750905977,80.14365752624246,-3.42,-1.4,-0.85,40.0,0.0,0.0,5.0,0.0,2.0,2.0,3.73,99.38,0.2,
21.175,83.87226875090597,80.13136575262425,-3.64,-1.61,-1.03,40.0,0.0,0.0,345.0,0.0,2.0,3.0,3.83,99.38,0.1,
21.199,83.82522687509059,80.12113657526243,-3.43,-1.53,-0.85,40.0,0.0,0.0,800.0,0.0,3.0,3.0,3.73,99.47,0.2,
21.224,83.80252268750905,80.11111365752625,-3.04,-1.51,-0.17,40.0,0.0,0.0,3300.0,0.0,3.0,3.0,3.73,99.47,0.49,
21.249,83.81825226875091,80.11911136575263,-2.85,-1.38,0.15,40.0,0.0,0.0,-33.0,0.0,3.0,3.0,3.83,99.38,0.0,
21.273,83.8018252268751,80.12891113657527,-3.22,-1.3,0.02,40.0,0.0,0.0,6.0,0.0,3.0,2.0,3.83,99.38,0.0,
21.298,83.86318252268751,80.12089111365754,-3.46,-0.83,-0.04,40.0,0.0,0.0,3300.0,0.0,3.0,2.0,3.83,99.38,0.2,
21.322,83.88731825226876,80.18308911136576,-3.02,-1.12,0.11,40.0,0.0,0.0,6.0,0.0,3.0,3.0,3.83,99.47,0.1,
21.347,83.89873182522688,80.14430891113658,-3.03,-1.01,0.05,40.0,0.0,0.0,3300.0,0.0,3.0,2.0,3.83,99.47,0.0,
21.371,83.8638731825227,80.13143089111367,-3.45,-1.08,0.03,40.0,0.0,0.0,6.0,0.0,3.0,3.0,3.92,99.47,0.0,
21.396,83.87838731825227,80.13914308911137,-3.21,-1.32,-0.03,40.0,0.0,0.0,383.0,0.0,3.0,3.0,3.92,99.47,0.0,
21.421,83.86183873182523,80.15791430891115,-3.34,-1.44,0.06,42.0,0.0,0.0,-33.0,0.0,3.0,3.0,4.02,99.47,0.39,
21.445,83.87818387318252,80.17779143089112,-3.79,-1.42,-0.03,40.0,0.0,0.0,6.0,0.0,3.0,3.0,4.02,99.47,0.59,
21.47,83.90681838731825,80.17977914308912,-3.38,-1.44,-0.1,42.0,0.0,0.0,-33.0,0.0,3.0,3.0,4.12,99.38,0.39,
21.494,83.85568183873183,80.12597791430892,-3.28,-1.34,-0.12,42.0,0.0,0.0,-33.0,0.0,3.0,3.0,4.22,99.47,0.0,
21.519,83.85056818387318,80.1385977914309,-3.82,-1.26,-0.14,42.0,0.0,0.0,-33.0,0.0,3.0,3.0,4.22,99.47,0.29,
21.543,83.83205681838731,80.1308597791431,-3.79,-1.06,-0.39,42.0,0.0,0.0,-33.0,0.0,3.0,3.0,4.32,99.47,0.0,
21.568,83.91120568183874,80.11208597791432,-3.27,-1.21,0.11,42.0,0.0,0.0,-33.0,0.0,3.0,3.0,4.41,99.47,0.0,
21.593,83.89212056818388,80.07420859779143,-2.99,-1.34,0.24,42.0,0.0,0.0,-33.0,0.0,3.0,3.0,4.41,99.47,0.0,
21.618,83.95321205681839,80.06142085977915,-2.95,-1.1,-0.13,42.0,0.0,0.0,-33.0,0.0,3.0,3.0,4.41,99.47,0.0,
21.643,83.97732120568185,80.10514208597792,-2.95,-0.92,-0.21,42.0,0.0,0.0,-33.0,0.0,3.0,3.0,4.32,99.47,0.29,
21.667,83.97073212056819,80.0915142085978,-2.62,-1.31,-0.09,42.0,0.0,0.0,-33.0,0.0,3.0,3.0,4.32,99.47,0.39,
21.692,83.99707321205682,80.03615142085978,-2.6,-1.34,-0.21,42.0,0.0,0.0,-33.0,0.0,3.0,3.0,4.32,99.47,0.1,
21.716,83.97270732120569,80.06661514208598,-2.98,-1.33,0.0,42.0,0.0,0.0,-33.0,0.0,3.0,3.0,4.32,99.47,0.29,
21.741,83.94327073212057,80.0876615142086,-2.61,-1.17,-0.37,42.0,0.0,0.0,-33.0,0.0,3.0,3.0,4.22,99.38,0.39,
21.766,83.94032707321206,80.08976615142086,-2.75,-1.37,-0.04,44.0,0.0,0.0,-33.0,0.0,3.0,3.0,4.22,99.47,0.78,
21.79,83.94903270732121,80.08097661514209,-2.82,-1.34,-0.42,42.0,0.0,0.0,-33.0,0.0,3.0,3.0,4.12,99.47,0.29,
21.815,83.96790327073212,80.08009766151422,-2.39,-1.5,-0.04,42.0,0.0,0.0,-33.0,0.0,3.0,2.0,4.12,99.47,0.2,
21.839,83.93379032707321,80.14300976615142,-2.43,-1.6,0.16,48.0,0.0,0.0,-33.0,0.0,3.0,2.0,4.02,99.47,0.2,
21.864,84.00237903270732,80.17630097661515,-2.95,-1.05,-0.23,42.0,0.0,0.0,-33.0,0.0,3.0,2.0,4.02,99.47,0.1,
21.889,83.99123790327073,80.15263009766151,-2.79,-1.27,-0.24,42.0,0.0,0.0,-33.0,0.0,3.0,2.0,3.92,99.47,0.0,
21.913,83.96312379032706,80.18626300976615,-2.65,-0.82,0.14,44.0,0.0,0.0,-33.0,0.0,3.0,2.0,3.92,99.47,0.1,
21.938,83.94231237903271,80.11762630097661,-2.92,-1.11,0.08,42.0,0.0,0.0,-33.0,0.0,3.0,2.0,3.92,99.38,0.29,
21.962,83.94923123790328,80.11076263009767,-2.76,-1.4,0.33,42.0,0.0,0.0,-33.0,0.0,3.0,2.0,3.92,99.47,0.49,
21.987,83.91392312379033,80.18207626300978,-2.6,-1.29,0.11,48.0,0.0,0.0,-33.0,0.0,3.0,2.0,3.83,99.47,0.98,
22.011,83.90139231237903,80.21620762630099,-3.15,-1.05,0.1,42.0,0.0,0.0,-33.0,0.0,3.0,2.0,3.83,99.47,0.88,
22.036,83.9091392312379,80.2286207626301,-2.89,-0.75,-0.38,42.0,0.0,0.0,-33.0,0.0,3.0,2.0,3.92,99.47,0.29,
22.062,83.9279139231238,80.238862076263,-2.89,-1.14,-0.1,46.0,0.0,0.0,-33.0,0.0,3.0,2.0,3.92,99.47,0.2,
22.086,83.92979139231238,80.2668862076263,-2.82,-1.13,-0.22,42.0,0.0,0.0,-33.0,0.0,3.0,2.0,3.83,99.47,0.1,
22.111,83.91197913923125,80.26068862076264,-2.67,-1.14,-0.5,42.0,0.0,0.0,-33.0,0.0,3.0,2.0,3.83,99.47,0.0,
22.135,83.91019791392313,80.25106886207627,-2.62,-1.18,-0.33,42.0,0.0,0.0,-33.0,0.0,3.0,2.0,3.92,99.47,0.29,
22.16,83.90101979139232,80.26810688620762,-2.56,-1.11,-0.09,44.0,0.0,0.0,-33.0,0.0,3.0,2.0,3.92,99.38,0.49,
22.184,83.89110197913924,80.26981068862075,-2.39,-1.31,0.05,42.0,0.0,0.0,-33.0,0.0,3.0,2.0,3.92,99.47,0.0,
22.209,83.85411019791393,80.24298106886206,-2.49,-1.24,-0.18,42.0,0.0,0.0,-33.0,0.0,3.0,2.0,3.92,99.47,0.49,
22.234,83.8864110197914,80.25829810688622,-2.26,-1.11,-0.31,44.0,0.0,0.0,-33.0,0.0,3.0,2.0,3.92,99.47,1.67,
22.258,83.92564110197914,80.30482981068863,-2.12,-0.99,-0.21,44.0,0.0,0.0,-33.0,0.0,3.0,2.0,3.83,99.47,0.0,
22.283,83.94756411019792,80.33648298106887,-1.92,-1.21,0.15,42.0,0.0,0.0,-33.0,0.0,3.0,2.0,3.83,99.47,0.39,
22.307,83.88675641101979,80.38464829810688,-2.24,-1.18,-0.28,44.0,0.0,0.0,-33.0,0.0,3.0,2.0,3.63,99.47,0.78,
22.332,83.89867564110199,80.35346482981069,-2.54,-1.18,-0.53,44.0,0.0,0.0,-33.0,0.0,3.0,2.0,3.43,99.38,0.2,
22.356,83.92686756411021,80.35934648298107,-2.36,-1.18,-0.16,44.0,0.0,0.0,-33.0,0.0,3.0,2.0,3.43,99.47,0.39,
22.382,84.00168675641103,80.35093464829811,-2.8,-1.54,-0.36,42.0,0.0,0.0,-33.0,0.0,3.0,2.0,3.34,99.47,0.2,
22.407,84.0001686756411,80.35009346482981,-3.24,-1.43,-0.31,44.0,0.0,0.0,-33.0,0.0,3.0,2.0,3.34,99.38,0.1,
22.431,84.00001686756411,80.35900934648298,-3.53,-1.35,-0.3,44.0,0.0,0.0,-33.0,0.0,3.0,2.0,3.34,99.47,0.0,
22.456,84.0180016867564,80.39590093464831,-3.49,-1.18,-0.52,44.0,0.0,0.0,-33.0,0.0,3.0,2.0,3.34,99.47,0.0,
22.48,84.01080016867564,80.37259009346484,-3.32,-1.33,-0.31,46.0,0.0,0.0,-33.0,0.0,3.0,2.0,3.43,99.47,0.29,
22.505,84.01908001686756,80.32525900934648,-3.18,-1.4,-0.11,44.0,0.0,0.0,-33.0,0.0,3.0,2.0,3.43,99.47,0.49,
22.53,83.96590800168674,80.32052590093464,-3.29,-0.89,-0.47,44.0,0.0,0.0,-33.0,0.0,3.0,2.0,3.43,99.47,0.59,
22.554,83.97859080016867,80.32005259009345,-3.1,-1.15,-0.21,42.0,0.0,0.0,-33.0,0.0,3.0,2.0,3.34,99.47,0.49,
22.579,83.99785908001688,80.31100525900935,-2.82,-1.13,0.01,44.0,0.0,0.0,-33.0,0.0,3.0,2.0,3.43,99.47,0.29,
22.603,83.9367859080017,80.28310052590095,-2.28,-1.02,0.04,44.0,0.0,0.0,-33.0,0.0,3.0,2.0,3.43,99.47,0.0,
22.628,83.93067859080017,80.2803100525901,-2.44,-0.92,0.07,44.0,0.0,0.0,-33.0,0.0,3.0,2.0,3.53,99.47,0.0,
22.652,83.92106785908003,80.28903100525902,-2.54,-0.37,-0.12,44.0,0.0,0.0,-33.0,0.0,3.0,2.0,3.63,99.47,0.0,
22.677,83.938106785908,80.36190310052591,-2.27,-0.6,-0.13,46.0,0.0,0.0,-33.0,0.0,2.0,2.0,3.63,99.47,0.0,
22.703,83.95781067859079,80.38719031005259,-2.16,-0.04,-0.37,44.0,0.0,0.0,-33.0,0.0,2.0,2.0,3.83,99.47,0.2,
22.727,83.99578106785908,80.39871903100527,-1.97,-0.03,-0.03,46.0,0.0,0.0,-33.0,0.0,3.0,2.0,3.83,99.47,0.1,
22.752,83.93657810678592,80.42687190310053,-1.88,0.17,0.19,44.0,0.0,0.0,-33.0,0.0,2.0,2.0,3.73,99.47,0.1,
22.776,83.9486578106786,80.43868719031005,-2.27,0.5,-0.33,46.0,0.0,0.0,-33.0,0.0,2.0,2.0,3.83,99.47,0.0,
22.801,83.97686578106787,80.47586871903101,-2.95,0.56,-0.86,46.0,0.0,0.0,-33.0,0.0,2.0,2.0,3.83,99.47,0.0,
22.825,84.0336865781068,80.47958687190311,-2.72,0.23,-1.18,46.0,0.0,0.0,-33.0,0.0,2.0,2.0,4.02,99.47,0.1,
22.85,84.14736865781067,80.43495868719032,-2.56,-0.56,-1.73,46.0,0.0,0.0,-33.0,0.0,2.0,2.0,3.92,99.47,0.59,
22.875,84.19473686578107,80.50249586871904,-3.4,-0.76,-2.33,46.0,0.0,0.0,-33.0,0.0,2.0,2.0,4.02,99.47,0.39,
22.899,84.2174736865781,80.5092495868719,-3.07,-1.04,-3.46,46.0,0.0,0.0,-33.0,0.0,2.0,2.0,4.02,99.47,0.0,
22.924,84.31874736865781,80.5369249586872,-2.84,-1.87,-3.42,46.0,0.0,0.0,-33.0,0.0,3.0,2.0,3.92,99.47,0.0,
22.948,84.36487473686579,80.56669249586871,-3.58,-2.07,-3.44,46.0,0.0,0.0,-33.0,0.0,3.0,2.0,3.73,99.47,0.0,
22.973,84.36048747368659,80.55166924958688,-3.47,-2.57,-3.45,48.0,0.0,0.0,-33.0,0.0,3.0,2.0,3.53,99.47,0.0,
22.998,84.29704874736866,80.57716692495869,-3.33,-2.78,-3.1,48.0,0.0,0.0,-33.0,0.0,3.0,2.0,3.14,99.47,0.0,
23.022,84.29070487473687,80.62471669249587,-3.17,-3.34,-2.89,50.0,0.0,0.0,-33.0,0.0,3.0,2.0,2.94,99.47,0.2,
23.047,84.31707048747367,80.6114716692496,-3.53,-4.24,-2.54,50.0,1.0,0.0,-33.0,0.0,3.0,2.0,2.84,99.47,0.1,
23.071,84.16670704874738,80.57414716692494,-3.27,-3.33,-2.57,50.0,1.0,0.0,-33.0,0.0,3.0,2.0,2.45,99.47,0.49,
23.097,84.14267070487473,80.5434147166925,-2.05,-2.28,-2.34,50.0,1.0,0.0,-33.0,0.0,3.0,1.0,2.16,99.47,0.59,
23.121,84.14926707048748,80.58534147166925,-1.81,-1.92,-0.83,50.0,1.0,0.0,-33.0,0.0,3.0,1.0,2.06,99.47,0.0,
23.146,84.18592670704875,80.59853414716692,-2.17,-1.41,-0.36,53.0,1.0,0.0,-33.0,0.0,4.0,1.0,1.86,99.38,0.49,
23.171,84.24359267070487,80.64485341471669,-2.76,-1.67,-0.37,53.0,1.0,0.0,-33.0,0.0,4.0,2.0,1.86,99.47,0.0,
23.195,84.26735926707049,80.73048534147166,-3.16,-2.88,-0.47,53.0,1.0,0.0,-33.0,0.0,4.0,2.0,1.86,99.47,0.0,
23.22,84.20673592670705,80.81104853414716,-4.26,-2.75,-0.65,53.0,1.0,0.0,-33.0,0.0,4.0,2.0,1.77,99.47,0.0,
23.244,84.11067359267071,80.79210485341473,-4.9,-1.4,-1.44,53.0,1.0,0.0,-33.0,0.0,4.0,2.0,1.57,99.47,0.29,
23.269,84.15506735926706,80.71821048534147,-4.95,-0.89,-1.13,53.0,1.0,0.0,-33.0,0.0,4.0,2.0,1.57,99.47,0.59,
23.293,84.18650673592671,80.67482104853416,-6.37,-1.41,-1.98,55.0,1.0,0.0,-33.0,0.0,4.0,2.0,1.67,99.47,0.39,
23.318,84.20765067359267,80.65248210485342,-9.05,-0.52,-3.82,55.0,1.0,0.0,-33.0,0.0,5.0,2.0,1.77,99.47,0.39,
23.343,84.14676506735927,80.59624821048534,-10.27,-2.25,-3.41,55.0,1.0,0.0,-33.0,0.0,6.0,2.0,2.75,99.47,0.78,
23.368,84.14967650673594,80.45562482104853,-10.0,-3.98,-2.92,55.0,1.0,0.0,-33.0,0.0,7.0,3.0,3.63,99.47,0.98,
23.393,84.0959676506736,80.29756248210487,-9.5,-4.04,-2.57,55.0,1.0,0.0,-33.0,0.0,8.0,3.0,4.51,99.47,0.78,
23.417,84.05459676506736,80.1467562482105,-8.22,-3.73,-1.83,55.0,1.0,0.0,15.0,0.0,8.0,3.0,5.3,99.47,0.39,
23.442,84.01445967650675,80.05967562482105,-7.71,-4.23,-1.73,55.0,1.0,0.0,16.0,0.0,8.0,3.0,5.98,99.47,0.49,
23.467,83.99244596765067,79.8709675624821,-7.05,-5.17,-1.73,58.0,1.0,0.0,16.0,0.0,9.0,4.0,6.77,99.38,0.59,
23.491,83.96324459676507,79.7530967562482,-6.46,-5.95,-1.96,58.0,1.0,0.0,16.0,0.0,9.0,4.0,7.06,99.47,0.59,
23.516,83.83432445967651,79.58830967562481,-6.31,-6.12,-1.68,58.0,1.0,0.0,17.0,0.0,9.0,4.0,7.26,99.38,0.59,
23.54,83.75843244596766,79.47283096756247,-5.24,-4.79,-1.87,58.0,1.0,0.0,17.0,0.0,10.0,4.0,7.55,99.47,0.88,
23.565,83.70584324459676,79.36228309675624,-4.73,-4.47,-1.53,58.0,1.0,0.0,17.0,0.0,10.0,5.0,7.75,99.47,1.18,
23.589,83.64658432445967,79.25222830967563,-5.0,-4.54,-2.05,58.0,1.0,0.0,17.0,0.0,10.0,5.0,7.85,99.47,1.28,
23.614,83.55965843244596,79.10622283096757,-4.52,-3.46,-2.14,58.0,1.0,0.0,18.0,0.0,10.0,5.0,8.04,99.47,1.28,
23.639,83.4789658432446,79.03762228309677,-3.59,-2.27,-2.16,58.0,1.0,0.0,18.0,0.0,10.0,5.0,8.04,99.47,0.88,
23.663,83.38989658432446,79.02176222830967,-3.57,-1.97,-2.53,58.0,1.0,0.0,20.0,0.0,10.0,5.0,8.04,99.47,0.29,
23.689,83.38098965843244,79.01117622283097,-4.5,-1.44,-2.95,60.0,1.0,0.0,19.0,0.0,10.0,5.0,7.85,99.47,0.1,
23.713,83.25409896584324,78.9561176222831,-3.77,-1.73,-2.66,58.0,1.0,0.0,20.0,0.0,10.0,5.0,7.46,99.47,0.0,
23.738,83.20540989658433,78.96861176222832,-3.85,-0.92,-3.12,60.0,1.0,0.0,19.0,0.0,11.0,4.0,7.16,99.47,0.0,
23.762,83.20954098965842,78.95186117622283,-3.3,-0.43,-2.82,60.0,1.0,0.0,21.0,0.0,10.0,4.0,6.87,99.47,0.59,
23.787,83.26395409896584,79.04018611762228,-3.49,-0.9,-2.5,58.0,1.0,0.0,20.0,0.0,11.0,4.0,6.47,99.47,0.2,
23.812,83.22439540989657,78.92301861176223,-3.57,-0.9,-2.92,58.0,1.0,0.0,20.0,0.0,10.0,4.0,6.28,99.47,0.88,
23.836,83.19343954098966,78.81230186117622,-2.29,-0.62,-2.27,60.0,1.0,0.0,20.0,0.0,10.0,4.0,6.38,99.47,1.86,
23.861,83.25334395409898,78.78323018611762,-1.38,0.15,-2.08,58.0,1.0,0.0,19.0,0.0,10.0,4.0,6.08,99.47,0.0,
23.885,83.3493343954099,78.83432301861177,-1.15,0.24,-1.5,58.0,1.0,0.0,19.0,0.0,10.0,4.0,5.79,99.47,0.39,
23.91,83.439933439541,78.83943230186118,-1.02,-0.07,-0.6,58.0,1.0,0.0,20.0,0.0,10.0,4.0,5.59,99.47,0.0,
23.934,83.4669933439541,78.89394323018612,-0.4,0.17,0.05,58.0,1.0,0.0,17.0,0.0,10.0,4.0,5.1,99.47,1.08,
23.959,83.52369933439542,78.84539432301861,1.37,0.93,0.75,55.0,0.0,0.0,15.0,0.0,10.0,4.0,4.22,99.47,0.0,
23.984,83.63736993343954,78.97553943230186,1.95,0.6,1.64,53.0,0.0,0.0,13.0,0.0,10.0,3.0,3.53,99.47,0.29,
24.008,83.76573699334395,79.12355394323018,1.95,-1.03,1.73,53.0,0.0,0.0,11.0,0.0,9.0,3.0,2.94,99.47,0.2,
24.033,83.7785736993344,79.28235539432302,1.79,-2.63,2.44,50.0,0.0,0.0,11.0,0.0,9.0,3.0,2.45,99.47,0.49,
24.057,83.71685736993344,79.38823553943232,1.49,-3.14,2.66,48.0,0.0,0.0,8.0,0.0,8.0,3.0,2.06,99.47,0.98,
24.081,83.63868573699334,79.39882355394323,2.15,-2.05,2.67,46.0,0.0,0.0,7.0,0.0,8.0,2.0,1.67,99.47,1.67,
24.105,83.61286857369933,79.50788235539432,2.75,-1.98,3.53,42.0,0.0,0.0,5.0,0.0,7.0,2.0,1.37,99.38,1.96,
24.13,83.59228685736994,79.59078823553943,2.7,-3.28,3.98,40.0,0.0,0.0,4.0,0.0,7.0,2.0,1.28,99.47,2.06,
24.154,83.545228685737,79.74307882355394,4.07,-3.76,4.27,37.0,0.0,0.0,2.0,0.0,6.0,1.0,1.08,99.57,2.16,
24.178,83.5045228685737,79.89330788235539,4.14,-2.17,4.2,34.0,0.0,0.0,0.0,0.0,5.0,1.0,0.69,99.47,2.26,
24.203,83.45545228685737,80.04333078823554,7.4,-2.06,5.38,30.0,0.0,0.0,12.0,0.0,4.0,1.0,0.59,99.47,2.26,
24.226,83.38754522868574,80.23833307882356,10.1,-1.19,6.88,26.0,0.0,0.0,11.0,0.0,3.0,1.0,1.08,99.57,2.65,
24.251,83.27275452286858,80.55483330788236,11.26,0.5,7.73,20.0,0.0,0.0,10.0,0.0,2.0,1.0,1.67,99.47,3.83,
24.275,83.54027545228685,81.15348333078823,13.02,2.43,6.42,11.0,0.0,0.0,8.0,0.0,2.0,0.0,2.26,99.47,4.41,
24.3,83.5580275452287,81.40234833307883,17.62,1.97,12.54,3.0,0.0,0.0,7.0,0.0,1.0,0.0,2.06,99.47,4.41,
24.324,83.76680275452287,81.66123483330789,27.75,0.76,24.18,10.0,0.0,0.0,6.0,0.0,0.0,0.0,2.16,99.47,9.71,
24.348,83.26568027545228,81.67812348333081,30.54,6.59,20.24,7.0,0.0,0.0,5.0,0.0,0.0,0.0,2.26,99.47,9.81,
24.372,83.33256802754522,81.71581234833309,37.95,5.19,21.67,5.0,0.0,0.0,4.0,0.0,0.0,0.0,2.06,153.33,13.64,
24.396,83.30325680275452,82.02558123483331,46.56,-6.1,22.0,3.0,0.0,0.0,3.0,0.0,0.0,0.0,1.86,115.46,18.44,
24.421,83.28232568027545,82.60555812348333,44.14,-6.54,2.84,3.0,0.0,0.0,3.0,0.0,0.0,0.0,1.47,56.7,25.11,
24.444,84.04523256802754,81.11555581234833,22.5,-6.25,-8.61,2.0,0.0,0.0,3.0,0.0,0.0,0.0,0.98,64.16,11.97,
24.469,84.89552325680275,79.15755558123485,-0.83,-19.86,-11.65,2.0,0.0,0.0,3.0,0.0,0.0,0.0,0.88,100.65,9.03,
24.494,84.53955232568028,76.70275555812349,-18.46,-14.99,-14.15,3.0,0.0,0.0,3.0,0.0,0.0,0.0,0.69,106.14,25.6,
24.518,84.28795523256802,74.99927555581236,-35.04,-23.08,-10.15,3.0,0.0,0.0,3.0,0.0,0.0,0.0,0.0,124.29,15.99,
24.543,83.5337955232568,73.70392755558125,-48.46,-23.59,-14.24,3.0,0.0,0.0,3.0,0.0,0.0,0.0,0.0,120.37,0.69,
24.566,83.06237955232568,73.02539275555813,-51.15,-17.92,-19.82,3.0,0.0,0.0,3.0,0.0,0.0,0.0,0.1,130.47,7.26,
24.591,82.07023795523256,72.77753927555582,-54.92,-14.92,-22.34,3.0,0.0,0.0,2.0,0.0,0.0,0.0,0.29,128.31,1.08,
24.615,80.91802379552327,72.76175392755559,-55.72,-9.42,-19.96,3.0,0.0,0.0,2.0,0.0,0.0,0.0,0.29,128.81,0.0,
24.64,80.18180237955232,73.32717539275556,-53.69,-7.37,-14.11,3.0,0.0,0.0,2.0,0.0,0.0,0.0,0.49,121.45,0.1,
24.664,79.92818023795525,74.20271753927555,-46.84,-7.26,-0.89,3.0,0.0,0.0,2.0,0.0,0.0,0.0,0.59,110.07,0.59,
24.688,80.02881802379552,75.52327175392756,-37.15,-11.95,13.18,3.0,0.0,0.0,2.0,0.0,0.0,0.0,0.59,107.42,1.47,
24.713,79.93088180237955,76.55532717539276,-29.76,-13.73,20.62,3.0,0.0,0.0,2.0,0.0,0.0,0.0,0.59,124.49,0.0,
24.737,79.83108818023794,77.02753271753927,-18.98,-13.85,26.63,3.0,0.0,0.0,2.0,0.0,0.0,0.0,0.49,133.71,4.81,
24.761,80.0641088180238,77.40775327175392,-7.66,-15.42,24.83,3.0,0.0,0.0,2.0,0.0,0.0,0.0,0.59,132.24,0.2,
24.785,80.05141088180238,77.61677532717539,0.82,-17.02,23.21,4.0,0.0,0.0,1.0,0.0,0.0,0.0,0.69,140.48,0.39,
24.81,80.06814108818024,77.84467753271755,0.74,-12.27,16.27,4.0,0.0,0.0,2.0,0.0,0.0,0.0,0.69,142.34,4.32,
24.834,79.97981410881802,78.11046775327176,1.02,-8.05,11.0,4.0,0.0,0.0,1.0,0.0,0.0,0.0,0.69,153.13,4.41,
24.858,79.74598141088181,78.73104677532717,1.87,0.73,5.37,4.0,0.0,0.0,1.0,0.0,0.0,0.0,0.78,153.33,2.84,
24.882,79.46159814108819,79.87310467753272,0.3,7.09,-0.66,4.0,0.0,0.0,1.0,0.0,0.0,0.0,0.78,155.29,6.47,
24.905,78.74015981410881,81.71531046775328,-1.82,8.09,1.28,4.0,0.0,0.0,1.0,0.0,0.0,0.0,0.88,152.25,5.49,
24.93,77.71401598141088,84.84253104677533,-1.13,3.95,10.34,4.0,0.0,0.0,1.0,0.0,0.0,0.0,0.78,151.37,7.26,
24.953,76.40540159814108,88.55725310467754,9.29,5.37,17.15,4.0,0.0,0.0,1.0,0.0,0.0,0.0,0.98,155.0,4.61,
24.978,75.0865401598141,93.16772531046776,33.97,10.63,19.57,4.0,0.0,0.0,1.0,0.0,0.0,0.0,0.88,159.22,4.02,
25.001,80.44465401598141,99.28077253104678,21.31,46.35,59.48,7.0,0.0,0.0,3.0,0.0,0.0,0.0,0.78,156.57,0.0,
25.026,79.08146540159815,96.95807725310468,-5.76,1.53,19.55,12.0,0.0,0.0,4.0,0.0,0.0,0.0,0.1,102.02,0.0,
25.051,78.55814654015983,93.78280772531048,-15.44,24.4,-11.91,4.0,0.0,0.0,5.0,0.0,0.0,0.0,0.0,99.47,0.0,
25.075,78.88381465401599,91.01728077253104,3.13,21.47,-9.94,8.0,0.0,0.0,5.0,0.0,0.0,0.0,0.0,99.47,0.0,
25.1,79.8883814654016,89.6247280772531,7.25,17.58,1.85,14.0,0.0,0.0,6.0,0.0,0.0,1.0,0.0,99.47,0.0,
25.123,80.61883814654017,88.4054728077253,2.4,14.09,8.11,20.0,0.0,0.0,6.0,0.0,0.0,1.0,0.0,99.47,0.0,
25.148,80.87188381465401,87.47354728077254,-1.25,12.23,8.61,25.0,0.0,0.0,7.0,0.0,1.0,1.0,0.0,99.47,0.0,
25.172,80.9601883814654,86.61535472807725,-2.83,9.79,6.32,30.0,0.0,0.0,7.0,0.0,1.0,1.0,0.0,99.47,0.0,
25.196,81.23001883814653,85.33253547280773,-2.68,5.18,2.16,32.0,0.0,0.0,8.0,0.0,1.0,1.0,0.0,99.47,0.0,
25.221,81.37400188381466,84.70925354728078,-0.84,2.4,1.4,34.0,0.0,0.0,9.0,0.0,1.0,2.0,0.0,99.47,0.0,
25.245,81.50540018838146,84.29592535472808,-2.68,1.45,2.2,35.0,0.0,0.0,9.0,0.0,1.0,2.0,0.0,99.47,0.0,
25.27,81.65354001883814,84.0475925354728,-8.02,1.66,-1.09,35.0,0.0,0.0,9.0,0.0,1.0,2.0,0.0,99.57,0.0,
25.293,81.8573540018838,83.32075925354728,-8.5,-0.19,-2.67,39.0,0.0,0.0,10.0,0.0,2.0,2.0,0.0,99.57,0.0,
25.318,81.85973540018838,82.90607592535473,-3.5,0.5,-0.31,39.0,0.0,0.0,10.0,0.0,2.0,2.0,0.98,99.47,4.51,
