time,t1:pitch,t1:roll,t1:gyrx,t1:gyry,t1:gyrz,t2:pitch,t2:roll,t2:gyrx,t2:gyry,t2:gyrz,k1:pitch,k1:roll,k1:gyrx,k1:gyry,k1:gyrz,k2:pitch,k2:roll,k2:gyrx,k2:gyry,k2:gyrz,W:pitch,W:roll,W:gyrx,W:gyry,W:gyrz,B:pitch,B:roll,B:gyrx,B:gyry,B:gyrz
0.289,-1.066437799785355,20.917329446533373,0.0,-0.0,-0.022900763358778626,26.964514464856723,19.434582258833064,-0.015267175572519083,0.007633587786259542,-0.022900763358778626,-12.42115589409595,25.195690037649012,-0.015267175572519083,0.08396946564885496,-0.05343511450381679,27.00006490092218,7.4998053366554505,-0.022900763358778626,0.007633587786259542,0.022900763358778626,0.0,0.0,0.0,0.0,0.0,44.22,51.39,-5.0,-1.0,-4.0,
0.327,-2.0859610940908286,38.96567012564893,-0.022900763358778626,0.007633587786259542,0.0,49.88435175998494,35.95397717884117,-0.015267175572519083,0.007633587786259542,-0.022900763358778626,-22.97913840407751,46.612026569650666,-0.015267175572519083,0.08396946564885496,-0.05343511450381679,49.950120066706035,13.874639872812583,-0.022900763358778626,0.007633587786259542,0.022900763358778626,0.0,0.0,0.0,0.0,0.0,49.19,57.62,-1.0,0.0,3.0,
0.366,-2.952555894250481,54.30675970289714,-0.022900763358778626,0.007633587786259542,0.0,69.49018019047375,50.2252271468257,-0.022900763358778626,0.007633587786259542,0.0,-31.953423537561832,64.81591262185208,-0.015267175572519083,0.08396946564885496,-0.05343511450381679,69.45766695762231,19.293249228546145,-0.022900763358778626,0.007633587786259542,0.022900763358778626,0.0,0.0,0.0,0.0,0.0,53.79,62.8,-4.0,1.0,-2.0,
0.404,-3.536873702925636,67.17469507150619,-0.007633587786259542,-0.007633587786259542,0.0,86.15513435638925,62.35578961961255,-0.022900763358778626,0.007633587786259542,0.0,-39.58156590102351,80.28921576622328,-0.015267175572519083,0.08396946564885496,-0.05343511450381679,86.03908181490114,23.899067180919673,-0.022900763358778626,0.007633587786259542,0.022900763358778626,0.0,0.0,0.0,0.0,0.0,57.22,67.3,-2.0,0.0,3.0,
0.443,-4.111308763099508,78.1759686478223,-0.007633587786259542,-0.0,0.015267175572519083,100.32034539741743,72.66676772148136,-0.022900763358778626,0.007633587786259542,0.0,-46.06548690996593,93.44152343893879,-0.015267175572519083,0.08396946564885496,-0.05343511450381679,100.13328444358815,27.814012440437168,-0.022900763358778626,0.007633587786259542,0.022900763358778626,0.0,0.0,0.0,0.0,0.0,61.17,70.98,-4.0,0.0,-1.0,
0.481,-4.5995785642473,87.527051187691,-0.007633587786259542,-0.0,0.015267175572519083,112.10785067226757,80.96823147953597,-0.022900763358778626,-0.007633587786259542,-0.03816793893129771,-51.57681976756698,104.62098496074697,-0.015267175572519083,0.08396946564885496,-0.05343511450381679,112.1133566779721,31.141715911027042,-0.022900763358778626,0.007633587786259542,0.022900763358778626,0.0,0.0,0.0,0.0,0.0,63.71,74.49,-3.0,4.0,2.0,
0.519,-5.014607895222922,95.4754713465794,-0.007633587786259542,-0.0,0.015267175572519083,122.2830038626158,88.30550475559514,-0.015267175572519083,0.007633587786259542,0.015267175572519083,-56.261452696527876,114.12352725428393,-0.015267175572519083,0.08396946564885496,-0.05343511450381679,122.29641807719847,33.970263861028435,-0.022900763358778626,0.007633587786259542,0.022900763358778626,0.0,0.0,0.0,0.0,0.0,66.2,77.15,-3.0,0.0,0.0,
0.5569999999999999,-5.367382826552202,102.23162848163453,-0.007633587786259542,-0.0,0.015267175572519083,130.93188407441178,94.54218704024542,-0.015267175572519083,0.007633587786259542,0.015267175572519083,-60.23708583074218,122.22917825417333,0.03816793893129771,-0.04580152671755725,-0.015267175572519083,130.95202026654087,36.37452961852962,-0.022900763358778626,0.007633587786259542,0.022900763358778626,0.0,0.0,0.0,0.0,0.0,67.92,79.5,-5.0,1.0,0.0,
0.596,-5.667241518182089,107.9743620464314,-0.007633587786259542,-0.0,0.015267175572519083,138.28343225443837,99.84336698219818,-0.015267175572519083,0.007633587786259542,0.015267175572519083,-63.64758797741666,129.11153341261502,0.030534351145038167,-0.03816793893129771,-0.015267175572519083,138.3092821274819,38.418155512405626,-0.022900763358778626,0.007633587786259542,0.022900763358778626,0.0,0.0,0.0,0.0,0.0,69.69,81.57,-5.0,1.0,0.0,
0.634,-5.922121406067493,112.85568557650872,-0.007633587786259542,-0.0,0.015267175572519083,144.53224820746095,104.34936993285801,-0.015267175572519083,0.007633587786259542,0.015267175572519083,-66.41086728884167,134.97745225116307,0.022900763358778626,-0.022900763358778626,0.0,144.56295470928177,40.15523752220024,-0.022900763358778626,0.007633587786259542,0.022900763358778626,0.0,0.0,0.0,0.0,0.0,71.01,83.16,-6.0,2.0,-1.0,
0.6719999999999999,-6.084058230903871,116.87607040157506,0.0,-0.007633587786259542,0.015267175572519083,149.84374176753016,108.17947244091887,-0.015267175572519083,0.007633587786259542,0.015267175572519083,-68.75965470355294,139.96348326392894,0.022900763358778626,-0.022900763358778626,0.0,149.87857640381168,41.63175723052566,-0.022900763358778626,0.007633587786259542,0.022900763358778626,0.0,0.0,0.0,0.0,0.0,72.28,84.73,-3.0,0.0,0.0,
0.71,-6.221704532014792,120.29339750288145,0.0,-0.007633587786259542,0.015267175572519083,154.35851129358898,111.4350595727706,-0.015267175572519083,0.007633587786259542,0.015267175572519083,-70.75612400605752,144.2016096247799,0.022900763358778626,-0.022900763358778626,0.0,154.39711438614682,42.887058524587,0.007633587786259542,0.03816793893129771,0.007633587786259542,0.0,0.0,0.0,0.0,0.0,73.61,85.82,-5.0,1.0,-2.0,
0.748,-6.277011807133601,123.12409532160942,-0.022900763358778626,-0.022900763358778626,0.03816793893129771,158.196065390739,114.20230863484457,-0.015267175572519083,0.007633587786259542,0.015267175572519083,-72.4531229131864,147.80401703150324,0.022900763358778626,-0.022900763358778626,0.0,158.2378716711317,43.954064624539136,0.007633587786259542,0.03816793893129771,0.007633587786259542,0.0,0.0,0.0,0.0,0.0,74.34,86.98,-5.0,3.0,-1.0,
0.786,-6.399705648362031,125.59032103905734,0.0,-0.022900763358778626,0.04580152671755725,161.45798637331652,116.55447033760744,-0.015267175572519083,0.007633587786259542,0.015267175572519083,-73.89557198424596,150.86606332721806,0.022900763358778626,-0.022900763358778626,0.0,161.50251536336884,44.86101980949845,0.007633587786259542,0.03816793893129771,0.007633587786259542,0.0,0.0,0.0,0.0,0.0,75.44,87.72,-4.0,1.0,-1.0,
0.824,-6.73808528515726,128.0562816156678,0.022900763358778626,-0.05343511450381679,-0.007633587786259542,164.2306192085074,118.55380778495588,-0.015267175572519083,0.007633587786259542,0.015267175572519083,-75.12165369464658,153.46880267857566,0.022900763358778626,-0.022900763358778626,0.0,164.27746250177043,45.63193171671387,0.007633587786259542,0.03816793893129771,0.007633587786259542,0.0,0.0,0.0,0.0,0.0,75.83,88.52,-4.0,2.0,0.0,
0.861,-6.962735719025038,129.9961845129237,0.0,-0.030534351145038167,0.022900763358778626,166.58735711841965,120.25324461520205,-0.015267175572519083,0.007633587786259542,0.015267175572519083,-76.16382314848711,155.68113112722963,0.022900763358778626,-0.022900763358778626,0.0,166.63616756941178,46.28720683784697,0.007633587786259542,0.03816793893129771,0.007633587786259542,0.0,0.0,0.0,0.0,0.0,76.46,89.24,-4.0,3.0,-1.0,
0.899,-7.067138556734346,131.53858975601563,0.007633587786259542,-0.04580152671755725,0.0,168.59058434184504,121.69776592091131,-0.015267175572519083,0.007633587786259542,0.015267175572519083,-77.04966718425155,157.5616103085855,0.022900763358778626,-0.022900763358778626,0.0,168.6410668769069,46.844190690810116,0.007633587786259542,0.03816793893129771,0.007633587786259542,0.0,0.0,0.0,0.0,0.0,76.99,89.82,-5.0,-1.0,0.0,
0.937,-7.240945033384734,132.8811472924616,0.0,-0.022900763358778626,0.0,170.29332748175665,122.92560903076418,-0.015267175572519083,0.007633587786259542,0.015267175572519083,-77.80263461465134,159.160017612738,0.022900763358778626,-0.022900763358778626,0.0,170.34523128827777,47.31762696582879,0.007633587786259542,0.03816793893129771,0.007633587786259542,0.0,0.0,0.0,0.0,0.0,77.24,90.1,-4.0,0.0,0.0,
0.975,-7.388680538537564,134.0223211984407,0.0,-0.022900763358778626,0.0,171.7406591506815,123.96927567413911,-0.015267175572519083,0.007633587786259542,0.015267175572519083,-78.7603154233759,160.56467842455615,0.015267175572519083,-0.030534351145038167,-0.06870229007633588,171.793771037943,47.72004779959465,0.007633587786259542,0.03816793893129771,0.007633587786259542,0.0,0.0,0.0,0.0,0.0,77.69,90.55,-4.0,0.0,1.0,
1.013,-7.664906048872112,135.39563059496095,0.0,-0.04580152671755725,-0.007633587786259542,172.97089106926762,124.8563923210078,-0.015267175572519083,0.007633587786259542,0.015267175572519083,-79.57434411079178,161.75864011460158,0.015267175572519083,-0.030534351145038167,-0.06870229007633588,173.02502982515847,48.06210550829564,0.007633587786259542,0.03816793893129771,0.007633587786259542,0.0,0.0,0.0,0.0,0.0,77.68,90.86,-4.0,0.0,-1.0,
1.0510000000000002,-7.460278126168353,135.80361735362175,-0.022900763358778626,-0.04580152671755725,0.022900763358778626,174.01658820006583,125.6104414708462,-0.015267175572519083,0.007633587786259542,0.015267175572519083,-80.26626849509529,162.7735075511402,0.015267175572519083,-0.030534351145038167,-0.06870229007633588,174.07159979429161,48.352854560691476,0.007633587786259542,0.03816793893129771,0.007633587786259542,0.0,0.0,0.0,0.0,0.0,78.21,91.11,-3.0,0.0,0.0,
1.089,-7.286344391870157,136.15040609848344,-0.022900763358778626,-0.04580152671755725,0.022900763358778626,174.9054307612443,126.25138324820882,-0.015267175572519083,0.007633587786259542,0.015267175572519083,-80.91436710751188,163.66550739263832,0.04580152671755725,-0.0,0.007633587786259542,174.96118426805478,48.59999125522794,0.007633587786259542,0.03816793893129771,0.007633587786259542,0.0,0.0,0.0,0.0,0.0,78.13,91.21,-5.0,0.0,-2.0,
1.127,-7.138500717716691,136.44517653161589,-0.022900763358778626,-0.04580152671755725,0.022900763358778626,175.660946938246,126.79618375896706,-0.015267175572519083,0.007633587786259542,0.015267175572519083,-81.43512046940502,164.42278426497063,0.04580152671755725,-0.015267175572519083,-0.05343511450381679,175.71733107075346,48.810057445583936,0.007633587786259542,0.03816793893129771,0.007633587786259542,0.0,0.0,0.0,0.0,0.0,78.39,91.49,-5.0,0.0,-2.0,
1.165,-7.012833594686245,136.69573139977845,-0.022900763358778626,-0.04580152671755725,0.022900763358778626,176.30313568869747,127.25926419311156,-0.015267175572519083,0.007633587786259542,0.015267175572519083,-81.68584197276107,165.03659188622728,0.03816793893129771,-0.015267175572519083,-0.03816793893129771,176.36005585304736,48.988613707386534,0.007633587786259542,0.03816793893129771,0.007633587786259542,0.0,0.0,0.0,0.0,0.0,78.47,91.64,-5.0,0.0,-1.0,
1.202,-6.9060165401103655,136.90870303771663,-0.022900763358778626,-0.04580152671755725,0.022900763358778626,176.8489961265812,127.6528825621344,-0.015267175572519083,0.007633587786259542,0.015267175572519083,-81.89895525061371,165.55832836429545,0.03816793893129771,-0.015267175572519083,-0.03816793893129771,176.90591771952387,49.140126987934,-0.022900763358778626,-0.015267175572519083,-0.061068702290076333,0.0,0.0,0.0,0.0,0.0,78.59,91.9,-4.0,0.0,-1.0,
1.24,-6.815222043720868,137.08972892996408,-0.022900763358778626,-0.04580152671755725,0.022900763358778626,177.31297749878237,127.9874581758038,-0.015267175572519083,0.007633587786259542,0.015267175572519083,-82.21156859211523,166.017931292128,0.015267175572519083,-0.015267175572519083,-0.007633587786259542,177.3699003060289,49.26891327639935,-0.022900763358778626,-0.015267175572519083,-0.061068702290076333,0.0,0.0,0.0,0.0,0.0,78.82,92.01,-4.0,0.0,0.0,
1.278,-6.995824997976344,137.63216269003522,-0.007633587786259542,-0.022900763358778626,0.0,177.70736166515337,128.2718474474228,-0.015267175572519083,0.007633587786259542,0.015267175572519083,-82.47728993239153,166.40859378078565,0.015267175572519083,-0.015267175572519083,-0.007633587786259542,177.7642855045582,49.378381621594905,-0.022900763358778626,-0.015267175572519083,-0.061068702290076333,0.0,0.0,0.0,0.0,0.0,78.81,92.16,-4.0,0.0,1.0,
1.316,-7.149337509093498,138.09323138609568,-0.007633587786259542,-0.022900763358778626,0.0,178.04258820656872,128.51357832829893,-0.015267175572519083,0.007633587786259542,0.015267175572519083,-82.64992311172347,166.71695274396546,-0.007633587786259542,-0.0,-0.007633587786259542,178.09951292330808,49.47142971501112,-0.022900763358778626,-0.015267175572519083,-0.061068702290076333,0.0,0.0,0.0,0.0,0.0,79.18,92.09,-3.0,0.0,0.0,
1.354,-7.279823143543079,138.48513977774707,-0.007633587786259542,-0.022900763358778626,0.0,178.32753076677176,128.71904957704365,-0.015267175572519083,0.007633587786259542,0.015267175572519083,-82.79666131415561,166.9790578626683,-0.007633587786259542,-0.0,-0.007633587786259542,178.38504019871115,49.551558762353835,0.09923664122137404,0.05343511450381679,-0.015267175572519083,0.0,0.0,0.0,0.0,0.0,78.86,92.3,-3.0,1.0,1.0,
1.392,-7.676098470391041,139.16762939004124,0.0,-0.0,-0.007633587786259542,178.56973194294434,128.89370013847667,-0.015267175572519083,0.007633587786259542,0.015267175572519083,-82.92138878622293,167.2018472135657,-0.007633587786259542,-0.0,-0.007633587786259542,178.62773838280376,49.61966845259514,0.09923664122137404,0.05343511450381679,-0.015267175572519083,0.0,0.0,0.0,0.0,0.0,79.2,92.26,-2.0,1.0,1.0,
1.431,-8.012932498211809,139.7477455604913,0.0,-0.0,-0.007633587786259542,178.77560294269105,129.04215311569473,-0.015267175572519083,0.007633587786259542,0.015267175572519083,-83.02740713748015,167.39121816182848,-0.007633587786259542,-0.0,-0.007633587786259542,178.8337722972977,49.67710749082697,0.04580152671755725,0.022900763358778626,0.03816793893129771,0.0,0.0,0.0,0.0,0.0,78.95,92.36,-5.0,1.0,0.0,
1.469,-8.299241421859461,140.24084430537386,0.0,-0.0,-0.007633587786259542,178.95059329247576,129.1683381463301,-0.015267175572519083,0.007633587786259542,0.015267175572519083,-83.1175227360488,167.55218346785182,-0.007633587786259542,-0.0,-0.007633587786259542,179.00903089560995,49.72541158935456,-0.015267175572519083,0.03816793893129771,-0.007633587786259542,0.0,0.0,0.0,0.0,0.0,79.17,92.25,-4.0,0.0,0.0,
1.507,-8.542604006959966,140.65997823852402,0.0,-0.0,-0.007633587786259542,179.09933508979276,129.27559542237015,-0.015267175572519083,0.007633587786259542,0.015267175572519083,-83.24392768085282,167.7484309422606,-0.007633587786259542,0.007633587786259542,-0.03816793893129771,179.15800070417535,49.76647007310301,-0.015267175572519083,0.03816793893129771,-0.007633587786259542,0.0,0.0,0.0,0.0,0.0,79.18,92.3,-4.0,0.0,0.0,
1.544,-8.499157665323049,140.73386036528743,-0.007633587786259542,-0.007633587786259542,-0.007633587786259542,179.2257656175122,129.3667641070042,-0.015267175572519083,0.007633587786259542,0.015267175572519083,-83.35137188393624,167.91524129550805,-0.007633587786259542,0.007633587786259542,-0.03816793893129771,179.28462504145594,49.801369784289186,-0.015267175572519083,0.03816793893129771,-0.007633587786259542,0.0,0.0,0.0,0.0,0.0,79.3,92.24,-5.0,0.0,0.0,
1.583,-8.526606338183841,140.91123149487618,-0.007633587786259542,-0.030534351145038167,0.0,179.33323156607372,129.44425748894312,-0.015267175572519083,0.007633587786259542,0.015267175572519083,-83.44269945655714,168.0570300957684,-0.007633587786259542,0.007633587786259542,-0.03816793893129771,179.39225572814445,49.83103453879744,-0.015267175572519083,0.03816793893129771,-0.007633587786259542,0.0,0.0,0.0,0.0,0.0,79.35,92.33,-4.0,0.0,-2.0,
1.621,-8.549937710115515,141.06199695502661,-0.007633587786259542,-0.030534351145038167,0.0,179.42457762235102,129.5101268635912,-0.015267175572519083,0.007633587786259542,0.015267175572519083,-83.57312998878788,168.19101106875337,0.0,-0.0,-0.007633587786259542,179.48374181182967,49.85624958012946,-0.015267175572519083,0.03816793893129771,-0.007633587786259542,0.0,0.0,0.0,0.0,0.0,79.28,92.27,-4.0,3.0,0.0,
1.659,-8.569769376257437,141.19014759615447,-0.007633587786259542,-0.030534351145038167,0.0,179.59875572776423,129.7418168658014,-0.022900763358778626,0.030534351145038167,0.03816793893129771,-83.68399594118404,168.3048948957906,0.0,-0.0,-0.007633587786259542,179.56150498296213,49.87768236526167,-0.015267175572519083,0.03816793893129771,-0.007633587786259542,0.0,0.0,0.0,0.0,0.0,79.65,92.42,-4.0,2.0,-1.0,
1.698,-8.586626292478071,141.29907564111315,-0.007633587786259542,-0.030534351145038167,0.0,179.85396252852124,130.13539906168887,-0.022900763358778626,0.015267175572519083,0.0,-83.77823200072075,168.40169614877223,0.0,-0.0,-0.007633587786259542,179.62760367842472,49.89590023262405,-0.015267175572519083,0.03816793893129771,-0.007633587786259542,0.0,0.0,0.0,0.0,0.0,79.31,92.51,-1.0,-2.0,2.0,
1.736,-8.60095467126561,141.39166447932803,-0.007633587786259542,-0.030534351145038167,0.0,180.19666356710985,130.70419528545858,0.0,0.007633587786259542,0.03816793893129771,-83.85833265132698,168.48397721380664,0.0,-0.0,-0.007633587786259542,179.68378756956793,49.91138541988207,-0.015267175572519083,0.03816793893129771,-0.007633587786259542,0.0,0.0,0.0,0.0,0.0,79.43,92.49,-5.0,1.0,0.0,
1.774,-8.613133793235018,141.47036499181067,-0.007633587786259542,-0.030534351145038167,0.0,180.48795944991016,131.18767207566285,0.0,0.007633587786259542,0.03816793893129771,-83.89922203963269,168.50952774722532,0.0,-0.0,0.0,179.73154387703963,49.92454782905139,-0.015267175572519083,0.03816793893129771,-0.007633587786259542,0.0,0.0,0.0,0.0,0.0,79.61,92.62,-4.0,-1.0,0.0,
1.812,-8.623486046909015,141.53726042742093,-0.007633587786259542,-0.030534351145038167,0.0,180.73556095029042,131.59862734733647,0.0,0.007633587786259542,0.03816793893129771,-83.76490187402429,168.5240489734039,-0.007633587786259542,-0.0,-0.04580152671755725,179.7721367383906,49.935735876845314,-0.015267175572519083,0.03816793893129771,-0.007633587786259542,0.0,0.0,0.0,0.0,0.0,79.57,92.62,-4.0,-1.0,2.0,
1.85,-8.632285462531913,141.59412154768964,-0.007633587786259542,-0.030534351145038167,0.0,180.94602222561363,131.94793932825905,0.0,0.007633587786259542,0.03816793893129771,-83.62289164139533,168.49385004631134,-0.007633587786259542,0.022900763358778626,-0.015267175572519083,179.8066406705389,49.94524571747015,-0.015267175572519083,0.03816793893129771,-0.007633587786259542,0.0,0.0,0.0,0.0,0.0,79.45,92.71,-7.0,0.0,-2.0,
1.889,-8.639764965811377,141.64245349991805,-0.007633587786259542,-0.030534351145038167,0.0,181.12491430963837,132.24485451204325,0.0,0.007633587786259542,0.03816793893129771,-83.50218294366071,168.46818095828266,-0.007633587786259542,0.022900763358778626,-0.015267175572519083,179.8359041273688,49.953588623986,0.015267175572519083,0.030534351145038167,0.030534351145038167,0.0,0.0,0.0,0.0,0.0,79.63,92.72,-4.0,-1.0,2.0,
1.926,-8.64612254359892,141.68353565931218,-0.007633587786259542,-0.030534351145038167,0.0,181.2769725810594,132.4972324182598,0.0,0.007633587786259542,0.03816793893129771,-83.39958055058628,168.4463622334583,-0.007633587786259542,0.022900763358778626,-0.015267175572519083,179.86064829468182,49.96074498002065,0.022900763358778626,0.015267175572519083,0.03816793893129771,0.0,0.0,0.0,0.0,0.0,79.27,92.72,-4.0,1.0,2.0,
1.964,-8.651526484718332,141.7184554947972,-0.007633587786259542,-0.030534351145038167,0.0,181.40622211176728,132.71175363854388,0.0,0.007633587786259542,0.03816793893129771,-83.31236851647301,168.42781631735758,-0.007633587786259542,0.022900763358778626,-0.015267175572519083,179.88161595140173,49.96617902768827,-0.05343511450381679,0.007633587786259542,0.0916030534351145,0.0,0.0,0.0,0.0,0.0,79.19,92.58,-4.0,-2.0,0.0,
2.002,-8.656119834669832,141.74813735495948,-0.007633587786259542,-0.030534351145038167,0.0,181.51608421286898,132.89409667578533,0.0,0.007633587786259542,0.03816793893129771,-83.23823828747675,168.412052288672,-0.007633587786259542,0.022900763358778626,-0.015267175572519083,179.89950334510982,49.97066819721338,-0.06870229007633588,0.015267175572519083,0.06870229007633588,0.0,0.0,0.0,0.0,0.0,79.09,92.53,-5.0,3.0,0.0,
2.04,-8.660024182128607,141.7733669360974,-0.007633587786259542,-0.030534351145038167,0.0,181.6094669988054,133.0490882574406,0.0,0.007633587786259542,0.03816793893129771,-83.17522759282991,168.3986528642892,-0.007633587786259542,0.022900763358778626,-0.015267175572519083,179.91503205724263,49.97474353329446,-0.03816793893129771,0.05343511450381679,0.015267175572519083,0.0,0.0,0.0,0.0,0.0,79.11,92.61,-4.0,0.0,0.0,
2.0780000000000003,-8.480926839140293,141.57253320152415,0.015267175572519083,0.007633587786259542,0.03816793893129771,181.6888423668514,133.18083110184753,0.0,0.007633587786259542,0.03816793893129771,-83.1216685023801,168.38726335356384,-0.007633587786259542,0.022900763358778626,-0.015267175572519083,179.92823146255552,49.97820756896337,-0.03816793893129771,0.05343511450381679,0.015267175572519083,0.0,0.0,0.0,0.0,0.0,79.12,92.6,-5.0,7.0,0.0,
2.116,-8.328694097600227,141.40182452713688,0.015267175572519083,0.007633587786259542,0.03816793893129771,181.63625740250504,133.04057708363462,0.030534351145038167,0.10687022900763359,-0.05343511450381679,-83.07614327549777,168.3775822694473,-0.007633587786259542,0.022900763358778626,-0.015267175572519083,179.93945095707147,49.98115199928195,-0.03816793893129771,0.05343511450381679,0.015267175572519083,0.0,0.0,0.0,0.0,0.0,79.2,92.65,-5.0,6.0,0.0,
2.1550000000000002,-8.199296267291171,141.2567221539077,0.015267175572519083,0.007633587786259542,0.03816793893129771,181.59156018281064,132.92136116815365,0.030534351145038167,0.10687022900763359,-0.05343511450381679,-83.228907311971,168.36746936958588,-0.0916030534351145,-0.08396946564885496,-0.015267175572519083,179.94898752741003,49.98365476505274,-0.03816793893129771,0.05343511450381679,0.015267175572519083,0.0,0.0,0.0,0.0,0.0,79.25,92.62,-4.0,8.0,0.0,
2.193,-8.089308111528473,141.1333851366629,0.015267175572519083,0.007633587786259542,0.03816793893129771,181.55356754607038,132.82002763999483,0.030534351145038167,0.10687022900763359,-0.05343511450381679,-83.29821677960265,168.25603145761858,-0.06870229007633588,-0.09923664122137404,0.022900763358778626,179.95709361219778,49.98578211595791,-0.03816793893129771,0.05343511450381679,0.015267175572519083,0.0,0.0,0.0,0.0,0.0,79.54,92.56,-4.0,9.0,0.0,
2.231,-7.995818179130179,141.02854867200483,0.015267175572519083,0.007633587786259542,0.03816793893129771,181.52127380484117,132.73389414105984,0.030534351145038167,0.10687022900763359,-0.05343511450381679,-83.38815123424256,168.16315223440395,-0.030534351145038167,-0.0916030534351145,0.0916030534351145,179.96398378426738,49.98759036422731,-0.03816793893129771,0.05343511450381679,0.015267175572519083,0.0,0.0,0.0,0.0,0.0,79.7,92.6,-5.0,10.0,0.0,
2.269,-7.916351736591631,140.93943767704548,0.015267175572519083,0.007633587786259542,0.03816793893129771,181.49382412479633,132.66068066696508,0.030534351145038167,0.10687022900763359,-0.05343511450381679,-83.46459552068647,168.08420489467153,-0.030534351145038167,-0.0916030534351145,0.0916030534351145,179.97048928548838,49.988997604263936,-0.05343511450381679,0.1297709923664122,0.10687022900763359,0.0,0.0,0.0,0.0,0.0,80.01,92.72,-3.0,7.0,3.0,
2.308,-7.848805260433865,140.86369333133,0.015267175572519083,0.007633587786259542,0.03816793893129771,181.47049189675823,132.59844921398454,0.030534351145038167,0.10687022900763359,-0.05343511450381679,-83.52957316416379,168.01709965589896,-0.030534351145038167,-0.0916030534351145,0.0916030534351145,179.9761487325186,49.989804445317965,-0.09923664122137404,0.1450381679389313,0.09923664122137404,0.0,0.0,0.0,0.0,0.0,80.26,92.57,-8.0,11.0,-2.0,
2.347,-7.791390755699764,140.79931063747188,0.015267175572519083,0.007633587786259542,0.03816793893129771,181.45065950292584,132.5455524789511,0.030534351145038167,0.10687022900763359,-0.05343511450381679,-83.58480416111952,167.9600602029423,-0.030534351145038167,-0.0916030534351145,0.0916030534351145,179.98076460600572,49.99049026021389,-0.09923664122137404,0.12213740458015267,0.04580152671755725,0.0,0.0,0.0,0.0,0.0,80.76,92.67,-7.0,15.0,-2.0,
2.386,-7.742588426675777,140.74458534769246,0.015267175572519083,0.007633587786259542,0.03816793893129771,181.43380196816832,132.50059025417266,0.030534351145038167,0.10687022900763359,-0.05343511450381679,-83.63175050853188,167.9115766679291,-0.030534351145038167,-0.0916030534351145,0.0916030534351145,179.98468809846977,49.99074877539451,-0.13740458015267176,0.12213740458015267,0.08396946564885496,0.0,0.0,0.0,0.0,0.0,81.23,92.45,-9.0,21.0,-3.0,
2.424,-7.7011064470053885,140.69806885137996,0.015267175572519083,0.007633587786259542,0.03816793893129771,181.41947306362442,132.462372363111,0.030534351145038167,0.10687022900763359,-0.05343511450381679,-83.69859412160996,167.89005077974463,-0.07633587786259542,-0.0916030534351145,0.08396946564885496,179.98802306706423,49.990968513298036,-0.13740458015267176,0.12213740458015267,0.08396946564885496,0.0,0.0,0.0,0.0,0.0,81.46,92.44,-8.0,22.0,-3.0,
2.463,-7.665846764285558,140.65852982951432,0.015267175572519083,0.007633587786259542,0.03816793893129771,181.40729349476211,132.42988715570857,0.030534351145038167,0.10687022900763359,-0.05343511450381679,-83.75541119272633,167.8717537747878,-0.07633587786259542,-0.0916030534351145,0.08396946564885496,179.99033870640008,49.99070109204275,-0.19083969465648856,0.061068702290076333,0.08396946564885496,0.0,0.0,0.0,0.0,0.0,81.8,92.46,-5.0,16.0,0.0,
2.502,-8.185077389152822,140.9676983113193,0.06870229007633588,-0.07633587786259542,0.10687022900763359,181.39694086122915,132.40227472941652,0.030534351145038167,0.10687022900763359,-0.05343511450381679,-83.80370570317524,167.8562013205745,-0.07633587786259542,-0.0916030534351145,0.08396946564885496,179.99230699983553,49.99047378397575,-0.19083969465648856,0.061068702290076333,0.08396946564885496,0.0,0.0,0.0,0.0,0.0,82.27,92.23,-8.0,25.0,-1.0,
2.541,-8.577360605044143,141.17260415074907,0.05343511450381679,-0.07633587786259542,0.08396946564885496,181.38814112272613,132.37880416706827,0.030534351145038167,0.10687022900763359,-0.05343511450381679,-83.84475603705681,167.8429817344932,-0.07633587786259542,-0.0916030534351145,0.08396946564885496,179.99398004925567,49.990280572118806,-0.19083969465648856,0.061068702290076333,0.08396946564885496,0.0,0.0,0.0,0.0,0.0,82.93,92.21,-6.0,23.0,0.0,
2.58,-8.910801338551767,141.34677411426438,0.05343511450381679,-0.07633587786259542,0.08396946564885496,181.38066134499854,132.35885418907225,0.030534351145038167,0.10687022900763359,-0.05343511450381679,-84.19663681312598,167.7247970878347,-0.05343511450381679,-0.015267175572519083,0.07633587786259542,179.9954021412628,49.9901163420404,-0.19083969465648856,0.061068702290076333,0.08396946564885496,0.0,0.0,0.0,0.0,0.0,83.72,92.26,-3.0,26.0,4.0,
2.619,-9.194225962033247,141.49481858325237,0.05343511450381679,-0.07633587786259542,0.08396946564885496,182.3034578604268,133.4978679445302,0.022900763358778626,0.17557251908396945,-0.015267175572519083,-84.49573547278476,167.62434013817497,-0.05343511450381679,-0.015267175572519083,0.07633587786259542,179.99661091946885,49.98997674647376,-0.19083969465648856,0.061068702290076333,0.08396946564885496,0.0,0.0,0.0,0.0,0.0,84.25,91.99,-6.0,28.0,0.0,
2.657,-9.435136891992505,141.62065638189216,0.05343511450381679,-0.07633587786259542,0.08396946564885496,183.08783489854082,134.4660296366695,0.022900763358778626,0.17557251908396945,-0.015267175572519083,-84.74996933349473,167.5389517309642,-0.05343511450381679,-0.015267175572519083,0.07633587786259542,152.99802766306908,49.991934426119975,0.05343511450381679,0.10687022900763359,0.09923664122137404,0.0,0.0,0.0,0.0,0.0,85.34,91.96,-4.0,36.0,0.0,
2.695,-9.822094246714977,141.93887735778955,0.07633587786259542,-0.15267175572519084,0.0916030534351145,183.75455538093775,135.28896707498788,0.022900763358778626,0.17557251908396945,-0.015267175572519083,-84.96606811509821,167.46637158483503,-0.05343511450381679,-0.015267175572519083,0.07633587786259542,130.04923189512928,49.99359845381926,0.05343511450381679,0.10687022900763359,0.09923664122137404,0.0,0.0,0.0,0.0,0.0,86.44,91.62,-9.0,39.0,-1.0,
2.734,-10.15100799822908,142.20936518730232,0.07633587786259542,-0.15267175572519084,0.0916030534351145,184.86419746266475,136.6775978397699,0.03816793893129771,0.22900763358778625,-0.061068702290076333,-85.14975207946117,167.40467846062523,-0.05343511450381679,-0.015267175572519083,0.07633587786259542,110.54275549238045,49.99501287736365,0.05343511450381679,0.10687022900763359,0.09923664122137404,0.0,0.0,0.0,0.0,0.0,87.66,91.42,-4.0,37.0,0.0,
2.773,-10.430584687016067,142.43927984238817,0.07633587786259542,-0.15267175572519084,0.0916030534351145,185.8073932321327,137.85793398983463,0.03816793893129771,0.22900763358778625,-0.061068702290076333,-85.24484940424351,167.4052418725527,0.0,-0.0916030534351145,0.061068702290076333,93.96225055004395,49.99621513737638,0.05343511450381679,0.10687022900763359,0.09923664122137404,0.0,0.0,0.0,0.0,0.0,88.71,91.4,-4.0,37.0,2.0,
2.811,-10.668224872485006,142.63470729921116,0.07633587786259542,-0.15267175572519084,0.0916030534351145,186.60910963618048,138.86121971738964,0.03816793893129771,0.22900763358778625,-0.061068702290076333,-85.01188808903201,167.37424603611652,0.05343511450381679,-0.030534351145038167,-0.015267175572519083,79.86882134905791,49.997237058387206,0.05343511450381679,0.10687022900763359,0.09923664122137404,0.0,0.0,0.0,0.0,0.0,89.81,91.27,-4.0,31.0,0.0,
2.85,-10.870219030133603,142.8008206375107,0.07633587786259542,-0.15267175572519084,0.0916030534351145,187.33359118296062,139.4741707595609,0.0,0.030534351145038167,0.030534351145038167,-84.81387097110223,167.34789957514576,0.05343511450381679,-0.030534351145038167,-0.015267175572519083,67.88940652821978,49.99810569124641,0.05343511450381679,0.10687022900763359,0.09923664122137404,0.0,0.0,0.0,0.0,0.0,91.32,91.32,-4.0,36.0,0.0,
2.889,-11.041914064134911,142.94201697506531,0.07633587786259542,-0.15267175572519084,0.0916030534351145,187.94940049772373,139.99517914540647,0.0,0.030534351145038167,0.030534351145038167,-84.64555642086192,167.32550508332062,0.05343511450381679,-0.030534351145038167,-0.015267175572519083,57.70690393050737,49.99884402917673,0.05343511450381679,0.10687022900763359,0.09923664122137404,0.0,0.0,0.0,0.0,0.0,92.65,91.49,-3.0,41.0,0.0,
2.928,-11.589501940152953,143.21589471085335,0.0,-0.022900763358778626,0.04580152671755725,188.47283841527238,140.4380362733752,0.0,0.030534351145038167,0.030534351145038167,-84.50248905315766,167.30646976526924,0.05343511450381679,-0.030534351145038167,-0.015267175572519083,49.051776722451834,49.9994716164175,0.05343511450381679,0.10687022900763359,0.09923664122137404,0.0,0.0,0.0,0.0,0.0,94.14,91.73,-4.0,33.0,-3.0,
2.966,-12.054951634768289,143.44869078627318,0.0,-0.022900763358778626,0.04580152671755725,188.91776064518874,140.81446483214862,0.0,0.030534351145038167,0.030534351145038167,-85.25525248414516,167.47919030815336,0.04580152671755725,-0.015267175572519083,0.1450381679389313,41.694918595604626,50.000005065572154,0.05343511450381679,0.10687022900763359,0.09923664122137404,0.0,0.0,0.0,0.0,0.0,95.51,91.83,0.0,21.0,3.0,
3.004,-12.450583875191324,143.64656745038005,0.0,-0.022900763358778626,0.04580152671755725,189.29594454061763,141.13442910710603,0.0,0.030534351145038167,0.030534351145038167,-85.89510140048452,167.62600276960487,0.04580152671755725,-0.015267175572519083,0.1450381679389313,62.43990219573573,49.9977981920101,-0.2595419847328244,-0.0916030534351145,0.2595419847328244,0.0,0.0,0.0,0.0,0.0,96.64,91.84,-2.0,23.0,5.0,
3.042,-12.786871279550905,143.8147626148709,0.0,-0.022900763358778626,0.04580152671755725,189.95725130303848,141.99446639304927,0.06870229007633588,0.13740458015267176,-0.03816793893129771,-86.43897297937298,167.75079336183865,0.04580152671755725,-0.015267175572519083,0.1450381679389313,80.07313825584717,49.995922349482356,-0.2595419847328244,-0.0916030534351145,0.2595419847328244,0.0,0.0,0.0,0.0,0.0,97.71,91.9,-2.0,28.0,6.0,
3.08,-13.564045941087084,144.3239540772892,0.015267175572519083,-0.12213740458015267,-0.061068702290076333,190.5193620510962,142.725498086101,0.06870229007633588,0.13740458015267176,-0.03816793893129771,-86.90126382142816,167.85686536523735,0.04580152671755725,-0.015267175572519083,0.1450381679389313,95.06138890694189,49.994327883333774,-0.2595419847328244,-0.0916030534351145,0.2595419847328244,0.0,0.0,0.0,0.0,0.0,99.09,91.87,-2.0,25.0,6.0,
3.118,-14.229323106137354,144.79465476637813,0.0,-0.09923664122137404,-0.007633587786259542,190.99715618694526,143.34687502519498,0.06870229007633588,0.13740458015267176,-0.03816793893129771,-87.29421103717507,167.94702656812626,0.04580152671755725,-0.015267175572519083,0.1450381679389313,107.8014019603724,49.992972587107474,-0.2595419847328244,-0.0916030534351145,0.2595419847328244,0.0,0.0,0.0,0.0,0.0,100.32,91.82,-3.0,22.0,6.0,
3.157,-14.794808696430085,145.19475035210374,0.0,-0.09923664122137404,-0.007633587786259542,191.40328120241696,143.87504542342487,0.06870229007633588,0.13740458015267176,-0.03816793893129771,-33.72569667424806,167.9085350077564,0.022900763358778626,-0.04580152671755725,0.007633587786259542,118.63041305578834,49.99182058531512,-0.2595419847328244,-0.0916030534351145,0.2595419847328244,0.0,0.0,0.0,0.0,0.0,101.42,91.68,-4.0,29.0,2.0,
3.195,-15.383285464582157,145.53976072231677,0.030534351145038167,-0.07633587786259542,-0.05343511450381679,191.7484874655679,144.32399026192027,0.06870229007633588,0.13740458015267176,-0.03816793893129771,11.807540534239887,167.87581718144202,0.022900763358778626,-0.04580152671755725,0.007633587786259542,127.83507248689187,49.99084138379162,-0.2595419847328244,-0.0916030534351145,0.2595419847328244,0.0,0.0,0.0,0.0,0.0,102.42,91.74,-7.0,28.0,0.0,
3.233,-15.88349071751142,145.83301953699785,0.030534351145038167,-0.07633587786259542,-0.05343511450381679,192.53695801173853,144.72826393504317,0.022900763358778626,0.04580152671755725,0.030534351145038167,50.510792161454646,167.84800702907478,0.022900763358778626,-0.04580152671755725,0.007633587786259542,135.65903300332988,49.99000906249665,-0.2595419847328244,-0.0916030534351145,0.2595419847328244,0.0,0.0,0.0,0.0,0.0,103.5,91.69,-4.0,21.0,0.0,
3.272,-16.308665182501294,146.08228952947675,0.030534351145038167,-0.07633587786259542,-0.05343511450381679,193.2071579759836,145.07189655719762,0.022900763358778626,0.04580152671755725,0.030534351145038167,29.528424798228563,167.82161527521646,0.022900763358778626,-0.0,0.030534351145038167,142.3093994423022,49.98930158939592,-0.2595419847328244,-0.0916030534351145,0.2595419847328244,0.0,0.0,0.0,0.0,0.0,104.31,91.5,-5.0,18.0,-3.0,
3.31,-16.670063477742687,146.29416902308384,0.030534351145038167,-0.07633587786259542,-0.05343511450381679,193.7768279455919,145.3639842860289,0.022900763358778626,0.04580152671755725,0.030534351145038167,11.734627533130874,167.89298226734087,0.015267175572519083,-0.0,0.015267175572519083,147.96221091542867,49.9887002372603,-0.2595419847328244,-0.0916030534351145,0.2595419847328244,0.0,0.0,0.0,0.0,0.0,105.4,91.44,-2.0,14.0,-2.0,
3.349,-16.807782169623042,146.5462541394463,0.015267175572519083,-0.05343511450381679,-0.015267175572519083,194.26104741975894,145.61225885553552,0.022900763358778626,0.04580152671755725,0.030534351145038167,-3.3901001422021633,167.95364421064662,0.015267175572519083,-0.0,0.015267175572519083,152.7671006675862,49.988189087945024,-0.2595419847328244,-0.0916030534351145,0.2595419847328244,0.0,0.0,0.0,0.0,0.0,106.14,91.48,-5.0,15.0,0.0,
3.387,-16.924843057721343,146.76052648835437,0.015267175572519083,-0.05343511450381679,-0.015267175572519083,194.38349627078807,145.80454208338813,-0.007633587786259542,0.03816793893129771,0.06870229007633588,-16.246118666235244,168.00520686245648,0.015267175572519083,-0.0,0.015267175572519083,156.85125695692005,49.987754611027036,-0.2595419847328244,-0.0916030534351145,0.2595419847328244,0.0,0.0,0.0,0.0,0.0,106.9,91.48,-5.0,11.0,-2.0,
3.426,-17.024344812604898,146.94265798492623,0.015267175572519083,-0.05343511450381679,-0.015267175572519083,194.4027859511959,145.9112977836459,-0.022900763358778626,0.030534351145038167,0.03816793893129771,-27.17373441166336,168.04903511649488,0.015267175572519083,-0.0,0.015267175572519083,160.32278980285386,49.98738530564675,-0.2595419847328244,-0.0916030534351145,0.2595419847328244,0.0,0.0,0.0,0.0,0.0,107.66,91.46,-4.0,8.0,-2.0,
3.463,-17.108921304255922,147.0974697570123,0.015267175572519083,-0.05343511450381679,-0.015267175572519083,194.4191821795426,146.00204012886502,-0.022900763358778626,0.030534351145038167,0.03816793893129771,-36.46220779527726,168.0862891324275,0.015267175572519083,-0.0,0.015267175572519083,163.27437134785177,49.989601930424655,0.03816793893129771,-0.0,0.04580152671755725,0.0,0.0,0.0,0.0,0.0,108.43,91.53,-3.0,9.0,0.0,
3.501,-17.180811322159293,147.22905976328548,0.015267175572519083,-0.05343511450381679,-0.015267175572519083,194.43311897363725,146.07917112230126,-0.022900763358778626,0.030534351145038167,0.03816793893129771,-44.424656636629294,168.04702031331814,0.007633587786259542,-0.030534351145038167,0.007633587786259542,165.7832156611,49.99148606148587,0.03816793893129771,-0.0,0.04580152671755725,0.0,0.0,0.0,0.0,0.0,109.05,91.56,-4.0,6.0,-2.0,
3.539,-17.24191783737716,147.34091126861767,0.015267175572519083,-0.05343511450381679,-0.015267175572519083,194.4449652486177,146.14473246672208,-0.022900763358778626,0.030534351145038167,0.03816793893129771,-51.19273815177852,168.01364181707518,0.007633587786259542,-0.030534351145038167,0.007633587786259542,167.91592798384954,49.99276314540699,0.0,0.022900763358778626,0.03816793893129771,0.0,0.0,0.0,0.0,0.0,109.66,91.6,-3.0,3.0,0.0,
3.577,-17.293858375312343,147.43598504815003,0.015267175572519083,-0.05343511450381679,-0.015267175572519083,194.45503458235112,146.20045960947976,-0.022900763358778626,0.030534351145038167,0.03816793893129771,-56.94560743965536,167.98527009526867,0.007633587786259542,-0.030534351145038167,0.007633587786259542,169.72873345818664,49.99384866673994,0.0,0.022900763358778626,0.04580152671755725,0.0,0.0,0.0,0.0,0.0,110.04,91.6,-4.0,3.0,0.0,
3.615,-17.33800783255725,147.51679776075255,0.015267175572519083,-0.05343511450381679,-0.015267175572519083,194.4635935160245,146.24782768082378,-0.022900763358778626,0.030534351145038167,0.03816793893129771,-61.835546334350674,167.96115413173314,0.007633587786259542,-0.030534351145038167,0.007633587786259542,144.26955319502503,49.9949660163615,0.022900763358778626,0.015267175572519083,0.015267175572519083,0.0,0.0,0.0,0.0,0.0,110.29,91.71,-3.0,1.0,0.0,
3.653,-17.375534871215418,147.58548856646468,0.015267175572519083,-0.05343511450381679,-0.015267175572519083,194.71100266241197,146.50906451555016,-0.015267175572519083,0.015267175572519083,0.015267175572519083,-65.9919943948417,167.94065556272793,0.007633587786259542,-0.030534351145038167,0.007633587786259542,122.62924997133764,49.99591576353983,0.022900763358778626,0.015267175572519083,0.015267175572519083,0.0,0.0,0.0,0.0,0.0,110.54,91.77,-3.0,0.0,0.0,
3.691,-17.407432854074862,147.64387575132,0.015267175572519083,-0.05343511450381679,-0.015267175572519083,194.86514353465893,146.73200056716323,-0.015267175572519083,0.015267175572519083,0.015267175572519083,-69.52497524625907,167.9232317790735,0.007633587786259542,-0.030534351145038167,0.007633587786259542,104.23499223120336,49.9967230486414,0.022900763358778626,0.015267175572519083,0.015267175572519083,0.0,0.0,0.0,0.0,0.0,110.68,91.82,-3.0,-1.0,0.0,
3.729,-17.657046646642485,147.80269747524957,-0.015267175572519083,-0.015267175572519083,-0.015267175572519083,194.9961632760688,146.92149621103434,-0.015267175572519083,0.015267175572519083,0.015267175572519083,-72.52800896996384,167.90842156296722,0.007633587786259542,-0.030534351145038167,0.007633587786259542,88.59987315208923,49.99740924097774,0.022900763358778626,0.015267175572519083,0.015267175572519083,0.0,0.0,0.0,0.0,0.0,110.76,91.78,-3.0,-1.0,0.0,
3.767,-17.866077838760134,147.9319480624722,-0.015267175572519083,-0.007633587786259542,-0.007633587786259542,195.10753005626722,147.0825675083248,-0.015267175572519083,0.015267175572519083,0.015267175572519083,-75.08058763511289,167.8958328792769,0.007633587786259542,-0.030534351145038167,0.007633587786259542,75.31002193484221,49.997992504463625,0.022900763358778626,0.015267175572519083,0.015267175572519083,0.0,0.0,0.0,0.0,0.0,110.72,91.76,-4.0,1.0,0.0,
3.804,-18.017032476886907,147.98849184432495,-0.022900763358778626,-0.007633587786259542,-0.007633587786259542,195.20219181943588,147.21947811102166,-0.015267175572519083,0.015267175572519083,0.015267175572519083,-77.25027950048958,167.88513249814014,0.007633587786259542,-0.030534351145038167,0.007633587786259542,64.01364840018225,49.99848827842663,0.022900763358778626,0.015267175572519083,0.015267175572519083,0.0,0.0,0.0,0.0,0.0,110.73,91.82,-5.0,0.0,-1.0,
3.842,-18.145343919294664,148.03655405889978,-0.022900763358778626,-0.007633587786259542,-0.007633587786259542,195.27101462846989,147.28275265950856,-0.015267175572519083,-0.0,0.0,-79.09451758605977,167.8760371741739,0.007633587786259542,-0.030534351145038167,0.007633587786259542,54.411730895721284,49.99890968629518,0.022900763358778626,0.015267175572519083,0.015267175572519083,0.0,0.0,0.0,0.0,0.0,110.68,91.78,-5.0,0.0,-2.0,
3.881,-18.254408645341258,148.0774069412884,-0.022900763358778626,-0.007633587786259542,-0.007633587786259542,195.29672944228267,147.30074403493748,-0.007633587786259542,-0.0,0.0,-80.66211995879442,167.86830614880256,0.007633587786259542,-0.030534351145038167,0.007633587786259542,46.25010101692946,49.999267882983446,0.022900763358778626,0.015267175572519083,0.015267175572519083,0.0,0.0,0.0,0.0,0.0,110.71,91.81,-4.0,0.0,0.0,
3.919,-18.34711366248086,148.1121318913187,-0.022900763358778626,-0.007633587786259542,-0.007633587786259542,195.2928798245899,147.3330197376159,-0.015267175572519083,-0.0,0.0,-81.99458197561889,167.86173477723693,0.007633587786259542,-0.030534351145038167,0.007633587786259542,39.312715619956414,49.99957235016848,0.022900763358778626,0.015267175572519083,0.015267175572519083,0.0,0.0,0.0,0.0,0.0,110.73,91.75,-5.0,0.0,-1.0,
3.957,-18.425912927049524,148.14164809884448,-0.022900763358778626,-0.007633587786259542,-0.007633587786259542,195.28960764955104,147.36045408489255,-0.015267175572519083,-0.0,0.0,-83.01547911664115,167.89731822071124,-0.007633587786259542,-0.0,-0.030534351145038167,33.415938032529326,49.999831147275756,0.022900763358778626,0.015267175572519083,0.015267175572519083,0.0,0.0,0.0,0.0,0.0,110.88,91.72,-4.0,0.0,0.0,
3.995,-18.415381246397416,148.17843386483347,-0.007633587786259542,-0.0,-0.007633587786259542,195.286826300768,147.38377328007772,-0.015267175572519083,-0.0,0.0,-83.88324168651008,167.9275641476644,-0.007633587786259542,-0.0,-0.030534351145038167,28.403677083216294,50.00005112481694,0.022900763358778626,0.015267175572519083,0.015267175572519083,0.0,0.0,0.0,0.0,0.0,110.86,91.73,-4.0,0.0,0.0,
4.0329999999999995,-18.406429317843124,148.20970176592408,-0.007633587786259542,-0.0,-0.007633587786259542,195.28446215430245,147.4035945959851,-0.015267175572519083,-0.0,0.0,-84.62083987089866,167.9532731855746,-0.007633587786259542,-0.0,-0.030534351145038167,37.64325529172622,50.0000434492384,0.0,0.015267175572519083,0.022900763358778626,0.0,0.0,0.0,0.0,0.0,110.87,91.74,-4.0,0.0,-1.0,
4.072,-18.398820178571974,148.2362794818511,-0.007633587786259542,-0.0,-0.007633587786259542,195.3082247247365,147.3673327436487,-0.007633587786259542,0.007633587786259542,0.0,-85.24779832762896,167.97512586779825,-0.007633587786259542,-0.0,-0.030534351145038167,45.49689676895966,50.000036924996635,0.0,0.015267175572519083,0.022900763358778626,0.0,0.0,0.0,0.0,0.0,110.89,91.79,-3.0,-1.0,0.0,
4.109999999999999,-18.3923524101915,148.2588705403891,-0.007633587786259542,-0.0,-0.007633587786259542,195.32842290960545,147.33651016916272,-0.007633587786259542,0.007633587786259542,0.0,-85.78071301584971,167.99370064768837,-0.007633587786259542,-0.0,-0.030534351145038167,65.67236226904171,50.00016115038351,0.015267175572519083,-0.0,0.007633587786259542,0.0,0.0,0.0,0.0,0.0,110.89,91.82,-5.0,0.0,-1.0,
4.147,-18.386854807068094,148.2780729401464,-0.007633587786259542,-0.0,-0.007633587786259542,195.34559136674406,147.31031098084966,-0.007633587786259542,0.007633587786259542,0.0,-86.3110936567721,168.00285035265716,0.0,-0.0,-0.007633587786259542,82.82150794411146,50.000266741962356,0.015267175572519083,-0.0,0.007633587786259542,0.0,0.0,0.0,0.0,0.0,110.93,91.85,-4.0,0.0,0.0,
4.1850000000000005,-18.400114582873595,148.25998887418956,-0.007633587786259542,-0.007633587786259542,-0.007633587786259542,195.3601845553119,147.28804167078357,-0.007633587786259542,0.007633587786259542,0.0,-86.76191720155614,168.01062760188063,0.0,-0.0,-0.007633587786259542,97.39828176792074,50.00035649480437,0.015267175572519083,-0.0,0.007633587786259542,0.0,0.0,0.0,0.0,0.0,110.97,91.86,-4.0,-1.0,0.0,
4.223,-18.41138539230827,148.24461741812627,-0.007633587786259542,-0.007633587786259542,-0.007633587786259542,195.36200308702132,147.34972315026357,-0.007633587786259542,0.007633587786259542,0.0,-87.14511721462256,168.01723826372057,0.0,-0.0,-0.007633587786259542,109.78853951815861,50.00043278472008,0.015267175572519083,-0.0,0.007633587786259542,0.0,0.0,0.0,0.0,0.0,110.94,91.82,-2.0,-1.0,-1.0,
4.262,-18.420965580327742,148.23155168047248,-0.007633587786259542,-0.007633587786259542,-0.007633587786259542,195.36354883897434,147.40215240782157,-0.007633587786259542,0.007633587786259542,0.0,-87.47083722572901,168.0228573262845,0.0,-0.0,-0.007633587786259542,93.32032346050501,50.000432745652255,0.007633587786259542,0.007633587786259542,0.022900763358778626,0.0,0.0,0.0,0.0,0.0,110.88,91.86,-3.0,-1.0,0.0,
4.3,-18.461908259551315,148.25223484920792,-0.007633587786259542,-0.007633587786259542,0.0,195.36486272813443,147.44671727674586,-0.007633587786259542,0.007633587786259542,0.0,-87.7476992351695,168.02763352946386,0.0,-0.0,-0.007633587786259542,79.32233981149945,50.0004327124446,0.007633587786259542,0.007633587786259542,0.022900763358778626,0.0,0.0,0.0,0.0,0.0,110.8,91.87,-4.0,0.0,-1.0,
4.338,-18.496709536891352,148.26981554263304,-0.007633587786259542,-0.007633587786259542,0.0,195.36767459230214,147.4204295274406,-0.015267175572519083,-0.0,0.0,-87.98303194319394,168.03169330216633,0.0,-0.0,-0.007633587786259542,67.42405370984471,50.0004326842181,0.007633587786259542,0.007633587786259542,0.022900763358778626,0.0,0.0,0.0,0.0,0.0,110.77,91.91,-4.0,-1.0,0.0,
4.377,-18.526290622630384,148.2847591320444,-0.007633587786259542,-0.007633587786259542,0.0,195.3700646768447,147.39808494053113,-0.015267175572519083,-0.0,0.0,-88.18306474501469,168.03514410896344,0.0,-0.0,-0.007633587786259542,57.310575408934376,50.00049754572175,0.015267175572519083,0.015267175572519083,0.007633587786259542,0.0,0.0,0.0,0.0,0.0,110.7,91.86,-3.0,-2.0,0.0,
4.415,-18.54834936018878,148.29746118304405,-0.007633587786259542,-0.0,0.0,195.37209624870584,147.37909204165808,-0.015267175572519083,-0.0,0.0,-88.35309262656233,168.03807729474096,0.0,-0.0,-0.007633587786259542,48.71411885316059,50.000552677999856,0.015267175572519083,0.015267175572519083,0.007633587786259542,0.0,0.0,0.0,0.0,0.0,110.68,91.85,-3.0,-3.0,0.0,
4.453,-18.567099287113415,148.30825792639376,-0.007633587786259542,-0.0,0.0,195.37382308478783,147.362948077616,-0.015267175572519083,-0.0,0.0,-88.4291191581666,168.0402164035939,-0.007633587786259542,-0.0,-0.007633587786259542,41.40713078075287,50.00059954043625,0.015267175572519083,0.015267175572519083,0.007633587786259542,0.0,0.0,0.0,0.0,0.0,110.53,91.9,-3.0,-2.0,0.0,
4.491,-18.583036724999356,148.317435158241,-0.007633587786259542,-0.0,0.0,195.3752908954575,147.34922570818023,-0.015267175572519083,-0.0,0.0,-88.49374171003024,168.04203464611885,-0.007633587786259542,-0.0,-0.007633587786259542,35.19606114821394,50.00083402999573,0.03816793893129771,-0.0,0.0,0.0,0.0,0.0,0.0,0.0,110.45,91.93,-4.0,-3.0,-1.0,
4.528,-18.596583547202407,148.32523580531117,-0.007633587786259542,-0.0,0.0,195.37653853452676,147.33756169415983,-0.015267175572519083,-0.0,0.0,-88.54867087911433,168.04358015226506,-0.007633587786259542,-0.0,-0.007633587786259542,56.91658710591166,50.00103334612129,0.03816793893129771,-0.007633587786259542,0.030534351145038167,0.0,0.0,0.0,0.0,0.0,110.36,92.02,-3.0,-2.0,0.0,
4.567,-18.608098346075,148.3318663553208,-0.007633587786259542,-0.0,0.0,195.3775990277356,147.32764728224248,-0.015267175572519083,-0.0,0.0,-88.59536067283581,168.04489383248938,-0.007633587786259542,-0.0,-0.007633587786259542,48.379099024598915,50.00107299383564,0.022900763358778626,-0.0,0.022900763358778626,0.0,0.0,0.0,0.0,0.0,110.21,92.03,-4.0,-2.0,-1.0,
4.605,-18.618010349521843,148.32537715708597,0.0,-0.0,0.0,195.37850044696313,147.31922003211275,-0.015267175572519083,-0.0,0.0,-88.63504699749906,168.04601046068,-0.007633587786259542,-0.0,-0.007633587786259542,41.12223415548308,50.001106694392845,0.022900763358778626,-0.0,0.022900763358778626,0.0,0.0,0.0,0.0,0.0,110.1,92.01,-3.0,-3.0,0.0,
4.643,-18.626435552451657,148.31986133858635,0.0,-0.0,0.0,195.30612333311214,147.27557338248656,-0.007633587786259542,-0.0,0.0,-88.66878037346282,168.04695959464203,-0.007633587786259542,-0.0,-0.007633587786259542,34.95389901673462,50.001135339866465,0.022900763358778626,-0.0,0.022900763358778626,0.0,0.0,0.0,0.0,0.0,109.89,91.99,-3.0,-2.0,0.0,
4.681,-18.633596974941998,148.31517289286168,0.0,-0.0,0.0,195.2446027863388,147.2384737303043,-0.007633587786259542,-0.0,0.0,-88.6796065670033,168.050397504482,-0.007633587786259542,-0.0,-0.007633587786259542,29.710814148798423,50.001159688519046,0.022900763358778626,-0.0,0.022900763358778626,0.0,0.0,0.0,0.0,0.0,109.72,92.01,-3.0,0.0,1.0,
4.719,-18.63968418405879,148.3111877139957,0.0,-0.0,0.0,195.19231032158143,147.20693902594937,-0.007633587786259542,-0.0,0.0,-88.68880883151272,168.05331972784597,-0.007633587786259542,-0.0,-0.007633587786259542,25.25419201105266,50.001115499377555,0.015267175572519083,-0.0,0.007633587786259542,0.0,0.0,0.0,0.0,0.0,109.65,92.16,-3.0,1.0,0.0,
4.757,-18.64485831180806,148.30780031195962,0.0,-0.0,0.0,195.16263335902048,147.18493593085333,-0.007633587786259542,0.007633587786259542,0.0,-88.69663075634571,168.05580361770535,-0.007633587786259542,-0.0,-0.007633587786259542,21.46606319396876,50.00107793860729,0.015267175572519083,-0.0,0.007633587786259542,0.0,0.0,0.0,0.0,0.0,109.5,92.14,-3.0,0.0,0.0,
4.795,-18.705399238770674,148.36198379894356,-0.007633587786259542,-0.007633587786259542,0.0,195.13740794084364,147.1662333000217,-0.007633587786259542,0.007633587786259542,0.0,-88.70327939245375,168.05791492408582,-0.007633587786259542,-0.0,-0.007633587786259542,18.246153699447447,50.00104601195257,0.015267175572519083,-0.0,0.007633587786259542,0.0,0.0,0.0,0.0,0.0,109.4,92.24,-3.0,3.0,1.0,
4.833,-18.756859026688893,148.4080397628799,-0.007633587786259542,-0.007633587786259542,0.0,195.11596633539335,147.15033606381482,-0.007633587786259542,0.007633587786259542,0.0,-88.75213422460938,168.06772897254584,-0.022900763358778626,-0.0,-0.007633587786259542,15.509230629104332,50.00101887429605,0.015267175572519083,-0.0,0.007633587786259542,0.0,0.0,0.0,0.0,0.0,109.21,92.25,-3.0,6.0,0.0,
4.871,-18.711570200997805,148.3582908693456,0.0,-0.0,0.0,195.0977409707606,147.13682341303897,-0.007633587786259542,0.007633587786259542,0.0,-88.79366083194166,168.07607091373686,-0.022900763358778626,-0.0,-0.007633587786259542,13.182846019312683,50.000995807288014,0.015267175572519083,-0.0,0.007633587786259542,0.0,0.0,0.0,0.0,0.0,109.12,92.22,-4.0,8.0,0.0,
4.909,-18.67307469916038,148.31600430984147,0.0,-0.0,0.0,195.08224941082278,147.12533765987948,-0.007633587786259542,0.007633587786259542,0.0,-88.8289584481741,168.08316156374923,-0.022900763358778626,-0.0,-0.007633587786259542,11.205224444501233,50.000846429338814,0.0,-0.022900763358778626,-0.007633587786259542,0.0,0.0,0.0,0.0,0.0,109.04,92.19,-4.0,13.0,1.0,
4.947,-18.64035352259857,148.28006073426295,0.0,-0.0,0.0,195.06908158487562,147.11557476969392,-0.007633587786259542,0.007633587786259542,0.0,-88.85896142197169,168.08918861625975,-0.022900763358778626,-0.0,-0.007633587786259542,36.524246136763495,50.00065457258581,-0.007633587786259542,-0.022900763358778626,0.007633587786259542,0.0,0.0,0.0,0.0,0.0,109.03,92.17,-3.0,17.0,1.0,
4.985,-18.61254052252103,148.2495086950212,0.0,-0.0,0.0,195.05788893282053,147.1072763130362,-0.007633587786259542,0.007633587786259542,0.0,-88.88446394969962,168.09431161089367,-0.022900763358778626,-0.0,-0.007633587786259542,58.0454794606826,50.00055637984194,0.0,-0.015267175572519083,0.007633587786259542,0.0,0.0,0.0,0.0,0.0,109.22,92.27,-3.0,23.0,0.0,
5.023,-18.47312383257786,148.16353627496892,0.0,-0.007633587786259542,0.0,195.0483751785737,147.10022262487715,-0.007633587786259542,0.007633587786259542,0.0,-88.90614109826836,168.0986661563325,-0.022900763358778626,-0.0,-0.007633587786259542,76.33852778601383,50.00047291600965,0.0,-0.015267175572519083,0.007633587786259542,0.0,0.0,0.0,0.0,0.0,109.44,92.33,-6.0,31.0,0.0,
5.061,-18.354619646126164,148.0904597179245,0.0,-0.007633587786259542,0.0,195.02743006165704,147.03741685895804,0.0,0.015267175572519083,0.0,-88.9245666745518,168.10236751995552,-0.022900763358778626,-0.0,-0.007633587786259542,91.88761886254538,50.000401971752204,0.0,-0.015267175572519083,0.007633587786259542,0.0,0.0,0.0,0.0,0.0,109.54,92.24,-8.0,36.0,-2.0,
5.1,-18.253891087642224,148.02834464443671,0.0,-0.007633587786259542,0.0,195.00962671227788,146.98403195792682,0.0,0.015267175572519083,0.0,-89.0176710295402,168.08036111392025,-0.007633587786259542,-0.007633587786259542,-0.015267175572519083,105.1043462775972,50.00034166913338,0.0,-0.015267175572519083,0.007633587786259542,0.0,0.0,0.0,0.0,0.0,110.23,92.14,-7.0,44.0,1.0,
5.138,-18.168271812930875,147.9755468319721,0.0,-0.007633587786259542,0.0,194.99449386530557,146.93865479205027,0.0,0.015267175572519083,0.0,-88.97641692940836,168.06770830170473,-0.007633587786259542,-0.007633587786259542,-0.030534351145038167,116.33856458039125,50.00029041190737,0.0,-0.015267175572519083,0.007633587786259542,0.0,0.0,0.0,0.0,0.0,110.8,92.26,-9.0,51.0,1.0,
5.176,-18.09549542942623,147.9306686913772,0.0,-0.007633587786259542,0.0,195.03066520364987,146.90942947229064,0.0,0.03816793893129771,0.030534351145038167,-88.94135094429629,168.05695341132153,-0.007633587786259542,-0.007633587786259542,-0.030534351145038167,125.88765013776619,50.000246843265266,0.0,-0.015267175572519083,0.007633587786259542,0.0,0.0,0.0,0.0,0.0,111.76,92.16,-8.0,55.0,2.0,
5.213,-18.03363550344728,147.89252227187154,0.0,-0.007633587786259542,0.0,194.93304639249442,146.79981031845404,-0.007633587786259542,0.05343511450381679,0.03816793893129771,-88.91154485695104,168.0478117544958,-0.007633587786259542,-0.007633587786259542,-0.030534351145038167,134.00437286153488,50.000209809919475,0.0,-0.015267175572519083,0.007633587786259542,0.0,0.0,0.0,0.0,0.0,113.04,91.98,-12.0,56.0,0.0,
5.251,-17.494453510153473,147.51322811630342,0.007633587786259542,-0.07633587786259542,0.061068702290076333,194.8500704030123,146.70663403769294,-0.007633587786259542,0.05343511450381679,0.03816793893129771,-88.88620968270757,168.04004134619393,-0.007633587786259542,-0.007633587786259542,-0.030534351145038167,140.90358717673826,50.000178331575555,0.0,-0.015267175572519083,0.007633587786259542,0.0,0.0,0.0,0.0,0.0,114.93,92.07,-15.0,76.0,3.0,
5.289,-17.03614881585374,147.19082808407055,0.007633587786259542,-0.07633587786259542,0.061068702290076333,194.77954081195247,146.627434199046,-0.007633587786259542,0.05343511450381679,0.03816793893129771,-88.86467478460062,168.03343649913734,-0.007633587786259542,-0.007633587786259542,-0.030534351145038167,146.76811400114968,49.99969737650994,-0.05343511450381679,0.007633587786259542,0.10687022900763359,0.0,0.0,0.0,0.0,0.0,117.02,91.93,-17.0,71.0,0.0,
5.328,-16.646589825698964,146.91678805667257,0.007633587786259542,-0.07633587786259542,0.061068702290076333,194.56122979273044,146.58234252836408,-0.06870229007633588,0.1297709923664122,0.0,-88.84637012120972,168.02782237913925,-0.007633587786259542,-0.007633587786259542,-0.030534351145038167,151.7529618018994,49.99928856470417,-0.05343511450381679,0.007633587786259542,0.10687022900763359,0.0,0.0,0.0,0.0,0.0,119.17,91.73,-14.0,65.0,2.0,
5.366,-16.315464684067404,146.6838540333843,0.007633587786259542,-0.07633587786259542,0.061068702290076333,194.37566542639172,146.54401460828444,-0.06870229007633588,0.1297709923664122,0.0,-88.83081115732745,168.02305037714086,-0.007633587786259542,-0.007633587786259542,-0.030534351145038167,155.99008243253667,49.99829221970744,-0.1297709923664122,0.007633587786259542,0.1297709923664122,0.0,0.0,0.0,0.0,0.0,121.18,91.94,-12.0,65.0,7.0,
5.405,-16.03400831368058,146.4858601135893,0.007633587786259542,-0.07633587786259542,0.061068702290076333,194.4424192060664,146.9594614559274,0.030534351145038167,0.16030534351145037,0.022900763358778626,-88.81758603802751,168.01899417544223,-0.007633587786259542,-0.007633587786259542,-0.030534351145038167,159.59163496857832,49.99744532646021,-0.1297709923664122,0.007633587786259542,0.1297709923664122,0.0,0.0,0.0,0.0,0.0,123.55,91.32,-12.0,63.0,4.0,
5.444,-15.794770398851778,146.31756528176354,0.007633587786259542,-0.07633587786259542,0.061068702290076333,194.69237344890018,147.5104298483934,0.12213740458015267,0.183206106870229,0.06870229007633588,-88.80634468662258,168.0155464039984,-0.007633587786259542,-0.007633587786259542,-0.030534351145038167,162.65295462421375,49.996725467200065,-0.1297709923664122,0.007633587786259542,0.1297709923664122,0.0,0.0,0.0,0.0,0.0,125.35,91.53,-14.0,62.0,7.0,
5.483,-15.591418171247295,146.17451467471162,0.007633587786259542,-0.07633587786259542,0.061068702290076333,194.70929285535104,147.826851306534,0.15267175572519084,0.22137404580152673,0.022900763358778626,-88.79678953792838,168.01261579827116,-0.007633587786259542,-0.007633587786259542,-0.030534351145038167,165.25507633150386,49.99611358682894,-0.1297709923664122,0.007633587786259542,0.1297709923664122,0.0,0.0,0.0,0.0,0.0,125.97,90.63,-16.0,75.0,5.0,
5.521,-15.418568777783484,146.0529216587175,0.007633587786259542,-0.07633587786259542,0.061068702290076333,194.72367435083427,148.0958095459535,0.15267175572519084,0.22137404580152673,0.022900763358778626,-88.78866766153831,168.01012478340297,-0.007633587786259542,-0.007633587786259542,-0.030534351145038167,167.46765840865467,49.994360664086,-0.2748091603053435,0.09923664122137404,0.15267175572519084,0.0,0.0,0.0,0.0,0.0,128.12,89.56,-16.0,58.0,-6.0,
5.56,-15.271646793339247,145.94956759512252,0.007633587786259542,-0.07633587786259542,0.061068702290076333,195.04323692925652,147.96762291139325,0.21374045801526717,0.40458015267175573,-0.05343511450381679,-88.78176406660675,168.00800742076504,-0.007633587786259542,-0.007633587786259542,-0.030534351145038167,169.34835317423284,49.99287067975451,-0.2748091603053435,0.09923664122137404,0.15267175572519084,0.0,0.0,0.0,0.0,0.0,132.26,89.52,-13.0,49.0,3.0,
5.598,-15.146763106561643,145.86171664106675,0.007633587786259542,-0.07633587786259542,0.061068702290076333,195.87939058625943,148.3021002224672,0.25190839694656486,0.6106870229007634,0.022900763358778626,-88.77589601091493,168.0062076625228,-0.007633587786259542,-0.007633587786259542,-0.030534351145038167,170.9469437249743,49.99160419307274,-0.2748091603053435,0.09923664122137404,0.15267175572519084,0.0,0.0,0.0,0.0,0.0,136.18,87.53,-13.0,52.0,4.0,
5.637,-16.386991733671874,146.65408315744105,0.13740458015267176,-0.6793893129770993,0.20610687022900764,196.5901211947119,148.58640593688006,0.25190839694656486,0.6106870229007634,0.022900763358778626,-88.77090816357688,168.00467786801687,-0.007633587786259542,-0.007633587786259542,-0.030534351145038167,172.3057456931045,49.99052767939323,-0.2748091603053435,0.09923664122137404,0.15267175572519084,0.0,0.0,0.0,0.0,0.0,139.29,85.7,-11.0,31.0,0.0,
5.676,-17.44118606671557,147.3275946963592,0.13740458015267176,-0.6793893129770993,0.20610687022900764,197.19424221189652,148.828065794131,0.25190839694656486,0.6106870229007634,0.022900763358778626,-36.03727849762405,168.27502194058187,0.007633587786259542,-0.2595419847328244,0.08396946564885496,173.46072736601522,49.98961264276565,-0.2748091603053435,0.09923664122137404,0.15267175572519084,0.0,0.0,0.0,0.0,0.0,141.91,84.54,-1.0,6.0,4.0,
5.714,-18.337251249802712,147.90007950443962,0.13740458015267176,-0.6793893129770993,0.20610687022900764,197.70774507650344,149.03347667279428,0.25190839694656486,0.6106870229007634,0.022900763358778626,8.995717881503076,168.5149177435862,-0.08396946564885496,-0.26717557251908397,0.03816793893129771,174.44246178798932,49.988834861632206,-0.2748091603053435,0.09923664122137404,0.15267175572519084,0.0,0.0,0.0,0.0,0.0,143.64,84.1,-4.0,2.0,4.0,
5.753,-19.09890665542678,148.386691591308,0.13740458015267176,-0.6793893129770993,0.20610687022900764,200.30205327864587,150.6277671745525,0.2595419847328244,0.8473282442748091,0.007633587786259542,47.27376480376113,168.7188291761399,-0.08396946564885496,-0.26717557251908397,0.03816793893129771,175.2769360466673,49.98817374766878,-0.2748091603053435,0.09923664122137404,0.15267175572519084,0.0,0.0,0.0,0.0,0.0,144.98,83.02,-6.0,-3.0,0.0,
5.792,-19.74631375020724,148.8003118651461,0.13740458015267176,-0.6793893129770993,0.20610687022900764,202.5072152504669,151.982914101047,0.2595419847328244,0.8473282442748091,0.007633587786259542,79.32264479332767,168.59625365261388,-0.183206106870229,-0.17557251908396945,0.03816793893129771,175.98623916654358,49.98761180079987,-0.2748091603053435,0.09923664122137404,0.15267175572519084,0.0,0.0,0.0,0.0,0.0,145.81,82.66,-5.0,-18.0,3.0,
5.831,-20.29660978077063,149.1518890979085,0.13740458015267176,-0.6793893129770993,0.20610687022900764,204.3816029265148,153.1347889885673,0.2595419847328244,0.8473282442748091,0.007633587786259542,106.45031483974488,168.3702778105321,-0.183206106870229,-0.12213740458015267,0.061068702290076333,176.58914681843842,49.98713414596129,-0.2748091603053435,0.09923664122137404,0.15267175572519084,0.0,0.0,0.0,0.0,0.0,146.17,82.43,-7.0,-25.0,4.0,
5.87,-20.76436140674951,149.45072974575655,0.13740458015267176,-0.6793893129770993,0.20610687022900764,205.97483245115552,154.11388264295957,0.2595419847328244,0.8473282442748091,0.007633587786259542,129.5088343791995,168.17819834476256,-0.183206106870229,-0.12213740458015267,0.061068702290076333,150.09960684131536,61.990361740846765,0.15267175572519084,-0.13740458015267176,-0.0916030534351145,0.0,0.0,0.0,0.0,0.0,146.47,82.04,-10.0,-19.0,1.0,
5.909,-21.161950288831562,149.70474429642738,0.13740458015267176,-0.6793893129770993,0.20610687022900764,207.3290775471001,154.946112249193,0.2595419847328244,0.8473282442748091,0.007633587786259542,149.02999010631632,167.93900790354866,-0.10687022900763359,-0.0,0.0,127.58349786076076,72.19310519649942,0.15267175572519084,-0.13740458015267176,-0.0916030534351145,0.0,0.0,0.0,0.0,0.0,146.38,81.63,-11.0,-24.0,6.0,
5.949,-25.394800387920597,150.83477748578875,0.32061068702290074,-0.8091603053435115,0.3053435114503817,208.480185878653,155.6535074144914,0.2595419847328244,0.8473282442748091,0.007633587786259542,165.6229724743656,167.73569602851688,-0.10687022900763359,-0.0,0.0,108.44480522728935,80.86543713380416,0.15267175572519084,-0.13740458015267176,-0.0916030534351145,0.0,0.0,0.0,0.0,0.0,146.87,80.7,-7.0,-27.0,1.0,
5.988,-28.992722972146275,151.79530569674588,0.32061068702290074,-0.8091603053435115,0.3053435114503817,209.458627960473,156.25479330499505,0.2595419847328244,0.8473282442748091,0.007633587786259542,179.83007412665958,167.49815105567245,-0.061068702290076333,0.11450381679389313,-0.08396946564885496,92.17691648883866,88.2369192805132,0.15267175572519084,-0.13740458015267176,-0.0916030534351145,0.0,0.0,0.0,0.0,0.0,146.66,80.35,-5.0,-32.0,-2.0,
6.027,-32.0509571687381,152.61175467605946,0.32061068702290074,-0.8091603053435115,0.3053435114503817,210.29030373001996,156.76588631192314,0.2595419847328244,0.8473282442748091,0.007633587786259542,191.90611053110948,167.29623782875467,-0.061068702290076333,0.11450381679389313,-0.08396946564885496,105.35011948895412,82.50443099990083,0.35877862595419846,-0.030534351145038167,-0.16793893129770993,0.0,0.0,0.0,0.0,0.0,146.36,79.49,-6.0,-37.0,-8.0,
6.066,-34.650456235841155,153.305736308476,0.32061068702290074,-0.8091603053435115,0.3053435114503817,210.9972281341349,157.20031536781204,0.2595419847328244,0.8473282442748091,0.007633587786259542,202.55804440276418,167.20653875831053,0.0,0.15267175572519084,-0.0916030534351145,116.54734203905225,77.63181596138033,0.35877862595419846,-0.030534351145038167,-0.16793893129770993,0.0,0.0,0.0,0.0,0.0,145.82,79.23,-4.0,-34.0,-11.0,
6.105,-38.89056127642178,154.81146694965048,0.2824427480916031,-0.9465648854961832,0.11450381679389313,211.5981138776326,157.5695800653176,0.2595419847328244,0.8473282442748091,0.007633587786259542,211.61218819367068,167.13029454843303,0.0,0.15267175572519084,-0.0916030534351145,126.06498120663566,73.49009317863789,0.35877862595419846,-0.030534351145038167,-0.16793893129770993,0.0,0.0,0.0,0.0,0.0,145.23,79.31,-5.0,-35.0,-17.0,
6.144,-42.87729171580123,156.0449418549267,0.2366412213740458,-0.5114503816793893,-0.030534351145038167,212.10886675960563,157.88345505819734,0.2595419847328244,0.8473282442748091,0.007633587786259542,219.3082104159412,167.06548697003714,0.0,0.15267175572519084,-0.0916030534351145,134.15497449908156,69.96962881330681,0.35877862595419846,-0.030534351145038167,-0.16793893129770993,0.0,0.0,0.0,0.0,0.0,144.6,79.91,-4.0,-40.0,-17.0,
6.183,-46.07604748525705,157.27651236991645,0.030534351145038167,-0.8244274809160306,-0.13740458015267176,212.54300670928274,158.15024880214511,0.2595419847328244,0.8473282442748091,0.007633587786259542,225.84982930487115,167.01040052840065,0.0,0.15267175572519084,-0.0916030534351145,141.03146879766058,66.9772341027754,0.35877862595419846,-0.030534351145038167,-0.16793893129770993,0.0,0.0,0.0,0.0,0.0,143.48,80.66,-2.0,-48.0,-16.0,
6.223,-48.79498988929449,158.32334730765774,0.030534351145038167,-0.8244274809160306,-0.13740458015267176,212.91202566650827,158.3770234845007,0.2595419847328244,0.8473282442748091,0.007633587786259542,232.2641277974226,167.03606497869194,-0.061068702290076333,-0.015267175572519083,-0.20610687022900764,146.87648895145276,64.4336985988237,0.35877862595419846,-0.030534351145038167,-0.16793893129770993,0.0,0.0,0.0,0.0,0.0,141.96,81.77,1.0,-57.0,-15.0,
6.262,-50.90750120273288,159.18505049016773,0.0916030534351145,-0.7404580152671756,0.08396946564885496,213.22569178015,158.56978196450297,0.2595419847328244,0.8473282442748091,0.007633587786259542,237.71628151609133,167.05787976143952,-0.061068702290076333,-0.015267175572519083,-0.20610687022900764,151.8447560821761,62.27169342046476,0.35877862595419846,-0.030534351145038167,-0.16793893129770993,0.0,0.0,0.0,0.0,0.0,140.22,82.97,3.0,-52.0,-8.0,
6.3,-52.70313581915551,159.91749819530122,0.0916030534351145,-0.7404580152671756,0.08396946564885496,213.4923079767454,158.7336266725049,0.2595419847328244,0.8473282442748091,0.007633587786259542,241.8207838047382,166.966119379003,-0.04580152671755725,-0.022900763358778626,0.0,156.06778314329094,60.433989018859656,0.35877862595419846,-0.030534351145038167,-0.16793893129770993,0.0,0.0,0.0,0.0,0.0,138.34,83.82,2.0,-48.0,-11.0,
6.339,-55.57297732104376,160.5157579096546,0.29770992366412213,-0.35877862595419846,0.1450381679389313,213.7189317438515,158.87289467430654,0.2595419847328244,0.8473282442748091,0.007633587786259542,245.30961075008804,166.88812305393196,-0.04580152671755725,-0.022900763358778626,0.0,159.65735614523857,58.87194027749532,0.35877862595419846,-0.030534351145038167,-0.16793893129770993,0.0,0.0,0.0,0.0,0.0,136.74,84.59,4.0,-42.0,-6.0,
6.378,-58.01234259764877,161.024278666855,0.29770992366412213,-0.35877862595419846,0.1450381679389313,218.43433065856001,159.24571088215583,-0.1450381679389313,0.5038167938931297,-0.10687022900763359,248.2751136536354,166.82182617762157,-0.04580152671755725,-0.022900763358778626,0.0,162.70849319689404,57.544198847335636,0.35877862595419846,-0.030534351145038167,-0.16793893129770993,0.0,0.0,0.0,0.0,0.0,134.92,85.42,6.0,-45.0,-3.0,
6.417,-60.08580308276302,161.45652131047532,0.29770992366412213,-0.35877862595419846,0.1450381679389313,222.84418087741517,159.42589916165767,-0.11450381679389313,0.4580152671755725,-0.12213740458015267,250.79579112165067,166.76547383275775,-0.04580152671755725,-0.022900763358778626,0.0,165.3019596908012,56.41561863169991,0.35877862595419846,-0.030534351145038167,-0.16793893129770993,0.0,0.0,0.0,0.0,0.0,133.39,86.09,4.0,-36.0,-4.0,
6.455,-62.3358039389155,161.78631022796355,0.09923664122137404,-0.44274809160305345,-0.05343511450381679,226.59255356344204,159.57905919923422,-0.11450381679389313,0.4580152671755725,-0.12213740458015267,252.93836696946366,166.7175743396235,-0.04580152671755725,-0.022900763358778626,0.0,167.50640621062226,55.45632544840954,0.35877862595419846,-0.030534351145038167,-0.16793893129770993,0.0,0.0,0.0,0.0,0.0,131.65,86.86,5.0,-39.0,-5.0,
6.493,-64.2483046666451,162.06663080782855,0.09923664122137404,-0.44274809160305345,-0.05343511450381679,230.2552998689034,159.62172455510415,-0.1297709923664122,0.3816793893129771,-0.09923664122137404,254.7595564401047,166.67685977045937,-0.04580152671755725,-0.022900763358778626,0.0,169.38018575247017,54.64092624261272,0.35877862595419846,-0.030534351145038167,-0.16793893129770993,0.0,0.0,0.0,0.0,0.0,130.19,87.61,4.0,-31.0,-2.0,
6.532,-65.90463156143907,162.5342355446051,0.11450381679389313,-0.3282442748091603,-0.04580152671755725,233.36863422854552,159.65799010759358,-0.1297709923664122,0.3816793893129771,-0.09923664122137404,256.30756749014955,166.64225238666987,-0.04580152671755725,-0.022900763358778626,0.0,170.9728983630409,53.94783691768543,0.35877862595419846,-0.030534351145038167,-0.16793893129770993,0.0,0.0,0.0,0.0,0.0,128.88,88.24,1.0,-21.0,-6.0,
6.571,-67.31250942201396,162.9316995708652,0.11450381679389313,-0.3282442748091603,-0.04580152671755725,236.01496843424133,159.6888158272096,-0.1297709923664122,0.3816793893129771,-0.09923664122137404,257.6233768826877,166.6128361104488,-0.04580152671755725,-0.022900763358778626,0.0,172.32741782248405,53.35546671668807,-0.022900763358778626,0.05343511450381679,-0.015267175572519083,0.0,0.0,0.0,0.0,0.0,127.74,88.95,1.0,-22.0,-5.0,
6.609,-69.03499574633054,163.23344220841884,0.11450381679389313,-0.20610687022900764,0.030534351145038167,238.26435250908278,159.71501768888322,-0.1297709923664122,0.3816793893129771,-0.09923664122137404,258.74181486634507,166.58783227566087,-0.04580152671755725,-0.022900763358778626,0.0,173.4787593630107,52.851952045840314,-0.022900763358778626,0.05343511450381679,-0.015267175572519083,0.0,0.0,0.0,0.0,0.0,126.39,89.55,0.0,-11.0,-6.0,
6.648,-70.49910912199964,163.48992345033943,0.11450381679389313,-0.20610687022900764,0.030534351145038167,240.69881303999026,159.64032460626697,-0.04580152671755725,0.1984732824427481,-0.007633587786259542,259.69248715245385,166.56657901609114,-0.04580152671755725,-0.022900763358778626,0.0,174.45739967245837,52.42396457561972,-0.022900763358778626,0.05343511450381679,-0.015267175572519083,0.0,0.0,0.0,0.0,0.0,125.23,89.86,-1.0,-16.0,-7.0,
6.687,-71.74360549131836,163.70793250597194,0.11450381679389313,-0.20610687022900764,0.030534351145038167,243.13905019726172,159.64791550235338,-0.03816793893129771,0.183206106870229,-0.015267175572519083,260.50055859564634,166.54851374545686,-0.04580152671755725,-0.022900763358778626,0.0,175.28924393548888,52.06017522593221,-0.022900763358778626,0.05343511450381679,-0.015267175572519083,0.0,0.0,0.0,0.0,0.0,124.22,90.92,-4.0,-13.0,-7.0,
6.725,-73.05951576872769,164.02377145999205,0.10687022900763359,-0.13740458015267176,-0.015267175572519083,245.21325178094247,159.65436776402683,-0.03816793893129771,0.183206106870229,-0.015267175572519083,261.1874193223599,166.53315826541774,-0.04580152671755725,-0.022900763358778626,0.0,175.99631155906482,51.75095427869783,-0.022900763358778626,0.05343511450381679,-0.015267175572519083,0.0,0.0,0.0,0.0,0.0,123.24,91.11,-8.0,-3.0,-3.0,
6.764,-74.17803950452563,164.29223457090916,0.10687022900763359,-0.13740458015267176,-0.015267175572519083,247.10862423549463,159.6967772549674,-0.022900763358778626,0.12213740458015267,-0.04580152671755725,261.77125094006647,166.52010610738446,-0.04580152671755725,-0.022900763358778626,0.0,176.59731903910438,51.48811647354861,-0.022900763358778626,0.05343511450381679,-0.015267175572519083,0.0,0.0,0.0,0.0,0.0,122.77,91.41,-5.0,-5.0,-6.0,
6.803,-75.12878467995387,164.5204282151887,0.10687022900763359,-0.13740458015267176,-0.015267175572519083,248.71969082186394,159.73282532226688,-0.022900763358778626,0.12213740458015267,-0.04580152671755725,261.86206269493357,166.68444417018821,0.0,0.022900763358778626,-0.10687022900763359,177.10817539713798,51.26470433917177,-0.022900763358778626,0.05343511450381679,-0.015267175572519083,0.0,0.0,0.0,0.0,0.0,122.82,91.61,-7.0,0.0,-4.0,
6.841,-75.93691807906787,164.7143928128263,0.10687022900763359,-0.13740458015267176,-0.015267175572519083,250.36931606821034,159.68121614555824,0.0,0.07633587786259542,-0.07633587786259542,261.9392526865706,166.8241315235714,0.0,0.022900763358778626,-0.10687022900763359,177.54240330146655,51.07480402495146,-0.022900763358778626,0.05343511450381679,-0.015267175572519083,0.0,0.0,0.0,0.0,0.0,122.38,91.93,-6.0,0.0,-3.0,
6.879,-76.62383146831476,164.87926272081828,0.10687022900763359,-0.13740458015267176,-0.015267175572519083,251.7714975276048,159.63734834535592,0.0,0.07633587786259542,-0.07633587786259542,262.0048641794621,166.9428657739471,0.0,0.022900763358778626,-0.10687022900763359,177.91097793617638,50.91306433038328,-0.061068702290076333,-0.007633587786259542,0.1297709923664122,0.0,0.0,0.0,0.0,0.0,121.9,92.07,-2.0,-14.0,-6.0,
6.918,-77.20770784917462,165.01940214261143,0.10687022900763359,-0.13740458015267176,-0.015267175572519083,252.96335176809006,159.60006071518393,0.0,0.07633587786259542,-0.07633587786259542,262.0606339484199,167.04378988676643,0.0,0.022900763358778626,-0.10687022900763359,178.2243961466721,50.775585590000325,-0.061068702290076333,0.007633587786259542,0.10687022900763359,0.0,0.0,0.0,0.0,0.0,121.3,92.23,-6.0,0.0,-4.0,
6.957,-77.70400277290551,165.13852065113562,0.10687022900763359,-0.13740458015267176,-0.015267175572519083,253.97642787250254,159.56836622953773,0.0,0.07633587786259542,-0.07633587786259542,262.77234284091026,166.97837198393688,0.0,0.022900763358778626,0.030534351145038167,178.49080162559343,50.65872866067481,-0.061068702290076333,0.007633587786259542,0.10687022900763359,0.0,0.0,0.0,0.0,0.0,120.75,92.57,-7.0,0.0,-3.0,
6.995,-78.2587100353617,165.3964978157886,0.03816793893129771,-0.0,0.030534351145038167,254.83754256125314,159.54142591673846,0.0,0.07633587786259542,-0.07633587786259542,263.3772953995271,166.9227667665317,0.0,0.022900763358778626,0.030534351145038167,178.7172462826766,50.55940027074813,-0.061068702290076333,0.007633587786259542,0.10687022900763359,0.0,0.0,0.0,0.0,0.0,120.5,92.68,-6.0,1.0,-1.0,
7.034,-78.73021120844946,165.6157784057436,0.03816793893129771,-0.0,0.030534351145038167,255.56949004669116,159.5185266508591,0.0,0.07633587786259542,-0.07633587786259542,263.8915050743514,166.87550233173732,0.0,0.022900763358778626,0.030534351145038167,165.4097891112675,50.47523068129518,-0.030534351145038167,0.015267175572519083,0.061068702290076333,0.0,0.0,0.0,0.0,0.0,120.05,92.85,-4.0,0.0,0.0,
7.072,-79.3179743044681,165.79909039146406,0.022900763358778626,0.015267175572519083,0.022900763358778626,256.1916454093135,159.49906227486161,0.0,0.07633587786259542,-0.07633587786259542,264.3285832979521,166.8353275621621,0.0,0.022900763358778626,0.030534351145038167,154.09845051556974,50.403686530260174,-0.030534351145038167,0.015267175572519083,0.061068702290076333,0.0,0.0,0.0,0.0,0.0,119.7,92.96,-5.0,2.0,1.0,
7.11,-79.94199341447992,165.99452733654206,0.007633587786259542,0.007633587786259542,0.0,256.7204774675424,159.48251755526377,0.0,0.07633587786259542,-0.07633587786259542,264.70009978801266,166.80117900802315,0.0,0.022900763358778626,0.030534351145038167,144.48381270922664,50.34287400188042,-0.030534351145038167,0.015267175572519083,0.061068702290076333,0.0,0.0,0.0,0.0,0.0,119.51,92.89,-5.0,0.0,0.0,
7.148,-80.47240965798997,166.16064873985837,0.007633587786259542,0.007633587786259542,0.0,256.9212078584168,159.45402965537613,-0.007633587786259542,0.007633587786259542,0.015267175572519083,265.01588880456416,166.77215273700506,0.0,0.022900763358778626,0.030534351145038167,136.311370573835,50.29118335275762,-0.030534351145038167,0.015267175572519083,0.061068702290076333,0.0,0.0,0.0,0.0,0.0,119.29,92.93,-6.0,-1.0,0.0,
7.186,-80.92326346497352,166.30185193267724,0.007633587786259542,0.007633587786259542,0.0,257.1904367815804,159.43144217849513,0.0,0.007633587786259542,0.0,265.2843094686329,166.74748040663968,0.0,0.022900763358778626,0.030534351145038167,129.3647947587521,50.247246301003244,-0.030534351145038167,0.015267175572519083,0.061068702290076333,0.0,0.0,0.0,0.0,0.0,118.99,92.96,-4.0,-3.0,0.0,
7.224,-81.30648920090952,166.42187464657326,0.007633587786259542,0.007633587786259542,0.0,257.41928136626944,159.41224282314627,0.0,0.007633587786259542,0.0,265.51246703309135,166.72650892582914,0.0,0.022900763358778626,0.030534351145038167,136.9599457893729,50.21028911998913,0.015267175572519083,-0.015267175572519083,0.0,0.0,0.0,0.0,0.0,0.0,118.62,92.89,-4.0,-1.0,0.0,
7.261,-81.63223107645514,166.52389395338488,0.007633587786259542,0.007633587786259542,0.0,257.61379926325515,159.39592337109974,0.0,0.007633587786259542,0.0,265.2289851365193,166.8827321547593,-0.022900763358778626,0.007633587786259542,-0.015267175572519083,143.41582416540058,50.17887551612713,0.015267175572519083,-0.015267175572519083,0.0,0.0,0.0,0.0,0.0,0.0,118.26,92.76,-4.0,-2.0,0.0,
7.299,-81.9091116706689,166.61061036417476,0.007633587786259542,0.007633587786259542,0.0,257.779139475693,159.3820518368602,0.0,0.007633587786259542,0.0,265.1973182863921,166.92696328063047,-0.030534351145038167,-0.0,-0.05343511450381679,148.9033207850241,50.15217395284443,0.015267175572519083,-0.015267175572519083,0.0,0.0,0.0,0.0,0.0,0.0,118.02,92.63,-4.0,-2.0,1.0,
7.337,-82.14446017575061,166.68431931334615,0.007633587786259542,0.007633587786259542,0.0,257.9196786562652,159.3702610327566,0.0,0.007633587786259542,0.0,265.1704014637839,166.96455973762096,-0.030534351145038167,-0.0,-0.05343511450381679,153.5676929117041,50.1296073950465,0.030534351145038167,-0.015267175572519083,0.0,0.0,0.0,0.0,0.0,0.0,117.67,92.6,-2.0,-5.0,3.0,
7.375,-82.34450640507006,166.74697192014185,0.007633587786259542,0.007633587786259542,0.0,257.8756019609015,159.4485951896486,0.0,0.007633587786259542,0.03816793893129771,265.14752216456696,166.99651672606288,-0.030534351145038167,-0.0,-0.05343511450381679,157.53240921938212,50.11042582091826,0.030534351145038167,-0.015267175572519083,0.0,0.0,0.0,0.0,0.0,0.0,117.41,92.45,-4.0,-2.0,3.0,
7.413,-82.5145456999916,166.8002266359182,0.007633587786259542,0.007633587786259542,0.0,257.8381367698424,159.51517922300678,0.0,0.007633587786259542,0.03816793893129771,264.84789528514875,167.06569491449943,-0.030534351145038167,-0.007633587786259542,0.007633587786259542,160.90241808090843,50.09412148290925,0.030534351145038167,-0.015267175572519083,0.0,0.0,0.0,0.0,0.0,0.0,117.22,92.39,-4.0,0.0,2.0,
7.451,-82.6590791006749,166.8454931443281,0.007633587786259542,0.007633587786259542,0.0,257.7422697131325,159.5397996640966,0.007633587786259542,0.007633587786259542,0.015267175572519083,264.5932124376433,167.1244963746705,-0.030534351145038167,-0.007633587786259542,0.007633587786259542,163.76692561320579,50.0802627956016,0.030534351145038167,-0.015267175572519083,0.0,0.0,0.0,0.0,0.0,0.0,117.05,92.43,-3.0,-1.0,4.0,
7.489,-82.7819324912557,166.88396967647648,0.007633587786259542,0.007633587786259542,0.0,257.7277797591374,159.62460309223877,0.007633587786259542,0.007633587786259542,0.0,264.3767320172636,167.17447761581593,-0.030534351145038167,-0.007633587786259542,0.007633587786259542,166.20175701565853,50.06848291139009,0.030534351145038167,-0.015267175572519083,0.0,0.0,0.0,0.0,0.0,0.0,116.95,92.23,-2.0,-1.0,4.0,
7.527,-82.88635787324938,166.91667472880263,0.007633587786259542,0.007633587786259542,0.0,257.7154632982415,159.69668600615964,0.007633587786259542,0.007633587786259542,0.0,264.35167411882287,167.16267915925408,-0.03816793893129771,-0.0,-0.04580152671755725,168.27136370774338,50.05847000981031,0.030534351145038167,-0.015267175572519083,0.0,0.0,0.0,0.0,0.0,0.0,116.71,92.1,-2.0,-1.0,4.0,
7.565,-82.58957695017335,166.79223413211375,-0.030534351145038167,-0.007633587786259542,-0.05343511450381679,257.70499430648005,159.75795648299237,0.007633587786259542,0.007633587786259542,0.0,264.33037490514823,167.1526504711765,-0.03816793893129771,-0.0,-0.04580152671755725,170.03052939601548,50.049959043467496,0.030534351145038167,-0.015267175572519083,0.0,0.0,0.0,0.0,0.0,0.0,116.82,91.84,-4.0,0.0,2.0,
7.602,-82.2113888722335,166.71697293554598,-0.03816793893129771,-0.007633587786259542,-0.04580152671755725,257.69609566348277,159.81003638830018,0.007633587786259542,0.007633587786259542,0.0,264.31227057352476,167.14412608631056,-0.03816793893129771,-0.0,-0.04580152671755725,171.5258202310468,50.0427247220761,0.030534351145038167,-0.015267175572519083,0.0,0.0,0.0,0.0,0.0,0.0,116.73,91.7,-4.0,0.0,2.0,
7.64,-81.91750842869014,166.63035203986732,-0.030534351145038167,-0.0,-0.03816793893129771,257.6885318169351,159.85430430781182,0.007633587786259542,0.007633587786259542,0.0,264.29688189164483,167.13688035917448,-0.03816793893129771,-0.0,-0.04580152671755725,172.7968174408234,50.03657554889342,0.030534351145038167,-0.015267175572519083,0.0,0.0,0.0,0.0,0.0,0.0,116.65,91.62,-4.0,0.0,2.0,
7.677,-81.66771005167828,166.55672427854043,-0.030534351145038167,-0.0,-0.03816793893129771,257.6758373753129,159.87229177321674,0.007633587786259542,-0.0,0.0,264.2838015120469,167.13072149110883,-0.03816793893129771,-0.0,-0.04580152671755725,173.8771650691335,50.031348751688135,0.030534351145038167,-0.015267175572519083,0.0,0.0,0.0,0.0,0.0,0.0,116.48,91.6,-3.0,-3.0,2.0,
7.715,-81.45538143121821,166.49414068141257,-0.030534351145038167,-0.0,-0.03816793893129771,257.665047099934,159.8875811188109,0.007633587786259542,-0.0,0.0,264.26414299889865,167.11048130258033,-0.022900763358778626,-0.0,0.0,174.7954605531971,50.026905974063645,0.030534351145038167,-0.015267175572519083,0.0,0.0,0.0,0.0,0.0,0.0,116.39,91.52,-5.0,1.0,1.0,
7.753,-81.3819489285543,166.4331450773284,-0.022900763358778626,-0.0,-0.007633587786259542,257.65587536586196,159.90057706256596,0.007633587786259542,-0.0,0.0,264.2474332627226,167.0932771423311,-0.022900763358778626,-0.0,0.0,175.57601171465117,50.02312961308283,0.030534351145038167,-0.015267175572519083,0.0,0.0,0.0,0.0,0.0,0.0,116.4,91.42,-4.0,0.0,1.0,
7.791,-81.29633120694437,166.35930024010517,-0.022900763358778626,-0.0,0.0,257.64807939190075,159.91162361475776,0.007633587786259542,-0.0,0.0,264.233229986973,167.07865360611925,-0.022900763358778626,-0.0,0.0,176.23948020188712,50.01991970624914,0.030534351145038167,-0.015267175572519083,0.0,0.0,0.0,0.0,0.0,0.0,116.31,91.34,-4.0,0.0,1.0,
7.829,-81.22355614357593,166.29653212846543,-0.022900763358778626,-0.0,0.0,257.70287049138625,159.96919793415046,0.0,0.015267175572519083,0.0,264.22115720258586,167.06622360033919,-0.022900763358778626,-0.0,0.0,176.80342841603766,50.017191285440504,0.030534351145038167,-0.015267175572519083,0.0,0.0,0.0,0.0,0.0,0.0,116.25,91.27,-4.0,1.0,0.0,
7.867,-81.16169733971276,166.24317923357165,-0.022900763358778626,-0.0,0.0,257.7494429259489,160.01813610563426,0.0,0.015267175572519083,0.0,264.2108953358568,167.05565809542614,-0.022900763358778626,-0.0,0.0,177.28284928356183,50.01467747126461,0.007633587786259542,-0.007633587786259542,0.015267175572519083,0.0,0.0,0.0,0.0,0.0,116.25,91.18,-3.0,0.0,0.0,
7.905,-81.10911735642907,166.19782927291192,-0.022900763358778626,-0.0,0.0,257.71507660316297,160.02362702010848,0.0,0.007633587786259542,0.0,264.20217274913705,167.04667741625005,-0.022900763358778626,-0.0,0.0,177.69035702095738,50.012540729215104,0.007633587786259542,-0.007633587786259542,0.015267175572519083,0.0,0.0,0.0,0.0,0.0,116.25,91.14,-4.0,0.0,-1.0,
7.942,-81.06442437063792,166.15928180635115,-0.022900763358778626,-0.0,0.0,257.6858652287949,160.02829429741158,0.0,0.007633587786259542,0.0,264.19475855042526,167.03904383895036,-0.022900763358778626,-0.0,0.0,178.03673859774358,50.01078938396921,0.015267175572519083,-0.007633587786259542,0.007633587786259542,0.0,0.0,0.0,0.0,0.0,116.25,91.06,-5.0,0.0,-1.0,
7.98,-81.02643533271545,166.1265164597745,-0.022900763358778626,-0.0,0.0,257.66103556058204,160.0322614831192,0.0,0.007633587786259542,0.0,264.24745696448997,167.00198027939499,-0.007633587786259542,-0.0,-0.030534351145038167,178.33116293801186,50.0093007405102,0.015267175572519083,-0.007633587786259542,0.007633587786259542,0.0,0.0,0.0,0.0,0.0,116.18,91.06,-5.0,0.0,-2.0,
8.018,-80.99414465048136,166.09866591518437,-0.022900763358778626,-0.0,0.0,257.66284168729675,160.05362862509747,-0.007633587786259542,0.007633587786259542,0.015267175572519083,264.29225061644496,166.97047625377292,-0.007633587786259542,-0.0,-0.030534351145038167,178.5814236272399,50.00803539357004,0.015267175572519083,-0.007633587786259542,0.007633587786259542,0.0,0.0,0.0,0.0,0.0,116.07,91.05,-5.0,0.0,-2.0,
8.056000000000001,-80.96669757058237,166.07499295228274,-0.022900763358778626,-0.0,0.0,257.6496826212478,160.07483225098758,-0.007633587786259542,-0.0,0.022900763358778626,264.3303252206067,166.94369783199414,-0.007633587786259542,-0.0,-0.030534351145038167,178.79414521308374,50.0069598486709,0.015267175572519083,-0.007633587786259542,0.007633587786259542,0.0,0.0,0.0,0.0,0.0,116.12,91.05,-5.0,0.0,-4.0,
8.094000000000001,-80.94336755266824,166.05487093381635,-0.022900763358778626,-0.0,0.0,257.6860181602637,160.12284010395138,-0.007633587786259542,-0.0,0.030534351145038167,264.3626886341442,166.9209361734822,-0.007633587786259542,-0.0,-0.030534351145038167,178.974958561051,50.00604563550664,0.015267175572519083,-0.007633587786259542,0.007633587786259542,0.0,0.0,0.0,0.0,0.0,116.09,90.98,-5.0,0.0,-4.0,
8.132,-80.92353703744122,166.0377672181199,-0.022900763358778626,-0.0,0.0,257.6693826232697,160.15236085648536,-0.015267175572519083,-0.0,0.022900763358778626,264.3901975356511,166.90158876374704,-0.007633587786259542,-0.0,-0.030534351145038167,179.12864990682317,50.00526855431701,0.015267175572519083,-0.007633587786259542,0.007633587786259542,0.0,0.0,0.0,0.0,0.0,116.02,91.08,-4.0,-1.0,-6.0,
8.17,-80.90668109949826,166.02322905977795,-0.022900763358778626,-0.0,0.0,257.6552424168248,160.17745349613924,-0.015267175572519083,-0.0,0.022900763358778626,264.3461709372795,166.87053047776683,-0.007633587786259542,0.015267175572519083,-0.007633587786259542,179.2592875507295,50.00460803530583,0.015267175572519083,-0.007633587786259542,0.007633587786259542,0.0,0.0,0.0,0.0,0.0,115.98,91.14,-5.0,1.0,-3.0,
8.208,-80.89235355224673,166.0108716251873,-0.022900763358778626,-0.0,0.0,257.6432232413467,160.19878223984503,-0.015267175572519083,-0.0,0.022900763358778626,264.3060917050104,166.88437276304208,0.0,0.015267175572519083,-0.007633587786259542,179.3703295480499,50.004046594146324,0.015267175572519083,-0.007633587786259542,0.007633587786259542,0.0,0.0,0.0,0.0,0.0,116.0,91.26,-5.0,0.0,-4.0,
8.246,-80.88017513708294,166.00036780578523,-0.022900763358778626,-0.0,0.0,257.6330069421902,160.21691167199495,-0.015267175572519083,-0.0,0.022900763358778626,264.38419694893366,166.83609707260442,0.0,0.007633587786259542,-0.022900763358778626,179.46471524577225,50.00356936916074,0.015267175572519083,-0.007633587786259542,0.007633587786259542,0.0,0.0,0.0,0.0,0.0,115.95,91.35,-5.0,0.0,-3.0,
8.283,-80.86982348419372,165.99143955929347,-0.022900763358778626,-0.0,0.0,257.6243230879072,160.2323216893224,-0.015267175572519083,-0.0,0.022900763358778626,264.4505864062685,166.79506273573242,0.0,0.007633587786259542,-0.022900763358778626,179.5450079743324,50.003163727923,0.015267175572519083,-0.0,0.007633587786259542,0.0,0.0,0.0,0.0,0.0,115.83,91.48,-5.0,0.0,-2.0,
8.321,-80.86102457923788,165.98385054977547,-0.022900763358778626,-0.0,0.0,257.6169418117667,160.2454202040507,-0.015267175572519083,-0.0,0.022900763358778626,264.50701744500304,166.7601835493912,0.0,0.007633587786259542,-0.022900763358778626,179.61319190811236,50.00268916187855,0.0,-0.007633587786259542,0.022900763358778626,0.0,0.0,0.0,0.0,0.0,115.82,91.56,-5.0,0.0,-2.0,
8.359,-80.85354551002541,165.97739989168517,-0.022900763358778626,-0.0,0.0,257.4368281491558,160.2171347572054,-0.015267175572519083,-0.007633587786259542,0.022900763358778626,264.55498382792746,166.73053624100118,0.0,0.007633587786259542,-0.022900763358778626,179.67114825182531,50.00228578074077,0.0,-0.007633587786259542,0.022900763358778626,0.0,0.0,0.0,0.0,0.0,115.75,91.64,-5.0,0.0,-2.0,
8.397,-80.84718830119482,165.9719168323084,-0.022900763358778626,-0.0,0.0,257.28373153593657,160.1930921273869,-0.015267175572519083,-0.007633587786259542,0.022900763358778626,264.5957552534132,166.70533602886965,0.0,0.007633587786259542,-0.022900763358778626,179.7204760294775,50.00187802127747,-0.007633587786259542,-0.0,0.030534351145038167,0.0,0.0,0.0,0.0,0.0,115.69,91.77,-5.0,-2.0,-2.0,
8.436,-80.84178467368882,165.96725623183818,-0.022900763358778626,-0.0,0.0,257.1535994147002,160.17265589204118,-0.015267175572519083,-0.007633587786259542,0.022900763358778626,264.63041096507607,166.68391584855786,0.0,0.007633587786259542,-0.022900763358778626,179.7624046404819,50.00159631122985,0.0,-0.0,0.030534351145038167,0.0,0.0,0.0,0.0,0.0,115.6,91.79,-5.0,0.0,0.0,
8.474,-80.83719159030872,165.96329472143847,-0.022900763358778626,-0.0,0.0,257.04298711164927,160.1552850919973,-0.015267175572519083,-0.007633587786259542,0.022900763358778626,264.6598683199895,166.66570869529284,0.0,0.007633587786259542,-0.022900763358778626,179.79797907433942,50.00142174318555,0.007633587786259542,-0.007633587786259542,0.015267175572519083,0.0,0.0,0.0,0.0,0.0,115.5,91.82,-3.0,-3.0,2.0,
8.512,-80.68573429773201,165.96465807762274,0.0,-0.0,0.007633587786259542,256.948966654056,160.14051991196004,-0.015267175572519083,-0.007633587786259542,0.022900763358778626,264.6849070716659,166.65023261501756,0.0,0.007633587786259542,-0.022900763358778626,179.82821734311833,50.0012733603479,0.007633587786259542,-0.007633587786259542,0.015267175572519083,0.0,0.0,0.0,0.0,0.0,115.41,91.87,-4.0,-1.0,1.0,
8.55,-80.60760438969479,165.96529342578853,-0.007633587786259542,-0.0,0.0,256.8690492651017,160.12796950892835,-0.015267175572519083,-0.007633587786259542,0.022900763358778626,264.7061900105909,166.63707794678356,0.0,0.007633587786259542,-0.022900763358778626,179.8539198715804,50.0011472349359,0.007633587786259542,-0.007633587786259542,0.015267175572519083,0.0,0.0,0.0,0.0,0.0,115.34,91.84,-4.0,0.0,1.0,
8.587,-80.54119396786314,165.96583347172944,-0.007633587786259542,-0.0,0.0,256.7797633022101,160.13192691948348,-0.007633587786259542,0.007633587786259542,0.007633587786259542,264.7242805086771,166.62589647878468,0.0,0.007633587786259542,-0.022900763358778626,179.87576702077314,50.0010400283357,0.007633587786259542,-0.007633587786259542,0.015267175572519083,0.0,0.0,0.0,0.0,0.0,115.37,91.73,-3.0,-1.0,1.0,
8.625,-80.48474510930623,165.96629251077923,-0.007633587786259542,-0.0,0.0,256.70387023375224,160.13529071845534,-0.007633587786259542,0.007633587786259542,0.007633587786259542,264.73965743205036,166.61639223098564,0.0,0.007633587786259542,-0.022900763358778626,179.89440198308316,50.000884017229346,0.0,-0.0,0.007633587786259542,0.0,0.0,0.0,0.0,0.0,115.33,91.75,-4.0,0.0,0.0,
8.663,-80.43676357953287,165.96668269397153,-0.007633587786259542,-0.0,0.0,256.639361125563,160.13814994758144,-0.007633587786259542,0.007633587786259542,0.007633587786259542,264.7527278169177,166.60831362035643,0.0,0.007633587786259542,-0.022900763358778626,179.9102417010467,50.00075140778895,0.0,-0.0,0.0,0.0,0.0,0.0,0.0,0.0,115.38,91.65,-4.0,-2.0,0.0,
8.701,-80.39597927922551,165.967014349685,-0.007633587786259542,-0.0,0.0,256.7007290957211,160.13994873569516,0.0,-0.0,-0.007633587786259542,264.7638376440549,166.6014468013216,0.0,0.007633587786259542,-0.022900763358778626,179.92370546131568,50.00063868976461,0.0,-0.0,0.0,0.0,0.0,0.0,0.0,0.0,115.19,91.64,-4.0,-1.0,0.0,
8.739,-80.36131262396425,165.96729625704145,-0.007633587786259542,-0.0,0.0,256.7528918703555,160.14147770559183,0.0,-0.0,-0.007633587786259542,264.8254237972727,166.63386647916383,0.0,-0.0,-0.04580152671755725,179.93514965754432,50.00054287944391,0.0,-0.0,0.0,0.0,0.0,0.0,0.0,0.0,115.09,91.62,-4.0,0.0,-1.0,
8.777,-80.33184596699219,165.96753587829443,-0.007633587786259542,-0.0,0.0,256.81165189399127,160.11724432735346,0.0,-0.0,-0.007633587786259542,264.8777720275079,166.6614232053297,0.0,-0.0,-0.04580152671755725,179.94487722433865,50.00046144067132,0.0,-0.0,0.0,0.0,0.0,0.0,0.0,0.0,115.04,91.63,-5.0,0.0,-1.0,
8.815,-80.30679930856593,165.96773955635945,-0.007633587786259542,-0.0,0.0,256.8615979140817,160.09664595585087,0.0,-0.0,-0.007633587786259542,264.9692325273316,166.68392145526357,0.0,-0.0,-0.03816793893129771,179.95314565611386,50.00039221771463,0.0,-0.0,0.0,0.0,0.0,0.0,0.0,0.0,114.94,91.63,-4.0,0.0,0.0,
8.852,-80.28550964890361,165.96791268271474,-0.007633587786259542,-0.0,0.0,256.9040520311585,160.07913734007366,0.0,-0.0,-0.007633587786259542,265.0469739521817,166.70304496770737,0.0,-0.0,-0.03816793893129771,179.96017382312277,50.00033337820143,0.0,-0.0,0.015267175572519083,0.0,0.0,0.0,0.0,0.0,114.97,91.68,-4.0,0.0,0.0,
8.89,-80.26741343819064,165.96805984011672,-0.007633587786259542,-0.0,0.0,256.94013803067384,160.06425501666303,0.0,-0.0,-0.007633587786259542,265.0355668520766,166.72628367576175,-0.007633587786259542,-0.0,0.0,179.96614776508034,50.00028336461522,0.0,-0.0,0.015267175572519083,0.0,0.0,0.0,0.0,0.0,114.88,91.66,-3.0,0.0,0.0,
8.927,-80.25203165908462,165.9681849239084,-0.007633587786259542,-0.0,0.0,256.97081113026184,160.051605041764,0.0,-0.0,-0.007633587786259542,265.0258708169873,166.74603657760798,-0.007633587786259542,-0.0,0.0,179.9712256157443,50.00024085306694,0.0,-0.0,0.015267175572519083,0.0,0.0,0.0,0.0,0.0,114.85,91.69,-2.0,1.0,0.0,
8.965,-80.2389571468445,165.96829124513135,-0.007633587786259542,-0.0,0.0,256.8803569616364,160.04892059793792,-0.007633587786259542,0.007633587786259542,0.007633587786259542,265.0176291871614,166.76282654417727,-0.007633587786259542,-0.0,0.0,179.97554178880864,50.0002047182509,0.0,-0.0,0.015267175572519083,0.0,0.0,0.0,0.0,0.0,114.71,91.7,-1.0,1.0,2.0,
9.003,-80.2278438114404,165.96838161817084,-0.007633587786259542,-0.0,0.0,256.82655300385414,160.0648002306378,0.0,-0.0,0.007633587786259542,265.01062380180934,166.77709801576117,-0.007633587786259542,-0.0,0.0,179.97921053591332,50.000174003657264,0.0,-0.0,0.015267175572519083,0.0,0.0,0.0,0.0,0.0,114.71,91.74,-2.0,2.0,1.0,
9.041,-80.21839747634691,165.9684584352544,-0.007633587786259542,-0.0,0.0,256.6644732580837,160.0614536781857,-0.007633587786259542,-0.0,0.007633587786259542,265.0046692242601,166.78922876660747,-0.007633587786259542,-0.0,0.0,179.98232897095232,50.00014789625268,0.0,-0.0,0.015267175572519083,0.0,0.0,0.0,0.0,0.0,114.81,91.68,-3.0,0.0,0.0,
9.079,-80.21036809151744,165.96852372977546,-0.007633587786259542,-0.0,0.0,256.52670547417887,160.05860910860142,-0.007633587786259542,-0.0,0.007633587786259542,264.9577768124117,166.82250666214554,-0.015267175572519083,-0.0,0.0,179.98497964073547,50.000125704958776,0.0,-0.0,0.015267175572519083,0.0,0.0,0.0,0.0,0.0,115.11,91.4,-5.0,2.0,-4.0,
9.117,-80.13553175290465,165.9885320863406,-0.015267175572519083,-0.007633587786259542,-0.022900763358778626,256.40960285785974,160.05619122445478,-0.007633587786259542,-0.0,0.007633587786259542,264.9179182623405,166.8507928733529,-0.015267175572519083,-0.0,0.0,179.98723271005116,50.00010684235896,0.0,-0.0,0.015267175572519083,0.0,0.0,0.0,0.0,0.0,115.19,91.4,-4.0,-1.0,-3.0,
9.155,-80.07192086508378,166.00553918942094,-0.015267175572519083,-0.007633587786259542,-0.022900763358778626,256.3100656339885,160.05413602293015,-0.007633587786259542,-0.0,0.007633587786259542,264.88403849478,166.87483615287917,-0.015267175572519083,-0.0,0.0,179.98914781896949,50.00028546563767,0.022900763358778626,-0.0,0.0,0.0,0.0,0.0,0.0,0.0,115.24,91.41,-7.0,2.0,-7.0,
9.193,-80.01785161043604,166.01999522703926,-0.015267175572519083,-0.007633587786259542,-0.022900763358778626,256.2254589936979,160.05238910163422,-0.007633587786259542,-0.0,0.007633587786259542,264.971854665723,166.83309184854994,-0.022900763358778626,-0.0,-0.007633587786259542,179.99077566155006,50.00043729542457,0.022900763358778626,-0.0,0.0,0.0,0.0,0.0,0.0,0.0,115.2,91.46,-6.0,-1.0,-6.0,
9.231,-79.97189274398546,166.03228285901483,-0.015267175572519083,-0.007633587786259542,-0.022900763358778626,256.1535433494509,160.05090421853268,-0.007633587786259542,-0.0,0.007633587786259542,265.04649841102463,166.79760918987012,-0.022900763358778626,-0.0,-0.007633587786259542,179.99215932774354,50.00056635074343,0.022900763358778626,-0.0,0.007633587786259542,0.0,0.0,0.0,0.0,0.0,115.1,91.6,-7.0,0.0,-7.0,
9.268,-79.93282770750247,166.04272734619406,-0.015267175572519083,-0.007633587786259542,-0.022900763358778626,256.1996380155075,160.0740075774416,0.0,0.022900763358778626,0.030534351145038167,265.109945594531,166.76744892999224,-0.022900763358778626,-0.0,-0.007633587786259542,179.993335444008,50.000676047764465,0.022900763358778626,-0.0,0.007633587786259542,0.0,0.0,0.0,0.0,0.0,115.11,91.63,-6.0,-2.0,-5.0,
9.306,-79.89962242649193,166.0516051602964,-0.015267175572519083,-0.007633587786259542,-0.022900763358778626,256.23875359615937,160.10117871149336,0.0,0.015267175572519083,0.04580152671755725,265.16387570051137,166.74181270909605,-0.022900763358778626,-0.0,-0.007633587786259542,179.9943351428328,50.00076929023234,0.022900763358778626,-0.0,0.007633587786259542,0.0,0.0,0.0,0.0,0.0,115.11,91.59,-6.0,-1.0,-4.0,
9.344,-79.87139793763296,166.05915130228337,-0.015267175572519083,-0.007633587786259542,-0.022900763358778626,256.1441956385953,160.11586618336693,-0.007633587786259542,0.015267175572519083,0.05343511450381679,265.2097162905947,166.7200219213343,-0.022900763358778626,-0.0,-0.007633587786259542,179.99518488683387,50.00084854633004,0.022900763358778626,-0.0,0.007633587786259542,0.0,0.0,0.0,0.0,0.0,115.06,91.65,-4.0,1.0,-1.0,
9.382,-79.78562439140421,166.01156924428304,0.0,-0.0,0.06870229007633588,256.06382137466585,160.12835053445946,-0.007633587786259542,0.015267175572519083,0.05343511450381679,265.24868079216554,166.7014997517368,-0.022900763358778626,-0.0,-0.007633587786259542,179.99590716923478,50.000915914013085,0.022900763358778626,-0.0,0.007633587786259542,0.0,0.0,0.0,0.0,0.0,115.01,91.7,-3.0,2.0,0.0,
9.42,-79.71271687710977,165.97112449498275,0.0,-0.0,0.06870229007633588,256.10688301763435,160.1676910683457,-0.007633587786259542,0.007633587786259542,0.04580152671755725,265.28180061850077,166.68575590757894,-0.022900763358778626,-0.0,-0.007633587786259542,179.99652110927556,50.00097317654367,0.022900763358778626,-0.0,0.007633587786259542,0.0,0.0,0.0,0.0,0.0,115.12,91.76,-3.0,2.0,0.0,
9.458,-79.87631099107465,165.93474173988227,-0.007633587786259542,-0.0,0.030534351145038167,256.14348541415757,160.20113052214901,-0.007633587786259542,0.007633587786259542,0.04580152671755725,265.3099524708857,166.67237364004475,-0.022900763358778626,-0.0,-0.007633587786259542,179.99704295831023,50.001021849694666,0.022900763358778626,-0.0,0.007633587786259542,0.0,0.0,0.0,0.0,0.0,115.1,91.82,-3.0,1.0,2.0,
9.496,-80.04477641450413,165.93262800391886,-0.007633587786259542,-0.0,0.015267175572519083,256.17459745120226,160.22955405788184,-0.007633587786259542,0.007633587786259542,0.04580152671755725,265.3338815454129,166.6609987126407,-0.022900763358778626,-0.0,-0.007633587786259542,179.9974865299897,50.00106322187301,0.022900763358778626,-0.0,0.007633587786259542,0.0,0.0,0.0,0.0,0.0,115.08,91.92,-4.0,1.0,1.0,
9.534,-79.99966677616038,165.87062906494276,-0.007633587786259542,-0.015267175572519083,0.0,256.2010426826903,160.25371406325473,-0.007633587786259542,0.007633587786259542,0.04580152671755725,265.354221258761,166.65133002434723,-0.022900763358778626,-0.0,-0.007633587786259542,179.9978635659172,50.001098388224605,0.022900763358778626,-0.0,0.007633587786259542,0.0,0.0,0.0,0.0,0.0,115.03,91.9,-4.0,2.0,3.0,
9.572,-79.9613235835682,165.8179299668131,-0.007633587786259542,-0.015267175572519083,0.0,256.08015441939585,160.28864500384,0.0,-0.0,-0.022900763358778626,265.3715100151069,166.6431116392978,-0.022900763358778626,-0.0,-0.007633587786259542,179.99818404645563,50.001128279623465,0.022900763358778626,-0.0,0.007633587786259542,0.0,0.0,0.0,0.0,0.0,114.99,91.97,-5.0,2.0,2.0,
9.609,-79.92873186986486,165.77313573340288,-0.007633587786259542,-0.015267175572519083,0.0,256.01624710784915,160.29872299064314,0.0,-0.015267175572519083,-0.04580152671755725,265.3862054580009,166.6361260120058,-0.022900763358778626,-0.0,-0.007633587786259542,179.99845645491328,50.001153687312495,0.022900763358778626,-0.0,0.007633587786259542,0.0,0.0,0.0,0.0,0.0,114.87,91.87,-3.0,1.0,5.0,
9.647,-79.90102891321703,165.7350606350042,-0.007633587786259542,-0.015267175572519083,0.0,255.96192589303445,160.3072892794258,0.0,-0.015267175572519083,-0.04580152671755725,265.3986965844608,166.63018822880758,-0.022900763358778626,-0.0,-0.007633587786259542,179.99875288759844,50.000980627359624,0.0,0.007633587786259542,0.022900763358778626,0.0,0.0,0.0,0.0,0.0,114.86,91.76,-4.0,3.0,2.0,
9.685,-79.8368237121273,165.7510474329921,-0.015267175572519083,-0.022900763358778626,-0.05343511450381679,255.91575286044193,160.31457062489105,0.0,-0.015267175572519083,-0.04580152671755725,265.40931404195175,166.62514111308911,-0.022900763358778626,-0.0,-0.007633587786259542,179.99900485538083,50.00083352639968,0.0,0.007633587786259542,0.022900763358778626,0.0,0.0,0.0,0.0,0.0,114.93,91.73,-4.0,2.0,2.0,
9.723,-79.78224929120103,165.7646362112818,-0.015267175572519083,-0.022900763358778626,-0.05343511450381679,255.8765057827383,160.3207597685365,0.0,-0.015267175572519083,-0.04580152671755725,265.35908034972454,166.66290025965606,-0.007633587786259542,-0.007633587786259542,0.007633587786259542,179.99921902799588,50.000708490583726,0.0,0.007633587786259542,0.022900763358778626,0.0,0.0,0.0,0.0,0.0,114.96,91.62,-4.0,2.0,0.0,
9.761,-79.73586103341368,165.7761866728281,-0.015267175572519083,-0.022900763358778626,-0.05343511450381679,255.84314576669018,160.32602054063514,0.0,-0.015267175572519083,-0.04580152671755725,265.3163817113314,166.69499553423796,-0.007633587786259542,-0.007633587786259542,0.007633587786259542,179.99940107471866,50.00079686662872,0.022900763358778626,0.007633587786259542,0.007633587786259542,0.0,0.0,0.0,0.0,0.0,115.09,91.57,-4.0,2.0,0.0,
9.799,-79.69643101429445,165.78600456514243,-0.015267175572519083,-0.022900763358778626,-0.05343511450381679,255.9545059499477,160.3078564512287,0.0,0.030534351145038167,0.007633587786259542,265.28008786869725,166.7222765176326,-0.007633587786259542,-0.007633587786259542,0.007633587786259542,179.99955581443302,50.00087198626696,0.022900763358778626,0.007633587786259542,0.007633587786259542,0.0,0.0,0.0,0.0,0.0,115.21,91.49,-4.0,2.0,0.0,
9.837,-79.73007134963166,165.7891192035138,-0.015267175572519083,-0.022900763358778626,-0.015267175572519083,256.0491621057166,160.2924169752332,0.0,0.030534351145038167,0.007633587786259542,265.2492381024582,166.74546535351803,-0.007633587786259542,-0.007633587786259542,0.007633587786259542,179.99968734319023,50.00093583795946,0.022900763358778626,0.007633587786259542,0.007633587786259542,0.0,0.0,0.0,0.0,0.0,115.29,91.46,-4.0,1.0,0.0,
9.875,-79.60762130622409,165.77937126382315,-0.007633587786259542,-0.030534351145038167,0.0,256.12961983812016,160.27929342063703,0.0,0.030534351145038167,0.007633587786259542,265.22301580115504,166.76517586402065,-0.007633587786259542,-0.007633587786259542,0.007633587786259542,179.99979914263386,50.00099011189809,0.022900763358778626,0.007633587786259542,0.007633587786259542,0.0,0.0,0.0,0.0,0.0,115.35,91.38,-4.0,1.0,0.0,
9.913,-79.50353876932766,165.7710855150861,-0.007633587786259542,-0.030534351145038167,0.0,256.1306106803389,160.26048277609343,0.0,0.022900763358778626,0.0,265.2007268450473,166.78192979794787,-0.007633587786259542,-0.007633587786259542,0.007633587786259542,179.99989417216094,50.001036244745926,0.022900763358778626,0.007633587786259542,0.007633587786259542,0.0,0.0,0.0,0.0,0.0,115.4,91.36,-2.0,1.0,1.0,
9.949,-79.51321088949636,165.7725052250413,-0.015267175572519083,-0.015267175572519083,0.0,256.13145289622486,160.24449372823136,0.0,0.022900763358778626,0.0,265.1817812323558,166.796170641786,-0.007633587786259542,-0.007633587786259542,0.007633587786259542,179.99997494725895,50.00107545766659,0.022900763358778626,0.007633587786259542,0.007633587786259542,0.0,0.0,0.0,0.0,0.0,115.51,91.34,-2.0,1.0,0.0,
9.987,-79.52143219163976,165.77371197850323,-0.015267175572519083,-0.015267175572519083,0.0,256.1321687797279,160.23090303754861,0.0,0.022900763358778626,0.0,265.16567746156795,166.80827535904842,-0.007633587786259542,-0.007633587786259542,0.007633587786259542,180.00004360609228,50.00104390315297,0.015267175572519083,0.007633587786259542,0.015267175572519083,0.0,0.0,0.0,0.0,0.0,115.62,91.33,-2.0,1.0,2.0,
10.025,-79.52842029846165,165.77473771894586,-0.015267175572519083,-0.015267175572519083,0.0,256.1327772807055,160.21935095046828,0.0,0.022900763358778626,0.0,265.04198112279613,166.77250159147366,-0.015267175572519083,-0.0,0.0,180.0001019661006,50.00101708181639,0.015267175572519083,0.007633587786259542,0.015267175572519083,0.0,0.0,0.0,0.0,0.0,115.57,91.28,-4.0,0.0,0.0,
10.063,-79.53436018926025,165.7756095983221,-0.015267175572519083,-0.015267175572519083,0.0,256.1767225492846,160.2714277806286,0.0,0.007633587786259542,0.0,264.9368392348401,166.74209388903512,-0.015267175572519083,-0.0,0.0,180.00015157210768,50.000994283680306,0.015267175572519083,0.007633587786259542,0.015267175572519083,0.0,0.0,0.0,0.0,0.0,115.75,91.27,-4.0,0.0,0.0,
10.101,-79.53940909643907,165.7763506957919,-0.015267175572519083,-0.015267175572519083,0.0,256.24404829606044,160.29831071057396,0.0,0.007633587786259542,-0.015267175572519083,264.8474686300774,166.71624734196234,-0.015267175572519083,-0.0,0.0,180.0001937372137,50.00097490526463,0.015267175572519083,0.007633587786259542,0.015267175572519083,0.0,0.0,0.0,0.0,0.0,115.87,91.32,-6.0,-1.0,-1.0,
10.139,-79.54370066754106,165.77698062864124,-0.015267175572519083,-0.015267175572519083,0.0,256.405383556557,160.352743987594,-0.007633587786259542,-0.0,-0.007633587786259542,264.7715036160291,166.69427777695049,-0.015267175572519083,-0.0,0.0,180.0002295775538,50.0009584336113,0.015267175572519083,0.007633587786259542,0.015267175572519083,0.0,0.0,0.0,0.0,0.0,115.75,91.44,-6.0,-1.0,-1.0,
10.177,-79.54734850297775,165.77751607156318,-0.015267175572519083,-0.015267175572519083,0.0,256.34848308197945,160.36450039057473,-0.007633587786259542,0.007633587786259542,0.0,264.7069333540881,166.6756036466904,-0.015267175572519083,-0.0,0.0,180.0002600418429,50.00094443270598,0.015267175572519083,0.007633587786259542,0.015267175572519083,0.0,0.0,0.0,0.0,0.0,115.85,91.52,-5.0,-1.0,0.0,
10.215,-79.55044916309895,165.77797119804683,-0.015267175572519083,-0.015267175572519083,0.0,256.2839229471149,160.37445448861286,0.0,0.007633587786259542,-0.007633587786259542,264.6520486314382,166.65973063596934,-0.015267175572519083,-0.0,0.0,180.00028593648864,50.00093253193645,0.015267175572519083,0.007633587786259542,0.015267175572519083,0.0,0.0,0.0,0.0,0.0,115.78,91.75,-5.0,1.0,1.0,
10.254,-79.55308472420195,165.77835805555793,-0.015267175572519083,-0.015267175572519083,0.0,256.3964564557558,160.3692576708629,-0.015267175572519083,-0.0,0.0,264.6053966171858,166.64623857685643,-0.015267175572519083,-0.0,0.0,180.0003079469375,50.00092241628235,0.015267175572519083,0.007633587786259542,0.015267175572519083,0.0,0.0,0.0,0.0,0.0,115.68,91.96,-3.0,2.0,4.0,
10.29,-79.55532495113951,165.77868688444238,-0.015267175572519083,-0.015267175572519083,0.0,256.4215702380417,160.39647470877193,-0.007633587786259542,0.007633587786259542,0.022900763358778626,264.5657424050713,166.63477032661046,-0.015267175572519083,-0.0,0.0,180.00032665581904,50.00091381797637,0.015267175572519083,0.007633587786259542,0.015267175572519083,0.0,0.0,0.0,0.0,0.0,115.57,91.96,-2.0,5.0,7.0,
10.328,-79.55722914403644,165.77896638899415,-0.015267175572519083,-0.015267175572519083,0.0,256.32731981308837,160.3933735408366,-0.007633587786259542,-0.0,0.0,264.53203632477397,166.62502231390138,-0.015267175572519083,-0.0,0.0,180.00034255836835,50.00090650941628,0.015267175572519083,0.007633587786259542,0.015267175572519083,0.0,0.0,0.0,0.0,0.0,115.6,91.9,-1.0,5.0,7.0,
10.366,-79.55884770799882,165.77920396786314,-0.015267175572519083,-0.015267175572519083,0.0,256.247206951878,160.39073754809158,-0.007633587786259542,-0.0,0.0,264.50338615652123,166.61673650309868,-0.015267175572519083,-0.0,0.0,180.0002911900391,50.00077052614784,0.0,-0.0,0.015267175572519083,0.0,0.0,0.0,0.0,0.0,115.79,91.83,-2.0,6.0,6.0,
10.404,-79.56022348736686,165.77940590990178,-0.015267175572519083,-0.015267175572519083,0.0,256.5165287087545,160.38317673400326,0.0,-0.0,-0.007633587786259542,264.4790335135064,166.60969356391638,-0.015267175572519083,-0.0,0.0,180.0002475269592,50.000654940369664,0.0,-0.0,0.015267175572519083,0.0,0.0,0.0,0.0,0.0,116.0,91.68,-3.0,4.0,4.0,
10.442,-79.56139289982968,165.77957756063464,-0.015267175572519083,-0.015267175572519083,0.0,256.6105660049469,160.4021313760892,0.0,0.015267175572519083,-0.04580152671755725,264.4583337669438,166.60370706561142,-0.015267175572519083,-0.0,0.0,180.00021041334134,50.00055669245821,0.0,-0.0,0.015267175572519083,0.0,0.0,0.0,0.0,0.0,116.17,91.46,-3.0,1.0,2.0,
10.48,-79.56238690042308,165.77972346375756,-0.015267175572519083,-0.015267175572519083,0.0,256.69049770671046,160.4182428218622,0.0,0.015267175572519083,-0.04580152671755725,264.4407389823656,166.5986185420522,-0.015267175572519083,-0.0,0.0,180.00017886676613,50.00086249471058,0.04580152671755725,-0.0,-0.007633587786259542,0.0,0.0,0.0,0.0,0.0,116.3,91.33,-4.0,2.0,0.0,
10.518,-79.28425801462394,165.73815717473485,-0.022900763358778626,-0.061068702290076333,-0.03816793893129771,256.75843965320945,160.43193755076928,0.0,0.015267175572519083,-0.04580152671755725,264.4257834154741,166.59429329702687,-0.015267175572519083,-0.0,0.0,180.0001520521772,50.001122426625095,0.04580152671755725,-0.0,-0.007633587786259542,0.0,0.0,0.0,0.0,0.0,116.35,91.21,-4.0,0.0,0.0,
10.556,-79.04784846169468,165.70282582906555,-0.022900763358778626,-0.061068702290076333,-0.03816793893129771,256.8161903077336,160.4435780703403,0.0,0.015267175572519083,-0.04580152671755725,264.4130711836163,166.59061683875532,-0.015267175572519083,-0.0,0.0,180.00012925977663,50.00127848325625,0.03816793893129771,-0.0,-0.007633587786259542,0.0,0.0,0.0,0.0,0.0,116.54,91.1,-5.0,0.0,-1.0,
10.594,-78.84690034170481,165.67279418524663,-0.022900763358778626,-0.061068702290076333,-0.03816793893129771,256.86527836407913,160.45347251197566,0.0,0.015267175572519083,-0.04580152671755725,264.4022657865372,166.58749184922453,-0.015267175572519083,-0.0,0.0,180.00010988623612,50.00128136040036,0.022900763358778626,-0.0,0.0,0.0,0.0,0.0,0.0,0.0,116.58,91.14,-5.0,1.0,0.0,
10.631,-78.89692967597642,165.6160251873688,-0.007633587786259542,-0.015267175572519083,0.0,256.90700321197284,160.46188278736574,0.0,0.015267175572519083,-0.04580152671755725,264.39308119902,166.58483560812334,-0.015267175572519083,-0.0,0.0,180.0000934187267,50.001283805972854,0.022900763358778626,-0.0,0.0,0.0,0.0,0.0,0.0,0.0,116.6,91.12,-6.0,1.0,-1.0,
10.669,-78.9394546101073,165.56777153917264,-0.007633587786259542,-0.015267175572519083,0.0,257.04220250048564,160.49386519773483,0.0,0.007633587786259542,0.0,264.38527429963034,166.58257780318735,-0.015267175572519083,-0.0,0.0,180.00007942134368,50.001285884709475,0.022900763358778626,-0.0,0.0,0.0,0.0,0.0,0.0,0.0,116.76,91.19,-5.0,0.0,1.0,
10.707,-79.18523924029961,165.57306244980902,-0.015267175572519083,-0.022900763358778626,0.0,257.15712189572156,160.52105024654858,0.0,0.007633587786259542,0.0,264.3786384351491,166.58065866899176,-0.015267175572519083,-0.0,0.0,180.00006752356813,50.0012876516356,0.022900763358778626,-0.0,0.0,0.0,0.0,0.0,0.0,0.0,116.8,91.21,-5.0,0.0,0.0,
10.745,-79.40297137765259,165.56562931282244,-0.015267175572519083,-0.015267175572519083,0.015267175572519083,257.25480338167205,160.54415753804025,0.0,0.007633587786259542,0.0,264.3729979503401,166.57902740492548,-0.015267175572519083,-0.0,0.0,180.0000574104589,50.001289153522805,0.022900763358778626,-0.0,0.0,0.0,0.0,0.0,0.0,0.0,116.8,91.23,-5.0,0.0,0.0,
10.782,-79.62202082460873,165.5546978118207,-0.015267175572519083,-0.015267175572519083,0.007633587786259542,257.33783264473,160.56379873580818,0.0,0.007633587786259542,0.0,264.36820353825243,166.57764083046916,-0.015267175572519083,-0.0,0.0,180.00004881431607,50.00129043012693,0.022900763358778626,-0.0,0.0,0.0,0.0,0.0,0.0,0.0,116.82,91.21,-5.0,0.0,1.0,
10.82,-79.7345454846485,165.55600179402884,-0.015267175572519083,-0.015267175572519083,0.0,257.4084075183292,160.58049375391093,0.0,0.007633587786259542,0.0,264.3641282879779,166.5764622421813,-0.015267175572519083,-0.0,0.0,180.00004150759466,50.00129151524044,0.022900763358778626,-0.0,0.0,0.0,0.0,0.0,0.0,0.0,116.85,91.21,-5.0,1.0,1.0,
10.858,-79.83019144568232,165.5571101789058,-0.015267175572519083,-0.015267175572519083,0.0,257.4683961608886,160.59468451929826,0.0,0.007633587786259542,0.0,264.40526448421974,166.52353102566084,-0.022900763358778626,-0.007633587786259542,0.0,180.00003529688146,50.00129243758692,0.022900763358778626,-0.0,0.0,0.0,0.0,0.0,0.0,0.0,116.82,91.15,-5.0,1.0,0.0,
10.896,-79.91149051256106,165.55805230605117,-0.015267175572519083,-0.015267175572519083,0.0,257.51938650706404,160.60674666987748,0.0,0.007633587786259542,0.0,264.44023025102535,166.47853949161848,-0.022900763358778626,-0.007633587786259542,0.0,180.00003001777523,50.00109856509288,0.0,-0.0,0.015267175572519083,0.0,0.0,0.0,0.0,0.0,116.81,91.14,-5.0,0.0,1.0,
10.934,-80.07620964442027,165.56200917213937,-0.022900763358778626,-0.015267175572519083,0.0,257.5627283013132,160.61699949786984,0.0,0.007633587786259542,0.0,264.4699511528101,166.44029668768246,-0.022900763358778626,-0.007633587786259542,0.0,180.00002553053494,50.00093377347295,0.0,-0.0,0.015267175572519083,0.0,0.0,0.0,0.0,0.0,116.8,91.07,-5.0,1.0,1.0,
10.97,-80.2162209065006,165.56537250831434,-0.022900763358778626,-0.015267175572519083,0.0,257.59956882642496,160.62571440166334,0.0,0.007633587786259542,0.0,264.4952139193271,166.40779030433686,-0.022900763358778626,-0.007633587786259542,0.0,179.99989194538833,50.000793700596006,0.0,-0.015267175572519083,0.007633587786259542,0.0,0.0,0.0,0.0,0.0,116.8,91.14,-7.0,2.0,0.0,
11.008,-80.33523047926887,165.56823134406307,-0.022900763358778626,-0.015267175572519083,0.0,257.521192028628,160.6443455332557,0.007633587786259542,-0.0,-0.022900763358778626,264.5166872708666,166.3801598784931,-0.022900763358778626,-0.007633587786259542,0.0,179.9997783980137,50.00067463865061,0.0,-0.015267175572519083,0.007633587786259542,0.0,0.0,0.0,0.0,0.0,116.74,91.27,-7.0,5.0,0.0,
11.046,-80.43638861612192,165.5706613544495,-0.022900763358778626,-0.015267175572519083,0.0,257.4545717505006,160.66018199510918,0.007633587786259542,-0.0,-0.022900763358778626,264.5349396196752,166.3566740165259,-0.022900763358778626,-0.007633587786259542,0.0,179.9996169972491,50.00050855050083,-0.007633587786259542,-0.022900763358778626,0.007633587786259542,0.0,0.0,0.0,0.0,0.0,116.72,91.49,-8.0,3.0,1.0,
11.084,-80.52237303244699,165.57272686327795,-0.022900763358778626,-0.015267175572519083,0.0,257.3979445140923,160.67364298768464,0.007633587786259542,-0.0,-0.022900763358778626,264.4655262401276,166.3409110164769,-0.03816793893129771,-0.0,-0.015267175572519083,179.99947980659917,50.000367375573525,-0.007633587786259542,-0.022900763358778626,0.007633587786259542,0.0,0.0,0.0,0.0,0.0,116.63,91.73,-9.0,4.0,2.0,
11.122,-80.59545978632332,165.57448254578213,-0.022900763358778626,-0.015267175572519083,0.0,257.0793457123858,160.6657253580495,0.04580152671755725,-0.03816793893129771,-0.03816793893129771,264.4065248675121,166.32751246643525,-0.03816793893129771,-0.0,-0.015267175572519083,179.99936319454673,50.00024737688531,-0.007633587786259542,-0.022900763358778626,0.007633587786259542,0.0,0.0,0.0,0.0,0.0,116.6,91.87,-8.0,0.0,1.0,
11.16,-80.65758352711819,165.5759748759107,-0.022900763358778626,-0.015267175572519083,0.0,256.8085367309353,160.65899537285966,0.04580152671755725,-0.03816793893129771,-0.03816793893129771,264.35637370078894,166.31612369889987,-0.03816793893129771,-0.0,-0.015267175572519083,179.99926407430218,49.99962629403087,-0.06870229007633588,-0.022900763358778626,0.08396946564885496,0.0,0.0,0.0,0.0,0.0,116.6,91.84,-9.0,-1.0,1.0,
11.198,-80.71038870679384,165.57724335651997,-0.022900763358778626,-0.015267175572519083,0.0,256.57834909670237,160.65327488544827,0.04580152671755725,-0.03816793893129771,-0.03816793893129771,264.3137452090742,166.30644324649478,-0.03816793893129771,-0.0,-0.015267175572519083,179.9991149365981,49.999163259100776,-0.061068702290076333,-0.030534351145038167,0.0916030534351145,0.0,0.0,0.0,0.0,0.0,116.57,91.83,-10.0,-1.0,5.0,
11.237,-80.75527310951813,165.57832156503787,-0.022900763358778626,-0.015267175572519083,0.0,256.56026870219796,160.63578623793413,0.06870229007633588,-0.030534351145038167,-0.0916030534351145,264.27751099111674,166.29821486195047,-0.03816793893129771,-0.0,-0.015267175572519083,179.99898816954962,49.998769679410195,-0.061068702290076333,-0.030534351145038167,0.0916030534351145,0.0,0.0,0.0,0.0,0.0,116.33,91.77,-8.0,1.0,13.0,
11.275,-80.79342485183378,165.57923804227806,-0.022900763358778626,-0.015267175572519083,0.0,256.5449003668692,160.6209208875471,0.06870229007633588,-0.030534351145038167,-0.0916030534351145,264.24671190585286,166.2912207350878,-0.03816793893129771,-0.0,-0.015267175572519083,179.9990101885508,49.99888933514648,-0.007633587786259542,-0.015267175572519083,0.05343511450381679,0.0,0.0,0.0,0.0,0.0,116.36,91.51,-4.0,9.0,23.0,
11.312,-80.82585383280208,165.58001704793224,-0.022900763358778626,-0.015267175572519083,0.0,256.5202151929585,160.59622336290508,0.09923664122137404,0.030534351145038167,-0.08396946564885496,264.22053268337856,166.28527572725451,-0.03816793893129771,-0.0,-0.015267175572519083,179.99902890470182,49.99899104252232,-0.007633587786259542,-0.015267175572519083,0.05343511450381679,0.0,0.0,0.0,0.0,0.0,116.46,90.94,-1.0,11.0,26.0,
11.351,-80.85341846662514,165.58067920273828,-0.022900763358778626,-0.015267175572519083,0.0,257.1854572023498,160.6129362483715,0.0916030534351145,0.08396946564885496,-0.07633587786259542,264.1982803442754,166.28022247059624,-0.03816793893129771,-0.0,-0.015267175572519083,179.99904481343017,49.99907749379179,-0.007633587786259542,-0.015267175572519083,0.05343511450381679,0.0,0.0,0.0,0.0,0.0,116.39,89.81,3.0,0.0,15.0,
11.389,-80.87684840537474,165.58124203432342,-0.022900763358778626,-0.015267175572519083,0.0,256.84419339470224,160.74717677591605,0.12213740458015267,0.16793893129770993,-0.061068702290076333,264.17936585603775,166.2759272024367,-0.03816793893129771,-0.0,-0.015267175572519083,179.99905833584927,49.99915097737084,-0.007633587786259542,-0.015267175572519083,0.05343511450381679,0.0,0.0,0.0,0.0,0.0,116.16,88.8,0.0,-2.0,17.0,
