time,pitch,roll,gyrx,gyry,gyrz,f1,f2,f3,f4,f5,f6,f7,g1,g2,g3
0.382,44.15,60.72,-1.83,-1.17,-0.04,0.0,0.0,0.0,1.0,0.0,0.0,0.0,0.0,0.0,0.0,
0.406,50.603,69.477,-4.2,-0.15,0.82,0.0,0.0,0.0,1.0,0.0,0.0,0.0,0.0,0.0,0.0,
0.43,56.7923,77.9037,-4.24,-1.08,-1.03,0.0,0.0,0.0,1.0,0.0,0.0,0.0,0.0,0.0,0.0,
0.453,62.36122999999999,85.27137,-4.09,-0.65,-1.37,0.0,0.0,0.0,1.0,0.0,0.0,0.0,0.0,0.0,0.0,
0.477,67.193123,91.489137,-3.66,0.02,-0.67,0.0,0.0,0.0,1.0,0.0,0.0,0.0,0.0,0.0,0.0,
0.501,71.2223123,96.69191369999999,-2.36,-1.24,-1.84,0.0,0.0,0.0,1.0,0.0,0.0,0.0,0.0,0.0,0.0,
0.525,74.45123123,101.10019137,-4.75,-1.25,-4.67,0.0,0.0,0.0,1.0,0.0,0.0,0.0,0.0,0.0,0.0,
0.548,77.042123123,105.105019137,-5.17,-0.12,-5.55,0.0,0.0,0.0,1.0,0.0,0.0,0.0,0.0,0.0,0.0,
0.572,79.16421231230001,108.4575019137,-3.07,-0.64,-3.99,0.0,0.0,0.0,1.0,0.0,0.0,0.0,0.0,0.2,0.0,
0.595,80.97842123123002,111.18675019137,-1.31,-1.67,-2.8,0.0,0.0,0.0,1.0,0.0,0.0,0.0,0.0,0.2,0.0,
0.62,82.383842123123,113.511675019137,-0.27,-1.51,-1.91,0.0,0.0,0.0,1.0,0.0,0.0,0.0,0.0,0.59,0.0,
0.644,83.5593842123123,115.49916750191369,-0.81,0.05,-1.63,0.0,0.0,0.0,1.0,0.0,0.0,0.0,0.0,0.78,0.0,
0.667,84.71193842123124,117.16491675019137,-0.98,-2.37,0.08,0.0,0.0,0.0,1.0,0.0,0.0,0.0,0.0,1.08,0.0,
0.691,85.70919384212313,118.44749167501914,-1.96,-3.41,-1.66,0.0,0.0,0.0,1.0,0.0,0.0,0.0,0.0,1.96,0.0,
0.714,86.63691938421232,119.70074916750193,-3.37,-0.75,-1.84,0.0,0.0,0.0,1.0,0.0,0.0,0.0,0.0,1.67,0.0,
0.739,87.61169193842125,120.7620749167502,-2.54,0.13,-0.31,0.0,0.0,0.0,1.0,0.0,0.0,0.0,0.0,0.59,0.0,
0.762,88.48316919384212,121.55220749167502,-1.31,-2.67,-0.52,0.0,0.0,0.0,1.0,0.0,0.0,0.0,0.0,0.69,0.0,
0.786,89.1913169193842,122.2072207491675,-3.31,-1.94,-1.4,0.0,0.0,0.0,1.0,0.0,0.0,0.0,0.0,1.86,0.0,
0.809,89.59513169193842,122.88472207491675,-5.02,0.82,-1.05,0.0,0.0,0.0,1.0,0.0,0.0,0.0,0.0,2.16,0.0,
0.833,90.01351316919384,123.53747220749167,-4.37,-0.09,-1.08,0.0,0.0,0.0,1.0,0.0,0.0,0.0,0.0,2.06,0.0,
0.858,90.31635131691938,124.06174722074918,-2.79,-3.71,-1.92,0.0,0.0,0.0,1.0,0.0,0.0,0.0,0.0,2.35,0.0,
0.881,90.27463513169192,124.41117472207492,-4.06,-3.79,-2.82,0.0,0.0,0.0,1.0,0.0,0.0,0.0,0.0,1.86,0.0,
0.905,90.38746351316921,124.77911747220749,-4.79,-1.01,-0.76,0.0,0.0,0.0,1.0,0.0,0.0,0.0,0.0,0.2,0.0,
0.928,90.67774635131691,124.97791174722074,-3.56,-1.77,0.61,0.0,0.0,0.0,1.0,0.0,0.0,0.0,0.0,0.0,0.0,
0.952,90.97677463513169,125.10579117472207,-4.8,-1.5,0.43,0.0,0.0,0.0,1.0,0.0,0.0,0.0,0.0,0.0,0.0,
0.976,91.08767746351316,125.26257911747221,-5.05,-0.03,-1.45,0.0,0.0,0.0,1.0,0.0,0.0,0.0,0.0,0.0,0.0,
1.0,91.38676774635132,125.56625791174721,-4.95,-0.41,-2.24,0.0,0.0,0.0,1.0,0.0,0.0,0.0,0.0,0.0,0.0,
1.024,91.73167677463513,125.72262579117472,-5.56,-2.28,-1.01,0.0,0.0,0.0,1.0,0.0,0.0,0.0,0.0,0.0,0.0,
1.047,91.82016767746352,125.85526257911746,-6.12,-0.73,-0.93,0.0,0.0,0.0,1.0,0.0,0.0,0.0,0.0,0.0,0.0,
1.071,92.04501676774635,126.08452625791173,-5.56,0.34,-1.59,0.0,0.0,0.0,1.0,0.0,0.0,0.0,0.0,0.0,0.0,
1.095,92.19350167677462,126.35945262579118,-3.91,-0.52,-1.35,0.0,0.0,0.0,1.0,0.0,0.0,0.0,0.0,0.0,0.0,
1.119,92.17235016767746,126.57594526257911,-2.03,-1.89,-2.22,0.0,0.0,0.0,1.0,0.0,0.0,0.0,0.0,0.0,0.0,
1.142,92.26923501676775,126.66059452625791,-2.64,-1.56,-1.26,0.0,0.0,0.0,1.0,0.0,0.0,0.0,0.0,0.0,0.0,
1.166,92.30592350167677,126.6780594526258,-1.89,-0.21,-1.41,0.0,0.0,0.0,1.0,0.0,0.0,0.0,0.0,0.0,0.0,
1.189,92.21059235016767,126.71580594526257,0.44,-1.27,-2.94,0.0,0.0,0.0,1.0,0.0,0.0,0.0,0.0,0.0,0.0,
1.214,92.12905923501677,126.70158059452626,-1.16,-2.34,-2.31,0.0,0.0,0.0,1.0,0.0,0.0,0.0,0.0,0.0,0.0,
1.238,91.93190592350167,126.63715805945262,-3.52,-0.54,-1.34,0.0,0.0,0.0,1.0,0.0,0.0,0.0,0.0,0.0,0.0,
1.261,91.93919059235016,126.61271580594526,-3.33,0.64,-1.14,0.0,0.0,0.0,1.0,0.0,0.0,0.0,0.0,0.0,0.0,
1.285,91.99391905923501,126.49327158059452,-3.76,-2.84,-0.58,0.0,0.0,0.0,1.0,0.0,0.0,0.0,0.0,0.0,0.0,
1.309,91.87339190592351,126.29232715805945,-5.02,-1.27,-1.03,0.0,0.0,0.0,1.0,0.0,0.0,0.0,0.0,0.0,0.0,
1.333,91.88833919059236,126.27223271580594,-5.99,0.55,-1.36,0.0,0.0,0.0,1.0,0.0,0.0,0.0,0.0,0.0,0.0,
1.356,91.93483391905923,126.3422232715806,-5.22,0.53,-0.47,0.0,0.0,0.0,1.0,0.0,0.0,0.0,0.0,0.0,0.0,
1.38,92.01148339190593,126.34022232715806,-3.62,-3.16,-1.26,0.0,0.0,0.0,1.0,0.0,0.0,0.0,0.0,0.0,0.0,
1.403,92.0821483391906,126.35802223271581,-4.4,-3.54,-1.45,0.0,0.0,0.0,1.0,0.0,0.0,0.0,0.0,0.0,0.0,
1.427,92.13421483391906,126.38680222327159,-5.06,-1.3,-0.62,0.0,0.0,0.0,1.0,0.0,0.0,0.0,0.0,0.0,0.0,
1.452,92.0944214833919,126.37168022232716,-5.21,-0.66,0.08,0.0,0.0,0.0,1.0,0.0,0.0,0.0,0.0,0.0,0.0,
1.475,92.1804421483392,126.34316802223272,-5.15,-1.78,-0.86,0.0,0.0,0.0,1.0,0.0,0.0,0.0,0.0,0.0,0.0,
1.499,92.13504421483393,126.19631680222328,-5.66,-0.9,-2.44,0.0,0.0,0.0,1.0,0.0,0.0,0.0,0.0,0.0,0.0,
1.522,92.20250442148338,126.07363168022233,-6.82,-2.36,-2.82,0.0,0.0,0.0,1.0,0.0,0.0,0.0,0.0,0.0,0.0,
1.547,92.29025044214833,125.70136316802223,-9.3,-3.53,-2.77,0.0,0.0,0.0,1.0,0.0,0.0,0.0,0.0,0.0,0.0,
1.57,92.32602504421483,125.49313631680222,-13.31,-0.03,-1.56,0.0,0.0,0.0,1.0,0.0,0.0,0.0,0.0,0.0,0.0,
1.594,92.34760250442147,125.09431363168022,-12.38,-1.1,-2.61,0.0,0.0,0.0,1.0,0.0,0.0,0.0,0.0,0.0,0.0,
1.617,92.35876025044215,124.51443136316803,-14.94,-6.8,-4.26,0.0,0.0,0.0,1.0,0.0,0.0,0.0,0.0,0.0,0.0,
1.642,92.61187602504421,124.0064431363168,-17.18,-8.65,-3.76,0.0,0.0,0.0,1.0,0.0,0.0,0.0,0.0,0.0,0.0,
1.666,92.94318760250442,123.25364431363168,-21.95,-8.43,-0.95,0.0,0.0,0.0,1.0,0.0,0.0,0.0,0.0,0.0,0.0,
1.689,92.63431876025044,122.25136443136317,-36.27,-6.65,1.15,0.0,0.0,0.0,1.0,0.0,0.0,0.0,0.0,0.0,0.0,
1.714,92.36043187602503,121.1881364431363,-46.31,-0.77,-0.38,0.0,0.0,0.0,1.0,0.0,0.0,0.0,0.0,0.0,0.0,
1.737,93.04404318760251,120.02881364431364,-45.08,5.4,-0.51,0.0,0.0,0.0,1.0,0.0,0.0,0.0,0.0,0.0,0.0,
1.761,94.87640431876025,118.16688136443136,-38.76,-0.37,4.1,0.0,0.0,1.0,1.0,0.0,0.0,0.0,0.0,0.0,0.0,
1.784,95.87864043187602,115.70368813644315,-46.56,-1.61,9.08,0.0,0.0,1.0,1.0,0.0,0.0,0.0,0.0,0.0,0.0,
1.809,95.4388640431876,114.02636881364431,-67.11,4.95,6.56,0.0,0.0,1.0,1.0,0.0,0.0,0.0,0.0,9.03,0.0,
1.832,94.41388640431876,113.75063688136443,-89.88,18.63,1.27,0.0,0.0,1.0,1.0,0.0,0.0,0.0,0.0,18.93,0.0,
1.856,93.43838864043187,114.50606368813644,-83.02,23.85,-13.23,0.0,0.0,1.0,1.0,0.0,0.0,0.0,0.0,0.0,0.0,
1.88,93.02583886404318,116.72360636881363,-54.19,14.78,-13.34,0.0,0.0,1.0,1.0,0.0,0.0,0.0,0.0,0.0,0.0,
1.904,92.81358388640433,117.89936063688137,-26.06,-5.55,-17.24,0.0,0.0,1.0,1.0,0.0,0.0,0.0,0.0,0.0,0.0,
1.928,91.83835838864043,115.92893606368813,-4.07,-16.47,-12.03,0.0,0.0,1.0,1.0,0.0,0.0,0.0,0.0,0.0,0.0,
1.952,93.45983583886404,115.47989360636882,4.39,4.0,5.66,0.0,0.0,1.0,1.0,0.0,0.0,0.0,0.0,21.09,0.0,
1.976,97.78898358388639,114.43598936063687,8.37,19.5,75.15,0.0,0.0,1.0,1.0,0.0,0.0,0.0,0.0,23.45,0.0,
1.999,98.32089835838863,113.52159893606368,-29.44,-3.41,58.18,0.0,0.0,2.0,1.0,0.0,0.0,0.0,0.0,23.84,0.0,
2.023,97.97808983583886,113.74515989360637,-54.11,-17.24,28.57,0.0,0.0,1.0,1.0,0.0,0.0,0.0,0.0,0.0,0.0,
2.048,94.46080898358389,111.85951598936064,-56.18,17.68,6.72,0.0,0.0,1.0,1.0,0.0,0.0,0.0,0.0,0.0,0.0,
2.071,93.16408089835839,110.87895159893606,-39.73,-12.93,-5.7,0.0,0.0,1.0,1.0,0.0,0.0,0.0,0.0,10.1,0.0,
2.095,92.79140808983584,108.1618951598936,-30.01,-6.96,-3.06,0.0,0.0,1.0,1.0,0.0,0.0,0.0,0.0,8.14,0.0,
2.119,92.28614080898359,105.99118951598936,-38.79,-1.95,8.73,0.0,0.0,2.0,1.0,0.0,0.0,0.0,0.0,15.4,0.0,
2.143,90.78661408089836,103.18211895159895,-55.17,20.34,1.14,0.0,0.0,2.0,1.0,0.0,0.0,0.0,0.0,0.0,0.0,
2.166,90.72666140808983,100.85821189515988,-69.6,11.65,-5.47,0.0,0.0,2.0,1.0,0.0,0.0,0.0,0.0,0.0,0.0,
2.191,91.29666614080898,97.61982118951599,-75.79,11.79,-2.94,0.0,0.0,2.0,1.0,0.0,0.0,0.0,0.0,0.0,0.0,
2.214,92.7936666140809,95.3069821189516,-75.03,5.66,0.78,0.0,0.0,2.0,1.0,0.0,0.0,0.0,0.0,0.0,0.0,
2.238,93.7713666614081,92.10569821189516,-82.54,10.88,5.82,0.0,0.0,2.0,1.0,0.0,0.0,0.0,0.0,0.0,0.0,
2.262,95.6781366661408,90.40856982118952,-95.51,17.24,2.93,0.0,0.0,2.0,1.0,0.0,0.0,0.0,0.0,0.0,0.0,
2.285,96.23781366661407,88.07885698211895,-94.76,22.83,24.07,0.0,0.0,2.0,1.0,0.0,0.0,0.0,0.0,0.0,0.0,
2.31,95.3127813666614,87.77388569821188,-84.91,-0.21,5.92,0.0,0.0,3.0,1.0,0.0,0.0,0.0,0.0,0.0,0.0,
2.333,95.80527813666615,86.38438856982118,-83.89,15.35,16.83,0.0,0.0,3.0,1.0,0.0,0.0,0.0,0.0,0.0,0.0,
2.357,95.4315278136666,85.65143885698211,-77.98,8.08,13.94,0.0,0.0,3.0,1.0,0.0,0.0,0.0,0.0,0.0,0.0,
2.38,94.76415278136666,82.5811438856982,-72.92,-8.21,-15.73,0.0,0.0,3.0,1.0,0.0,0.0,0.0,0.0,0.0,0.0,
2.405,96.32641527813666,83.04811438856981,-93.13,5.41,-43.72,0.0,0.0,2.0,1.0,0.0,0.0,0.0,0.0,0.0,0.0,
2.428,96.03264152781367,86.208811438857,-93.02,27.42,-15.32,0.0,0.0,2.0,1.0,0.0,0.0,0.0,0.0,0.0,0.0,
2.452,94.82426415278137,86.09288114388569,-75.0,1.73,-42.36,0.0,0.0,2.0,1.0,0.0,0.0,0.0,0.0,0.0,0.0,
2.476,99.10442641527814,91.03128811438856,-57.98,8.68,-29.41,0.0,0.0,2.0,1.0,0.0,0.0,0.0,0.0,0.0,0.0,
2.5,98.93844264152781,96.03412881143886,-42.4,104.66,-0.21,0.0,0.0,3.0,1.0,0.0,0.0,0.0,0.0,0.0,0.0,
2.524,99.27284426415278,93.00641288114389,-55.75,25.8,-3.06,0.0,0.0,3.0,1.0,0.0,0.0,0.0,0.0,0.0,0.0,
2.547,94.64428442641528,90.1116412881144,-83.93,29.4,74.26,0.0,0.0,3.0,1.0,0.0,0.0,0.0,0.0,0.0,0.0,
2.571,101.04842844264152,85.34016412881144,-104.63,20.89,12.31,0.0,0.0,2.0,1.0,0.0,0.0,0.0,0.0,0.0,0.0,
2.595,101.74284284426415,89.75001641288114,-2.02,10.96,0.84,0.0,0.0,3.0,3.0,0.0,0.0,0.0,0.0,0.0,0.0,
2.619,99.3912842844264,94.02500164128811,-8.73,4.34,-10.11,0.0,0.0,2.0,3.0,0.0,0.0,0.0,0.0,0.0,0.0,
2.642,99.32712842844263,97.86350016412882,-6.59,-43.33,22.19,0.0,0.0,2.0,3.0,0.0,0.0,0.0,0.0,0.0,0.0,
2.666,100.64371284284428,93.43235001641288,-31.36,15.69,4.69,0.0,0.0,2.0,2.0,0.0,0.0,0.0,0.0,0.0,0.0,
2.691,102.36837128428442,88.75923500164129,-16.52,13.79,-3.4,0.0,0.0,3.0,3.0,0.0,0.0,0.0,0.0,0.0,0.0,
2.714,102.81083712842843,86.05092350016412,-20.93,-10.04,4.19,0.0,0.0,3.0,4.0,0.0,0.0,0.0,0.0,0.0,0.0,
2.738,102.37808371284284,83.45809235001641,-15.59,-3.49,-1.33,0.0,0.0,4.0,5.0,0.0,0.0,0.0,0.0,0.0,0.0,
2.762,102.60480837128429,81.29980923500165,-15.34,-1.11,-8.07,0.0,0.0,4.0,5.0,0.0,0.0,0.0,0.0,0.0,0.0,
2.786,102.99648083712843,79.42798092350017,-13.41,-0.68,-8.11,0.0,0.0,5.0,5.0,0.0,0.0,0.0,0.0,0.0,0.0,
2.809,103.16164808371285,78.20579809235001,-14.53,-0.84,-6.3,0.0,0.0,5.0,6.0,0.0,0.0,0.0,0.0,32.86,0.0,
2.834,103.42116480837129,77.345579809235,-17.43,-0.79,-0.48,0.0,0.0,5.0,6.0,0.0,0.0,0.0,0.0,28.84,0.0,
2.857,103.20411648083714,75.80155798092349,-15.69,-11.89,3.41,0.0,0.0,5.0,6.0,0.0,0.0,0.0,0.0,0.0,0.0,
2.882,103.25441164808373,74.20715579809236,-13.13,-1.2,-3.57,0.0,0.0,5.0,7.0,0.0,0.0,0.0,0.0,0.0,0.0,
2.906,103.79044116480837,72.80571557980925,-11.08,0.52,-4.11,0.0,0.0,5.0,7.0,0.0,0.0,0.0,0.0,0.0,0.0,
2.93,103.69104411648084,71.95457155798093,-8.79,1.22,-6.04,0.0,0.0,5.0,7.0,0.0,0.0,0.0,0.0,0.0,0.0,
2.954,105.39110441164809,71.3924571557981,-8.6,-9.34,-0.69,0.0,0.0,6.0,7.0,0.0,0.0,0.0,0.0,0.0,0.0,
2.977,105.39011044116481,71.01224571557981,-11.95,1.52,-6.24,0.0,0.0,6.0,8.0,0.0,0.0,0.0,0.0,0.0,0.0,
3.002,104.96701104411648,70.39822457155798,-9.0,-3.3,-4.65,0.0,0.0,6.0,8.0,0.0,0.0,0.0,0.0,0.0,0.0,
3.025,104.87070110441164,69.7428224571558,-9.56,3.77,-10.59,0.0,0.0,6.0,8.0,0.0,0.0,0.0,0.0,0.0,0.0,
3.049,104.86107011044116,69.30828224571559,-8.75,2.14,-6.08,0.0,0.0,6.0,8.0,0.0,0.0,0.0,0.0,0.0,0.0,
3.074,104.88710701104411,69.18382822457156,-8.72,-6.49,-2.21,0.0,0.0,6.0,8.0,0.0,0.0,0.0,0.0,0.0,0.0,
3.097,104.76371070110442,69.07238282245716,-10.3,-6.85,-1.18,0.0,0.0,6.0,8.0,0.0,0.0,0.0,0.0,0.0,0.0,
3.121,104.96737107011043,68.98923828224572,-13.14,-5.29,-2.07,0.0,0.0,6.0,8.0,0.0,0.0,0.0,0.0,0.0,0.0,
3.145,104.68173710701105,68.62092382822458,-12.63,-0.66,-4.84,0.0,0.0,6.0,8.0,0.0,0.0,0.0,0.0,0.0,0.0,
3.169,104.4911737107011,68.11609238282246,-11.34,-0.5,-8.71,0.0,0.0,6.0,8.0,0.0,0.0,0.0,0.0,0.0,0.0,
3.193,104.40911737107011,67.99360923828225,-5.4,-5.33,-3.66,0.0,0.0,7.0,8.0,0.0,0.0,0.0,0.0,0.0,0.0,
3.217,104.553911737107,67.39636092382823,-3.66,0.16,-8.06,0.0,0.0,7.0,8.0,0.0,0.0,0.0,0.0,0.0,0.0,
3.24,104.5683911737107,66.89563609238283,1.01,-1.76,-8.92,0.0,0.0,7.0,7.0,0.0,0.0,0.0,0.0,0.0,0.0,
3.265,105.04683911737106,66.98956360923829,-0.66,-3.89,-6.37,0.0,0.0,7.0,7.0,0.0,0.0,0.0,0.0,0.0,0.0,
3.289,105.4096839117371,67.61995636092382,-5.38,-3.31,-0.98,0.0,0.0,6.0,7.0,0.0,0.0,0.0,0.0,0.0,0.0,
3.312,105.0589683911737,67.51199563609238,-6.45,-3.84,3.5,0.0,0.0,6.0,7.0,0.0,0.0,0.0,0.0,0.0,0.0,
3.337,104.46589683911738,67.34819956360924,-5.18,-9.23,-3.05,0.0,0.0,6.0,7.0,0.0,0.0,0.0,0.0,0.0,0.0,
3.36,104.53258968391175,67.23281995636091,-1.85,-3.95,-5.47,0.0,0.0,6.0,7.0,0.0,0.0,0.0,0.0,0.0,0.0,
3.384,104.72825896839117,67.06828199563608,0.24,-3.29,-6.72,0.0,0.0,6.0,7.0,0.0,0.0,0.0,0.0,0.0,0.0,
3.408,104.88282589683912,67.39382819956361,-2.96,-2.74,-4.3,0.0,0.0,6.0,7.0,0.0,0.0,0.0,0.0,0.0,0.0,
3.432,104.57428258968392,67.58838281995637,-7.15,-1.76,-3.45,0.0,0.0,6.0,7.0,0.0,0.0,0.0,0.0,0.0,0.0,
3.457,104.4354282589684,67.31983828199564,-6.98,-2.24,-3.73,0.0,0.0,6.0,7.0,0.0,0.0,0.0,0.0,0.0,0.0,
3.48,104.35854282589683,66.96898382819957,-4.98,-3.22,-8.26,0.0,0.0,6.0,7.0,0.0,0.0,0.0,0.0,0.0,0.0,
3.504,104.75585428258967,67.23089838281996,-2.82,-0.23,-7.28,0.0,0.0,6.0,7.0,0.0,0.0,0.0,0.0,0.0,0.0,
3.528,105.06558542825897,67.293089838282,-1.68,-0.24,-5.66,0.0,0.0,5.0,7.0,0.0,0.0,0.0,0.0,0.0,0.0,
3.552,105.0785585428259,67.68630898382821,-4.73,-1.5,-4.78,0.0,0.0,5.0,7.0,0.0,0.0,0.0,0.0,0.0,0.0,
3.576,104.5668558542826,67.40163089838282,-6.76,1.39,-4.62,0.0,0.0,6.0,7.0,0.0,0.0,0.0,0.0,0.0,0.0,
3.6,103.90368558542826,67.03116308983827,-7.04,1.0,-11.27,0.0,0.0,6.0,7.0,0.0,0.0,0.0,0.0,0.0,0.0,
3.623,103.70236855854284,66.80511630898383,-7.53,-5.91,-13.83,0.0,0.0,6.0,6.0,0.0,0.0,0.0,0.0,0.0,0.0,
3.648,103.67323685585428,66.36851163089838,-5.4,-7.34,-18.27,0.0,0.0,5.0,6.0,0.0,0.0,0.0,0.0,0.0,0.0,
3.672,104.14732368558543,66.36985116308983,-1.28,-7.69,-15.18,0.0,0.0,5.0,6.0,0.0,0.0,0.0,0.0,0.0,0.0,
3.696,105.75173236855855,66.89198511630899,7.56,-1.94,-10.15,0.0,0.0,4.0,5.0,0.0,0.0,0.0,0.0,0.0,0.0,
3.72,108.38717323685586,66.8901985116309,25.02,11.32,4.8,0.0,0.0,4.0,5.0,0.0,0.0,0.0,0.0,0.0,0.0,
3.743,107.99371732368559,67.07901985116308,34.74,7.81,14.39,0.0,0.0,3.0,4.0,0.0,0.0,0.0,0.0,0.0,0.0,
3.768,107.02737173236856,68.4029019851163,17.5,3.35,9.25,0.0,0.0,2.0,4.0,0.0,0.0,0.0,0.0,0.0,0.0,
3.791,106.14773717323685,68.60729019851162,4.2,1.17,4.38,0.0,0.0,2.0,4.0,0.0,0.0,0.0,0.0,0.0,0.0,
3.815,105.90677371732369,68.60972901985116,9.53,3.48,2.65,0.0,0.0,1.0,4.0,0.0,0.0,0.0,0.0,0.0,0.0,
3.838,106.28767737173237,68.88897290198511,17.88,6.27,2.64,0.0,0.0,0.0,3.0,0.0,0.0,0.0,0.0,0.0,0.0,
3.862,106.47876773717324,69.69989729019852,10.98,0.63,5.97,0.0,0.0,0.0,3.0,0.0,0.0,0.0,0.0,0.0,0.0,
3.886,106.25487677371731,70.10498972901985,0.6,-1.92,6.4,0.0,0.0,0.0,3.0,0.0,0.0,0.0,0.0,0.0,0.0,
3.909,105.95348767737173,70.271498972902,-2.45,-2.57,2.45,0.0,0.0,0.0,3.0,0.0,0.0,0.0,0.0,0.0,0.0,
3.933,105.92334876773717,70.26114989729021,-1.3,-2.12,1.36,0.0,0.0,0.0,3.0,0.0,0.0,0.0,0.0,0.0,0.0,
3.957,105.81233487677372,70.20611498972903,3.68,-2.32,2.53,0.0,0.0,0.0,2.0,0.0,0.0,0.0,0.0,0.0,0.0,
3.981,105.72923348767736,70.4796114989729,2.91,-1.8,2.87,0.0,0.0,0.0,2.0,0.0,0.0,0.0,0.0,0.0,0.0,
4.004,105.68492334876774,70.6329611498973,2.81,-2.61,4.38,0.0,0.0,0.0,2.0,0.0,0.0,0.0,0.0,0.0,0.0,
4.028,105.52749233487677,70.29729611498973,5.53,-3.82,5.13,0.0,0.0,0.0,2.0,0.0,0.0,0.0,0.0,0.0,0.0,
4.051,105.34974923348767,70.56072961149897,6.55,-3.42,4.84,0.0,0.0,0.0,2.0,0.0,0.0,0.0,0.0,0.0,0.0,
4.075,105.23297492334878,70.89307296114991,4.23,-3.34,5.87,0.0,0.0,0.0,2.0,0.0,0.0,0.0,0.0,0.0,0.0,
4.099,105.05029749233488,71.205307296115,2.51,-2.6,5.42,0.0,0.0,0.0,2.0,0.0,0.0,0.0,0.0,0.0,0.0,
4.122,105.01402974923349,71.38053072961151,-1.03,-2.26,4.05,0.0,0.0,0.0,2.0,0.0,0.0,0.0,0.0,0.0,0.0,
4.146,105.23540297492336,71.63205307296116,-1.09,-3.55,5.73,0.0,0.0,0.0,2.0,0.0,0.0,0.0,0.0,0.0,0.0,
4.169,104.99654029749233,71.67520530729612,-0.61,-5.9,3.94,0.0,0.0,0.0,2.0,0.0,0.0,0.0,0.0,0.0,0.0,
4.193,104.80165402974924,71.67952053072963,-3.73,-4.59,1.17,0.0,0.0,0.0,2.0,0.0,0.0,0.0,0.0,0.0,0.0,
4.216,104.59316540297492,71.64395205307297,-6.59,-4.1,0.87,0.0,0.0,0.0,2.0,0.0,0.0,0.0,0.0,0.0,0.0,
4.24,104.3653165402975,71.7393952053073,-7.7,-2.24,-0.82,0.0,0.0,0.0,2.0,0.0,0.0,0.0,0.0,0.0,0.0,
4.263,104.31553165402975,71.87493952053073,-10.44,1.95,-0.4,0.0,0.0,0.0,2.0,0.0,0.0,0.0,0.0,0.0,0.0,
4.287,104.66155316540298,71.75349395205308,-13.13,4.23,0.3,0.0,0.0,0.0,3.0,0.0,0.0,0.0,0.0,0.0,0.0,
4.311,104.6421553165403,71.6423493952053,-10.84,2.42,-2.94,0.0,0.0,0.0,3.0,0.0,0.0,0.0,0.0,0.0,0.0,
4.335,104.64021553165404,71.47823493952052,-8.31,0.98,-4.08,0.0,0.0,0.0,3.0,0.0,0.0,0.0,0.0,0.0,0.0,
4.359,104.5770215531654,71.34482349395205,-6.19,-0.82,-1.82,0.0,0.0,0.0,3.0,0.0,0.0,0.0,0.0,0.0,0.0,
4.382,104.57970215531654,71.2414823493952,-4.97,-0.25,-2.23,0.0,0.0,0.0,3.0,0.0,0.0,0.0,0.0,0.0,0.0,
4.406,104.60697021553165,71.13214823493954,-4.56,-0.63,-2.18,0.0,0.0,0.0,3.0,0.0,0.0,0.0,0.0,0.0,0.0,
4.429,104.63669702155316,71.06721482349396,-4.36,-0.79,-1.88,0.0,0.0,0.0,3.0,0.0,0.0,0.0,0.0,0.0,0.0,
4.454,104.61266970215532,71.03372148234939,-4.19,-1.07,-1.36,0.0,0.0,0.0,3.0,0.0,0.0,0.0,0.0,0.0,0.0,
4.477,104.65526697021554,70.92237214823493,-3.82,-1.15,-1.4,0.0,0.0,0.0,3.0,0.0,0.0,0.0,0.0,0.0,0.0,
4.501,104.65052669702155,70.88423721482349,-3.69,-1.29,-0.82,0.0,0.0,0.0,3.0,0.0,0.0,0.0,0.0,0.0,0.0,
4.525,104.57805266970215,70.91642372148235,-3.44,-0.88,-1.22,0.0,0.0,0.0,3.0,0.0,0.0,0.0,0.0,0.0,0.0,
4.549,104.66980526697022,70.89264237214823,-3.21,-0.84,-1.31,0.0,0.0,0.0,3.0,0.0,0.0,0.0,0.0,0.0,0.0,
4.573,104.69698052669702,70.87226423721484,-3.61,-0.77,-1.27,0.0,0.0,0.0,3.0,0.0,0.0,0.0,0.0,0.0,0.0,
4.596,104.6546980526697,70.86122642372149,-3.21,-0.89,-1.36,0.0,0.0,0.0,3.0,0.0,0.0,0.0,0.0,0.0,0.0,
4.62,104.65046980526697,70.83312264237215,-3.34,-0.64,-1.63,0.0,0.0,0.0,3.0,0.0,0.0,0.0,0.0,0.0,0.0,
4.644,104.6770469805267,70.79431226423722,-3.42,-1.09,-1.43,0.0,0.0,0.0,3.0,0.0,0.0,0.0,0.0,0.0,0.0,
4.668,104.77870469805268,70.82643122642372,-3.32,-1.44,-1.26,0.0,0.0,0.0,3.0,0.0,0.0,0.0,0.0,0.0,0.0,
4.691,104.72587046980527,70.82064312264237,-3.44,-1.35,-1.24,0.0,0.0,0.0,3.0,0.0,0.0,0.0,0.0,0.0,0.0,
4.715,104.78358704698053,70.83806431226424,-3.26,-1.18,-1.03,0.0,0.0,0.0,3.0,0.0,0.0,0.0,0.0,0.0,0.0,
4.739,104.78035870469806,70.75880643122643,-3.35,-0.8,-1.54,0.0,0.0,0.0,3.0,0.0,0.0,0.0,0.0,0.0,0.0,
4.763,104.7890358704698,70.77788064312264,-3.5,-1.47,-1.33,0.0,0.0,0.0,3.0,0.0,0.0,0.0,0.0,0.0,0.0,
4.787,104.82590358704697,70.77078806431226,-3.32,-1.32,-1.35,0.0,0.0,0.0,3.0,0.0,0.0,0.0,0.0,0.0,0.0,
4.81,104.8115903587047,70.78807880643123,-3.46,-1.57,-0.87,0.0,0.0,0.0,3.0,0.0,0.0,0.0,0.0,0.0,0.0,
4.834,104.81915903587046,70.76280788064312,-3.55,-1.13,-1.42,0.0,0.0,0.0,3.0,0.0,0.0,0.0,0.0,0.0,0.0,
4.858,104.77491590358703,70.64328078806432,-3.24,-1.49,-0.47,0.0,0.0,0.0,3.0,0.0,0.0,0.0,0.0,0.0,0.0,
4.882,104.7344915903587,70.65832807880643,-3.18,-0.96,-1.19,0.0,0.0,0.0,3.0,0.0,0.0,0.0,0.0,0.0,0.0,
4.905,104.69444915903587,70.70483280788063,-2.84,-0.84,-1.63,0.0,0.0,0.0,3.0,0.0,0.0,0.0,0.0,0.0,0.0,
4.929,104.71744491590358,70.73648328078806,-3.06,-0.56,-2.38,0.0,0.0,0.0,3.0,0.0,0.0,0.0,0.0,0.0,0.0,
4.954,104.71974449159036,70.74864832807881,-3.4,-1.17,-1.72,0.0,0.0,0.0,3.0,0.0,0.0,0.0,0.0,0.0,0.0,
4.977,104.70197444915904,70.74086483280787,-3.63,-1.34,-1.6,0.0,0.0,0.0,3.0,0.0,0.0,0.0,0.0,0.0,0.0,
5.001,104.7991974449159,70.72208648328079,-3.49,-1.15,-1.87,0.0,0.0,0.0,3.0,0.0,0.0,0.0,0.0,0.0,0.0,
5.024,104.82691974449158,70.73820864832807,-3.75,-2.23,-0.98,0.0,0.0,0.0,3.0,0.0,0.0,0.0,0.0,0.0,0.0,
5.049,104.82969197444915,70.72182086483281,-3.72,-1.89,-0.66,0.0,0.0,0.0,3.0,0.0,0.0,0.0,0.0,0.0,0.0,
5.072,104.83896919744492,70.71118208648328,-3.85,-2.11,-1.02,0.0,0.0,0.0,3.0,0.0,0.0,0.0,0.0,0.0,0.0,
5.096,104.7678969197445,70.65611820864834,-3.95,-2.27,-0.89,0.0,0.0,0.0,3.0,0.0,0.0,0.0,0.0,0.0,0.0,
5.12,104.77878969197445,70.65061182086484,-4.15,-2.17,-0.98,0.0,0.0,0.0,3.0,0.0,0.0,0.0,0.0,0.0,0.0,
5.144,104.73487896919745,70.67706118208649,-4.15,-2.3,-0.53,0.0,0.0,0.0,3.0,0.0,0.0,0.0,0.0,0.0,0.0,
5.168,104.65848789691975,70.68870611820864,-3.83,-1.91,-0.98,0.0,0.0,0.0,3.0,0.0,0.0,0.0,0.0,0.0,0.0,
5.191,104.60584878969198,70.66287061182086,-3.38,-0.58,-1.53,0.0,0.0,0.0,3.0,0.0,0.0,0.0,0.0,0.0,0.0,
5.215,104.5735848789692,70.71428706118209,-3.16,-0.58,-1.92,0.0,0.0,0.0,3.0,0.0,0.0,0.0,0.0,0.0,0.0,
5.238,104.64235848789691,70.73742870611821,-3.4,-0.91,-1.62,0.0,0.0,0.0,3.0,0.0,0.0,0.0,0.0,0.0,0.0,
5.263,104.71223584878969,70.73074287061182,-3.31,-1.26,-1.41,0.0,0.0,0.0,3.0,0.0,0.0,0.0,0.0,0.0,0.0,
5.286,104.65622358487897,70.73007428706119,-3.41,-1.6,-0.91,0.0,0.0,0.0,3.0,0.0,0.0,0.0,0.0,0.0,0.0,
5.31,104.62362235848789,70.68500742870613,-3.21,-0.8,-1.18,0.0,0.0,0.0,3.0,0.0,0.0,0.0,0.0,0.0,0.0,
5.334,104.69236223584879,70.6625007428706,-3.12,-0.97,-1.54,0.0,0.0,0.0,3.0,0.0,0.0,0.0,0.0,0.0,0.0,
5.358,104.70823622358486,70.65125007428706,-3.47,-0.91,-1.18,0.0,0.0,0.0,3.0,0.0,0.0,0.0,0.0,0.0,0.0,
5.382,104.77282362235849,70.71312500742872,-3.69,-1.16,-1.06,0.0,0.0,0.0,3.0,0.0,0.0,0.0,0.0,0.0,0.0,
5.405,104.73428236223585,70.67431250074287,-3.72,-1.39,-0.99,0.0,0.0,0.0,3.0,0.0,0.0,0.0,0.0,0.0,0.0,
5.429,104.70342823622359,70.6524312500743,-3.63,-1.48,-0.73,0.0,0.0,0.0,3.0,0.0,0.0,0.0,0.0,0.0,0.0,
5.453,104.75434282362237,70.61424312500743,-3.45,-1.37,-0.46,0.0,0.0,0.0,3.0,0.0,0.0,0.0,0.0,0.0,0.0,
5.477,104.80443428236224,70.61042431250074,-3.56,-1.3,-0.99,0.0,0.0,0.0,3.0,0.0,0.0,0.0,0.0,0.0,0.0,
5.5,104.79144342823622,70.65504243125008,-3.34,-1.56,-0.94,0.0,0.0,0.0,3.0,0.0,0.0,0.0,0.0,0.0,0.0,
5.524,104.72714434282362,70.62350424312501,-3.5,-1.62,-1.0,0.0,0.0,0.0,3.0,0.0,0.0,0.0,0.0,0.0,0.0,
5.549,104.69371443428236,70.6563504243125,-3.53,-1.13,-1.2,0.0,0.0,0.0,3.0,0.0,0.0,0.0,0.0,0.0,0.0,
5.572,104.68137144342823,70.61463504243125,-3.29,-1.2,-1.4,0.0,0.0,0.0,3.0,0.0,0.0,0.0,0.0,0.0,0.0,
5.596,104.61713714434282,70.62846350424313,-3.29,-0.85,-1.44,0.0,0.0,0.0,3.0,0.0,0.0,0.0,0.0,0.0,0.0,
5.619,104.67371371443429,70.62084635042432,-3.39,-0.82,-1.66,0.0,0.0,0.0,3.0,0.0,0.0,0.0,0.0,0.0,0.0,
5.643,104.67037137144342,70.64708463504243,-3.29,-1.1,-1.24,0.0,0.0,0.0,3.0,0.0,0.0,0.0,0.0,0.0,0.0,
5.667,104.63403713714435,70.62270846350425,-3.39,-1.34,-1.12,0.0,0.0,0.0,3.0,0.0,0.0,0.0,0.0,0.0,0.0,
5.691,104.63040371371443,70.63827084635042,-3.5,-1.13,-1.34,0.0,0.0,0.0,3.0,0.0,0.0,0.0,0.0,0.0,0.0,
5.714,104.62104037137144,70.62182708463504,-3.36,-1.42,-1.24,0.0,0.0,0.0,3.0,0.0,0.0,0.0,0.0,0.0,0.0,
5.738,104.58410403713714,70.6291827084635,-3.31,-1.51,-0.99,0.0,0.0,0.0,3.0,0.0,0.0,0.0,0.0,0.0,0.0,
5.763,104.54441040371373,70.64791827084636,-3.26,-1.45,-0.99,0.0,0.0,0.0,3.0,0.0,0.0,0.0,0.0,0.0,0.0,
5.786,104.56744104037136,70.72179182708464,-3.44,-0.76,-1.21,0.0,0.0,0.0,3.0,0.0,0.0,0.0,0.0,0.0,0.0,
5.81,104.60574410403713,70.72017918270846,-3.56,-0.17,-0.75,0.0,0.0,0.0,3.0,0.0,0.0,0.0,0.0,0.0,0.0,
5.833,104.64557441040371,70.72001791827086,-3.55,-0.64,-1.63,0.0,0.0,0.0,3.0,0.0,0.0,0.0,0.0,0.0,0.0,
5.858,104.67655744104037,70.72000179182709,-3.27,-1.0,-1.63,0.0,0.0,0.0,3.0,0.0,0.0,0.0,0.0,0.0,0.0,
5.881,104.63465574410404,70.68400017918272,-3.2,-1.05,-1.17,0.0,0.0,1.0,3.0,0.0,0.0,0.0,0.0,0.0,0.0,
5.905,104.63946557441041,70.68040001791827,-3.3,-1.1,-1.34,0.0,0.0,0.0,3.0,0.0,0.0,0.0,0.0,0.0,0.0,
5.928,104.65794655744104,70.64404000179182,-3.3,-1.03,-1.49,0.0,0.0,0.0,3.0,0.0,0.0,0.0,0.0,0.0,0.0,
5.953,104.67779465574411,70.64940400017919,-3.03,-1.15,-1.31,0.0,0.0,0.0,3.0,0.0,0.0,0.0,0.0,0.0,0.0,
5.977,104.64377946557441,70.62294040001792,-3.46,-1.5,-1.4,0.0,0.0,0.0,3.0,0.0,0.0,0.0,0.0,0.0,0.0,
6.0,104.66737794655744,70.6562940400018,-3.37,-1.73,-1.21,0.0,0.0,1.0,3.0,0.0,0.0,0.0,0.0,0.0,0.0,
6.024,104.63373779465574,70.66862940400019,-3.5,-1.6,-1.1,0.0,0.0,1.0,3.0,0.0,0.0,0.0,0.0,0.0,0.0,
6.048,104.57637377946557,70.65186294040002,-3.5,-1.34,-1.35,0.0,0.0,1.0,3.0,0.0,0.0,0.0,0.0,0.0,0.0,
6.072,104.62463737794656,70.64118629404,-3.3,-1.31,-1.48,0.0,0.0,1.0,3.0,0.0,0.0,0.0,0.0,0.0,0.0,
6.095,104.62946373779465,70.649118629404,-3.37,-0.95,-1.31,0.0,0.0,1.0,3.0,0.0,0.0,0.0,0.0,0.0,0.0,
6.119,104.68394637377946,70.7039118629404,-3.25,-0.96,-1.63,0.0,0.0,0.0,3.0,0.0,0.0,0.0,0.0,0.0,0.0,
6.144,104.68039463737794,70.70039118629404,-3.39,-1.08,-1.35,0.0,0.0,0.0,3.0,0.0,0.0,0.0,0.0,0.0,0.0,
6.167,104.7430394637378,70.6820391186294,-3.37,-0.94,-1.74,0.0,0.0,1.0,3.0,0.0,0.0,0.0,0.0,0.0,0.0,
6.191,104.77630394637379,70.67120391186295,-3.26,-1.02,-1.21,0.0,0.0,1.0,3.0,0.0,0.0,0.0,0.0,0.0,0.0,
6.214,104.75263039463738,70.7511203911863,-3.14,-1.19,-1.39,0.0,0.0,1.0,3.0,0.0,0.0,0.0,0.0,0.0,0.0,
6.238,104.73226303946375,70.78611203911863,-3.61,-0.98,-1.51,0.0,0.0,1.0,3.0,0.0,0.0,0.0,0.0,0.0,0.0,
6.262,104.73922630394637,70.70861120391186,-3.4,-1.17,-1.54,0.0,0.0,1.0,3.0,0.0,0.0,0.0,0.0,0.0,0.0,
6.286,104.73992263039463,70.72786112039118,-3.27,-1.36,-1.41,0.0,0.0,1.0,3.0,0.0,0.0,0.0,0.0,0.0,0.0,
6.309,104.75799226303947,70.69378611203912,-3.26,-0.98,-1.48,0.0,0.0,1.0,3.0,0.0,0.0,0.0,0.0,0.0,0.0,
6.333,104.78679922630396,70.64537861120391,-3.3,-1.57,-1.51,0.0,0.0,1.0,3.0,0.0,0.0,0.0,0.0,0.0,0.0,
6.358,104.84367992263039,70.70353786112038,-3.64,-1.4,-1.18,0.0,0.0,1.0,3.0,0.0,0.0,0.0,0.0,0.0,0.0,
6.381,104.84936799226303,70.63735378611204,-3.54,-1.66,-1.16,0.0,0.0,1.0,3.0,0.0,0.0,0.0,0.0,0.0,0.0,
6.405,104.7779367992263,70.5947353786112,-3.52,-1.02,-1.37,0.0,0.0,1.0,3.0,0.0,0.0,0.0,0.0,0.0,0.0,
6.428,104.71679367992262,70.57247353786111,-3.21,-1.41,-1.52,0.0,0.0,1.0,3.0,0.0,0.0,0.0,0.0,0.0,0.0,
6.453,104.67467936799227,70.58824735378612,-3.05,-1.07,-1.63,0.0,0.0,1.0,3.0,0.0,0.0,0.0,0.0,0.0,0.0,
6.476,104.60746793679922,70.53582473537861,-2.5,-1.98,-2.17,0.0,0.0,1.0,3.0,0.0,0.0,0.0,0.0,0.0,0.0,
6.5,104.68174679367992,70.43158247353786,-0.98,-3.73,-4.53,0.0,0.0,0.0,3.0,0.0,0.0,0.0,0.0,0.0,0.0,
6.523,104.84217467936799,70.48415824735378,-0.63,-6.55,-6.34,0.0,0.0,0.0,2.0,0.0,0.0,0.0,0.0,0.0,0.0,
6.548,104.92121746793681,70.66041582473538,-2.28,-9.53,-2.67,0.0,0.0,0.0,2.0,0.0,0.0,0.0,0.0,0.0,0.0,
6.572,104.44312174679368,70.72304158247354,-0.79,-8.98,-3.63,0.0,0.0,0.0,2.0,0.0,0.0,0.0,0.0,0.0,0.0,
6.595,104.22431217467937,70.71130415824734,1.02,-5.74,-5.54,0.0,0.0,0.0,1.0,0.0,0.0,0.0,0.0,0.0,0.0,
6.619,104.34643121746794,70.70113041582474,2.37,-7.15,-4.89,0.0,0.0,0.0,1.0,0.0,0.0,0.0,0.0,0.0,0.0,
6.642,104.72764312174678,70.85311304158247,5.09,-9.31,-4.9,0.0,0.0,0.0,1.0,0.0,0.0,0.0,0.0,0.0,0.0,
6.667,104.54076431217467,71.18331130415825,8.24,-5.03,3.6,0.0,0.0,0.0,1.0,0.0,0.0,0.0,0.0,0.0,0.0,
6.69,104.71107643121746,71.09933113041582,6.65,2.21,2.95,0.0,0.0,0.0,1.0,0.0,0.0,0.0,0.0,0.0,0.0,
6.714,104.76410764312173,71.19893311304158,5.05,1.46,4.6,0.0,0.0,0.0,1.0,0.0,0.0,0.0,0.0,0.0,0.0,
6.737,104.74241076431215,71.91089331130415,1.5,3.24,2.45,0.0,0.0,0.0,1.0,0.0,0.0,0.0,0.0,0.0,0.0,
6.761,104.40724107643122,72.57608933113042,1.9,2.53,5.73,0.0,0.0,0.0,1.0,0.0,0.0,0.0,0.0,0.0,0.0,
6.785,104.44572410764313,72.78660893311306,3.77,1.66,7.04,0.0,0.0,0.0,1.0,0.0,0.0,0.0,0.0,0.0,0.0,
6.807,104.4135724107643,72.75366089331132,7.05,-0.56,8.99,0.0,0.0,0.0,1.0,0.0,0.0,0.0,0.0,0.0,0.0,
6.831,104.26635724107643,72.45336608933113,11.85,0.89,7.65,0.0,0.0,0.0,1.0,0.0,0.0,0.0,0.0,0.0,0.0,
6.854,103.97263572410765,72.64833660893312,17.73,0.14,9.63,0.0,0.0,0.0,0.0,0.0,0.0,0.0,0.0,0.0,0.0,
6.878,103.24126357241076,72.22683366089332,29.69,-8.58,11.36,0.0,0.0,0.0,0.0,0.0,0.0,0.0,0.0,0.0,0.0,
6.901,103.52812635724108,72.66168336608932,46.01,-21.85,14.34,0.0,0.0,0.0,0.0,0.0,0.0,0.0,0.0,0.0,0.0,
6.926,103.88081263572411,74.47816833660893,58.34,-28.1,23.02,0.0,0.0,0.0,0.0,0.0,0.0,0.0,0.0,0.0,0.0,
6.949,102.80908126357241,76.8468168336609,55.18,-12.84,32.67,0.0,0.0,0.0,0.0,0.0,0.0,0.0,0.0,0.0,0.0,
6.973,101.37890812635723,78.3076816833661,31.31,12.22,25.0,0.0,0.0,0.0,0.0,0.0,0.0,0.0,0.0,0.0,0.0,
6.996,101.06489081263572,80.3977681683366,-5.98,20.75,23.02,0.0,0.0,0.0,0.0,0.0,0.0,0.0,0.0,0.0,0.0,
7.02,101.41148908126358,80.49877681683367,-34.27,20.98,33.75,0.0,0.0,0.0,0.0,0.0,0.0,0.0,0.0,0.0,0.0,
7.044,102.05814890812636,78.67287768168337,-45.37,19.82,29.19,0.0,0.0,0.0,0.0,0.0,0.0,0.0,0.0,0.0,0.0,
7.067,103.08581489081264,76.22228776816834,-33.41,13.58,5.98,0.0,0.0,0.0,0.0,0.0,0.0,0.0,0.0,0.0,0.0,
7.092,103.04458148908127,75.60822877681684,-19.34,7.92,-0.9,0.0,0.0,0.0,0.0,0.0,0.0,0.0,0.0,0.0,0.0,
7.115,102.69845814890813,75.87982287768169,-20.35,8.94,8.6,0.0,0.0,0.0,0.0,0.0,0.0,0.0,0.0,0.0,0.0,
7.139,102.65484581489082,76.38398228776818,-36.85,11.54,2.52,0.0,0.0,1.0,0.0,0.0,0.0,0.0,0.0,0.0,0.0,
7.162,102.86648458148908,76.39839822877683,-79.37,10.37,-2.98,0.0,0.0,1.0,0.0,0.0,0.0,0.0,0.0,0.0,0.0,
7.186,102.5276484581489,71.73783982287767,-63.15,3.63,8.72,0.0,0.0,1.0,0.0,0.0,0.0,0.0,0.0,0.0,0.0,
7.209,103.29476484581488,72.42378398228777,-13.61,6.98,-3.44,0.0,0.0,2.0,0.0,0.0,0.0,0.0,0.0,0.0,0.0,
7.233,103.1914764845815,72.18637839822878,0.06,9.65,3.55,0.0,0.0,2.0,0.0,0.0,0.0,0.0,0.0,0.0,0.0,
7.257,103.67614764845814,71.57763783982288,-4.38,2.18,1.09,0.0,0.0,2.0,1.0,0.0,0.0,0.0,0.0,0.0,0.0,
7.281,104.45361476484582,74.52276378398228,-41.05,-5.82,-28.46,0.0,0.0,3.0,4.0,0.0,0.0,0.0,0.0,0.0,0.0,
7.305,104.04536147648459,71.77527637839823,-27.24,-11.24,-8.82,0.0,0.0,3.0,8.0,0.0,0.0,0.0,0.0,0.0,0.0,
7.328,104.09453614764845,70.66352763783982,-6.17,-3.33,-4.82,0.0,0.0,3.0,9.0,0.0,0.0,0.0,0.0,0.0,0.0,
7.353,103.90145361476485,70.57035276378399,-4.24,-1.66,-6.23,0.0,0.0,3.0,9.0,0.0,0.0,0.0,0.0,0.0,0.0,
7.376,103.85514536147649,71.2630352763784,-22.82,-2.16,-11.66,0.0,0.0,4.0,9.0,0.0,0.0,0.0,0.0,0.0,0.0,
7.4,103.98551453614766,70.59430352763783,-25.89,-9.08,-12.58,0.0,0.0,4.0,10.0,1.0,0.0,0.0,0.0,0.0,0.0,
7.425,103.95355145361478,69.70843035276378,-8.11,-3.31,-5.49,0.0,0.0,4.0,11.0,1.0,0.0,0.0,0.0,0.0,0.0,
7.448,103.90535514536148,69.36784303527638,-1.73,-2.25,-2.65,0.0,0.0,4.0,11.0,1.0,0.0,0.0,0.0,0.0,0.0,
7.473,103.72053551453615,69.41478430352764,1.47,3.18,7.05,0.0,0.0,4.0,11.0,0.0,0.0,0.0,0.0,21.58,0.0,
7.496,103.61205355145361,69.42847843035277,-0.93,1.53,-3.07,0.0,0.0,4.0,11.0,0.0,0.0,0.0,0.0,8.24,0.0,
7.52,103.75420535514536,68.65584784303527,0.05,1.86,-4.21,0.0,0.0,4.0,11.0,0.0,0.0,0.0,0.0,2.45,0.0,
7.544,103.99342053551453,68.35358478430352,8.9,2.47,-0.93,0.0,0.0,3.0,10.0,0.0,0.0,0.0,0.0,0.0,0.0,
7.568,103.98134205355146,68.25135847843035,12.02,0.65,1.21,0.0,0.0,3.0,9.0,0.0,0.0,0.0,0.0,28.06,0.0,
7.591,103.92613420535515,68.65513584784304,8.39,4.12,-3.45,0.0,0.0,2.0,8.0,0.0,0.0,0.0,0.0,35.32,0.0,
7.615,104.3346134205355,69.21751358478431,-0.75,4.44,-6.18,0.0,0.0,3.0,8.0,0.0,0.0,0.0,0.0,14.42,0.0,
7.64,104.51046134205355,68.91375135847842,5.95,-2.44,0.44,0.0,0.0,2.0,8.0,0.0,0.0,0.0,0.0,9.12,0.0,
7.663,104.69004613420535,68.97337513584785,3.99,-0.14,4.66,0.0,0.0,2.0,7.0,0.0,0.0,0.0,0.0,0.0,0.0,
7.687,104.50100461342055,69.34833751358478,0.15,2.91,0.1,0.0,0.0,2.0,7.0,0.0,0.0,0.0,0.0,3.04,0.0,
7.71,104.67110046134205,69.57483375135847,-8.27,5.73,-2.05,0.0,0.0,2.0,7.0,0.0,0.0,0.0,0.0,5.59,0.0,
7.734,105.0751100461342,69.25548337513585,-6.4,0.9,-0.06,0.0,0.0,3.0,7.0,0.0,0.0,0.0,0.0,8.44,0.0,
7.757,105.36751100461343,69.48454833751359,-6.9,0.24,-0.21,0.0,0.0,3.0,8.0,0.0,0.0,0.0,0.0,0.0,0.0,
7.782,105.63075110046134,69.12945483375137,-1.08,0.44,2.76,0.0,0.0,3.0,8.0,0.0,0.0,0.0,0.0,0.0,0.0,
7.805,105.42307511004614,69.12994548337514,2.03,1.36,1.22,0.0,0.0,2.0,8.0,0.0,0.0,0.0,0.0,0.0,0.0,
7.829,104.95230751100462,69.53499454833751,-1.22,2.16,-3.21,0.0,0.0,2.0,8.0,0.0,0.0,0.0,0.0,0.0,0.0,
7.853,105.19323075110047,69.76449945483375,-9.1,5.73,-6.1,0.0,0.0,2.0,9.0,0.0,0.0,0.0,0.0,0.0,0.0,
7.877,105.74832307511005,69.24744994548337,-3.78,5.9,-1.98,0.0,0.0,3.0,9.0,1.0,0.0,0.0,0.0,0.0,0.0,
7.901,105.740832307511,69.42074499454834,-0.38,8.77,-6.62,0.0,0.0,3.0,10.0,1.0,0.0,0.0,0.0,0.0,0.0,
7.924,105.5690832307511,69.27607449945484,3.56,12.47,-9.27,0.0,0.0,3.0,11.0,1.0,0.0,0.0,0.0,0.0,0.0,
7.949,105.51590832307511,69.18060744994548,8.81,20.57,-12.12,0.0,0.0,3.0,12.0,1.0,0.0,0.0,0.0,0.0,0.0,
7.972,105.5915908323075,69.32406074499455,6.23,28.83,-19.06,0.0,0.0,3.0,0.0,1.0,0.0,0.0,0.0,0.0,0.0,
7.996,106.48115908323075,69.59940607449946,3.4,24.28,-16.47,0.0,0.0,3.0,1.0,1.0,0.0,0.0,0.0,0.0,0.0,
8.02,107.66811590832307,69.77094060744994,4.79,14.79,-9.32,0.0,0.0,3.0,1.0,1.0,0.0,0.0,0.0,0.0,0.0,
8.044,108.1828115908323,69.94109406074499,8.97,8.8,-7.38,0.0,0.0,2.0,0.0,0.0,0.0,0.0,0.0,0.0,0.0,
8.068,108.18928115908322,70.2191094060745,14.51,7.18,-8.66,0.0,0.0,2.0,12.0,0.0,0.0,0.0,0.0,0.0,0.0,
8.092,108.17192811590833,70.59791094060745,13.69,9.53,-11.84,0.0,0.0,2.0,11.0,0.0,0.0,0.0,0.0,0.0,0.0,
8.116,108.59319281159082,71.13079109406074,11.69,11.0,-12.97,0.0,0.0,1.0,9.0,0.0,0.0,0.0,0.0,0.0,0.0,
8.139,109.42731928115907,71.65207910940607,7.91,7.64,-8.5,0.0,0.0,1.0,9.0,0.0,0.0,0.0,0.0,0.0,0.0,
8.163,110.2667319281159,72.10920791094061,-0.16,4.22,-5.48,0.0,0.0,1.0,8.0,0.0,0.0,0.0,0.0,0.0,0.0,
8.187,110.70167319281158,72.46092079109405,-6.0,1.27,-2.71,0.0,0.0,1.0,9.0,0.0,0.0,0.0,0.0,26.59,0.0,
8.211,110.55616731928116,72.40609207910941,-5.65,0.15,-2.67,0.0,0.0,1.0,9.0,0.0,0.0,0.0,0.0,36.0,0.0,
8.235,110.53261673192812,72.33760920791093,-2.67,-0.85,-0.86,0.0,0.0,1.0,10.0,0.0,0.0,0.0,0.0,40.71,0.0,
8.259,110.89926167319281,72.38476092079108,-0.02,-4.91,3.56,0.0,0.0,1.0,9.0,0.0,0.0,0.0,0.0,55.92,0.0,
8.283,110.99892616731928,72.46147609207911,-0.54,-5.84,4.96,0.0,0.0,1.0,9.0,0.0,0.0,0.0,0.0,57.09,0.0,
8.307,110.87389261673192,73.0631476092079,-7.16,-5.4,4.3,0.0,0.0,1.0,9.0,0.0,0.0,0.0,0.0,59.64,0.0,
8.331,110.8613892616732,72.90731476092078,-13.32,-7.11,2.76,0.0,0.0,1.0,10.0,0.0,0.0,0.0,0.0,61.02,0.0,
8.354,110.74313892616733,72.54073147609208,-11.79,-6.86,1.15,0.0,0.0,1.0,10.0,0.0,0.0,0.0,0.0,56.7,0.0,
8.379,110.45231389261673,72.59407314760921,-13.72,-3.76,-3.0,0.0,0.0,1.0,11.0,0.0,0.0,0.0,0.0,57.49,0.0,
8.402,110.37823138926169,72.47340731476092,-13.75,-3.95,-1.53,0.0,0.0,2.0,12.0,0.0,0.0,0.0,0.0,60.04,0.0,
8.427,110.50582313892617,72.13734073147609,-12.27,-6.91,3.13,0.0,0.0,2.0,0.0,0.0,0.0,0.0,0.0,56.21,0.0,
8.451,110.47358231389262,71.6627340731476,-10.79,-9.11,4.59,0.0,0.0,2.0,1.0,0.0,0.0,0.0,0.0,10.5,0.0,
8.474,110.39835823138925,71.29127340731476,-9.11,-9.46,5.13,0.0,0.0,2.0,2.0,0.0,0.0,0.0,0.0,0.0,0.0,
8.499,110.20183582313894,71.13712734073148,-7.23,-8.1,3.41,0.0,0.0,2.0,2.0,0.0,0.0,0.0,0.0,0.0,0.0,
8.522,110.1011835823139,71.22071273407315,-8.6,-8.7,4.19,0.0,0.0,2.0,2.0,0.0,0.0,0.0,0.0,0.0,0.0,
8.546,110.21711835823139,71.24707127340731,-16.2,-12.53,6.5,0.0,0.0,2.0,2.0,1.0,0.0,0.0,0.0,0.0,0.0,
8.57,110.20171183582315,70.97970712734073,-19.88,-16.44,8.74,0.0,0.0,2.0,3.0,1.0,0.0,0.0,0.0,0.0,0.0,
8.594,109.8581711835823,70.61997071273407,-20.42,-17.48,9.54,0.0,0.0,3.0,5.0,1.0,0.0,0.0,0.0,0.0,0.0,
8.617,109.11281711835824,69.9359970712734,-13.59,-11.31,6.5,0.0,0.0,3.0,7.0,1.0,0.0,0.0,0.0,0.0,0.0,
8.642,108.47128171183583,69.65159970712735,-6.29,-4.54,1.8,0.0,0.0,3.0,8.0,1.0,0.0,0.0,0.0,0.0,0.0,
8.666,108.11912817118359,69.68615997071274,-6.48,-2.89,-0.21,0.0,0.0,3.0,9.0,0.0,0.0,0.0,0.0,0.0,0.0,
8.689,108.23691281711835,69.63561599707127,-12.33,-5.64,-0.69,0.0,0.0,3.0,10.0,0.0,0.0,0.0,0.0,0.0,0.0,
8.714,108.37469128171183,69.29756159970712,-9.85,-6.29,1.7,0.0,0.0,3.0,10.0,1.0,0.0,0.0,0.0,0.0,0.0,
8.737,108.14546912817119,69.02975615997072,-5.63,-5.62,2.95,0.0,0.0,3.0,11.0,1.0,0.0,0.0,0.0,0.0,0.0,
8.762,107.83454691281712,68.96697561599706,-4.22,-5.56,2.79,0.0,0.0,3.0,11.0,1.0,0.0,0.0,0.0,0.0,0.0,
8.785,107.79445469128171,68.82569756159971,-6.6,-7.05,1.46,0.0,0.0,3.0,11.0,1.0,0.0,0.0,0.0,0.0,0.0,
8.809,107.61044546912817,68.75756975615997,-7.53,-7.56,1.32,0.0,0.0,3.0,11.0,1.0,0.0,0.0,0.0,0.0,0.0,
8.834,107.34904454691281,68.705756975616,-6.76,-7.04,0.94,0.0,0.0,3.0,11.0,1.0,0.0,0.0,0.0,0.0,0.0,
8.857,107.21490445469128,68.61057569756159,-5.15,-3.73,0.47,0.0,0.0,3.0,11.0,1.0,0.0,0.0,0.0,0.0,0.0,
8.881,107.17449044546913,68.48405756975616,-3.27,-2.63,0.41,0.0,0.0,3.0,11.0,1.0,0.0,0.0,0.0,0.0,0.0,
8.905,106.99944904454692,68.53440575697562,-2.71,-3.28,0.82,0.0,0.0,3.0,9.0,1.0,0.0,0.0,0.0,0.0,0.0,
8.929,107.0989449044547,68.63844057569756,-5.82,-6.65,1.2,0.0,0.0,3.0,8.0,1.0,0.0,0.0,0.0,0.0,0.0,
8.952,107.07289449044546,68.62184405756976,-10.14,-11.54,3.53,0.0,0.0,3.0,8.0,1.0,0.0,0.0,0.0,0.0,0.0,
8.977,106.88128944904454,68.39518440575698,-11.37,-13.34,5.47,0.0,0.0,3.0,8.0,1.0,0.0,0.0,0.0,0.0,0.0,
9.0,106.44812894490445,68.1655184405757,-7.51,-9.92,4.45,0.0,0.0,3.0,8.0,1.0,0.0,0.0,0.0,0.0,0.0,
9.024,106.07181289449045,68.00755184405756,-4.44,-5.76,2.14,0.0,0.0,4.0,7.0,1.0,0.0,0.0,0.0,0.0,0.0,
9.049,105.76418128944906,67.96475518440575,-3.75,-3.95,0.85,0.0,0.0,4.0,6.0,1.0,0.0,0.0,0.0,0.0,0.0,
9.072,105.63441812894492,67.98747551844056,-3.95,-3.4,0.15,0.0,0.0,4.0,6.0,1.0,0.0,0.0,0.0,0.0,0.0,
9.096,105.38744181289448,67.95374755184406,-3.5,-3.05,-0.53,0.0,0.0,4.0,6.0,1.0,0.0,0.0,0.0,0.0,0.0,
9.12,105.24574418128945,67.87837475518441,-2.38,-1.03,-1.73,0.0,0.0,4.0,6.0,1.0,0.0,0.0,0.0,0.0,0.0,
9.144,105.24957441812896,67.81683747551844,-1.6,0.0,-1.86,0.0,0.0,4.0,6.0,1.0,0.0,0.0,0.0,0.0,0.0,
9.167,105.33995744181289,67.87368374755184,-3.05,-0.55,-1.09,0.0,0.0,4.0,6.0,1.0,0.0,0.0,0.0,0.0,0.0,
9.192,105.3669957441813,67.90636837475517,-4.43,-2.36,-0.61,0.0,0.0,4.0,6.0,1.0,0.0,0.0,0.0,0.0,0.0,
9.216,105.34269957441813,67.87363683747552,-4.66,-2.92,-0.71,0.0,0.0,4.0,6.0,1.0,0.0,0.0,0.0,0.0,0.0,
9.239,105.29526995744182,67.78036368374754,-4.19,-2.61,-0.63,0.0,0.0,4.0,6.0,1.0,0.0,0.0,0.0,0.0,0.0,
9.264,105.24552699574417,67.72603636837475,-2.41,-2.3,-0.8,0.0,0.0,4.0,6.0,1.0,0.0,0.0,0.0,0.0,0.0,
9.287,105.19555269957442,67.83760363683747,-2.79,-2.54,-0.97,0.0,0.0,4.0,6.0,1.0,0.0,0.0,0.0,0.0,0.0,
9.311,105.27155526995745,67.83976036368375,-4.15,-2.79,-0.68,0.0,0.0,4.0,6.0,1.0,0.0,0.0,0.0,0.0,0.0,
9.335,105.20715552699575,67.76797603636838,-3.51,-1.95,-0.79,0.0,0.0,4.0,6.0,1.0,0.0,0.0,0.0,0.0,0.0,
9.359,105.09271555269957,67.77879760363683,-3.27,-0.77,-1.21,0.0,0.0,4.0,6.0,1.0,0.0,0.0,0.0,0.0,0.0,
9.382,105.11727155526995,67.79787976036368,-2.53,-0.73,-1.18,0.0,0.0,4.0,6.0,1.0,0.0,0.0,0.0,0.0,0.0,
9.407,105.101727155527,67.80878797603637,-1.73,-0.85,-1.01,0.0,0.0,4.0,6.0,1.0,0.0,0.0,0.0,0.0,0.0,
9.431,105.0461727155527,67.85487879760363,-3.5,-1.32,-0.6,0.0,0.0,4.0,6.0,1.0,0.0,0.0,0.0,0.0,0.0,
9.455,104.98661727155526,67.77848787976036,-4.56,-1.39,-1.16,0.0,0.0,4.0,6.0,1.0,0.0,0.0,0.0,0.0,0.0,
9.479,104.96266172715552,67.73484878797605,-3.65,-0.23,-1.71,0.0,0.0,4.0,6.0,1.0,0.0,0.0,0.0,0.0,0.0,
9.502,104.99626617271555,67.68548487879761,-2.23,0.89,-1.7,0.0,0.0,4.0,6.0,1.0,0.0,0.0,0.0,0.0,0.0,
9.527,105.09862661727155,67.70754848787975,-2.18,0.68,-1.05,0.0,0.0,4.0,6.0,1.0,0.0,0.0,0.0,0.0,0.0,
9.55,105.14486266172716,67.70075484878798,-2.83,0.0,-1.05,0.0,0.0,4.0,6.0,1.0,0.0,0.0,0.0,0.0,0.0,
9.574,105.16748626617272,67.7180754848788,-3.47,-0.31,-0.51,0.0,0.0,4.0,6.0,1.0,0.0,0.0,0.0,0.0,0.0,
9.597,105.16974862661728,67.68380754848789,-3.15,-0.53,-1.66,0.0,0.0,4.0,6.0,1.0,0.0,0.0,0.0,0.0,0.0,
9.622,105.16997486266173,67.68938075484878,-3.21,-0.62,-1.48,0.0,0.0,4.0,6.0,1.0,0.0,0.0,0.0,0.0,0.0,
9.646,105.18799748626617,67.71693807548488,-2.4,-0.91,-0.57,0.0,0.0,4.0,5.0,1.0,0.0,0.0,0.0,0.0,0.0,
9.67,105.27079974862663,67.71069380754848,-1.69,-1.13,-0.05,0.0,0.0,4.0,5.0,1.0,0.0,0.0,0.0,0.0,0.0,
9.694,105.22507997486267,67.79106938075485,-1.82,-0.92,-0.05,0.0,0.0,3.0,5.0,1.0,0.0,0.0,0.0,0.0,0.0,
9.717,105.17550799748626,67.69110693807549,-2.01,-0.68,-1.48,0.0,0.0,4.0,4.0,1.0,0.0,0.0,0.0,0.0,0.0,
9.742,105.16155079974862,67.77111069380754,-1.96,-0.27,-1.27,0.0,0.0,4.0,4.0,1.0,0.0,0.0,0.0,0.0,0.0,
9.765,105.14215507997487,67.74311106938075,-2.05,-1.21,-1.14,0.0,0.0,4.0,3.0,1.0,0.0,0.0,0.0,0.0,0.0,
9.789,105.08621550799748,67.78531110693808,-2.21,-1.06,-1.28,0.0,0.0,3.0,2.0,1.0,0.0,0.0,0.0,0.0,0.0,
9.814,105.14362155079975,67.78053111069381,-3.03,-1.24,-1.09,0.0,0.0,3.0,2.0,1.0,0.0,0.0,0.0,0.0,0.0,
9.837,105.13136215507998,67.78905311106939,-2.05,-0.94,-1.42,0.0,0.0,3.0,2.0,1.0,0.0,0.0,0.0,0.0,0.0,
9.861,105.130136215508,67.86190531110694,-0.9,-1.69,-0.69,0.0,0.0,3.0,2.0,1.0,0.0,0.0,0.0,0.0,0.0,
9.885,105.0670136215508,67.91419053111069,-1.92,-2.08,-0.82,0.0,0.0,3.0,2.0,1.0,0.0,0.0,0.0,0.0,0.0,
9.909,105.09670136215507,68.01841905311107,-3.27,-2.21,-0.95,0.0,0.0,3.0,1.0,1.0,0.0,0.0,0.0,0.0,0.0,
9.932,105.08167013621551,68.13684190531112,-3.92,-1.96,-1.1,0.0,0.0,3.0,1.0,1.0,0.0,0.0,0.0,0.0,0.0,
9.957,105.02616701362155,68.18468419053112,-4.3,-1.88,-1.0,0.0,0.0,3.0,1.0,1.0,0.0,0.0,0.0,0.0,0.0,
9.98,104.98461670136216,68.16246841905311,-4.29,-1.19,-1.65,0.0,0.0,3.0,1.0,1.0,0.0,0.0,0.0,0.0,0.0,
10.005,104.9264616701362,68.0882468419053,-4.28,-1.31,-1.57,0.0,0.0,3.0,1.0,1.0,0.0,0.0,0.0,0.0,0.0,
10.029,104.94764616701362,68.06282468419053,-3.3,-1.81,-1.23,0.0,0.0,3.0,1.0,1.0,0.0,0.0,0.0,0.0,0.0,
10.052,104.95876461670136,68.05128246841905,-3.33,-1.81,-1.17,0.0,0.0,3.0,2.0,1.0,0.0,0.0,0.0,0.0,0.0,
10.077,104.87887646167015,68.0681282468419,-3.59,-1.4,-1.09,0.0,0.0,3.0,2.0,1.0,0.0,0.0,0.0,0.0,0.0,
10.1,104.861887646167,68.07881282468419,-3.67,-1.28,-0.95,0.0,0.0,3.0,2.0,1.0,0.0,0.0,0.0,0.0,0.0,
10.125,104.8781887646167,68.06188128246842,-3.88,-0.99,-1.42,0.0,0.0,3.0,2.0,1.0,0.0,0.0,0.0,0.0,0.0,
10.148,104.86181887646165,68.10518812824684,-3.66,-0.76,-1.53,0.0,0.0,3.0,2.0,1.0,0.0,0.0,0.0,0.0,0.0,
10.173,104.90518188764617,68.05551881282469,-3.1,-1.52,-1.44,0.0,0.0,3.0,2.0,1.0,0.0,0.0,0.0,0.0,0.0,
10.196,104.91851818876461,68.06855188128246,-2.28,-1.75,-1.21,0.0,0.0,3.0,2.0,1.0,0.0,0.0,0.0,0.0,0.0,
10.221,104.89285181887645,68.05185518812824,-2.24,-1.36,-1.16,0.0,0.0,3.0,2.0,1.0,0.0,0.0,0.0,0.0,0.0,
10.245,104.87228518188765,68.14018551881283,-3.07,-1.1,-0.95,0.0,0.0,3.0,2.0,1.0,0.0,0.0,0.0,0.0,0.0,
10.268,104.80722851818875,68.14901855188128,-3.71,-0.43,-1.46,0.0,0.0,3.0,2.0,1.0,0.0,0.0,0.0,0.0,0.0,
10.293,104.86372285181888,68.11390185518813,-3.1,-0.53,-1.47,0.0,0.0,3.0,2.0,1.0,0.0,0.0,0.0,0.0,0.0,
10.316,104.90537228518188,68.17339018551883,-2.6,-1.33,-1.37,0.0,0.0,3.0,2.0,1.0,0.0,0.0,0.0,0.0,0.0,
10.341,104.92753722851819,68.24233901855189,-3.25,-2.15,-1.2,0.0,0.0,3.0,2.0,1.0,0.0,0.0,0.0,0.0,0.0,
10.364,104.95675372285181,68.19523390185519,-3.78,-2.29,-0.92,0.0,0.0,3.0,2.0,1.0,0.0,0.0,0.0,0.0,0.0,
10.389,104.87867537228519,68.19952339018552,-3.84,-1.83,-0.95,0.0,0.0,3.0,2.0,1.0,0.0,0.0,0.0,0.0,0.0,
10.413,104.81686753722852,68.25395233901855,-4.77,-1.68,-1.09,0.0,0.0,3.0,2.0,1.0,0.0,0.0,0.0,0.0,0.0,
10.437,104.87368675372285,68.20539523390185,-4.48,-0.92,-1.69,0.0,0.0,3.0,2.0,1.0,0.0,0.0,0.0,0.0,0.0,
10.461,104.92436867537229,68.13753952339019,-3.79,-0.82,-1.5,0.0,0.0,4.0,3.0,0.0,0.0,0.0,0.0,0.0,0.0,
10.484,104.93843686753722,68.11275395233902,-3.62,-0.84,-1.51,0.0,0.0,4.0,3.0,0.0,0.0,0.0,0.0,0.0,0.0,
10.509,104.94884368675372,68.1102753952339,-3.66,-1.79,-1.02,0.0,0.0,4.0,3.0,0.0,0.0,0.0,0.0,0.0,0.0,
10.532,104.95888436867537,68.0650275395234,-4.4,-2.27,-0.96,0.0,0.0,4.0,3.0,1.0,0.0,0.0,0.0,0.0,0.0,
10.557,104.96888843686753,68.01550275395235,-4.82,-1.97,-1.28,0.0,0.0,4.0,4.0,1.0,0.0,0.0,0.0,0.0,0.0,
10.58,105.01488884368675,67.91155027539524,-5.25,-1.72,-1.56,0.0,0.0,4.0,4.0,1.0,0.0,0.0,0.0,0.0,0.0,
10.605,105.02848888436867,67.82015502753953,-4.0,-0.85,-1.56,0.0,0.0,4.0,4.0,1.0,0.0,0.0,0.0,0.0,0.0,
10.629,104.96684888843686,67.87401550275395,-3.46,-1.16,-0.6,0.0,0.0,4.0,4.0,1.0,0.0,0.0,0.0,0.0,0.0,
10.653,104.9336848888437,67.94240155027539,-4.16,-1.84,-0.69,0.0,0.0,4.0,5.0,1.0,0.0,0.0,0.0,0.0,0.0,
10.677,104.92136848888437,67.87724015502755,-5.48,-1.91,-1.59,0.0,0.0,4.0,5.0,1.0,0.0,0.0,0.0,0.0,0.0,
10.7,105.00113684888844,67.78072401550276,-4.49,-1.26,-1.6,0.0,0.0,4.0,6.0,1.0,0.0,0.0,0.0,0.0,0.0,
10.725,105.00911368488885,67.71707240155027,-3.54,-1.2,-1.05,0.0,0.0,4.0,6.0,1.0,0.0,0.0,0.0,0.0,0.0,
10.748,105.00091136848889,67.78270724015503,-3.37,-1.5,-0.72,0.0,0.0,4.0,6.0,0.0,0.0,0.0,0.0,0.0,0.0,
10.773,104.95509113684888,67.75327072401551,-3.85,-1.37,-1.69,0.0,0.0,4.0,6.0,0.0,0.0,0.0,0.0,0.0,0.0,
10.797,104.9325091136849,67.72332707240155,-3.31,-0.6,-1.95,0.0,0.0,4.0,6.0,0.0,0.0,0.0,0.0,0.0,0.0,
10.821,104.95725091136849,67.76533270724015,-3.21,-0.94,-1.71,0.0,0.0,4.0,6.0,0.0,0.0,0.0,0.0,0.0,0.0,
10.845,104.97772509113685,67.75153327072401,-2.85,-1.08,-1.19,0.0,0.0,4.0,6.0,0.0,0.0,0.0,0.0,0.0,0.0,
10.868,104.94377250911369,67.7681533270724,-2.89,-1.05,-1.04,0.0,0.0,4.0,6.0,0.0,0.0,0.0,0.0,0.0,0.0,
10.893,104.94037725091137,67.77881533270724,-3.3,-1.01,-1.45,0.0,0.0,4.0,6.0,0.0,0.0,0.0,0.0,0.0,0.0,
10.916,104.96703772509113,67.78888153327074,-3.39,-0.69,-2.03,0.0,0.0,4.0,6.0,0.0,0.0,0.0,0.0,0.0,0.0,
10.941,105.00570377250911,67.82588815332707,-2.47,-0.02,-1.41,0.0,0.0,4.0,6.0,0.0,0.0,0.0,0.0,0.0,0.0,
10.964,105.03657037725091,67.86558881533271,-2.75,-0.03,-1.08,0.0,0.0,4.0,6.0,0.0,0.0,0.0,0.0,0.0,0.0,
10.989,104.96765703772509,67.86055888153327,-2.89,-0.63,-1.4,0.0,0.0,4.0,6.0,0.0,0.0,0.0,0.0,0.0,0.0,
11.013,104.94276570377251,67.81505588815332,-3.83,-1.31,-1.79,0.0,0.0,4.0,6.0,0.0,0.0,0.0,0.0,0.0,0.0,
11.037,105.01227657037725,67.85550558881533,-2.94,-0.21,-1.61,0.0,0.0,4.0,6.0,0.0,0.0,0.0,0.0,0.0,0.0,
11.061,105.00122765703772,67.94955055888153,-2.53,-0.19,-1.41,0.0,0.0,4.0,6.0,0.0,0.0,0.0,0.0,0.0,0.0,
11.084,105.01812276570377,67.93195505588815,-2.72,-0.65,-1.12,0.0,0.0,4.0,6.0,0.0,0.0,0.0,0.0,0.0,0.0,
11.109,105.05581227657038,67.94819550558881,-2.99,-0.7,-1.34,0.0,0.0,4.0,6.0,0.0,0.0,0.0,0.0,0.0,0.0,
11.132,105.06858122765703,67.88681955055888,-2.82,-0.09,-1.54,0.0,0.0,4.0,7.0,0.0,0.0,0.0,0.0,0.0,0.0,
11.157,105.06985812276571,67.86268195505589,-1.89,0.74,-1.87,0.0,0.0,4.0,7.0,1.0,0.0,0.0,0.0,0.0,0.0,
11.181,105.04298581227657,68.09426819550559,-2.85,1.21,-2.39,0.0,0.0,4.0,7.0,1.0,0.0,0.0,0.0,0.0,0.0,
11.205,105.18429858122767,68.02742681955056,-3.05,1.2,-2.4,0.0,0.0,4.0,8.0,1.0,0.0,0.0,0.0,0.0,0.0,
11.229,105.21642985812277,68.00274268195506,-2.34,1.48,-2.49,0.0,0.0,4.0,8.0,1.0,0.0,0.0,0.0,0.0,0.0,
11.252,105.25564298581229,67.94627426819551,-1.31,2.21,-2.19,0.0,0.0,4.0,8.0,1.0,0.0,0.0,0.0,0.0,0.0,
11.277,105.34056429858123,67.94062742681955,0.92,4.06,-2.34,0.0,0.0,4.0,7.0,1.0,0.0,0.0,0.0,0.0,0.0,
11.3,105.36705642985814,67.89506274268196,3.47,6.64,-2.9,0.0,0.0,4.0,6.0,1.0,0.0,0.0,0.0,0.0,0.0,
11.324,105.49570564298581,68.0165062742682,2.52,8.6,-4.53,0.0,0.0,4.0,6.0,1.0,0.0,0.0,0.0,0.0,0.0,
11.347,105.64357056429857,68.28965062742681,1.53,6.89,-4.18,0.0,0.0,4.0,6.0,1.0,0.0,0.0,0.0,0.0,0.0,
11.372,105.85635705642986,68.44296506274267,0.3,4.6,-2.66,0.0,0.0,4.0,6.0,0.0,0.0,0.0,0.0,0.0,0.0,
11.396,106.07563570564298,68.61129650627426,-1.47,3.14,-2.21,0.0,0.0,4.0,6.0,0.0,0.0,0.0,0.0,0.0,0.0,
11.419,106.2505635705643,68.71812965062743,-3.57,-0.2,-1.6,0.0,0.0,4.0,7.0,0.0,0.0,0.0,0.0,0.0,0.0,
11.444,106.53805635705642,68.88181296506275,-13.47,-6.47,-2.51,0.0,0.0,4.0,8.0,1.0,0.0,0.0,0.0,0.0,0.0,
11.467,106.62080563570564,68.79918129650628,-16.73,-14.35,-0.91,0.0,0.0,5.0,9.0,1.0,0.0,0.0,0.0,0.0,0.0,
11.492,106.62908056357055,68.50291812965062,-15.6,-17.02,1.73,0.0,0.0,5.0,10.0,2.0,0.0,0.0,0.0,0.0,0.0,
11.516,106.12590805635705,68.05029181296507,-6.86,-12.53,4.58,0.0,0.0,5.0,9.0,2.0,0.0,0.0,0.0,0.0,0.0,
11.54,105.68859080563571,67.94202918129652,-2.15,-6.52,2.05,0.0,0.0,5.0,9.0,2.0,0.0,0.0,0.0,0.0,0.0,
11.565,105.36585908056357,67.89520291812966,-1.11,-5.08,-0.24,0.0,0.0,5.0,8.0,1.0,0.0,0.0,0.0,0.0,0.0,
11.588,105.33358590805635,67.80952029181296,0.63,-4.41,-2.9,0.0,0.0,5.0,6.0,1.0,0.0,0.0,0.0,0.0,0.0,
11.613,105.19535859080564,68.16995202918129,-2.16,-8.44,-2.86,0.0,0.0,5.0,4.0,1.0,0.0,0.0,0.0,0.0,0.0,
11.636,104.65953585908056,68.64699520291813,-8.76,-15.86,-3.47,0.0,0.0,5.0,2.0,1.0,0.0,0.0,0.0,0.0,0.0,
11.661,103.98495358590806,68.77569952029182,-13.38,-24.95,-6.95,0.0,0.0,4.0,11.0,1.0,0.0,0.0,0.0,0.0,0.0,
11.684,103.52149535859081,69.24756995202918,-32.76,-45.51,-7.34,0.0,0.0,4.0,8.0,1.0,0.0,0.0,0.0,0.0,0.0,
11.709,102.92614953585908,69.91575699520291,-55.92,-58.61,-2.16,0.0,0.0,3.0,4.0,0.0,0.0,0.0,0.0,0.0,0.0,
11.732,102.3086149535859,70.7115756995203,-41.63,-14.69,16.47,0.0,0.0,2.0,2.0,0.0,0.0,0.0,0.0,0.0,0.0,
11.757,102.5888614953586,73.10415756995204,-28.53,-3.08,-4.02,0.0,0.0,0.0,1.0,0.0,0.0,0.0,0.0,0.0,0.0,
11.781,100.40288614953586,77.69041575699521,-26.15,-32.5,25.14,0.0,0.0,0.0,0.0,0.0,0.0,0.0,0.29,0.0,0.0,
11.805,97.58328861495357,83.15304157569952,7.5,-31.18,-5.79,0.0,0.0,1.0,0.0,0.0,0.0,0.0,0.0,0.0,0.0,
11.829,95.52832886149535,88.62230415756996,15.95,-20.52,-0.48,0.0,0.0,1.0,0.0,0.0,0.0,0.0,0.0,0.0,0.0,
11.852,93.57683288614953,94.479230415757,22.81,-12.63,-9.89,0.0,0.0,1.0,0.0,0.0,0.0,0.0,0.0,0.0,0.0,
11.877,91.42868328861495,97.63892304157571,16.0,-8.28,-8.07,0.0,0.0,1.0,0.0,0.0,0.0,0.0,0.2,0.0,0.0,
11.9,90.2328683288615,98.88189230415756,55.38,-13.12,-17.95,0.0,0.0,1.0,0.0,0.0,0.0,0.0,0.2,3.14,0.0,
11.924,89.82528683288615,100.15818923041576,91.48,-35.38,-32.89,0.0,0.0,1.0,0.0,0.0,0.0,0.0,0.1,0.0,0.0,
11.949,89.45152868328861,100.69981892304159,109.57,-45.01,-38.73,0.0,0.0,1.0,0.0,0.0,0.0,0.0,0.1,0.0,0.0,
11.972,89.27915286832886,100.69998189230417,101.74,-43.56,-30.33,0.0,0.0,2.0,0.0,0.0,0.0,0.0,0.0,0.0,0.0,
11.997,88.77591528683288,99.33199818923043,73.54,-28.66,-7.38,0.0,0.0,2.0,0.0,0.0,0.0,0.0,0.0,31.0,0.0,
12.02,89.0855915286833,96.69319981892305,75.85,-4.27,17.32,0.0,0.0,1.0,0.0,0.0,0.0,0.0,0.1,39.44,0.0,
12.045,90.43055915286834,93.3153199818923,89.76,4.96,28.65,0.0,0.0,1.0,0.0,0.0,0.0,0.0,0.1,49.93,0.0,
12.068,92.59905591528684,88.90953199818924,100.94,-9.38,31.93,0.0,0.0,1.0,0.0,0.0,0.0,0.0,0.2,50.03,0.0,
12.092,93.89590559152869,84.74295319981893,97.11,-21.76,35.85,0.0,0.0,1.0,0.0,0.0,0.0,0.0,0.2,46.21,0.0,
12.116,95.00659055915287,80.98729531998188,80.34,-8.96,41.6,0.0,0.0,2.0,0.0,0.0,0.0,0.0,0.29,47.28,0.0,
12.14,96.59365905591528,76.6067295319982,52.01,25.15,41.57,0.0,0.0,2.0,0.0,0.0,0.0,0.0,0.29,16.09,0.0,
12.164,100.13636590559153,70.20167295319982,36.89,40.05,33.6,0.0,0.0,2.0,0.0,0.0,0.0,0.0,0.39,0.0,0.0,
12.188,103.52363659055916,63.25216729531998,38.79,23.15,17.44,0.0,0.0,2.0,0.0,0.0,0.0,0.0,0.29,0.0,0.0,
12.212,104.70836365905592,57.63421672953199,25.19,-1.92,-4.08,0.0,0.0,2.0,0.0,0.0,0.0,0.0,0.39,0.0,0.0,
12.235,105.54683636590559,54.3724216729532,-6.08,-9.73,-11.15,0.0,0.0,2.0,0.0,0.0,0.0,0.0,0.39,0.0,0.0,
12.26,105.84668363659056,53.13724216729532,-41.58,6.84,-14.68,0.0,0.0,2.0,0.0,0.0,0.0,0.0,0.29,0.0,0.0,
12.283,105.85866836365905,51.34872421672953,-54.4,28.27,-21.3,0.0,0.0,2.0,0.0,0.0,0.0,0.0,0.39,0.0,0.0,
12.308,106.0128668363659,48.01087242167296,-52.5,7.87,-30.51,0.0,0.0,2.0,0.0,0.0,0.0,0.0,0.29,0.0,0.0,
12.332,104.93928668363658,55.8400872421673,-56.27,71.24,28.27,0.0,0.0,2.0,0.0,0.0,0.0,0.0,0.29,0.0,0.0,
12.356,104.18392866836365,60.64600872421673,-144.24,64.82,115.67,0.0,0.0,2.0,0.0,0.0,0.0,0.0,0.1,0.0,0.0,
12.38,102.92939286683637,59.587600872421675,-159.79,70.61,47.82,0.0,0.0,1.0,0.0,0.0,0.0,0.0,0.0,0.0,0.0,
12.403,102.92093928668363,57.85276008724217,-138.69,48.76,4.28,0.0,0.0,0.0,0.0,0.0,0.0,0.0,0.0,0.0,0.0,
12.427,103.63109392866836,57.95827600872422,-108.61,53.24,-37.36,0.0,0.0,0.0,0.0,0.0,0.0,0.0,0.0,0.0,0.0,
12.451,104.50310939286683,56.852827600872416,-58.02,45.72,-35.89,0.0,0.0,0.0,1.0,0.0,0.0,0.0,0.0,0.0,0.0,
12.475,106.28231093928669,57.49828276008724,-27.29,27.07,-33.18,0.0,0.0,0.0,7.0,0.0,0.0,0.0,0.0,0.0,0.0,
12.499,107.04523109392866,59.38082827600873,-15.93,25.31,-41.08,0.0,0.0,1.0,9.0,0.0,0.0,0.0,0.0,0.0,0.0,
12.523,107.09452310939287,61.35108282760088,-11.07,23.95,-29.97,0.0,0.0,2.0,11.0,0.0,0.0,0.0,0.0,0.0,0.0,
12.548,107.88245231093929,62.62810828276009,-6.98,24.72,-23.47,0.0,0.0,2.0,11.0,0.0,0.0,0.0,0.0,0.0,0.0,
12.572,108.69024523109393,64.60981082827601,-4.11,23.56,-19.78,0.0,0.0,3.0,11.0,0.0,0.0,0.0,0.0,0.0,0.0,
12.596,109.95002452310939,66.1849810828276,2.37,19.08,-8.33,0.0,0.0,3.0,10.0,0.0,0.0,0.0,0.0,0.0,0.0,
12.62,111.07500245231094,67.78249810828275,1.89,17.1,1.65,0.0,0.0,3.0,9.0,0.0,0.0,0.0,0.0,0.0,0.0,
12.644,111.8355002452311,68.53624981082828,-3.2,12.49,1.04,0.0,0.0,4.0,9.0,0.0,0.0,0.0,0.0,25.51,0.0,
12.667,112.18155002452312,69.19662498108282,1.82,10.71,5.56,0.0,0.0,3.0,9.0,0.0,0.0,0.0,0.0,58.96,0.0,
12.692,112.27015500245231,69.62266249810828,6.56,13.62,2.06,0.0,0.0,3.0,8.0,0.0,0.0,0.0,0.0,53.86,0.0,
12.716,112.18901550024523,70.08826624981083,10.61,14.27,-2.11,0.0,0.0,2.0,8.0,0.0,0.0,0.0,0.0,12.95,0.0,
12.739,112.15390155002453,71.67382662498107,5.08,7.98,0.48,0.0,0.0,2.0,7.0,0.0,0.0,0.0,0.0,11.18,0.0,
12.764,112.79839015500247,72.0393826624981,-6.66,1.21,3.66,0.0,0.0,2.0,8.0,0.0,0.0,0.0,0.0,14.81,0.0,
12.787,113.65483901550024,72.3459382662498,-10.15,-5.11,8.6,0.0,0.0,2.0,8.0,0.0,0.0,0.0,0.0,5.59,0.0,
12.812,113.65948390155002,72.18759382662498,-6.51,-9.14,12.2,0.0,0.0,2.0,8.0,0.0,0.0,0.0,0.0,5.1,0.0,
12.835,113.218948390155,71.7667593826625,9.4,1.56,6.37,0.0,0.0,2.0,7.0,0.0,0.0,0.0,0.0,2.94,0.0,
12.859,112.80589483901551,72.13867593826625,13.07,7.25,3.73,0.0,0.0,1.0,6.0,0.0,0.0,0.0,0.0,0.0,0.0,
12.882,113.27758948390155,72.33786759382662,-7.71,5.22,1.5,0.0,0.0,1.0,6.0,0.0,0.0,0.0,0.0,0.0,0.0,
12.907,114.39575894839015,72.72678675938266,-17.25,-1.02,4.82,0.0,0.0,2.0,6.0,0.0,0.0,0.0,0.0,0.0,0.0,
12.931,114.75057589483902,72.64867867593827,-16.69,-8.56,11.29,0.0,0.0,2.0,6.0,0.0,0.0,0.0,0.0,0.0,0.0,
12.955,114.4080575894839,72.67686786759383,-13.31,-8.39,14.25,0.0,0.0,2.0,7.0,0.0,0.0,0.0,0.0,0.0,0.0,
12.979,113.86980575894839,72.7696867867594,-16.1,-4.94,15.76,0.0,0.0,2.0,7.0,1.0,0.0,0.0,0.0,0.0,0.0,
13.003,113.34798057589485,73.04896867867595,-23.69,-4.55,6.63,0.0,0.0,3.0,8.0,1.0,0.0,0.0,0.0,0.0,0.0,
13.027,113.2957980575895,72.91489686786761,-30.82,-8.15,8.1,0.0,0.0,4.0,9.0,2.0,0.0,0.0,0.0,0.0,0.0,
13.051,113.52457980575895,72.18148968678676,-33.33,-12.7,12.94,0.0,0.0,4.0,10.0,3.0,0.0,0.0,0.0,0.0,0.0,
13.075,113.0794579805759,71.57714896867869,-33.69,-14.1,12.52,0.0,0.0,5.0,12.0,3.0,0.0,0.0,0.0,15.79,0.0,
13.1,112.64794579805759,70.88671489686787,-33.99,-16.02,14.18,0.0,0.0,6.0,3.0,4.0,0.0,0.0,0.0,0.0,0.0,
13.124,112.12779457980575,70.60167148968678,-40.29,-16.17,13.04,0.0,0.0,7.0,8.0,5.0,0.0,0.0,0.0,0.0,0.0,
13.149,111.38277945798058,70.34816714896867,-57.52,-16.9,5.94,0.0,0.0,9.0,12.0,5.0,0.0,2.0,0.0,0.0,0.0,
13.172,111.11927794579806,69.29681671489688,-70.5,-19.27,4.18,0.0,0.0,11.0,16.0,6.0,0.0,5.0,0.0,0.0,0.0,
13.197,110.74192779457981,68.2376816714897,-66.6,-4.37,-2.16,0.0,0.0,1.0,19.0,7.0,0.0,8.0,0.0,0.0,0.0,
13.221,112.84619277945798,66.97976816714898,-69.29,24.45,2.23,0.0,0.0,6.0,17.0,9.0,0.0,11.0,0.0,0.0,0.0,
13.246,111.59861927794579,66.58397681671491,-74.01,18.98,3.47,0.0,0.0,10.0,9.0,10.0,2.0,3.0,0.0,0.0,0.0,
13.271,110.19586192779458,65.34739768167148,-96.05,53.1,-1.82,0.0,0.0,14.0,10.0,10.0,3.0,9.0,0.0,0.0,0.0,
13.295,108.53458619277946,64.72873976816715,-115.62,61.27,-20.4,0.0,0.0,18.0,5.0,11.0,4.0,14.0,0.0,0.0,0.0,
13.32,106.35245861927794,64.3608739768167,-153.66,60.52,-25.48,0.0,0.0,20.0,2.0,12.0,5.0,19.0,0.0,0.0,0.0,
13.344,105.18024586192779,62.461087397681666,-182.2,77.96,-69.74,0.0,0.0,22.0,2.0,1.0,5.0,20.0,0.0,0.0,0.0,
13.369,108.24902458619279,59.38210873976817,-182.99,68.73,-93.11,0.0,0.0,14.0,1.0,11.0,4.0,16.0,0.0,0.0,0.0,
13.393,112.85790245861928,63.00721087397681,-169.34,20.44,-20.0,0.0,0.0,11.0,0.0,6.0,2.0,11.0,0.0,0.0,0.0,
13.418,116.05479024586194,65.73672108739768,-138.07,-1.14,52.21,0.0,0.0,7.0,0.0,1.0,0.0,3.0,0.0,0.0,0.0,
13.443,118.72347902458618,68.25067210873976,-101.11,-35.21,88.46,0.0,0.0,5.0,0.0,1.0,0.0,0.0,0.0,0.0,0.0,
13.466,121.60934790245862,76.62006721087397,-48.63,-6.18,178.16,0.0,0.0,2.0,0.0,1.0,0.0,0.0,0.0,0.0,0.0,
13.49,119.23393479024587,79.3740067210874,16.92,-23.76,160.82,0.0,0.0,1.0,0.0,1.0,0.0,0.0,0.0,0.0,0.0,
13.514,116.14339347902458,78.96540067210874,59.7,-44.41,109.85,0.0,0.0,1.0,0.0,1.0,0.0,0.0,0.0,0.0,0.0,
13.538,113.05333934790245,78.43854006721088,81.85,-67.35,56.93,0.0,0.0,1.0,0.0,1.0,0.0,0.0,0.0,0.0,0.0,
13.561,111.32233393479024,79.11485400672109,90.17,-65.58,11.56,0.0,0.0,2.0,0.0,1.0,0.0,0.0,0.0,0.0,0.0,
13.586,110.86123339347903,79.1374854006721,102.06,-51.5,-13.02,0.0,0.0,2.0,0.0,1.0,0.0,0.0,0.0,0.0,0.0,
13.609,110.4641233393479,77.14174854006721,122.95,-47.35,-42.68,0.0,0.0,2.0,0.0,1.0,0.0,0.0,0.0,26.19,0.0,
13.634,110.57741233393479,75.42117485400672,136.98,-44.34,-59.4,0.0,0.0,3.0,0.0,1.0,0.0,0.0,0.0,26.29,0.0,
13.658,111.34474123339348,75.11411748540067,141.8,-38.54,-44.81,0.0,0.0,3.0,0.0,1.0,0.0,0.0,0.0,0.0,0.0,
13.682,112.21347412333935,73.47241174854008,139.17,-26.38,-11.44,0.0,0.0,3.0,0.0,1.0,0.0,0.0,0.0,0.0,0.0,
13.706,114.04634741233393,68.07924117485402,148.98,-21.28,1.53,0.0,0.0,3.0,0.0,1.0,0.0,0.0,0.0,0.0,0.0,
13.729,116.4706347412334,61.509924117485404,143.15,-40.16,-35.91,0.0,0.0,3.0,0.0,1.0,0.0,0.0,0.0,0.0,0.0,
13.754,118.29706347412335,55.26399241174854,118.11,-45.89,-88.05,0.0,0.0,3.0,0.0,1.0,0.0,0.0,0.0,0.0,0.0,
13.777,121.62070634741232,49.45539924117485,81.65,-41.66,-124.74,0.0,0.0,3.0,0.0,1.0,0.0,0.0,0.0,0.0,0.0,
13.802,124.95007063474122,45.17553992411749,56.52,-24.8,-106.56,0.0,0.0,3.0,0.0,1.0,0.0,0.0,0.0,0.0,0.0,
13.826,128.19000706347413,41.28255399241175,25.85,-5.05,-61.27,0.0,0.0,3.0,0.0,1.0,0.0,0.0,0.0,0.0,0.0,
13.849,131.71800070634742,37.59025539924118,-0.85,5.87,-24.33,0.0,0.0,3.0,0.0,1.0,0.0,0.0,0.0,0.0,0.0,
13.874,133.42980007063474,34.98902553992412,-29.35,5.98,1.29,0.0,0.0,3.0,0.0,1.0,0.0,0.0,0.0,0.0,0.0,
13.897,131.71098000706348,34.23390255399241,-49.69,11.95,20.45,0.0,0.0,3.0,0.0,1.0,0.0,0.0,0.0,0.0,0.0,
13.921,124.51009800070635,34.68939025539924,-60.85,11.86,14.81,0.0,0.0,3.0,0.0,1.0,0.0,0.0,0.0,0.0,0.0,
13.944,115.04200980007063,42.43893902553992,-23.51,5.02,20.31,0.0,0.0,2.0,0.0,1.0,0.0,0.0,0.0,0.0,0.0,
13.969,106.53520098000706,55.651893902553994,35.55,-5.72,36.31,0.0,0.0,2.0,0.0,1.0,0.0,0.0,0.0,56.8,0.0,
13.992,113.8385200980007,73.8031893902554,71.67,-74.16,87.34,0.0,0.0,2.0,0.0,1.0,0.0,0.0,0.0,4.71,0.0,
14.016,115.09085200980007,81.35131893902555,127.37,25.42,49.47,0.0,0.0,3.0,0.0,1.0,0.0,0.0,0.0,0.0,0.0,
14.041,113.65008520098,77.38113189390255,38.72,-44.49,125.59,0.0,0.0,4.0,4.0,0.0,0.0,0.0,0.0,0.0,0.0,
14.064,110.680008520098,75.30111318939025,-40.61,30.36,42.56,0.0,0.0,6.0,11.0,0.0,0.0,0.0,0.0,0.0,0.0,
14.089,108.2590008520098,74.92211131893902,-2.5,51.5,-11.89,0.0,0.0,7.0,11.0,2.0,0.0,0.0,0.0,0.0,0.0,
14.112,110.25790008520099,73.3002111318939,1.72,33.55,-20.76,0.0,0.0,8.0,12.0,0.0,0.0,0.0,0.0,0.0,0.0,
14.137,111.58279000852009,72.3280211131894,-7.01,8.37,-15.4,0.0,0.0,8.0,3.0,0.0,0.0,0.0,0.0,0.0,0.0,
14.161,111.76027900085201,71.91580211131894,-18.7,-8.84,-4.73,0.0,0.0,8.0,6.0,0.0,0.0,0.0,0.0,0.0,0.0,
14.185,110.1850279000852,72.0905802111319,-15.85,-2.28,8.99,0.0,0.0,8.0,10.0,0.0,0.0,0.0,0.0,0.0,0.0,
14.21,108.49750279000851,71.05505802111318,-5.52,4.61,-4.43,0.0,0.0,9.0,12.0,0.0,0.0,0.0,0.0,0.0,0.0,
14.233,108.09475027900085,70.58250580211131,1.09,6.0,-4.97,0.0,0.0,9.0,14.0,0.0,0.0,0.0,0.0,0.0,0.0,
14.257,108.10847502790008,70.26525058021113,-0.85,1.21,-4.15,0.0,0.0,9.0,15.0,0.0,0.0,0.0,0.0,0.0,0.0,
14.281,108.13684750279002,69.90052505802112,-6.79,-4.17,-1.61,0.0,0.0,9.0,16.0,0.0,0.0,0.0,0.0,0.0,0.0,
14.305,107.89668475027901,69.42305250580212,-9.49,-6.44,-1.0,0.0,0.0,9.0,16.0,0.0,0.0,0.0,0.0,0.0,0.0,
14.329,107.1976684750279,68.93430525058021,-4.42,-2.15,-1.79,0.0,0.0,9.0,18.0,0.0,0.0,0.0,0.0,0.0,0.0,
14.353,106.61476684750278,68.71443052505802,0.9,2.43,-3.15,0.0,0.0,8.0,18.0,0.0,0.0,0.0,0.0,0.0,0.0,
14.377,106.51147668475028,68.58444305250579,0.43,1.98,-2.15,0.0,0.0,8.0,18.0,0.0,0.0,0.0,0.0,0.0,0.0,
14.401,106.56414766847502,68.47244430525058,-1.96,-0.43,-0.22,0.0,0.0,8.0,18.0,0.0,0.0,0.0,0.0,0.0,0.0,
14.426,106.5784147668475,68.21824443052506,-2.41,-0.46,-0.31,0.0,0.0,8.0,18.0,0.0,0.0,0.0,0.0,0.0,0.0,
14.45,106.47184147668474,67.9498244430525,-0.47,2.45,-1.92,0.0,0.0,8.0,19.0,0.0,0.0,0.0,0.0,0.0,0.0,
14.474,106.34418414766847,67.92298244430525,3.02,4.64,-2.26,0.0,0.0,7.0,18.0,0.0,0.0,0.0,0.0,0.0,0.0,
14.498,106.28641841476684,68.06429824443052,4.02,4.62,-2.5,0.0,0.0,7.0,18.0,0.0,0.0,0.0,0.0,0.0,0.0,
14.522,106.37064184147668,68.24042982444305,2.75,4.03,-1.4,0.0,0.0,7.0,18.0,0.0,0.0,0.0,0.0,0.0,0.0,
14.546,106.38806418414767,68.23104298244431,3.55,4.51,-0.89,0.0,0.0,7.0,18.0,0.0,0.0,1.0,0.0,0.0,0.0,
14.57,106.37180641841476,68.28410429824443,3.78,5.0,-2.63,0.0,0.0,6.0,17.0,0.0,0.0,0.0,0.0,0.0,0.0,
14.594,106.51418064184148,68.42441042982443,2.72,4.76,-3.22,0.0,0.0,6.0,16.0,0.0,0.0,0.0,0.0,0.0,0.0,
14.618,106.69941806418414,68.46544104298243,6.44,5.5,-2.03,0.0,0.0,6.0,15.0,0.0,0.0,0.0,0.0,0.0,0.0,
14.642,106.68194180641842,68.50554410429825,5.17,4.63,-1.59,0.0,0.0,5.0,14.0,0.0,0.0,0.0,0.0,0.0,0.0,
14.666,106.75219418064184,68.68955441042982,2.47,3.67,-2.47,0.0,0.0,5.0,13.0,0.0,0.0,0.0,0.0,0.0,0.0,
14.69,106.92121941806417,68.90595544104299,-0.58,0.24,-1.83,0.0,0.0,5.0,12.0,0.0,0.0,0.0,0.0,0.0,0.0,
14.714,106.91112194180641,68.85559554410429,3.33,-1.37,0.18,0.0,0.0,5.0,11.0,0.0,0.0,0.0,0.0,0.0,0.0,
14.738,106.83811219418064,69.03055955441042,4.18,0.36,-0.24,0.0,0.0,5.0,9.0,0.0,0.0,0.0,0.0,0.0,0.0,
14.761,106.76781121941806,69.11105595544105,4.63,2.49,-2.11,0.0,0.0,4.0,7.0,0.0,0.0,0.0,0.0,0.0,0.0,
14.786,106.93178112194181,69.41610559554411,2.62,0.88,-2.89,0.0,0.0,4.0,5.0,0.0,0.0,0.0,0.0,0.0,0.0,
14.81,107.20017811219418,69.67161055955441,-0.92,-1.66,-2.22,0.0,0.0,4.0,4.0,0.0,0.0,0.0,0.0,0.0,0.0,
14.834,107.32601781121943,69.84116105595544,-2.95,-4.81,-0.45,0.0,0.0,3.0,3.0,0.0,0.0,0.0,0.0,0.0,0.0,
14.858,107.14060178112194,69.83111610559554,0.49,-3.15,0.35,0.0,0.0,3.0,3.0,0.0,0.0,0.0,0.0,0.0,0.0,
14.882,107.0500601781122,69.87511161055954,1.32,-0.66,-0.31,0.0,0.0,3.0,2.0,0.0,0.0,0.0,0.0,0.0,0.0,
14.906,107.06800601781121,69.97851116105595,-0.8,-0.03,-1.54,0.0,0.0,3.0,1.0,0.0,0.0,0.0,0.0,0.0,0.0,
14.93,107.14180060178111,70.0698511161056,-4.47,-1.06,-2.84,0.0,0.0,3.0,1.0,0.0,0.0,0.0,0.0,0.0,0.0,
14.954,107.18518006017811,70.09698511161055,-4.65,-0.55,-2.19,0.0,0.0,3.0,1.0,0.0,0.0,0.0,0.0,0.0,0.0,
14.979,107.0905180060178,70.08169851116105,-2.6,-0.17,-1.07,0.0,0.0,3.0,1.0,0.0,0.0,0.0,0.0,0.0,0.0,
15.002,107.13505180060179,70.13416985111611,-2.43,0.19,-1.21,0.0,0.0,3.0,1.0,0.0,0.0,0.0,0.0,0.0,0.0,
15.027,107.23850518006019,70.16641698511161,-4.33,-1.53,-1.47,0.0,0.0,3.0,2.0,0.0,0.0,0.0,0.0,0.0,0.0,
15.05,107.23085051800602,70.20564169851116,-6.21,-2.76,-1.64,0.0,0.0,3.0,2.0,0.0,0.0,0.0,0.0,0.0,0.0,
15.075,107.1040850518006,70.20056416985112,-5.42,-2.34,-1.77,0.0,0.0,3.0,2.0,0.0,0.0,0.0,0.0,0.0,0.0,
15.098,107.03740850518005,70.11905641698512,-4.52,-2.13,-1.19,0.0,0.0,3.0,2.0,0.0,0.0,0.0,0.0,0.0,0.0,
15.123,106.98574085051801,70.13790564169851,-3.65,-1.96,-0.89,0.0,0.0,3.0,2.0,0.0,0.0,0.0,0.0,0.0,0.0,
15.147,106.8905740850518,70.14879056416986,-3.55,-1.28,-1.4,0.0,0.0,3.0,2.0,0.0,0.0,0.0,0.0,0.0,0.0,
15.171,106.96205740850517,70.14987905641699,-4.01,-1.32,-1.18,0.0,0.0,3.0,2.0,0.0,0.0,0.0,0.0,0.0,0.0,
15.195,106.96920574085051,70.14098790564171,-3.8,-1.05,-1.68,0.0,0.0,3.0,2.0,0.0,0.0,0.0,0.0,0.0,0.0,
15.219,107.09592057408506,70.19409879056417,-5.09,-1.41,-1.98,0.0,0.0,3.0,2.0,0.0,0.0,0.0,0.0,0.0,0.0,
15.243,107.1085920574085,70.11840987905641,-5.24,-2.07,-1.7,0.0,0.0,3.0,2.0,0.0,0.0,0.0,0.0,0.0,0.0,
15.267,107.09185920574085,70.11984098790565,-4.24,-2.97,-0.21,0.0,0.0,3.0,3.0,0.0,0.0,0.0,0.0,0.0,0.0,
15.292,106.98218592057408,70.17398409879057,-3.96,-2.15,-1.27,0.0,0.0,3.0,3.0,0.0,0.0,0.0,0.0,0.0,0.0,
15.315,106.8452185920574,70.11639840987905,-3.02,-0.76,-1.82,0.0,0.0,3.0,3.0,0.0,0.0,0.0,0.0,0.0,0.0,
15.34,106.91252185920575,69.99363984098791,-2.21,-0.21,-1.97,0.0,0.0,3.0,3.0,0.0,0.0,0.0,0.0,0.0,0.0,
15.364,106.96425218592057,69.97236398409879,-2.04,-0.37,-1.37,0.0,0.0,3.0,3.0,0.0,0.0,0.0,0.0,0.0,0.0,
15.388,107.00542521859207,70.04223639840988,-2.95,-0.61,-1.42,0.0,0.0,3.0,2.0,0.0,0.0,0.0,0.0,0.0,0.0,
15.412,107.0545425218592,70.08522363984099,-3.4,-1.17,-0.98,0.0,0.0,3.0,3.0,0.0,0.0,0.0,0.0,0.0,0.0,
15.436,107.00545425218591,70.0895223639841,-3.45,-1.47,-0.54,0.0,0.0,3.0,3.0,0.0,0.0,0.0,0.0,0.0,0.0,
15.46,106.9555454252186,70.13495223639842,-4.36,-1.57,-1.39,0.0,0.0,3.0,2.0,0.0,0.0,0.0,0.0,0.0,0.0,
15.484,107.01355454252186,70.12149522363984,-4.11,-1.48,-1.33,0.0,0.0,3.0,3.0,0.0,0.0,0.0,0.0,0.0,0.0,
15.509,107.08235545425218,70.10214952236397,-6.11,-2.65,-0.95,0.0,0.0,3.0,3.0,0.0,0.0,0.0,0.0,0.0,0.0,
15.533,107.00823554542521,70.1092149522364,-5.84,-2.04,-1.38,0.0,0.0,3.0,4.0,0.0,0.0,0.0,0.0,0.0,0.0,
15.557,106.94682355454252,70.06492149522364,-5.24,-1.95,-1.11,0.0,0.0,3.0,4.0,0.0,0.0,0.0,0.0,0.0,0.0,
15.581,106.95868235545424,69.99749214952236,-4.86,-2.18,-1.12,0.0,0.0,3.0,4.0,0.0,0.0,0.0,0.0,0.0,0.0,
15.605,106.94186823554541,69.98174921495225,-4.65,-2.37,-1.1,0.0,0.0,3.0,4.0,0.0,0.0,0.0,0.0,0.0,0.0,
15.629,106.92218682355454,70.01617492149522,-4.66,-2.18,-0.8,0.0,0.0,3.0,5.0,0.0,0.0,0.0,0.0,0.0,0.0,
15.653,106.82121868235545,69.88461749214952,-4.41,-1.92,-0.94,0.0,0.0,3.0,5.0,0.0,0.0,0.0,0.0,0.0,0.0,
15.677,106.80212186823555,69.79946174921496,-2.89,-0.65,-1.05,0.0,0.0,3.0,5.0,0.0,0.0,0.0,0.0,0.0,0.0,
15.702,106.81821218682354,69.8359461749215,-3.65,-1.34,-1.63,0.0,0.0,3.0,5.0,0.0,0.0,0.0,0.0,0.0,0.0,
15.726,106.82882121868235,69.74959461749215,-3.69,-1.21,-1.45,0.0,0.0,3.0,5.0,0.0,0.0,0.0,0.0,0.0,0.0,
15.75,106.89288212186824,69.74095946174921,-2.44,-0.43,-1.46,0.0,0.0,3.0,5.0,0.0,0.0,0.0,0.0,0.0,0.0,
15.774,106.89028821218683,69.70409594617493,-2.0,-0.82,-0.84,0.0,0.0,3.0,5.0,0.0,0.0,0.0,0.0,0.0,0.0,
15.798,106.85402882121868,69.76340959461749,-2.66,-0.47,-1.23,0.0,0.0,3.0,5.0,0.0,0.0,0.0,0.0,0.0,0.0,
15.822,106.86840288212187,69.79634095946174,-2.83,-0.39,-1.77,0.0,0.0,3.0,5.0,0.0,0.0,0.0,0.0,0.0,0.0,
15.846,106.94184028821219,69.70963409594617,-1.93,-0.37,-1.26,0.0,0.0,3.0,4.0,0.0,0.0,0.0,0.0,0.0,0.0,
15.87,106.96718402882121,69.6649634095946,-0.89,-0.76,-0.73,0.0,0.0,3.0,5.0,0.0,0.0,0.0,0.0,0.0,0.0,
15.894,106.8887184028821,69.84049634095946,-3.24,-0.85,-2.29,0.0,0.0,3.0,4.0,0.0,0.0,0.0,0.0,0.0,0.0,
15.919,106.86287184028822,69.75004963409594,-2.59,-0.04,-2.48,0.0,0.0,3.0,4.0,0.0,0.0,0.0,0.0,0.0,0.0,
15.943,106.8512871840288,69.8040049634096,-0.21,1.35,-2.37,0.0,0.0,3.0,4.0,0.0,0.0,0.0,0.0,0.0,0.0,
15.967,106.94012871840289,69.88140049634096,0.4,1.76,-2.17,0.0,0.0,3.0,4.0,0.0,0.0,0.0,0.0,0.0,0.0,
15.99,107.02101287184028,70.0151400496341,-0.54,0.8,-2.27,0.0,0.0,3.0,3.0,0.0,0.0,0.0,0.0,0.0,0.0,
16.015,107.05610128718402,70.0645140049634,-3.89,-1.36,-1.82,0.0,0.0,3.0,3.0,0.0,0.0,0.0,0.0,0.0,0.0,
16.038,107.1316101287184,70.05145140049635,-3.85,-1.4,-2.41,0.0,0.0,3.0,3.0,0.0,0.0,0.0,0.0,0.0,0.0,
16.063,107.37316101287185,70.05014514004964,-3.49,-1.9,-1.3,0.0,0.0,3.0,3.0,0.0,0.0,0.0,0.0,0.0,0.0,
16.087,107.49631610128718,70.05001451400497,-0.95,-1.18,-0.99,0.0,0.0,3.0,3.0,0.0,0.0,0.0,0.0,0.0,0.0,
16.111,107.54463161012872,70.06800145140049,-1.27,-2.14,-1.79,0.0,0.0,3.0,3.0,0.0,0.0,0.0,0.0,0.0,0.0,
16.136,107.52246316101287,70.08780014514005,-1.6,-2.02,-2.4,0.0,0.0,3.0,2.0,0.0,0.0,0.0,0.0,0.0,0.0,
16.159,107.57424631610128,69.82878001451401,2.08,-2.21,-0.95,0.0,0.0,2.0,1.0,0.0,0.0,0.0,0.0,0.0,0.0,
16.184,107.55242463161012,69.91087800145141,8.2,-0.73,1.66,0.0,0.0,2.0,11.0,0.0,0.0,0.0,0.0,0.0,0.0,
16.207,107.53224246316101,70.25208780014515,5.03,-0.03,-0.64,0.0,0.0,2.0,10.0,0.0,0.0,0.0,0.0,0.0,0.0,
16.231,107.32322424631609,70.43920878001451,1.01,-1.02,-2.53,0.0,0.0,1.0,10.0,0.0,0.0,0.0,0.0,0.0,0.0,
16.256,107.31132242463161,70.59292087800145,-1.98,-1.35,-3.61,0.0,0.0,1.0,10.0,0.0,0.0,0.0,0.0,0.0,0.0,
16.279,107.36413224246317,70.75229208780014,-5.5,-2.48,-4.21,0.0,0.0,1.0,9.0,0.0,0.0,0.0,0.0,0.0,0.0,
16.304,107.30641322424631,70.81322920878,-7.46,-2.24,-4.06,0.0,0.0,2.0,9.0,0.0,0.0,0.0,0.0,0.0,0.0,
16.327,107.31864132242463,70.86432292087801,-7.15,-1.32,-4.16,0.0,0.0,2.0,10.0,0.0,0.0,0.0,0.0,0.0,0.0,
16.352,107.31986413224246,70.8064322920878,-7.53,-2.55,-3.12,0.0,0.0,2.0,10.0,0.0,0.0,0.0,0.0,0.0,0.0,
16.375,107.26598641322425,70.80064322920877,-4.43,-2.55,-1.4,0.0,0.0,2.0,10.0,0.0,0.0,0.0,0.0,0.0,0.0,
16.4,107.17959864132243,70.79106432292087,-5.93,-4.18,-1.68,0.0,0.0,2.0,10.0,0.0,0.0,0.0,0.0,0.0,0.0,
16.423,107.42295986413224,70.76310643229209,-5.71,-2.82,-1.7,0.0,0.0,2.0,10.0,0.0,0.0,0.0,0.0,0.0,0.0,
16.448,107.30329598641323,70.8413106432292,-5.83,-3.11,-0.95,0.0,0.0,2.0,10.0,0.0,0.0,0.0,0.0,0.0,0.0,
16.473,107.10232959864132,70.75013106432291,-6.35,-3.19,-1.67,0.0,0.0,2.0,10.0,0.0,0.0,0.0,0.0,0.0,0.0,
16.496,107.06423295986413,70.69601310643229,-5.01,-2.06,-2.52,0.0,0.0,2.0,10.0,0.0,0.0,0.0,0.0,0.0,0.0,
16.521,107.14142329598641,70.69960131064323,-3.16,-2.36,-1.99,0.0,0.0,2.0,10.0,0.0,0.0,0.0,0.0,0.0,0.0,
16.545,107.10414232959864,70.74496013106433,-4.45,-3.13,-2.79,0.0,0.0,2.0,10.0,0.0,0.0,0.0,0.0,0.0,0.0,
16.569,107.14541423295987,70.61449601310643,-4.08,-3.63,-1.76,0.0,0.0,2.0,10.0,0.0,0.0,0.0,0.0,0.0,0.0,
16.593,106.969541423296,70.55644960131065,-3.44,-2.66,-0.91,0.0,0.0,2.0,10.0,0.0,0.0,0.0,0.0,0.0,0.0,
16.618,106.7989541423296,70.52364496013107,-2.87,-0.86,-1.98,0.0,0.0,2.0,10.0,0.0,0.0,0.0,0.0,0.0,0.0,
16.642,106.62889541423296,70.50236449601312,-3.11,-0.83,-3.05,0.0,0.0,2.0,10.0,0.0,0.0,0.0,0.0,0.0,0.0,
16.666,106.6028895414233,70.58123644960132,-2.18,-0.34,-2.87,0.0,0.0,2.0,10.0,0.0,0.0,0.0,0.0,0.0,0.0,
16.69,106.76228895414233,70.66112364496013,-5.31,-3.34,-3.96,0.0,0.0,2.0,10.0,0.0,0.0,0.0,0.0,0.0,0.0,
16.714,106.93122889541424,70.66911236449602,-4.4,-3.08,-1.75,0.0,0.0,2.0,10.0,0.0,0.0,0.0,0.0,0.0,0.0,
16.739,106.95712288954141,70.5889112364496,-3.85,-3.84,-0.95,0.0,0.0,2.0,10.0,0.0,0.0,0.0,0.0,0.0,0.0,
16.762,106.81571228895415,70.49989112364496,-3.84,-2.65,-0.98,0.0,0.0,2.0,10.0,0.0,0.0,0.0,0.0,0.0,0.0,
16.787,106.77457122889541,70.5269891123645,-3.73,-2.81,-1.08,0.0,0.0,2.0,10.0,0.0,0.0,0.0,0.0,0.0,0.0,
16.812,106.75245712288954,70.61069891123645,-5.27,-5.02,-2.57,0.0,0.0,2.0,10.0,0.0,0.0,0.0,0.0,0.0,0.0,
16.835,106.80424571228896,70.66406989112365,-5.36,-3.63,-1.14,0.0,0.0,2.0,10.0,0.0,0.0,0.0,0.0,0.0,0.0,
16.86,106.7554245712289,70.61540698911236,-5.96,-3.66,-0.97,0.0,0.0,2.0,10.0,0.0,0.0,0.0,0.0,0.0,0.0,
16.883,106.72354245712289,70.56554069891124,-4.86,-3.59,-0.34,0.0,0.0,2.0,10.0,0.0,0.0,0.0,0.0,0.0,0.0,
16.908,106.62135424571228,70.52455406989112,-3.8,-3.76,0.21,0.0,0.0,2.0,10.0,0.0,0.0,0.0,0.0,0.0,0.0,
16.932,106.51213542457123,70.52945540698911,-3.09,-3.4,-0.46,0.0,0.0,2.0,10.0,0.0,0.0,0.0,0.0,0.0,0.0,
16.956,106.42921354245712,70.5929455406989,-4.16,-3.14,-0.11,0.0,0.0,2.0,9.0,0.0,0.0,0.0,0.0,0.0,0.0,
16.98,106.42092135424572,70.59929455406989,-5.73,-4.08,-0.08,0.0,0.0,2.0,9.0,0.0,0.0,0.0,0.0,0.0,0.0,
17.004,106.43809213542457,70.50092945540698,-5.98,-3.98,1.15,0.0,0.0,2.0,9.0,0.0,0.0,0.0,0.0,0.0,0.0,
17.029,106.31380921354246,70.4100929455407,-5.13,-3.8,1.75,0.0,0.0,2.0,9.0,0.0,0.0,0.0,0.0,0.0,0.0,
17.052,106.21138092135425,70.34700929455407,-3.46,-3.69,1.76,0.0,0.0,2.0,9.0,0.0,0.0,0.0,0.0,0.0,0.0,
17.076,106.11113809213542,70.36770092945541,-2.76,-1.51,0.7,0.0,0.0,2.0,9.0,0.0,0.0,0.0,0.0,0.0,0.0,
17.1,105.99311380921354,70.27977009294554,-1.76,-1.0,0.76,0.0,0.0,2.0,9.0,0.0,0.0,0.0,0.0,0.0,0.0,
17.124,105.90031138092135,70.33397700929456,-1.05,-1.31,0.62,0.0,0.0,2.0,9.0,0.0,0.0,0.0,0.0,0.0,0.0,
17.148,105.81003113809213,70.34839770092945,-1.36,-0.68,-0.71,0.0,0.0,2.0,9.0,0.0,0.0,0.0,0.0,0.0,0.0,
17.172,105.73800311380921,70.37683977009294,-1.52,-0.27,-1.07,0.0,0.0,2.0,9.0,0.0,0.0,0.0,0.0,0.0,0.0,
17.197,105.80280031138092,70.4336839770093,-1.87,-0.41,-0.7,0.0,0.0,2.0,9.0,0.0,0.0,0.0,0.0,0.0,0.0,
17.22,105.83628003113809,70.45736839770092,-2.92,-1.67,-0.79,0.0,0.0,2.0,9.0,0.0,0.0,0.0,0.0,0.0,0.0,
17.245,105.8306280031138,70.4327368397701,-3.18,-2.57,-0.29,0.0,0.0,2.0,9.0,0.0,0.0,0.0,0.0,0.0,0.0,
17.268,105.75806280031138,70.421273683977,-2.61,-1.37,-0.54,0.0,0.0,2.0,8.0,0.0,0.0,0.0,0.0,0.0,0.0,
17.293,105.72380628003113,70.4021273683977,-2.31,-1.69,-0.95,0.0,0.0,2.0,8.0,0.0,0.0,0.0,0.0,0.0,0.0,
17.316,105.72938062800313,70.38221273683976,0.47,-1.49,0.4,0.0,0.0,1.0,8.0,0.0,0.0,0.0,0.0,0.0,0.0,
17.34,105.70293806280031,70.41622127368397,1.36,-1.63,0.89,0.0,0.0,1.0,8.0,0.0,0.0,0.0,0.0,0.0,0.0,
17.363,105.72729380628004,70.5186221273684,0.52,-1.73,0.6,0.0,0.0,1.0,7.0,0.0,0.0,0.0,0.0,0.0,0.0,
17.387,105.666729380628,70.61886221273684,-1.85,-0.89,-0.25,0.0,0.0,1.0,7.0,0.0,0.0,0.0,0.0,0.0,0.0,
17.412,105.66067293806279,70.68288622127369,-2.93,-1.4,-0.78,0.0,0.0,1.0,7.0,0.0,0.0,0.0,0.0,0.0,0.0,
17.435,105.66906729380628,70.71628862212737,-2.94,-1.29,-1.19,0.0,0.0,1.0,7.0,0.0,0.0,0.0,0.0,0.0,0.0,
17.459,105.66990672938063,70.73762886221273,-1.42,-1.64,0.53,0.0,0.0,1.0,7.0,0.0,0.0,0.0,0.0,0.0,0.0,
17.483,105.65199067293807,70.67676288622127,1.51,-1.32,2.55,0.0,0.0,1.0,7.0,0.0,0.0,0.0,0.0,0.0,0.0,
17.507,105.61419906729381,70.78767628862212,0.84,0.73,1.53,0.0,0.0,1.0,7.0,0.0,0.0,0.0,0.0,0.0,0.0,
17.53,105.61941990672939,70.90676762886221,-1.78,0.53,-0.28,0.0,0.0,1.0,7.0,0.0,0.0,0.0,0.0,0.0,0.0,
17.555,105.57494199067293,70.97267676288622,-4.4,0.2,-1.63,0.0,0.0,1.0,7.0,0.0,0.0,0.0,0.0,0.0,0.0,
17.579,105.6874941990673,70.94326767628861,-4.93,0.81,-2.29,0.0,0.0,1.0,7.0,0.0,0.0,0.0,0.0,0.0,0.0,
17.602,105.76174941990672,70.98532676762886,-6.23,0.45,-2.48,0.0,0.0,1.0,7.0,0.0,0.0,0.0,0.0,0.0,0.0,
17.627,105.81417494199067,70.96253267676288,-6.84,0.31,-2.61,0.0,0.0,1.0,7.0,0.0,0.0,0.0,0.0,0.0,0.0,
17.65,105.72041749419905,70.81625326767629,-4.31,-0.69,-2.16,0.0,0.0,1.0,7.0,0.0,0.0,0.0,0.0,0.0,0.0,
17.674,105.68404174941992,70.85562532676762,-4.6,-0.82,-2.05,0.0,0.0,1.0,8.0,0.0,0.0,0.0,0.0,0.0,0.0,
17.698,105.77040417494199,70.81456253267677,-5.43,-0.3,-2.29,0.0,0.0,1.0,8.0,0.0,0.0,0.0,0.1,0.0,0.0,
17.722,105.8510404174942,70.77445625326767,-5.5,-0.11,-1.99,0.0,0.0,2.0,8.0,0.0,0.0,0.0,0.0,0.0,0.0,
17.746,105.92210404174942,70.67144562532677,-5.98,-0.08,-2.43,0.0,0.0,2.0,8.0,0.0,0.0,0.0,92.31,0.0,0.0,
17.77,105.90221040417494,70.60714456253268,-5.96,-0.39,-2.07,0.0,0.0,2.0,8.0,0.0,0.0,0.0,0.0,0.0,0.0,
17.795,105.9362210404175,70.46571445625327,-5.68,0.24,-0.75,0.0,0.0,2.0,9.0,0.0,0.0,0.0,0.0,0.0,0.0,
17.818,105.92162210404175,70.45157144562532,-4.24,0.31,-1.47,0.0,0.0,2.0,9.0,0.0,0.0,0.0,0.0,0.0,0.0,
17.842,105.92016221040417,70.48615714456253,-3.8,0.52,-1.65,0.0,0.0,2.0,9.0,0.0,0.0,0.0,0.0,0.0,0.0,
17.866,106.0100162210404,70.40861571445626,-3.27,0.79,-1.71,0.0,0.0,2.0,9.0,0.0,0.0,0.0,0.0,0.0,0.0,
17.89,106.10000162210403,70.40986157144562,-2.76,0.31,-1.39,0.0,0.0,2.0,9.0,0.0,0.0,0.0,0.0,0.0,0.0,
17.913,106.1900001622104,70.41898615714456,-3.56,-0.04,-0.98,0.0,0.0,2.0,9.0,0.0,0.0,0.0,0.0,0.0,0.0,
17.938,106.18100001622105,70.45589861571445,-4.13,-0.11,-1.51,0.0,0.0,2.0,10.0,0.0,0.0,0.0,0.0,0.0,0.0,
17.961,106.14410000162209,70.47758986157145,-4.73,-0.12,-2.18,0.0,0.0,2.0,10.0,0.0,0.0,0.0,0.0,0.0,0.0,
17.986,106.1674100001622,70.46175898615714,-3.85,0.37,-1.45,0.0,0.0,2.0,10.0,0.0,0.0,0.0,0.0,0.0,0.0,
18.01,106.22374100001622,70.42417589861572,-3.67,0.39,-1.0,0.0,0.0,2.0,10.0,0.0,0.0,0.0,0.0,0.0,0.0,
18.034,106.29237410000162,70.53741758986156,-4.84,-0.34,-1.31,0.0,0.0,2.0,10.0,0.0,0.0,0.0,0.0,0.0,0.0,
18.059,106.29923741000016,70.50374175898615,-7.28,-0.73,-1.67,0.0,0.0,2.0,10.0,0.0,0.0,0.0,0.0,0.0,0.0,
18.082,106.27292374100001,70.32937417589862,-6.03,-0.49,-1.51,0.0,0.0,2.0,10.0,0.0,0.0,0.0,0.0,0.0,0.0,
18.107,106.2972923741,70.24893741758986,-4.71,-0.08,-1.66,0.0,0.0,2.0,11.0,0.0,0.0,0.0,0.0,0.0,0.0,
18.13,106.34472923741001,70.15089374175899,-4.28,0.06,-2.19,0.0,0.0,2.0,11.0,0.0,0.0,0.0,0.0,0.0,0.0,
18.155,106.403472923741,70.10508937417589,-3.77,0.38,-1.58,0.0,0.0,3.0,11.0,0.0,0.0,0.0,0.0,0.0,0.0,
18.18,106.4543472923741,70.09150893741759,-5.25,-0.46,-1.96,0.0,0.0,3.0,11.0,0.0,0.0,0.0,0.0,0.0,0.0,
18.203,106.5404347292374,70.06315089374176,-5.24,-0.09,-2.09,0.0,0.0,3.0,11.0,0.0,0.0,0.0,0.0,0.0,0.0,
18.228,106.60304347292373,70.06031508937417,-4.08,-0.06,-1.62,0.0,0.0,3.0,12.0,0.0,0.0,0.0,0.0,0.0,0.0,
18.251,106.66330434729237,70.02403150893741,-3.25,0.37,-1.24,0.0,0.0,3.0,12.0,0.0,0.0,0.0,0.0,0.0,0.0,
18.276,106.68733043472923,70.02940315089374,-3.47,0.58,-1.47,0.0,0.0,3.0,12.0,0.0,0.0,0.0,0.0,0.0,0.0,
18.299,106.69873304347293,70.06594031508936,-3.76,0.53,-1.7,0.0,0.0,3.0,12.0,0.0,0.0,0.0,0.0,0.0,0.0,
18.324,106.7628733043473,70.15959403150895,-3.85,0.08,-1.56,0.0,0.0,3.0,0.0,0.0,0.0,0.0,0.0,0.0,0.0,
18.348,106.82328733043474,70.06095940315089,-4.36,-0.43,-1.85,0.0,0.0,3.0,0.0,0.0,0.0,0.0,0.0,0.0,0.0,
18.371,106.87432873304347,70.0870959403151,-4.02,-0.63,-1.36,0.0,0.0,3.0,1.0,0.0,0.0,0.0,0.0,0.0,0.0,
18.396,106.91543287330435,70.0987095940315,-4.13,-1.08,-1.12,0.0,0.0,3.0,1.0,0.0,0.0,0.0,0.0,0.0,0.0,
18.419,106.84754328733044,70.10887095940315,-3.44,-0.95,-1.02,0.0,0.0,3.0,1.0,0.0,0.0,0.0,0.0,0.0,0.0,
18.444,106.86775432873304,70.10088709594031,-5.31,-1.49,-1.74,0.0,0.0,3.0,2.0,0.0,0.0,0.0,0.0,0.0,0.0,
18.467,106.8247754328733,70.04608870959404,-4.19,-0.61,-2.33,0.0,0.0,3.0,2.0,0.0,0.0,0.0,0.0,0.0,0.0,
18.492,106.73947754328734,70.0316088709594,-3.49,-0.7,-1.81,0.0,0.0,3.0,2.0,0.0,0.0,0.0,0.0,0.0,0.0,
18.515,106.77594775432874,69.98516088709594,-2.69,-0.22,-1.24,0.0,0.0,3.0,3.0,0.0,0.0,0.0,0.0,0.0,0.0,
18.54,106.85159477543287,69.93551608870959,-2.44,-0.16,-1.58,0.0,0.0,3.0,3.0,0.0,0.0,0.0,0.0,0.0,0.0,
18.564,106.88615947754329,69.95755160887096,-3.52,-0.48,-1.63,0.0,0.0,3.0,3.0,0.0,0.0,0.0,0.0,0.0,0.0,
18.587,106.95261594775432,70.0317551608871,-3.58,-0.51,-1.62,0.0,0.0,3.0,3.0,0.0,0.0,0.0,0.0,0.0,0.0,
18.612,106.97726159477544,70.0211755160887,-3.92,-0.76,-1.64,0.0,0.0,3.0,3.0,0.0,0.0,0.0,0.0,0.0,0.0,
18.635,107.04272615947754,69.99311755160886,-3.68,-0.45,-1.41,0.0,0.0,4.0,3.0,0.0,0.0,0.0,0.0,0.0,0.0,
18.66,107.12127261594776,69.90031175516089,-3.53,-1.14,-1.25,0.0,0.0,4.0,4.0,0.0,0.0,0.0,0.0,0.0,0.0,
18.683,107.11112726159477,69.90003117551609,-3.73,-1.24,-1.32,0.0,0.0,4.0,4.0,0.0,0.0,0.0,0.0,0.0,0.0,
18.708,107.04711272615948,69.94500311755161,-3.47,-1.22,-1.53,0.0,0.0,4.0,3.0,0.0,0.0,0.0,0.0,0.0,0.0,
18.732,107.09471127261594,69.91350031175516,-3.3,-1.56,-0.92,0.0,0.0,4.0,4.0,0.0,0.0,0.0,0.0,0.0,0.0,
18.756,107.0634711272616,69.87435003117551,-3.57,-1.43,-1.02,0.0,0.0,4.0,4.0,0.0,0.0,0.0,0.0,0.0,0.0,
18.78,107.05134711272615,69.92443500311755,-3.19,-0.89,-1.48,0.0,0.0,4.0,4.0,0.0,0.0,0.0,92.31,0.0,0.0,
18.804,107.01413471127262,69.93844350031175,-2.73,-0.82,-1.57,0.0,0.0,4.0,4.0,0.0,0.0,0.0,0.0,0.0,0.0,
18.828,107.08241347112725,70.00284435003118,-3.24,-0.98,-1.36,0.0,0.0,4.0,4.0,0.0,0.0,0.0,0.0,0.0,0.0,
18.852,107.15224134711272,70.01828443500312,-3.11,-0.94,-1.48,0.0,0.0,4.0,4.0,0.0,0.0,0.0,0.0,0.0,0.0,
18.876,107.14122413471127,69.98382844350031,-3.29,-1.31,-1.52,0.0,0.0,4.0,4.0,0.0,0.0,0.0,0.0,0.0,0.0,
18.9,107.14012241347112,69.93538284435003,-2.69,-1.08,-1.37,0.0,0.0,4.0,4.0,0.0,0.0,0.0,0.0,0.0,0.0,
18.924,107.12201224134711,69.966538284435,-2.35,-1.03,-1.32,0.0,0.0,3.0,3.0,0.0,0.0,0.0,0.0,0.0,0.0,
18.949,107.20120122413469,70.0236538284435,-3.86,-1.76,-1.06,0.0,0.0,4.0,3.0,0.0,0.0,0.0,0.0,0.0,0.0,
18.972,107.22712012241347,69.96636538284434,-4.43,-2.4,-1.31,0.0,0.0,4.0,3.0,0.0,0.0,0.0,0.0,0.0,0.0,
18.997,107.13071201224135,69.96063653828443,-3.74,-1.67,-1.69,0.0,0.0,4.0,3.0,0.0,0.0,0.0,0.0,0.0,0.0,
19.02,107.12107120122414,69.96006365382844,-2.99,-1.11,-1.13,0.0,0.0,4.0,3.0,0.0,0.0,0.0,0.0,0.0,0.0,
19.045,107.10210712012241,69.96900636538284,-2.41,-0.93,-1.18,0.0,0.0,4.0,4.0,0.0,0.0,0.0,0.0,0.0,0.0,
19.068,107.10021071201224,69.96990063653828,-2.78,-1.13,-1.14,0.0,0.0,3.0,3.0,0.0,0.0,0.0,0.0,0.0,0.0,
19.093,107.07302107120123,70.00599006365384,-3.24,-1.55,-1.56,0.0,0.0,3.0,3.0,0.0,0.0,0.0,0.0,0.0,0.0,
19.117,107.11530210712012,70.01859900636538,-3.63,-1.42,-1.76,0.0,0.0,3.0,3.0,0.0,0.0,0.0,0.0,0.0,0.0,
19.14,107.12853021071201,69.96585990063653,-3.53,-1.89,-1.4,0.0,0.0,3.0,3.0,0.0,0.0,0.0,0.0,0.0,0.0,
19.165,107.1838530210712,69.90658599006366,-3.17,-1.61,-1.2,0.0,0.0,3.0,3.0,0.0,0.0,0.0,0.0,0.0,0.0,
19.188,107.20738530210711,69.95465859900636,-2.73,-1.85,-0.69,0.0,0.0,3.0,3.0,0.0,0.0,0.0,0.0,0.0,0.0,
19.213,107.18273853021071,69.97746585990065,-3.27,-1.69,-0.8,0.0,0.0,3.0,3.0,0.0,0.0,0.0,0.0,0.0,0.0,
19.236,107.17127385302108,69.96174658599006,-4.0,-1.99,-1.09,0.0,0.0,4.0,3.0,0.0,0.0,0.0,0.0,0.0,0.0,
19.261,107.12512738530211,69.95117465859902,-4.23,-2.11,-1.56,0.0,0.0,4.0,4.0,0.0,0.0,0.0,0.0,0.0,0.0,
19.284,107.12951273853021,69.8871174658599,-3.24,-1.18,-1.51,0.0,0.0,4.0,4.0,0.0,0.0,0.0,0.0,0.0,0.0,
19.308,107.14795127385302,69.89871174658599,-2.52,-0.97,-1.08,0.0,0.0,4.0,4.0,0.0,0.0,0.0,0.0,0.0,0.0,
19.333,107.1317951273853,69.9448711746586,-3.04,-1.26,-1.23,0.0,0.0,4.0,3.0,0.0,0.0,0.0,0.0,0.0,0.0,
19.356,107.14817951273852,69.95848711746586,-3.53,-1.47,-1.23,0.0,0.0,4.0,3.0,0.0,0.0,0.0,0.0,0.0,0.0,
19.381,107.18581795127385,69.98684871174659,-3.09,-1.19,-1.4,0.0,0.0,4.0,3.0,0.0,0.0,0.0,0.0,0.0,0.0,
19.404,107.12658179512738,69.97168487117466,-3.06,-1.36,-0.98,0.0,0.0,4.0,3.0,0.0,0.0,0.0,0.0,0.0,0.0,
19.429,107.11165817951273,69.99716848711746,-3.52,-1.41,-1.04,0.0,0.0,4.0,3.0,0.0,0.0,0.0,0.0,0.0,0.0,
19.452,107.04716581795128,70.04471684871174,-3.73,-1.86,-1.25,0.0,0.0,4.0,3.0,0.0,0.0,0.0,0.0,0.0,0.0,
19.476,107.03171658179512,70.05847168487118,-3.73,-1.57,-1.43,0.0,0.0,4.0,3.0,0.0,0.0,0.0,0.0,0.0,0.0,
19.501,107.01217165817953,69.98784716848712,-2.76,-1.09,-1.26,0.0,0.0,4.0,3.0,0.0,0.0,0.0,0.0,0.0,0.0,
19.524,107.06421716581795,69.96278471684872,-2.53,-1.01,-1.15,0.0,0.0,4.0,3.0,0.0,0.0,0.0,0.0,0.0,0.0,
19.549,107.07842171658179,69.96027847168487,-3.12,-1.18,-1.07,0.0,0.0,4.0,3.0,0.0,0.0,0.0,0.0,0.0,0.0,
19.572,107.05284217165817,69.97802784716849,-3.98,-1.44,-1.64,0.0,0.0,4.0,3.0,0.0,0.0,0.0,0.0,0.0,0.0,
19.597,106.99628421716581,69.99780278471685,-4.7,-2.0,-1.68,0.0,0.0,4.0,3.0,0.0,0.0,0.0,0.0,0.0,0.0,
19.62,106.92762842171659,69.99978027847169,-4.95,-2.8,-1.33,0.0,0.0,4.0,3.0,0.0,0.0,0.0,0.0,0.0,0.0,
19.645,106.88476284217165,69.97297802784716,-4.15,-2.36,-0.75,0.0,0.0,4.0,3.0,0.0,0.0,0.0,0.0,0.0,0.0,
19.668,106.84447628421717,69.93429780278473,-2.18,-2.03,-0.26,0.0,0.0,3.0,3.0,0.0,0.0,0.0,0.0,0.0,0.0,
19.692,106.77744762842171,69.91242978027847,-1.55,-1.65,-0.58,0.0,0.0,3.0,3.0,0.0,0.0,0.0,0.0,0.0,0.0,
19.717,106.80674476284217,69.94624297802785,-0.94,-0.94,-1.19,0.0,0.0,3.0,2.0,0.0,0.0,0.0,0.0,0.0,0.0,
19.74,106.78267447628421,70.00362429780279,-1.24,-0.89,-0.98,0.0,0.0,3.0,2.0,0.0,0.0,0.0,0.0,0.0,0.0,
19.765,106.83426744762842,70.07236242978028,-1.05,-0.98,-0.43,0.0,0.0,3.0,2.0,0.0,0.0,0.0,0.0,0.0,0.0,
19.788,106.92042674476285,70.16023624297803,-2.45,-1.66,-1.08,0.0,0.0,3.0,1.0,0.0,0.0,0.0,0.0,0.0,0.0,
19.813,106.87504267447629,70.1420236242978,-3.41,-2.11,-1.19,0.0,0.0,3.0,1.0,0.0,0.0,0.0,0.0,0.0,0.0,
19.836,106.86150426744763,70.10420236242977,-3.08,-2.02,-1.18,0.0,0.0,3.0,1.0,0.0,0.0,0.0,0.0,0.0,0.0,
19.86,106.80615042674476,70.20842023624297,-2.47,-1.73,-1.2,0.0,0.0,3.0,0.0,0.0,0.0,0.0,0.0,0.0,0.0,
19.885,106.75561504267448,70.23684202362429,0.28,-1.83,-0.45,0.0,0.0,3.0,12.0,0.0,0.0,0.0,0.0,0.0,0.0,
19.908,106.77756150426745,70.31168420236243,0.29,-1.72,0.02,0.0,0.0,2.0,12.0,0.0,0.0,0.0,0.0,0.0,0.0,
19.933,106.74375615042675,70.37316842023624,-1.56,-1.79,-1.06,0.0,0.0,2.0,11.0,0.0,0.0,0.0,0.0,0.0,0.0,
19.956,106.82137561504268,70.45131684202362,-2.89,-1.92,-1.21,0.0,0.0,2.0,11.0,0.0,0.0,0.0,0.0,0.0,0.0,
19.981,106.81113756150427,70.54013168420235,-4.38,-2.94,-1.47,0.0,0.0,2.0,11.0,0.0,0.0,0.0,0.0,0.0,0.0,
20.004,106.78311375615043,70.48601316842024,-2.76,-3.21,-1.15,0.0,0.0,2.0,11.0,0.0,0.0,0.0,0.0,0.0,0.0,
20.029,106.77131137561504,70.50760131684203,-1.11,-2.86,-0.22,0.0,0.0,2.0,10.0,0.0,0.0,0.0,0.0,0.0,0.0,
20.052,106.6801311375615,70.5007601316842,-1.28,-3.1,-0.2,0.0,0.0,2.0,10.0,0.0,0.0,0.0,0.0,0.0,0.0,
20.077,106.59901311375616,70.55407601316843,-1.99,-2.91,-0.53,0.0,0.0,2.0,10.0,0.0,0.0,0.0,0.0,0.0,0.0,
20.101,106.58190131137562,70.55940760131685,-3.82,-3.13,-1.55,0.0,0.0,2.0,10.0,0.0,0.0,0.0,0.0,0.0,0.0,
20.125,106.52619013113755,70.5599407601317,-1.23,-1.76,-0.13,0.0,0.0,1.0,10.0,0.0,0.0,0.0,0.0,0.0,0.0,
20.149,106.47561901311376,70.55099407601317,1.15,-1.12,1.27,0.0,0.0,1.0,9.0,0.0,0.0,0.0,0.0,0.0,0.0,
20.173,106.44356190131138,70.63109940760131,0.85,-1.6,1.25,0.0,0.0,1.0,9.0,0.0,0.0,0.0,0.0,0.0,0.0,
20.197,106.40435619013114,70.81010994076013,-1.38,-2.22,0.03,0.0,0.0,1.0,9.0,0.0,0.0,0.0,0.0,0.0,0.0,
20.22,106.40943561901312,70.81901099407601,-3.02,-2.59,-0.92,0.0,0.0,1.0,8.0,0.0,0.0,0.0,0.0,0.0,0.0,
20.245,106.38294356190131,70.7749010994076,-2.09,-2.27,-0.4,0.0,0.0,1.0,8.0,0.0,0.0,0.0,0.0,0.0,0.0,
20.269,106.30829435619013,70.74349010994075,-2.14,-0.85,-0.56,0.0,0.0,1.0,8.0,0.0,0.0,0.0,0.0,0.0,0.0,
20.293,106.30082943561901,70.74934901099408,-2.85,-1.25,-0.8,0.0,0.0,1.0,8.0,0.0,0.0,0.0,0.0,0.0,0.0,
20.317,106.3270829435619,70.8129349010994,-2.89,-1.39,-0.34,0.0,0.0,1.0,8.0,0.0,0.0,0.0,0.0,0.0,0.0,
20.34,106.27570829435619,70.79229349010994,-3.3,-1.37,-1.06,0.0,0.0,1.0,8.0,0.0,0.0,0.0,0.0,0.0,0.0,
20.365,106.26157082943561,70.81722934901099,-1.2,-2.08,0.46,0.0,0.0,1.0,8.0,0.0,0.0,0.0,0.0,0.0,0.0,
20.388,106.26915708294356,70.89172293490111,-0.29,-1.27,0.97,0.0,0.0,1.0,8.0,0.0,0.0,0.0,0.0,0.0,0.0,
20.413,106.30591570829435,70.98017229349011,-2.59,-2.2,-0.76,0.0,0.0,1.0,7.0,0.0,0.0,0.0,0.0,0.0,0.0,
20.436,106.30959157082944,71.00701722934902,-5.07,-2.44,-1.87,0.0,0.0,1.0,7.0,0.0,0.0,0.0,0.0,0.0,0.0,
20.46,106.25595915708294,70.9467017229349,-3.55,-2.18,-0.66,0.0,0.0,1.0,8.0,0.0,0.0,0.0,0.0,0.0,0.0,
20.485,106.16959591570829,70.94067017229348,-1.43,-1.24,0.4,0.0,0.0,1.0,8.0,0.0,0.0,0.0,0.0,0.0,0.0,
20.508,106.13395959157083,70.88606701722934,-0.81,-1.73,0.62,0.0,0.0,0.0,7.0,0.0,0.0,0.0,0.0,0.0,0.0,
20.533,106.12139595915708,70.97060670172294,-0.35,-1.54,1.34,0.0,0.0,0.0,7.0,0.0,0.0,0.0,0.0,0.0,0.0,
20.556,106.06613959591571,71.1770606701723,-1.21,-1.64,-0.1,0.0,0.0,0.0,7.0,0.0,0.0,0.0,0.0,0.0,0.0,
20.58,106.04261395959158,71.21570606701722,-4.89,-1.46,-2.89,0.0,0.0,0.0,7.0,0.0,0.0,0.0,0.0,0.0,0.0,
20.604,106.15726139595915,71.15657060670173,-4.23,-1.9,-1.82,0.0,0.0,0.0,7.0,0.0,0.0,0.0,0.0,8.83,0.0,
20.628,106.1417261395959,71.13265706067017,-3.6,-1.47,-1.24,0.0,0.0,0.0,7.0,0.0,0.0,0.0,0.0,0.0,0.0,
20.653,106.06817261395959,71.25626570606701,-2.53,-1.15,-0.03,0.0,0.0,0.0,7.0,0.0,0.0,0.0,0.0,0.0,0.0,
20.676,106.06981726139595,71.2776265706067,-3.59,-1.09,-0.95,0.0,0.0,0.0,7.0,0.0,0.0,0.0,0.0,0.0,0.0,
20.701,106.0609817261396,71.28876265706067,-5.49,-1.22,-2.31,0.0,0.0,1.0,7.0,0.0,0.0,0.0,0.0,0.0,0.0,
20.724,105.98809817261396,71.31687626570607,-6.29,-0.75,-2.93,0.0,0.0,1.0,7.0,0.0,0.0,0.0,0.0,18.25,0.0,
20.749,106.0348098172614,71.22968762657061,-6.24,-1.5,-2.56,0.0,0.0,1.0,7.0,0.0,0.0,0.0,0.0,18.15,0.0,
20.772,105.96748098172613,71.18496876265706,-2.06,-0.93,-0.02,0.0,0.0,1.0,7.0,0.0,0.0,0.0,0.0,3.43,0.0,
20.797,105.87074809817261,71.19849687626571,-2.35,-0.79,-0.56,0.0,0.0,1.0,7.0,0.0,0.0,0.0,0.0,0.0,0.0,
20.82,105.92407480981726,71.22684968762657,-3.47,-0.63,-2.01,0.0,0.0,1.0,7.0,0.0,0.0,0.0,0.0,0.0,0.0,
20.844,105.95640748098171,71.25668496876266,-4.66,-0.8,-1.83,0.0,0.0,1.0,8.0,0.0,0.0,0.0,0.0,0.0,0.0,
20.869,105.96864074809817,71.22366849687626,-5.73,-0.23,-2.34,0.0,0.0,1.0,8.0,0.0,0.0,0.0,0.0,0.0,0.0,
20.892,105.9878640748098,71.13936684968762,-7.56,-0.82,-3.15,0.0,0.0,1.0,8.0,0.0,0.0,0.0,0.0,0.0,0.0,
20.917,106.03478640748098,71.06793668496876,-6.05,-0.5,-2.63,0.0,0.0,1.0,8.0,0.0,0.0,0.0,0.0,0.0,0.0,
20.94,106.0124786407481,71.00679366849687,-3.37,-1.28,-0.71,0.0,0.0,1.0,8.0,0.0,0.0,0.0,0.0,0.0,0.0,
20.965,106.01024786407481,70.96467936684968,-1.6,-1.2,-0.31,0.0,0.0,1.0,8.0,0.0,0.0,0.0,0.0,0.0,0.0,
20.988,106.06402478640747,70.91546793668496,-2.79,-0.76,-1.12,0.0,0.0,1.0,8.0,0.0,0.0,0.0,0.0,0.0,0.0,
21.012,106.07840247864074,70.98254679366849,-4.08,-0.27,-1.95,0.0,0.0,1.0,8.0,0.0,0.0,0.0,0.0,0.0,0.0,
21.037,106.12484024786407,71.02525467936685,-4.11,0.04,-2.16,0.0,0.0,1.0,8.0,0.0,0.0,0.0,0.0,0.0,0.0,
21.06,106.0844840247864,70.99352546793668,-2.13,0.37,-1.38,0.0,0.0,1.0,8.0,0.0,0.0,0.0,0.0,0.0,0.0,
21.085,106.17044840247866,70.99035254679366,-1.95,-0.39,-1.19,0.0,0.0,1.0,8.0,0.0,0.0,0.0,0.0,0.0,0.0,
21.108,106.19704484024786,71.03503525467937,-2.95,-0.59,-1.59,0.0,0.0,1.0,8.0,0.0,0.0,0.0,0.0,0.0,0.0,
21.132,106.21770448402478,71.01250352546793,-3.31,-0.5,-1.57,0.0,0.0,1.0,8.0,0.0,0.0,0.0,0.0,0.0,0.0,
21.156,106.23777044840247,71.0372503525468,-3.76,-0.74,-1.71,0.0,0.0,1.0,8.0,0.0,0.0,0.0,0.0,0.0,0.0,
21.18,106.22177704484024,70.96772503525467,-3.06,-0.97,-1.42,0.0,0.0,1.0,8.0,0.0,0.0,0.0,0.0,0.0,0.0,
21.204,106.19317770448401,70.98777250352546,-3.32,-1.15,-1.0,0.0,0.0,1.0,8.0,0.0,0.0,0.0,0.0,0.0,0.0,
21.228,106.1723177704484,70.97177725035255,-3.62,-0.6,-1.54,0.0,0.0,1.0,8.0,0.0,0.0,0.0,0.0,0.0,0.0,
21.253,106.14323177704483,70.97017772503526,-3.71,-0.82,-1.76,0.0,0.0,1.0,8.0,0.0,0.0,0.0,0.0,0.0,0.0,
21.276,106.16732317770447,71.03301777250353,-4.74,-1.11,-1.94,0.0,0.0,1.0,8.0,0.0,0.0,0.0,0.0,0.0,0.0,
21.301,106.18773231777044,70.96730177725036,-2.73,-2.03,-0.53,0.0,0.0,1.0,8.0,0.0,0.0,0.0,0.1,0.0,0.0,
21.324,106.23477323177704,70.97873017772504,-2.91,-1.6,-0.48,0.0,0.0,1.0,8.0,0.0,0.0,0.0,0.0,0.0,0.0,
21.348,106.2934773231777,70.9528730177725,-3.76,-1.04,-1.53,0.0,0.0,1.0,8.0,0.0,0.0,0.0,0.0,0.0,0.0,
21.372,106.33534773231777,71.00428730177725,-4.49,-1.09,-1.91,0.0,0.0,1.0,8.0,0.0,0.0,0.0,0.0,0.0,0.0,
21.396,106.32153477323178,70.97342873017772,-4.15,-1.15,-1.77,0.0,0.0,1.0,8.0,0.0,0.0,0.0,0.0,0.0,0.0,
21.421,106.31115347732317,71.00634287301777,-3.55,-1.47,-1.34,0.0,0.0,1.0,8.0,0.0,0.0,0.0,0.0,0.0,0.0,
21.444,106.27411534773232,70.97363428730178,-4.33,-0.69,-1.64,0.0,0.0,1.0,8.0,0.0,0.0,0.0,0.0,0.0,0.0,
21.469,106.36941153477323,70.90736342873018,-4.48,-0.35,-2.23,0.0,0.0,1.0,9.0,0.0,0.0,0.0,0.0,0.0,0.0,
21.492,106.36994115347733,70.95473634287302,-4.44,-0.63,-2.18,0.0,0.0,1.0,9.0,0.0,0.0,0.0,0.0,0.0,0.0,
21.516,106.37899411534774,70.9864736342873,-5.11,-1.07,-2.44,0.0,0.0,2.0,9.0,0.0,0.0,0.0,0.0,0.0,0.0,
21.54,106.40689941153478,70.91764736342873,-5.37,-1.09,-2.4,0.0,0.0,2.0,9.0,0.0,0.0,0.0,0.0,0.0,0.0,
21.564,106.45468994115348,70.88376473634287,-4.37,-0.95,-1.69,0.0,0.0,2.0,9.0,0.0,0.0,0.0,0.0,0.0,0.0,
21.588,106.54046899411534,70.8173764736343,-4.61,-0.73,-1.48,0.0,0.0,2.0,9.0,0.0,0.0,0.0,0.1,0.0,0.0,
21.612,106.52204689941152,70.72973764736344,-4.41,-0.98,-1.76,0.0,0.0,2.0,9.0,0.0,0.0,0.0,0.1,0.0,0.0,
21.637,106.54720468994114,70.68497376473636,-3.33,-1.12,-0.82,0.0,0.0,2.0,9.0,0.0,0.0,0.0,0.2,0.0,0.0,
21.66,106.4687204689941,70.68949737647364,-3.32,-1.21,-1.03,0.0,0.0,2.0,9.0,0.0,0.0,0.0,0.2,0.0,0.0,
21.684,106.4878720468994,70.68094973764737,-3.99,-0.74,-1.45,0.0,0.0,2.0,9.0,0.0,0.0,0.0,0.1,0.0,0.0,
21.708,106.50778720468995,70.68009497376474,-3.88,-0.45,-1.31,0.0,0.0,2.0,9.0,0.0,0.0,0.0,0.2,0.0,0.0,
21.732,106.56377872046899,70.75200949737648,-3.51,0.08,-1.16,0.0,0.0,2.0,10.0,0.0,0.0,0.0,0.1,0.0,0.0,
21.756,106.60537787204689,70.72320094973765,-2.97,0.41,-1.38,0.0,0.0,2.0,10.0,0.0,0.0,0.0,0.1,0.0,0.0,
21.78,106.6725377872047,70.66632009497377,-3.39,-1.05,-1.36,0.0,0.0,2.0,10.0,0.0,0.0,0.0,0.29,0.0,0.0,
21.805,106.75125377872047,70.57963200949737,-4.51,-0.89,-2.07,0.0,0.0,2.0,10.0,0.0,0.0,0.0,0.2,0.0,0.0,
21.828,106.75012537787205,70.50796320094975,-3.81,-1.18,-1.56,0.0,0.0,2.0,10.0,0.0,0.0,0.0,0.2,0.0,0.0,
21.853,106.6780125377872,70.54579632009496,-3.34,-0.34,-1.6,0.0,0.0,2.0,10.0,0.0,0.0,0.0,0.1,0.0,0.0,
21.876,106.72480125377872,70.5225796320095,-2.56,-0.11,-1.3,0.0,0.0,2.0,10.0,0.0,0.0,0.0,0.2,0.0,0.0,
21.901,106.73848012537788,70.61025796320095,-2.51,-1.15,-1.36,0.0,0.0,2.0,10.0,0.0,0.0,0.0,0.2,0.0,0.0,
21.925,106.7938480125378,70.6190257963201,-2.25,-1.32,-0.7,0.0,0.0,2.0,10.0,0.0,0.0,0.0,0.2,0.0,0.0,
21.949,106.80838480125378,70.61990257963201,-2.37,-1.16,-0.74,0.0,0.0,2.0,10.0,0.0,0.0,0.0,0.29,0.0,0.0,
