time,t1:pitch,t1:roll,t1:gyrx,t1:gyry,t1:gyrz,t2:pitch,t2:roll,t2:gyrx,t2:gyry,t2:gyrz,k1:pitch,k1:roll,k1:gyrx,k1:gyry,k1:gyrz,k2:pitch,k2:roll,k2:gyrx,k2:gyry,k2:gyrz,W:pitch,W:roll,W:gyrx,W:gyry,W:gyrz,B:pitch,B:roll,B:gyrx,B:gyry,B:gyrz
0.288,-2.556603804178558,23.623586882746572,-0.007633587786259542,-0.030534351145038167,-0.015267175572519083,27.71146390036175,20.242355750953603,-0.007633587786259542,0.007633587786259542,0.007633587786259542,-4.9454106065962735,23.771543473574432,-0.015267175572519083,-0.0,-0.007633587786259542,27.00006490092218,19.50006489235218,0.007633587786259542,0.007633587786259542,0.007633587786259542,0.0,0.0,0.0,0.0,0.0,54.66,54.08,-1.0,-3.0,4.0,
0.327,-4.729717037730332,43.70363573308116,-0.007633587786259542,-0.030534351145038167,-0.015267175572519083,51.26620821566924,37.448358139264165,-0.007633587786259542,0.007633587786259542,0.007633587786259542,-9.337880912869903,44.05309835987614,-0.007633587786259542,-0.0,0.022900763358778626,49.950120066706035,36.07512005085154,0.007633587786259542,0.007633587786259542,0.007633587786259542,0.0,0.0,0.0,0.0,0.0,59.56,58.99,-6.0,0.0,0.0,
0.365,-6.487126079351541,60.62317441445306,0.0,-0.04580152671755725,0.0,71.2877408836806,52.07346016932814,-0.007633587786259542,0.007633587786259542,0.007633587786259542,-13.071480673202487,61.29242001323259,-0.007633587786259542,-0.0,0.022900763358778626,69.45766695762231,50.16391693557599,0.007633587786259542,0.007633587786259542,0.007633587786259542,0.0,0.0,0.0,0.0,0.0,63.87,63.22,-4.0,2.0,1.0,
0.403,-7.98092376472957,75.00478229361917,0.0,-0.04580152671755725,0.0,88.30604365149026,64.50479689488253,-0.007633587786259542,0.007633587786259542,0.007633587786259542,-15.876555975154249,75.89455934489101,0.0,-0.007633587786259542,0.007633587786259542,86.03908181490114,62.13939428759177,0.007633587786259542,0.007633587786259542,0.007633587786259542,0.0,0.0,0.0,0.0,0.0,67.28,66.7,-2.0,-1.0,3.0,
0.44,-9.250651797300893,87.22914899091037,0.0,-0.04580152671755725,0.0,102.75831395883289,75.04163014909474,-0.015267175572519083,0.007633587786259542,0.0,-18.260869981813244,88.30637777680067,0.0,-0.007633587786259542,0.007633587786259542,100.13328444358815,72.31855003680519,0.007633587786259542,0.007633587786259542,0.007633587786259542,0.0,0.0,0.0,0.0,0.0,70.32,69.69,-6.0,1.0,0.0,
0.478,-10.32992062498652,97.61986068360788,0.0,-0.04580152671755725,0.0,115.07337190991556,84.04708993887695,0.0,0.015267175572519083,0.022900763358778626,-20.287536887473394,98.85642344392389,0.0,-0.007633587786259542,0.007633587786259542,112.1133566779721,80.9708324236366,0.007633587786259542,0.007633587786259542,0.007633587786259542,0.0,0.0,0.0,0.0,0.0,72.89,72.19,-3.0,0.0,3.0,
0.516,-11.247299128519304,106.45196562240076,0.0,-0.04580152671755725,0.0,125.54117116833584,91.70173076019182,0.0,0.015267175572519083,0.022900763358778626,-22.204831275506727,107.8495995711026,-0.007633587786259542,-0.0,0.015267175572519083,122.29641807719847,88.32527245244329,0.007633587786259542,0.007633587786259542,0.007633587786259542,0.0,0.0,0.0,0.0,0.0,74.94,74.31,-4.0,1.0,2.0,
0.5529999999999999,-12.027070856522169,113.95925482037472,0.0,-0.04580152671755725,0.0,134.40872792851113,98.14967557858687,-0.007633587786259542,0.007633587786259542,0.007633587786259542,-23.83453150533506,115.49379927920451,-0.007633587786259542,-0.0,0.015267175572519083,130.95202026654087,94.57654647692897,0.007633587786259542,0.007633587786259542,0.007633587786259542,0.0,0.0,0.0,0.0,0.0,76.93,76.2,-4.0,1.0,0.0,
0.5920000000000001,-12.689876825324603,120.34045063865258,0.0,-0.04580152671755725,0.0,141.9461511746601,103.63042867422266,-0.007633587786259542,0.007633587786259542,0.007633587786259542,-25.219776700689142,121.99136903109112,-0.007633587786259542,-0.0,0.015267175572519083,138.3092821274819,99.8901293977418,0.007633587786259542,0.007633587786259542,0.007633587786259542,0.0,0.0,0.0,0.0,0.0,78.58,77.73,-4.0,-2.0,2.0,
0.63,-13.253261898806674,125.76446708418877,0.0,-0.04580152671755725,0.0,148.42936672054577,108.40511580524317,-0.007633587786259542,0.022900763358778626,0.0,-26.397235116740113,127.51430332019476,-0.007633587786259542,-0.0,0.015267175572519083,144.56295470928177,104.40667488043272,0.007633587786259542,0.007633587786259542,0.007633587786259542,0.0,0.0,0.0,0.0,0.0,79.96,78.93,-5.0,3.0,-2.0,
0.6679999999999999,-13.689442985322723,130.0359689659497,-0.015267175572519083,-0.0,0.015267175572519083,153.9400999345486,112.46359986661061,-0.007633587786259542,0.022900763358778626,0.0,-27.398074770383438,132.20879746593286,-0.007633587786259542,-0.0,0.015267175572519083,149.87857640381168,108.24573854071998,0.007633587786259542,0.007633587786259542,0.007633587786259542,0.0,0.0,0.0,0.0,0.0,81.33,79.97,-4.0,-3.0,-4.0,
0.706,-14.078368164244381,133.64346193631505,-0.007633587786259542,-0.0,0.0,158.62422316645103,115.91331131877294,-0.007633587786259542,0.022900763358778626,0.0,-28.248788475980263,136.19911748981025,-0.007633587786259542,-0.0,0.015267175572519083,154.39685484416208,111.50894265196416,0.007633587786259542,0.007633587786259542,0.007633587786259542,0.0,0.0,0.0,0.0,0.0,82.01,80.96,-7.0,0.0,-3.0,
0.744,-14.40895456632779,136.7098309611256,-0.007633587786259542,-0.0,0.0,162.6057279135681,118.84556605311091,-0.007633587786259542,0.022900763358778626,0.0,-28.971895125737564,139.59088951010602,-0.007633587786259542,-0.0,0.015267175572519083,158.23745640395612,114.28260126102553,0.0,0.015267175572519083,0.015267175572519083,0.0,0.0,0.0,0.0,0.0,82.68,81.98,-6.0,3.0,0.0,
0.781,-14.689953008098687,139.31624463221453,-0.007633587786259542,-0.0,0.0,166.03179736209373,121.3746552139235,-0.030534351145038167,-0.0,-0.007633587786259542,-29.58653577803127,142.47389572735744,-0.007633587786259542,-0.0,0.015267175572519083,161.50196772978106,116.6402110787277,0.0,0.015267175572519083,0.015267175572519083,0.0,0.0,0.0,0.0,0.0,83.36,82.74,1.0,-3.0,5.0,
0.819,-14.92880168360395,141.53169625264016,-0.007633587786259542,-0.0,0.0,168.8454948151952,123.39980985105522,-0.015267175572519083,-0.0,-0.007633587786259542,-30.10898033248092,144.92445101202114,-0.007633587786259542,-0.0,0.015267175572519083,164.27680235673225,118.64417942377455,0.0,0.015267175572519083,0.015267175572519083,0.0,0.0,0.0,0.0,0.0,84.06,83.26,-2.0,0.0,2.0,
0.857,-15.131823057783425,143.41483013000192,-0.007633587786259542,-0.0,0.0,171.23713765033145,125.12119129261718,-0.015267175572519083,-0.0,-0.007633587786259542,-30.553058203763126,147.00742300398528,-0.007633587786259542,-0.0,0.015267175572519083,166.6352820186484,120.34768228805673,0.015267175572519083,-0.0,0.015267175572519083,0.0,0.0,0.0,0.0,0.0,84.6,83.78,-10.0,2.0,-5.0,
0.896,-15.304391225835978,145.01549392575942,-0.007633587786259542,-0.0,0.0,173.1515285033627,126.47734624825414,0.0,-0.0,0.0,-30.930524394352997,148.7779491971548,-0.007633587786259542,-0.0,0.015267175572519083,168.63998973127715,121.79565972269658,0.015267175572519083,-0.0,0.015267175572519083,0.0,0.0,0.0,0.0,0.0,85.11,84.25,-2.0,0.0,6.0,
0.934,-15.451074168680648,146.3760581521533,-0.007633587786259542,-0.0,0.0,174.9292589937723,127.80041790181184,0.007633587786259542,0.015267175572519083,0.007633587786259542,-31.25137065635439,150.2828964613489,-0.007633587786259542,-0.0,0.015267175572519083,170.34399128701156,123.02644054214046,0.015267175572519083,-0.0,0.015267175572519083,0.0,0.0,0.0,0.0,0.0,85.42,84.63,-1.0,0.0,2.0,
0.971,-15.575754670098618,147.5325377445881,-0.007633587786259542,-0.0,0.0,176.43141418318103,128.88053734104088,-0.007633587786259542,0.022900763358778626,-0.007633587786259542,-31.52408997905557,151.5621016359139,-0.007633587786259542,-0.0,0.015267175572519083,171.79239260938581,124.07260423866776,0.015267175572519083,-0.0,0.015267175572519083,0.0,0.0,0.0,0.0,0.0,85.7,85.01,-7.0,2.0,1.0,
1.01,-15.772359494119222,148.84863619682844,0.0,-0.030534351145038167,0.0,177.70824609417846,129.79863886438557,-0.007633587786259542,0.022900763358778626,-0.007633587786259542,-31.755901403351576,152.64942603429412,-0.007633587786259542,-0.0,0.015267175572519083,173.02353373340392,124.96184338071596,0.015267175572519083,-0.0,0.015267175572519083,0.0,0.0,0.0,0.0,0.0,86.03,85.16,-1.0,0.0,2.0,
1.048,-15.939473594536732,149.96731988123273,0.0,-0.030534351145038167,0.0,178.79355321852628,130.57902515922854,-0.007633587786259542,0.022900763358778626,-0.007633587786259542,-31.98799790207807,153.56760490281016,-0.007633587786259542,-0.022900763358778626,0.0,174.07000368881933,125.71769665145693,0.015267175572519083,-0.0,0.015267175572519083,0.0,0.0,0.0,0.0,0.0,86.26,85.41,-5.0,1.0,0.0,
1.0859999999999999,-16.081520579891617,150.91820101297637,0.0,-0.030534351145038167,0.0,179.76248639206054,131.32522583789643,-0.007633587786259542,0.03816793893129771,0.0,-32.18527992599559,154.34805694104878,-0.007633587786259542,-0.022900763358778626,0.0,174.95950315092242,126.36017193158676,0.015267175572519083,-0.0,0.015267175572519083,0.0,0.0,0.0,0.0,0.0,86.45,85.62,-5.0,2.0,-1.0,
1.123,-16.202260517443268,151.72644997495846,0.0,-0.030534351145038167,0.0,180.54389898622674,131.9108647944401,-0.015267175572519083,0.03816793893129771,-0.007633587786259542,-32.35296964632548,155.01144117355162,-0.007633587786259542,-0.022900763358778626,0.0,175.71557769371006,126.90627591969711,0.015267175572519083,-0.0,0.015267175572519083,0.0,0.0,0.0,0.0,0.0,86.69,85.81,0.0,-3.0,4.0,
1.161,-16.304889464362173,152.41346159264324,0.0,-0.030534351145038167,0.0,181.25813364464955,132.43248858556294,-0.007633587786259542,0.04580152671755725,0.007633587786259542,-32.495505908605885,155.57531777117902,-0.007633587786259542,-0.022900763358778626,0.0,176.35824105507953,127.3704643095909,0.015267175572519083,-0.0,0.015267175572519083,0.0,0.0,0.0,0.0,0.0,86.84,86.0,-6.0,2.0,-1.0,
1.1989999999999998,-16.40899254534543,152.97717695876904,0.0,-0.030534351145038167,0.0,181.86523310430894,132.87586880801734,-0.007633587786259542,0.04580152671755725,0.007633587786259542,-32.61666173154423,156.0546128791623,-0.007633587786259542,-0.022900763358778626,0.0,176.9045049122436,127.76502444100063,0.015267175572519083,-0.0,0.015267175572519083,0.0,0.0,0.0,0.0,0.0,86.87,86.05,-4.0,0.0,0.0,
1.237,-16.492905248266403,153.43254805340243,0.0,-0.022900763358778626,0.015267175572519083,182.38126764501942,133.25274199710358,-0.007633587786259542,0.04580152671755725,0.007633587786259542,-32.71964418104182,156.4620137209481,-0.007633587786259542,-0.022900763358778626,0.0,177.36882919083305,128.1004005526989,0.015267175572519083,-0.0,0.015267175572519083,0.0,0.0,0.0,0.0,0.0,87.21,86.08,0.0,-1.0,1.0,
1.275,-16.604490866052142,153.75724025694177,-0.007633587786259542,-0.022900763358778626,0.007633587786259542,182.81989700462333,133.5730842078269,-0.007633587786259542,0.04580152671755725,0.007633587786259542,-32.807179263114776,156.80830443646605,-0.007633587786259542,-0.022900763358778626,0.0,177.76350482763408,128.38547024764242,0.015267175572519083,-0.0,0.015267175572519083,0.0,0.0,0.0,0.0,0.0,87.15,86.26,-7.0,1.0,-5.0,
1.313,-16.69933864117002,154.03322862995023,-0.007633587786259542,-0.022900763358778626,0.007633587786259542,183.25828083654525,133.94905775040607,0.0,0.015267175572519083,0.0,-32.881584082876785,157.10265154465628,-0.007633587786259542,-0.022900763358778626,0.0,178.09897911891497,128.6277794883444,0.015267175572519083,-0.0,0.015267175572519083,0.0,0.0,0.0,0.0,0.0,87.08,86.53,-7.0,3.0,0.0,
1.351,-16.779959250020216,154.26781874700742,-0.007633587786259542,-0.022900763358778626,0.007633587786259542,183.6309070936789,134.26863526159838,0.0,0.015267175572519083,0.0,-32.89007061563634,157.26040246039545,-0.007633587786259542,-0.015267175572519083,-0.007633587786259542,178.3841322665037,128.8337423429411,0.015267175572519083,-0.0,0.015267175572519083,0.0,0.0,0.0,0.0,0.0,87.23,86.64,0.0,-2.0,4.0,
1.389,-16.918767928667606,154.52642536927266,0.0,-0.0,0.0,183.9476394122425,134.54027614611184,0.0,0.015267175572519083,0.0,-32.89728416848196,157.39449073877375,-0.007633587786259542,-0.015267175572519083,-0.007633587786259542,178.62651244195416,129.0088107693483,0.015267175572519083,-0.0,0.015267175572519083,0.0,0.0,0.0,0.0,0.0,87.35,86.56,-2.0,0.0,0.0,
1.427,-17.036755305517886,154.7462409981981,0.0,-0.0,0.0,184.1481471365859,134.6953526030988,-0.022900763358778626,-0.0,0.0,-32.90341568840074,157.5084657753953,-0.007633587786259542,-0.015267175572519083,-0.007633587786259542,178.83253559108704,129.1576189317944,0.015267175572519083,-0.0,0.015267175572519083,0.0,0.0,0.0,0.0,0.0,87.49,86.54,-10.0,4.0,-5.0,
1.464,-17.137044575840626,154.9330842827847,0.0,-0.0,0.0,184.3185787022778,134.82716759153772,-0.022900763358778626,-0.0,0.0,-32.9086274803317,157.60534455652362,-0.007633587786259542,-0.015267175572519083,-0.007633587786259542,179.0075903823538,129.28397609888123,0.0,-0.007633587786259542,0.007633587786259542,0.0,0.0,0.0,0.0,0.0,87.29,86.53,-3.0,1.0,0.0,
1.502,-17.222290455614957,155.09190107468334,0.0,-0.0,0.0,184.47061574552498,134.9215656640055,0.0,-0.0,0.0,-32.91305750347302,157.68769152048267,-0.007633587786259542,-0.015267175572519083,-0.007633587786259542,179.15638695493055,129.39137969090504,0.0,-0.007633587786259542,0.007633587786259542,0.0,0.0,0.0,0.0,0.0,87.24,86.8,-4.0,0.0,1.0,
1.54,-17.294749453423137,155.22689534779718,0.0,-0.0,0.0,184.5998472322851,135.00180402560312,0.0,-0.0,0.0,-32.91682302314314,157.75768643984787,-0.007633587786259542,-0.015267175572519083,-0.007633587786259542,179.28292892711696,129.48273762962145,0.007633587786259542,-0.0,0.030534351145038167,0.0,0.0,0.0,0.0,0.0,87.48,86.8,-2.0,2.0,4.0,
1.578,-17.263424201695166,155.38865720181028,0.0,-0.015267175572519083,-0.022900763358778626,184.70969399603118,135.07000663296108,0.0,-0.0,0.0,-32.920023714862744,157.8171821213083,-0.007633587786259542,-0.015267175572519083,-0.007633587786259542,179.3904896034754,129.5603918775304,0.007633587786259542,-0.0,0.030534351145038167,0.0,0.0,0.0,0.0,0.0,87.74,86.41,-1.0,-5.0,-2.0,
1.616,-17.23679773772639,155.5261547777214,0.0,-0.015267175572519083,-0.022900763358778626,184.78680090830446,135.12261338802088,0.0,0.015267175572519083,0.007633587786259542,-32.922744302824405,157.86775345054966,-0.007633587786259542,-0.015267175572519083,-0.007633587786259542,179.4819161783801,129.62639798825302,0.007633587786259542,-0.0,0.030534351145038167,0.0,0.0,0.0,0.0,0.0,87.39,86.5,-11.0,9.0,-7.0,
1.654,-17.256105472663247,155.76025796595673,0.0,-0.015267175572519083,0.007633587786259542,184.85234178373673,135.1673291298217,0.0,0.015267175572519083,0.007633587786259542,-32.92505680259182,157.91073908040482,-0.007633587786259542,-0.015267175572519083,-0.007633587786259542,179.55962876704908,129.6825031823672,0.007633587786259542,-0.0,0.030534351145038167,0.0,0.0,0.0,0.0,0.0,87.31,86.89,-7.0,8.0,-1.0,
1.692,-17.272517047359575,155.95924567595677,0.0,-0.015267175572519083,0.007633587786259542,185.15725580804775,135.4564683470287,-0.007633587786259542,0.022900763358778626,0.022900763358778626,-32.92702242739412,157.9472768657817,-0.007633587786259542,-0.015267175572519083,-0.007633587786259542,179.6256844674177,129.7301925973643,0.007633587786259542,-0.0,0.030534351145038167,0.0,0.0,0.0,0.0,0.0,87.28,86.9,8.0,-2.0,8.0,
1.73,-17.286466885851453,156.1283852294568,0.0,-0.015267175572519083,0.007633587786259542,185.41643272871212,135.70223668165465,-0.007633587786259542,0.022900763358778626,0.022900763358778626,-32.928693208476076,157.97833398335206,-0.007633587786259542,-0.015267175572519083,-0.007633587786259542,179.6819615837234,129.77059882911948,-0.007633587786259542,0.015267175572519083,0.0,0.0,0.0,0.0,0.0,0.0,87.63,86.78,0.0,-6.0,15.0,
1.769,-17.29832424856955,156.2721538499318,0.0,-0.015267175572519083,0.007633587786259542,185.63673311127684,135.9111397660867,-0.007633587786259542,0.022900763358778626,0.022900763358778626,-32.82437556015615,157.96179634886053,0.0,-0.022900763358778626,-0.015267175572519083,179.72979713258326,129.80494412611137,-0.007633587786259542,0.015267175572519083,0.0,0.0,0.0,0.0,0.0,0.0,87.77,86.75,-12.0,3.0,-11.0,
1.806,-17.177304575423854,156.23602640943724,0.0,-0.0,0.022900763358778626,185.82398843645686,136.08870738785396,-0.007633587786259542,0.022900763358778626,0.022900763358778626,-32.73570555908421,157.94773935954274,0.0,-0.022900763358778626,-0.015267175572519083,179.77045734911414,129.8341376285545,-0.007633587786259542,0.015267175572519083,0.0,0.0,0.0,0.0,0.0,0.0,87.77,86.84,-7.0,0.0,1.0,
1.844,-17.07443785325001,156.20531808501684,0.0,-0.0,0.022900763358778626,185.78217689532042,136.0520183907015,0.007633587786259542,0.030534351145038167,0.022900763358778626,-32.66033605817306,157.93579091862262,0.0,-0.022900763358778626,-0.015267175572519083,179.80501853316537,129.85895210563115,-0.007633587786259542,0.015267175572519083,0.0,0.0,0.0,0.0,0.0,0.0,87.75,86.93,1.0,0.0,3.0,
1.882,-16.987001139402246,156.1792160092595,0.0,-0.0,0.022900763358778626,185.74663708535442,136.02083274312193,0.007633587786259542,0.030534351145038167,0.022900763358778626,-32.596271982398584,157.9256347438405,0.0,-0.022900763358778626,-0.015267175572519083,179.83439553960892,129.88017418213866,0.007633587786259542,0.015267175572519083,0.0,0.0,0.0,0.0,0.0,0.0,87.6,86.98,-4.0,-1.0,4.0,
1.921,-17.11156752499933,156.29453535420308,0.0,-0.04580152671755725,-0.015267175572519083,185.71642824688334,135.99432494267927,0.007633587786259542,0.030534351145038167,0.022900763358778626,-32.54181751799028,157.9170019952757,0.0,-0.022900763358778626,-0.015267175572519083,179.85936599508594,129.89821294717,0.007633587786259542,0.015267175572519083,0.0,0.0,0.0,0.0,0.0,0.0,87.79,86.91,-4.0,3.0,2.0,
1.959,-17.21744895275685,156.39255679740512,0.0,-0.04580152671755725,-0.015267175572519083,185.69075073418293,135.97179331230302,0.007633587786259542,0.030534351145038167,0.022900763358778626,-32.741641821998,158.00178743576953,-0.007633587786259542,-0.007633587786259542,0.022900763358778626,179.88059088224142,129.91354589744668,0.007633587786259542,0.015267175572519083,0.0,0.0,0.0,0.0,0.0,0.0,87.94,86.84,-2.0,-3.0,1.0,
1.997,-17.204517200218987,156.28765546893274,0.0,-0.030534351145038167,0.0,185.66892484838758,135.9526414264832,0.007633587786259542,0.030534351145038167,0.022900763358778626,-32.91149248040456,158.0738550601893,-0.007633587786259542,-0.007633587786259542,0.022900763358778626,179.89863203632356,129.92657890518183,0.007633587786259542,0.015267175572519083,0.0,0.0,0.0,0.0,0.0,0.0,87.82,87.01,-11.0,4.0,-3.0,
2.035,-17.256716993346032,156.408716950997,0.007633587786259542,-0.05343511450381679,0.0,185.6503728454615,135.93636232353637,0.007633587786259542,0.030534351145038167,0.022900763358778626,-33.055865540050135,158.1351125409461,-0.007633587786259542,-0.007633587786259542,0.022900763358778626,179.9139670172934,129.93765696175672,0.007633587786259542,0.015267175572519083,0.0,0.0,0.0,0.0,0.0,0.0,87.78,86.98,-2.0,5.0,5.0,
2.073,-17.30108681750402,156.5116192107516,0.007633587786259542,-0.05343511450381679,0.0,185.63460364297435,135.92252508603156,0.007633587786259542,0.030534351145038167,0.022900763358778626,-33.04727134583003,158.13795019543394,-0.007633587786259542,-0.03816793893129771,0.0,179.92700175111776,129.9470733098454,0.007633587786259542,0.015267175572519083,0.0,0.0,0.0,0.0,0.0,0.0,87.84,87.01,1.0,0.0,3.0,
2.1109999999999998,-17.338801168038312,156.59908613154303,0.007633587786259542,-0.05343511450381679,0.0,185.62119982086028,135.91076343415247,0.007633587786259542,0.030534351145038167,0.022900763358778626,-33.22022185553989,158.19420980890865,0.0,-0.03816793893129771,0.022900763358778626,179.93808127486847,129.95507720572076,0.007633587786259542,0.015267175572519083,0.0,0.0,0.0,0.0,0.0,0.0,87.71,86.92,-6.0,0.0,2.0,
2.149,-17.37085836599246,156.67343301421573,0.007633587786259542,-0.05343511450381679,0.0,185.7633600418105,136.02132644644365,-0.007633587786259542,0.022900763358778626,0.0,-33.367229788793274,158.24203048036216,0.0,-0.03816793893129771,0.022900763358778626,179.94749887005656,129.9618805172148,0.007633587786259542,0.015267175572519083,0.0,0.0,0.0,0.0,0.0,0.0,87.91,86.84,-7.0,1.0,-4.0,
2.186,-17.398106984253488,156.73662786448753,0.007633587786259542,-0.05343511450381679,0.0,185.88419622961817,136.11530500689116,-0.007633587786259542,0.022900763358778626,0.0,-33.50414979595161,158.2954942514032,-0.015267175572519083,-0.0,0.04580152671755725,179.95550382596645,129.96766333198474,0.007633587786259542,0.015267175572519083,0.0,0.0,0.0,0.0,0.0,0.0,87.92,86.89,-4.0,0.0,0.0,
2.224,-17.42126830977536,156.79034348721856,0.007633587786259542,-0.05343511450381679,0.0,185.9869069892547,136.19518678327154,-0.007633587786259542,0.022900763358778626,0.0,-33.6205318020362,158.34093845678808,-0.015267175572519083,-0.0,0.04580152671755725,179.962372923986,129.9726436100354,0.015267175572519083,0.022900763358778626,0.030534351145038167,0.0,0.0,0.0,0.0,0.0,87.83,86.94,-6.0,3.0,-3.0,
2.262,-17.44095543646895,156.83600176653994,0.007633587786259542,-0.05343511450381679,0.0,186.07421113494573,136.26308629319487,-0.007633587786259542,0.022900763358778626,0.0,-33.71945650720809,158.37956603136524,-0.015267175572519083,-0.0,0.04580152671755725,179.96814677180646,129.97687684637845,0.015267175572519083,0.015267175572519083,0.030534351145038167,0.0,0.0,0.0,0.0,0.0,87.82,87.01,-2.0,0.0,1.0,
2.301,-17.4576894941585,156.8748113039631,0.007633587786259542,-0.05343511450381679,0.0,186.24581612621367,136.41724415568748,-0.007633587786259542,0.015267175572519083,0.007633587786259542,-33.8035425066042,158.41239946975583,-0.015267175572519083,-0.0,0.04580152671755725,179.97305454245387,129.98047509727004,0.015267175572519083,0.015267175572519083,0.030534351145038167,0.0,0.0,0.0,0.0,0.0,87.95,87.02,-1.0,-1.0,0.0,
2.339,-17.624139394221544,156.86461969961388,0.0,-0.015267175572519083,-0.007633587786259542,186.3916803687914,136.5482783388062,-0.007633587786259542,0.015267175572519083,0.007633587786259542,-33.8750156060909,158.44030789238784,-0.015267175572519083,-0.0,0.04580152671755725,179.97722614750415,129.9835336105279,0.015267175572519083,0.015267175572519083,0.030534351145038167,0.0,0.0,0.0,0.0,0.0,87.9,86.99,-9.0,0.0,-5.0,
2.377,-17.68572622417105,156.8813813718462,-0.007633587786259542,-0.007633587786259542,-0.007633587786259542,186.5156649749825,136.6596573944571,-0.007633587786259542,0.015267175572519083,0.007633587786259542,-33.93576774065459,158.46403005162503,-0.015267175572519083,-0.0,0.04580152671755725,179.9807720117969,129.9861333467971,0.015267175572519083,0.015267175572519083,0.030534351145038167,0.0,0.0,0.0,0.0,0.0,87.88,87.02,-6.0,2.0,-1.0,
2.416,-17.738075029628128,156.89562879324367,-0.007633587786259542,-0.007633587786259542,-0.007633587786259542,186.62105189024493,136.75432959176038,-0.007633587786259542,0.015267175572519083,0.007633587786259542,-34.01020046953264,158.50545465464177,-0.015267175572519083,-0.0,0.007633587786259542,179.9837859964457,129.9883431226259,0.015267175572519083,0.015267175572519083,0.030534351145038167,0.0,0.0,0.0,0.0,0.0,88.0,87.03,0.0,0.0,-1.0,
2.454,-17.782571514266646,156.90773910143153,-0.007633587786259542,-0.007633587786259542,-0.007633587786259542,186.71063076821798,136.83480095946817,-0.007633587786259542,0.015267175572519083,0.007633587786259542,-33.972101891906156,158.42438815573684,-0.007633587786259542,-0.0,-0.007633587786259542,179.9863478833972,129.99022143208038,0.015267175572519083,0.015267175572519083,0.030534351145038167,0.0,0.0,0.0,0.0,0.0,87.91,87.08,-6.0,-1.0,0.0,
2.493,-17.820393526209386,156.9180328633912,-0.007633587786259542,-0.007633587786259542,-0.007633587786259542,186.7867728144951,136.9032016220198,-0.007633587786259542,0.015267175572519083,0.007633587786259542,-33.89546851364196,158.33307736192836,-0.007633587786259542,-0.0,-0.022900763358778626,179.988525487306,129.99181799511666,0.015267175572519083,0.015267175572519083,0.030534351145038167,0.0,0.0,0.0,0.0,0.0,88.0,86.9,-6.0,2.0,-3.0,
2.53,-17.85809209315889,156.85838887581852,0.0,-0.0,0.007633587786259542,186.85149355383064,136.96134218518867,-0.007633587786259542,0.015267175572519083,0.007633587786259542,-33.83033014211739,158.25546318719117,-0.007633587786259542,-0.0,-0.022900763358778626,179.99037645062845,129.99317507369753,0.015267175572519083,0.015267175572519083,0.030534351145038167,0.0,0.0,0.0,0.0,0.0,88.07,86.92,-2.0,0.0,-3.0,
2.568,-17.890135875065972,156.80769148638174,0.0,-0.0,0.007633587786259542,186.90650618226584,137.0107616638822,-0.007633587786259542,0.015267175572519083,0.007633587786259542,-33.956952567411975,158.2575805653285,-0.007633587786259542,0.022900763358778626,-0.015267175572519083,179.99194976945253,129.99432859049125,0.015267175572519083,0.015267175572519083,0.030534351145038167,0.0,0.0,0.0,0.0,0.0,87.87,86.98,-8.0,1.0,-2.0,
2.607,-17.91737308968699,156.7645987053605,0.0,-0.0,0.007633587786259542,186.95326691643578,137.0527682207717,-0.007633587786259542,0.015267175572519083,0.007633587786259542,-34.06458162891237,158.25938033674524,-0.007633587786259542,0.022900763358778626,-0.015267175572519083,179.99315731946064,129.99517930877357,0.0,-0.0,0.022900763358778626,0.0,0.0,0.0,0.0,0.0,87.9,86.99,-2.0,1.0,0.0,
2.645,-17.940524722114855,156.72796984149244,0.0,-0.0,0.007633587786259542,186.9930135404802,137.08847379412776,-0.007633587786259542,0.015267175572519083,0.007633587786259542,-34.15606633118771,158.26091014244946,-0.007633587786259542,0.022900763358778626,-0.015267175572519083,179.99424862246372,129.9959673048097,0.007633587786259542,0.007633587786259542,0.022900763358778626,0.0,0.0,0.0,0.0,0.0,87.86,87.13,-2.0,1.0,0.0,
2.683,-17.96020360967854,156.69683530720457,0.0,-0.0,0.007633587786259542,186.95826423317476,137.067220140314,-0.007633587786259542,0.007633587786259542,0.015267175572519083,-34.233828328121746,158.26221047729805,-0.007633587786259542,0.022900763358778626,-0.015267175572519083,179.9951762300163,129.99663710144043,0.007633587786259542,0.007633587786259542,0.022900763358778626,0.0,0.0,0.0,0.0,0.0,87.88,87.02,-9.0,1.0,-2.0,
2.722,-17.94604371233876,156.6744037472579,0.0,-0.0,0.0,186.92872732196514,137.04915453457227,-0.007633587786259542,0.007633587786259542,0.015267175572519083,-34.299926025515674,158.26331576191936,-0.007633587786259542,0.022900763358778626,-0.015267175572519083,179.99596469643603,129.99720642857653,0.007633587786259542,0.007633587786259542,0.022900763358778626,0.0,0.0,0.0,0.0,0.0,88.06,86.93,-5.0,-2.0,-4.0,
2.76,-17.934007799599947,156.65533692130325,0.0,-0.0,0.0,186.90362094743696,137.0337987696918,-0.007633587786259542,0.007633587786259542,0.015267175572519083,-34.35610906830051,158.26425525384747,-0.007633587786259542,0.022900763358778626,-0.015267175572519083,179.99657000739663,129.99762547114605,0.0,-0.0,0.0,0.0,0.0,0.0,0.0,0.0,87.93,86.87,-5.0,2.0,-2.0,
2.799,-17.950098606820934,156.67260393880895,-0.007633587786259542,-0.007633587786259542,0.0,186.882280529088,137.02074636954342,-0.007633587786259542,0.007633587786259542,0.015267175572519083,-34.40386465466763,158.26505382198636,-0.007633587786259542,0.022900763358778626,-0.015267175572519083,179.99708452171313,129.99798165733014,0.0,-0.0,0.0,0.0,0.0,0.0,0.0,0.0,88.04,86.85,-5.0,3.0,-9.0,
2.837,-17.963775792958774,156.6872809036888,-0.007633587786259542,-0.007633587786259542,0.0,186.81352391723144,136.96175576925404,-0.007633587786259542,0.007633587786259542,0.015267175572519083,-34.444456903079676,158.26573260490443,-0.007633587786259542,0.022900763358778626,-0.015267175572519083,179.99752185888215,129.99828441558662,0.0,-0.0,0.0,0.0,0.0,0.0,0.0,0.0,88.04,86.9,-2.0,-2.0,-5.0,
2.876,-17.975401401175937,156.69975632383665,-0.007633587786259542,-0.007633587786259542,0.0,186.75508079715334,136.91161375900808,-0.007633587786259542,0.007633587786259542,0.015267175572519083,-34.460855515272364,158.27492315181672,-0.007633587786259542,-0.022900763358778626,-0.022900763358778626,179.99789359547583,129.99854176010462,0.0,-0.0,0.0,0.0,0.0,0.0,0.0,0.0,88.04,86.74,-1.0,-8.0,-3.0,
2.913,-17.985283168160528,156.71036043096234,-0.007633587786259542,-0.007633587786259542,0.0,186.68248031150637,136.8334366860259,-0.022900763358778626,-0.0,0.022900763358778626,-34.474794335636155,158.28273511669218,-0.007633587786259542,-0.022900763358778626,-0.022900763358778626,179.99820957158045,129.99876050294492,0.0,-0.0,0.0,0.0,0.0,0.0,0.0,0.0,87.38,86.29,-5.0,-6.0,-8.0,
2.952,-17.993682670097428,156.71937392201917,-0.007633587786259542,-0.007633587786259542,0.0,186.62076989870644,136.76698617399103,-0.022900763358778626,-0.0,0.022900763358778626,-34.48664233294537,158.2893752868363,-0.007633587786259542,-0.022900763358778626,-0.022900763358778626,179.99938654821594,129.99894643435917,0.0,0.10687022900763359,0.007633587786259542,0.0,0.0,0.0,0.0,0.0,87.27,86.78,-18.0,1.0,-43.0,
2.99,-18.000822246743795,156.7270353894175,-0.007633587786259542,-0.007633587786259542,0.0,186.62495120795637,136.83002671927363,-0.03816793893129771,-0.0,0.11450381679389313,-34.49671313065821,158.29501943145883,-0.007633587786259542,-0.022900763358778626,-0.022900763358778626,180.0003869783561,129.9991044760613,0.0,0.10687022900763359,0.007633587786259542,0.0,0.0,0.0,0.0,0.0,86.28,87.15,-27.0,14.0,-11.0,
3.029,-18.006890886893206,156.73354763670605,-0.007633587786259542,-0.007633587786259542,0.0,186.62850532081882,136.88361118276384,-0.03816793893129771,-0.0,0.11450381679389313,-34.65247577368058,158.2385071064488,0.2366412213740458,-0.6030534351145038,0.07633587786259542,180.00123734397522,129.9992388115081,0.0,0.10687022900763359,0.007633587786259542,0.0,0.0,0.0,0.0,0.0,87.08,86.62,-18.0,4.0,-18.0,
3.068,-18.012049231020207,156.73908304690133,-0.007633587786259542,-0.007633587786259542,0.0,186.61072069541194,136.97511565333267,-0.12213740458015267,-0.05343511450381679,0.22900763358778625,-34.78487402024959,158.19047163019027,0.2366412213740458,-0.6030534351145038,0.07633587786259542,180.0019601547515,129.99935299663787,0.0,0.10687022900763359,0.007633587786259542,0.0,0.0,0.0,0.0,0.0,87.48,86.41,-4.0,-6.0,-6.0,
3.107,-18.016433823528157,156.74378814556732,-0.007633587786259542,-0.007633587786259542,0.0,186.5956037638161,137.05289445331618,-0.12213740458015267,-0.05343511450381679,0.22900763358778625,-36.70135338039808,158.48417272566994,0.48091603053435117,-1.0763358778625953,0.5801526717557252,180.00257454391132,129.9994500539982,0.0,0.10687022900763359,0.007633587786259542,0.0,0.0,0.0,0.0,0.0,87.85,86.5,18.0,-28.0,19.0,
3.146,-17.615778150268277,156.59389191850306,-0.20610687022900764,0.3816793893129771,-0.1297709923664122,186.58275437195962,137.11900643330216,-0.12213740458015267,-0.05343511450381679,0.22900763358778625,-38.33036083652431,158.73381865682765,0.48091603053435117,-1.0763358778625953,0.5801526717557252,180.00309677469718,129.9995325527545,0.0,0.10687022900763359,0.007633587786259542,0.0,0.0,0.0,0.0,0.0,87.21,86.88,19.0,-21.0,24.0,
3.185,-17.07246796574927,156.46038295051585,-0.15267175572519084,0.20610687022900764,-0.25190839694656486,186.57183238888163,137.17520161629025,-0.12213740458015267,-0.05343511450381679,0.22900763358778625,-39.71501717423159,158.9460176983117,0.48091603053435117,-1.0763358778625953,0.5801526717557252,180.00354067086516,129.9996026766973,0.0,0.10687022900763359,0.007633587786259542,0.0,0.0,0.0,0.0,0.0,86.24,86.95,10.0,5.0,-2.0,
3.224,-16.61065430890811,156.34690032772673,-0.15267175572519084,0.20610687022900764,-0.25190839694656486,186.4206699363617,136.9899894417918,-0.0916030534351145,-0.11450381679389313,0.022900763358778626,-40.891975061282785,159.12638688357313,0.48091603053435117,-1.0763358778625953,0.5801526717557252,180.00391798260793,129.9996622820487,0.0,0.10687022900763359,0.007633587786259542,0.0,0.0,0.0,0.0,0.0,85.7,87.43,-3.0,1.0,6.0,
3.263,-16.0308027365226,156.9214221818692,0.0,-0.007633587786259542,-0.16793893129770993,186.29218185171973,136.83255909346812,-0.0916030534351145,-0.11450381679389313,0.022900763358778626,-41.8923892652763,159.27970069104535,0.48091603053435117,-1.0763358778625953,0.5801526717557252,180.0042386975893,129.99971294659738,0.0,0.10687022900763359,0.007633587786259542,0.0,0.0,0.0,0.0,0.0,85.56,87.45,0.0,-3.0,17.0,
3.302,-15.537928899994915,157.40976575789028,0.0,-0.007633587786259542,-0.16793893129770993,185.4297651973372,135.9142287563716,-0.08396946564885496,-0.10687022900763359,-0.06870229007633588,-42.74274133867079,159.41001742739675,0.48091603053435117,-1.0763358778625953,0.5801526717557252,180.00451130532346,129.99975601146377,0.0,0.10687022900763359,0.007633587786259542,0.0,0.0,0.0,0.0,0.0,85.47,87.58,-3.0,6.0,6.0,
3.34,-15.118986138946383,157.8248577975082,0.0,-0.007633587786259542,-0.16793893129770993,184.51754549686146,134.9093041980763,0.007633587786259542,-0.22900763358778625,-0.007633587786259542,-43.465540601056105,159.52078665329543,0.48091603053435117,-1.0763358778625953,0.5801526717557252,180.0047430218975,129.9997926166002,0.0,0.10687022900763359,0.007633587786259542,0.0,0.0,0.0,0.0,0.0,85.58,87.62,-4.0,8.0,10.0,
3.378,-14.280916035988467,157.16650137614386,0.015267175572519083,-0.015267175572519083,0.04580152671755725,183.74215875145708,134.05511832352528,0.007633587786259542,-0.22900763358778625,-0.007633587786259542,-44.07991997408362,159.6149404953093,0.48091603053435117,-1.0763358778625953,0.5801526717557252,180.00493998098543,129.99982373096617,0.0,0.10687022900763359,0.007633587786259542,0.0,0.0,0.0,0.0,0.0,85.66,87.74,-3.0,5.0,14.0,
3.417,-13.568556448474236,156.60689841798416,0.015267175572519083,-0.015267175572519083,0.04580152671755725,183.08308001786335,133.32906033015692,0.007633587786259542,-0.22900763358778625,-0.007633587786259542,-46.929834677214444,159.92005486757546,0.061068702290076333,-0.45038167938931295,0.3435114503816794,180.00510739621018,129.99985017817724,0.0,0.10687022900763359,0.007633587786259542,0.0,0.0,0.0,0.0,0.0,85.82,87.73,-5.0,24.0,12.0,
3.455,-12.963050799087142,156.1312359035484,0.015267175572519083,-0.015267175572519083,0.04580152671755725,182.5228630943087,132.7119110357938,0.007633587786259542,-0.22900763358778625,-0.007633587786259542,-49.35226217487565,160.1794020840017,0.061068702290076333,-0.45038167938931295,0.3435114503816794,180.00901305792982,129.99954823082572,-0.03816793893129771,0.549618320610687,0.0,0.0,0.0,0.0,0.0,0.0,86.25,87.75,-24.0,39.0,-8.0,
3.493,-12.448370997108112,155.72692276627802,0.015267175572519083,-0.015267175572519083,0.04580152671755725,182.3937984704022,132.60288662080526,0.015267175572519083,0.16793893129770993,-0.05343511450381679,-51.41132554788767,160.399847217964,0.061068702290076333,-0.45038167938931295,0.3435114503816794,180.01233287039153,129.99929157557693,-0.03816793893129771,0.549618320610687,0.0,0.0,0.0,0.0,0.0,0.0,86.75,87.29,-13.0,32.0,3.0,
3.531,-12.010893165425935,155.38325659959818,0.015267175572519083,-0.015267175572519083,0.04580152671755725,182.28409354008167,132.51021586806502,0.015267175572519083,0.16793893129770993,-0.05343511450381679,-54.790187437709555,160.49180572734758,0.030534351145038167,-0.26717557251908397,0.09923664122137404,180.01515471098398,129.99907341861547,-0.03816793893129771,0.549618320610687,0.0,0.0,0.0,0.0,0.0,0.0,87.16,86.92,0.0,16.0,4.0,
3.569,-11.639037008496086,155.09114035792032,0.015267175572519083,-0.015267175572519083,0.04580152671755725,182.19084434930923,132.4314457282358,0.015267175572519083,0.16793893129770993,-0.05343511450381679,-56.60620739201087,160.66536213844387,0.007633587786259542,-0.13740458015267176,-0.030534351145038167,180.01755327548756,129.99888798519822,-0.03816793893129771,0.549618320610687,0.0,0.0,0.0,0.0,0.0,0.0,87.71,86.96,-6.0,13.0,3.0,
3.608,-11.322959275105713,154.84284155249415,0.015267175572519083,-0.015267175572519083,0.04580152671755725,182.11158253715266,132.36449110938096,0.015267175572519083,0.16793893129770993,-0.05343511450381679,-58.56700960625462,160.99213128041936,0.022900763358778626,-0.20610687022900764,0.1450381679389313,180.0195920553156,129.99873036679358,-0.03816793893129771,0.549618320610687,0.0,0.0,0.0,0.0,0.0,0.0,88.41,87.16,-18.0,24.0,-2.0,
3.646,-11.054293201723898,154.6317875678819,0.015267175572519083,-0.015267175572519083,0.04580152671755725,182.04420999681957,132.30757968335436,0.015267175572519083,0.16793893129770993,-0.05343511450381679,-60.233691488361806,161.26988505109853,0.022900763358778626,-0.20610687022900764,0.1450381679389313,180.01983265175724,129.99885593313437,-0.007633587786259542,0.37404580152671757,-0.15267175572519084,0.0,0.0,0.0,0.0,0.0,89.4,87.06,-18.0,36.0,-8.0,
3.685,-10.825927039349354,154.45239168096148,0.015267175572519083,-0.015267175572519083,0.04580152671755725,181.98694333753645,132.25920497123175,0.015267175572519083,0.16793893129770993,-0.05343511450381679,-61.650371088152916,161.50597575617581,0.022900763358778626,-0.20610687022900764,0.1450381679389313,180.02003715873263,129.99896266452402,-0.007633587786259542,0.37404580152671757,-0.15267175572519084,0.0,0.0,0.0,0.0,0.0,90.29,86.81,-8.0,32.0,-1.0,
3.722,-10.631815801330992,154.29990517707913,0.015267175572519083,-0.015267175572519083,0.04580152671755725,181.93826667714578,132.2180864659275,0.015267175572519083,0.16793893129770993,-0.05343511450381679,-62.85454874797536,161.70665285549154,0.022900763358778626,-0.20610687022900764,0.1450381679389313,180.02008121866933,129.99931292818997,0.022900763358778626,0.35877862595419846,-0.08396946564885496,0.0,0.0,0.0,0.0,0.0,91.61,86.55,-13.0,27.0,-1.0,
3.761,-11.269257067604192,154.74949593558347,0.09923664122137404,-0.21374045801526717,0.06870229007633588,181.8968915158137,132.18313573641893,0.015267175572519083,0.16793893129770993,-0.05343511450381679,-63.87809975882443,161.87722838990987,0.022900763358778626,-0.20610687022900764,0.1450381679389313,180.02011866961553,129.999610652306,0.022900763358778626,0.35877862595419846,-0.08396946564885496,0.0,0.0,0.0,0.0,0.0,92.3,85.92,-15.0,33.0,2.0,
3.8,-11.811082143936412,155.13164808031217,0.09923664122137404,-0.21374045801526717,0.06870229007633588,182.4880976830358,133.0619258204613,0.0,0.08396946564885496,0.0,-64.74811811804615,162.02221759416545,0.022900763358778626,-0.20610687022900764,0.1450381679389313,180.0201505029198,129.99986371780463,0.022900763358778626,0.35877862595419846,-0.08396946564885496,0.0,0.0,0.0,0.0,0.0,93.38,85.52,-22.0,43.0,-11.0,
3.838,-12.2716334588188,155.45647740333158,0.09923664122137404,-0.21374045801526717,0.06870229007633588,183.15115136780895,133.85578735008954,0.030534351145038167,0.015267175572519083,-0.09923664122137404,-65.4876337233846,162.14545841778272,0.022900763358778626,-0.20610687022900764,0.1450381679389313,180.02017756122842,130.00007882347847,0.022900763358778626,0.35877862595419846,-0.08396946564885496,0.0,0.0,0.0,0.0,0.0,94.72,85.0,-23.0,45.0,-5.0,
3.877,-12.663102076468828,155.73258232789806,0.09923664122137404,-0.21374045801526717,0.06870229007633588,183.5780896110017,134.1836586592759,0.06870229007633588,0.030534351145038167,-0.08396946564885496,-66.11622198792229,162.2502131178574,0.022900763358778626,-0.20610687022900764,0.1450381679389313,180.02020056079076,130.00026166330125,0.022900763358778626,0.35877862595419846,-0.08396946564885496,0.0,0.0,0.0,0.0,0.0,96.09,84.85,-21.0,36.0,-11.0,
3.916,-12.995850401471353,155.96727151377956,0.09923664122137404,-0.21374045801526717,0.06870229007633588,184.11058283680723,134.76937151705027,0.061068702290076333,0.05343511450381679,-0.022900763358778626,-66.65052201277932,162.33925461292085,0.022900763358778626,-0.20610687022900764,0.1450381679389313,180.02022011041873,130.0004170771506,0.022900763358778626,0.35877862595419846,-0.08396946564885496,0.0,0.0,0.0,0.0,0.0,97.36,84.34,-19.0,41.0,-10.0,
3.955,-13.278686477723499,156.16675732177885,0.09923664122137404,-0.21374045801526717,0.06870229007633588,184.5632020787419,135.2672274461585,0.061068702290076333,0.05343511450381679,-0.022900763358778626,-67.09480312836214,161.8868059282743,-0.2595419847328244,-0.06870229007633588,0.007633587786259542,180.02023672760254,130.00054917892254,0.022900763358778626,0.35877862595419846,-0.08396946564885496,0.0,0.0,0.0,0.0,0.0,98.7,83.81,-19.0,32.0,-8.0,
3.994,-13.519097142537824,156.33632025857824,0.09923664122137404,-0.21374045801526717,0.06870229007633588,184.9479284343864,135.6904049859005,0.061068702290076333,0.05343511450381679,-0.022900763358778626,-68.83337907646025,161.86655794479913,-0.022900763358778626,0.08396946564885496,0.20610687022900764,180.02025085220876,130.0006614654287,0.022900763358778626,0.35877862595419846,-0.08396946564885496,0.0,0.0,0.0,0.0,0.0,99.91,83.59,-16.0,29.0,-8.0,
4.0329999999999995,-13.72344620763,156.48044875485772,0.09923664122137404,-0.21374045801526717,0.06870229007633588,185.2749458366842,136.0501058946812,0.061068702290076333,0.05343511450381679,-0.022900763358778626,-70.31116863234362,161.84934715884526,-0.022900763358778626,0.08396946564885496,0.20610687022900764,180.0173430107958,130.0005622524704,0.0,0.015267175572519083,-0.11450381679389313,0.0,0.0,0.0,0.0,0.0,101.0,83.15,-9.0,22.0,-2.0,
4.072,-13.89714291295835,156.60295797669528,0.09923664122137404,-0.21374045801526717,0.06870229007633588,185.55291062863733,136.35585166714478,0.061068702290076333,0.05343511450381679,-0.022900763358778626,-71.5672897548445,161.83471799078444,-0.022900763358778626,0.08396946564885496,0.20610687022900764,180.01467668910624,130.00067257794439,0.022900763358778626,-0.007633587786259542,-0.05343511450381679,0.0,0.0,0.0,0.0,0.0,102.25,82.87,-9.0,26.0,2.0,
4.109,-14.044785112487446,156.7070908152572,0.09923664122137404,-0.21374045801526717,0.06870229007633588,185.7891807017975,136.61573557373882,0.061068702290076333,0.05343511450381679,-0.022900763358778626,-72.63499270897024,161.82228319793273,-0.022900763358778626,0.08396946564885496,0.20610687022900764,180.01266985765483,130.00076635459726,0.022900763358778626,0.022900763358778626,-0.007633587786259542,0.0,0.0,0.0,0.0,0.0,103.64,82.45,-16.0,31.0,0.0,
4.148,-14.170280982087178,156.79560372803485,0.09923664122137404,-0.21374045801526717,0.06870229007633588,185.99001026398366,136.83663689434377,0.061068702290076333,0.05343511450381679,-0.022900763358778626,-72.96847355417226,161.77105393589778,0.08396946564885496,-0.04580152671755725,0.0,180.01096405092113,130.0008460647522,0.022900763358778626,0.022900763358778626,-0.007633587786259542,0.0,0.0,0.0,0.0,0.0,105.02,81.79,-16.0,29.0,0.0,
4.186999999999999,-14.79058597188405,157.47659132457724,0.030534351145038167,-0.022900763358778626,0.08396946564885496,186.16071539184188,137.02440301685797,0.061068702290076333,0.05343511450381679,-0.022900763358778626,-73.25193227259398,161.72750906316807,0.08396946564885496,-0.04580152671755725,0.0,180.0095141151975,130.00091381838394,0.022900763358778626,0.022900763358778626,-0.007633587786259542,0.0,0.0,0.0,0.0,0.0,106.48,81.14,-12.0,28.0,1.0,
4.225,-15.317845213211392,158.05543078163828,0.030534351145038167,-0.022900763358778626,0.08396946564885496,186.30581475052136,137.18400422099504,0.061068702290076333,0.05343511450381679,-0.022900763358778626,-73.91530128122727,161.72807907609428,0.007633587786259542,-0.03816793893129771,0.022900763358778626,180.0082816698324,130.00097140897088,0.022900763358778626,0.022900763358778626,-0.007633587786259542,0.0,0.0,0.0,0.0,0.0,107.97,80.48,-13.0,25.0,0.0,
4.264,-15.920161296355165,158.1796477051397,0.03816793893129771,-0.061068702290076333,0.05343511450381679,186.42914920539894,137.31966524451155,0.061068702290076333,0.05343511450381679,-0.022900763358778626,-74.47916493856557,161.72856358708154,0.007633587786259542,-0.03816793893129771,0.022900763358778626,180.00723409127207,130.0010203609698,0.022900763358778626,0.022900763358778626,-0.007633587786259542,0.0,0.0,0.0,0.0,0.0,109.18,80.08,-8.0,17.0,2.0,
4.302,-16.51030158825114,158.37398186164586,0.030534351145038167,-0.06870229007633588,0.0,186.53398349204488,137.43497711450058,0.061068702290076333,0.05343511450381679,-0.022900763358778626,-74.95844904730313,161.72897542142073,0.007633587786259542,-0.03816793893129771,0.022900763358778626,180.0063436494958,130.00106197016885,0.022900763358778626,0.022900763358778626,-0.007633587786259542,0.0,0.0,0.0,0.0,0.0,110.21,79.66,-11.0,21.0,2.0,
4.34,-16.92784727108974,158.62295690397153,0.015267175572519083,-0.06870229007633588,-0.022900763358778626,186.62309263569392,137.53299220399126,0.061068702290076333,0.05343511450381679,-0.022900763358778626,-75.36584053973006,161.72932548060905,0.007633587786259542,-0.03816793893129771,0.022900763358778626,180.00558677398595,130.00109733798806,0.022900763358778626,0.022900763358778626,-0.007633587786259542,0.0,0.0,0.0,0.0,0.0,111.29,79.33,-13.0,18.0,-1.0,
4.378,-17.28276110150255,158.83458568994834,0.015267175572519083,-0.06870229007633588,-0.022900763358778626,186.94675910170844,138.02658493200678,0.03816793893129771,0.03816793893129771,-0.0916030534351145,-75.71212330829295,161.7296230309191,0.007633587786259542,-0.03816793893129771,0.022900763358778626,180.0049434298026,130.0011274006344,0.022900763358778626,0.022900763358778626,-0.007633587786259542,0.0,0.0,0.0,0.0,0.0,112.22,79.16,-5.0,12.0,7.0,
4.417,-17.584437857353443,159.01447015802864,0.015267175572519083,-0.06870229007633588,-0.022900763358778626,187.2218755978208,138.44613875081998,0.03816793893129771,0.03816793893129771,-0.0916030534351145,-75.89941471808561,161.7942689912658,0.030534351145038167,-0.0,-0.015267175572519083,180.00439658724676,130.00115295388377,0.022900763358778626,0.022900763358778626,-0.007633587786259542,0.0,0.0,0.0,0.0,0.0,113.0,78.69,-4.0,9.0,1.0,
4.455,-17.8408630998267,159.1673719558969,0.015267175572519083,-0.06870229007633588,-0.022900763358778626,187.4557246195163,138.8027594968112,0.03816793893129771,0.03816793893129771,-0.0916030534351145,-76.02458571465142,161.90440756724374,-0.007633587786259542,-0.022900763358778626,-0.08396946564885496,180.0039317710743,130.00117467414574,0.022900763358778626,0.022900763358778626,-0.007633587786259542,0.0,0.0,0.0,0.0,0.0,113.91,78.14,-8.0,14.0,-4.0,
4.493,-18.058824555928968,159.29733848408492,0.015267175572519083,-0.06870229007633588,-0.022900763358778626,187.71234099894872,138.9732498684786,0.061068702290076333,0.03816793893129771,-0.015267175572519083,-76.13098106173236,161.998025356825,-0.007633587786259542,-0.022900763358778626,-0.08396946564885496,180.00353667732767,130.0011931363684,0.022900763358778626,0.022900763358778626,-0.007633587786259542,0.0,0.0,0.0,0.0,0.0,114.74,77.71,-10.0,12.0,-5.0,
4.531,-18.255593556183467,159.66662807371677,0.0,-0.04580152671755725,0.015267175572519083,187.93046492146624,139.1181666843959,0.061068702290076333,0.03816793893129771,-0.015267175572519083,-76.22141710675115,162.07760047796907,-0.007633587786259542,-0.022900763358778626,-0.08396946564885496,180.00320084764306,130.00120882925768,0.022900763358778626,0.022900763358778626,-0.007633587786259542,0.0,0.0,0.0,0.0,0.0,115.36,77.48,-9.0,12.0,-4.0,
4.57,-18.42284720639979,159.98052422490383,0.0,-0.04580152671755725,0.015267175572519083,188.37177126422904,139.6643871285221,0.0,0.05343511450381679,0.07633587786259542,-76.29828774501712,162.14523933094154,-0.007633587786259542,-0.022900763358778626,-0.08396946564885496,180.00291539241113,130.00122216821356,0.022900763358778626,0.022900763358778626,-0.007633587786259542,0.0,0.0,0.0,0.0,0.0,116.15,77.17,-8.0,8.0,-5.0,
4.608,-18.565012809083665,160.24733595341283,0.0,-0.04580152671755725,0.015267175572519083,188.60803904418015,140.03369145361074,-0.04580152671755725,0.04580152671755725,0.09923664122137404,-76.36362778754321,162.20273235596812,-0.007633587786259542,-0.022900763358778626,-0.08396946564885496,180.002672755464,130.00123350632606,0.022900763358778626,0.022900763358778626,-0.007633587786259542,0.0,0.0,0.0,0.0,0.0,116.87,76.88,-6.0,7.0,0.0,
4.647,-18.73104659841123,160.54097918658712,-0.03816793893129771,-0.03816793893129771,0.015267175572519083,188.80886665713857,140.34760012993607,-0.04580152671755725,0.04580152671755725,0.09923664122137404,-76.41916682369038,162.25160142724073,-0.007633587786259542,-0.022900763358778626,-0.08396946564885496,180.00246651405894,130.0012431437217,0.022900763358778626,0.022900763358778626,-0.007633587786259542,0.0,0.0,0.0,0.0,0.0,117.38,76.84,-7.0,9.0,0.0,
4.685,-18.872175319339657,160.79057593478527,-0.03816793893129771,-0.03816793893129771,0.015267175572519083,189.0545897566297,140.83425790190262,-0.030534351145038167,0.030534351145038167,0.06870229007633588,-76.46637500441547,162.29314013782243,-0.007633587786259542,-0.022900763358778626,-0.08396946564885496,180.00229120886462,130.00125133550796,0.022900763358778626,0.022900763358778626,-0.007633587786259542,0.0,0.0,0.0,0.0,0.0,117.99,76.8,-5.0,6.0,0.0,
4.724,-19.122648586163695,160.71862714302475,0.007633587786259542,-0.0,0.05343511450381679,189.26345439119717,141.24791700807418,-0.030534351145038167,0.030534351145038167,0.06870229007633588,-76.50650195803179,162.32844804181687,-0.007633587786259542,-0.022900763358778626,-0.08396946564885496,180.00214219944945,130.0012582985263,0.022900763358778626,0.022900763358778626,-0.007633587786259542,0.0,0.0,0.0,0.0,0.0,118.45,76.61,-1.0,2.0,5.0,
4.762,-19.38081906069558,160.60929312103346,0.007633587786259542,-0.0,0.030534351145038167,189.44098933057953,141.59952724832002,-0.030534351145038167,0.030534351145038167,0.06870229007633588,-76.54060986860567,162.35845976021216,-0.007633587786259542,-0.022900763358778626,-0.08396946564885496,180.00201554144658,130.0012642170919,0.022900763358778626,0.022900763358778626,-0.007633587786259542,0.0,0.0,0.0,0.0,0.0,118.76,76.37,-4.0,1.0,0.0,
4.801,-19.60026396404768,160.51635920234085,0.007633587786259542,-0.0,0.030534351145038167,189.53825096517238,141.74766424165986,-0.015267175572519083,0.015267175572519083,0.0,-76.56960159259347,162.38396972084814,-0.007633587786259542,-0.022900763358778626,-0.08396946564885496,180.00190788214414,130.00126924787264,0.022900763358778626,0.022900763358778626,-0.007633587786259542,0.0,0.0,0.0,0.0,0.0,119.04,76.17,-5.0,2.0,0.0,
4.839,-19.74585840827851,160.50303345898823,-0.007633587786259542,-0.015267175572519083,-0.007633587786259542,189.62092335457632,141.87358068599875,-0.015267175572519083,0.015267175572519083,0.0,-76.5942445579831,162.40565318738874,-0.007633587786259542,-0.022900763358778626,-0.08396946564885496,180.00181637173705,130.00127352403626,0.022900763358778626,0.022900763358778626,-0.007633587786259542,0.0,0.0,0.0,0.0,0.0,119.2,76.16,-5.0,1.0,-1.0,
4.876,-19.79002669986655,160.4639651502248,-0.007633587786259542,-0.007633587786259542,-0.007633587786259542,189.69119488556967,141.98060966368678,-0.015267175572519083,0.015267175572519083,0.0,-76.6151910785643,162.42408413394824,-0.007633587786259542,-0.022900763358778626,-0.08396946564885496,180.00173858789103,130.00127715877537,0.022900763358778626,0.022900763358778626,-0.007633587786259542,0.0,0.0,0.0,0.0,0.0,119.28,76.24,-4.0,0.0,0.0,
4.915,-19.93077277873024,160.62273503947839,0.015267175572519083,-0.022900763358778626,-0.030534351145038167,189.750925686914,142.07158429472162,-0.015267175572519083,0.015267175572519083,0.0,-76.6329956210583,162.43975043852382,-0.007633587786259542,-0.022900763358778626,-0.08396946564885496,180.0016724716219,130.0012802483036,0.022900763358778626,0.022900763358778626,-0.007633587786259542,0.0,0.0,0.0,0.0,0.0,119.26,76.3,-1.0,-3.0,2.0,
4.954,-20.050406945764376,160.75768944534394,0.015267175572519083,-0.022900763358778626,-0.030534351145038167,189.7990464069938,142.10378191273225,-0.015267175572519083,0.007633587786259542,-0.015267175572519083,-76.6481294821782,162.45306679741304,-0.007633587786259542,-0.022900763358778626,-0.08396946564885496,180.00161627279314,130.0012828744026,0.022900763358778626,0.022900763358778626,-0.007633587786259542,0.0,0.0,0.0,0.0,0.0,119.26,76.26,-1.0,-3.0,1.0,
4.992,-20.15209598774339,160.87240069032964,0.015267175572519083,-0.022900763358778626,-0.030534351145038167,189.84789021141577,142.12617806443512,-0.015267175572519083,-0.0,-0.007633587786259542,-76.66099326413013,162.4643857024689,-0.007633587786259542,-0.022900763358778626,-0.08396946564885496,180.00156850378872,130.00128510658675,0.022900763358778626,0.022900763358778626,-0.007633587786259542,0.0,0.0,0.0,0.0,0.0,119.24,76.11,-4.0,0.0,-2.0,
5.031,-20.238531673425552,160.9699052485675,0.015267175572519083,-0.022900763358778626,-0.030534351145038167,189.88940744517444,142.14521479338256,-0.015267175572519083,-0.0,-0.007633587786259542,-76.75678587825085,162.48217961316206,0.0,-0.0,-0.022900763358778626,180.00152790013493,130.00128700394328,0.022900763358778626,0.022900763358778626,-0.007633587786259542,0.0,0.0,0.0,0.0,0.0,119.27,76.16,-5.0,0.0,-2.0,
5.069,-20.31200200625539,161.05278412306967,0.015267175572519083,-0.022900763358778626,-0.030534351145038167,189.9246970938693,142.1613960129879,-0.015267175572519083,-0.0,-0.007633587786259542,-76.66355664700876,162.50461206151758,-0.015267175572519083,-0.0,-0.007633587786259542,180.00149338702923,130.0012886166963,0.022900763358778626,0.022900763358778626,-0.007633587786259542,0.0,0.0,0.0,0.0,0.0,119.3,76.17,-2.0,-2.0,0.0,
5.108,-20.37445178916075,161.12323116639652,0.015267175572519083,-0.022900763358778626,-0.030534351145038167,189.95469329525994,142.17515004965242,-0.015267175572519083,-0.0,-0.007633587786259542,-76.72555183550487,162.49733806067414,0.0,-0.0,0.0,180.00146405088938,130.0012899875364,0.022900763358778626,0.022900763358778626,-0.007633587786259542,0.0,0.0,0.0,0.0,0.0,119.17,76.26,-2.0,-2.0,2.0,
5.146,-20.427534104630308,161.18311115322436,0.015267175572519083,-0.022900763358778626,-0.030534351145038167,189.980190066442,142.18684098081727,-0.015267175572519083,-0.0,-0.007633587786259542,-76.84808381332797,162.4391027389506,-0.007633587786259542,-0.0,-0.022900763358778626,180.0014391151705,130.00129115275047,0.022900763358778626,0.022900763358778626,-0.007633587786259542,0.0,0.0,0.0,0.0,0.0,118.97,76.34,-1.0,-3.0,1.0,
5.185,-20.47265407277943,161.23400914202801,0.015267175572519083,-0.022900763358778626,-0.030534351145038167,189.98812539012178,142.2071706809957,-0.022900763358778626,0.007633587786259542,0.015267175572519083,-76.9522359944776,162.38960271548558,-0.007633587786259542,-0.0,-0.022900763358778626,180.00141791980948,130.00129214318244,0.022900763358778626,0.022900763358778626,-0.007633587786259542,0.0,0.0,0.0,0.0,0.0,118.84,76.37,-1.0,-1.0,2.0,
5.223,-20.4359269242802,161.12326721965988,-0.007633587786259542,-0.0,-0.022900763358778626,189.9948704152496,142.22445092614734,-0.022900763358778626,0.007633587786259542,0.015267175572519083,-77.04076534845478,162.34752769554032,-0.007633587786259542,-0.0,-0.022900763358778626,180.0013999037526,130.00129298504962,0.022900763358778626,0.022900763358778626,-0.007633587786259542,0.0,0.0,0.0,0.0,0.0,118.68,76.45,-4.0,0.0,0.0,
5.261,-20.41225927265266,161.1069183025034,-0.007633587786259542,-0.007633587786259542,-0.030534351145038167,190.00060368660826,142.23913913452625,-0.022900763358778626,0.007633587786259542,0.015267175572519083,-77.11601529933537,162.31176392858686,-0.007633587786259542,-0.0,-0.022900763358778626,180.00138459010424,130.00129370063672,0.022900763358778626,0.022900763358778626,-0.007633587786259542,0.0,0.0,0.0,0.0,0.0,118.6,76.46,-3.0,0.0,0.0,
5.299,-20.3744848298946,161.0892384240825,-0.015267175572519083,-0.0,-0.030534351145038167,190.00547696726312,142.2516241116483,-0.022900763358778626,0.007633587786259542,0.015267175572519083,-77.17997775758388,162.2813647266764,-0.007633587786259542,-0.0,-0.022900763358778626,180.00137157350315,130.00129430888575,0.022900763358778626,0.022900763358778626,-0.007633587786259542,0.0,0.0,0.0,0.0,0.0,118.52,76.52,-3.0,-1.0,0.0,
5.338,-20.318841228831058,161.04518528099845,-0.007633587786259542,-0.0,-0.022900763358778626,190.00961925581976,142.26223634220207,-0.022900763358778626,0.007633587786259542,0.015267175572519083,-77.23434584709511,162.25552540505254,-0.007633587786259542,-0.0,-0.022900763358778626,180.0013605093922,130.00129482589742,0.022900763358778626,0.022900763358778626,-0.007633587786259542,0.0,0.0,0.0,0.0,0.0,118.31,76.64,-2.0,-1.0,0.0,
5.376,-20.26311865990165,161.02434422034153,-0.007633587786259542,-0.0,-0.030534351145038167,190.01314020109288,142.27125673817275,-0.022900763358778626,0.007633587786259542,0.015267175572519083,-77.28055872317967,162.23356198167224,-0.007633587786259542,-0.0,-0.022900763358778626,180.0013511048979,130.00129526535733,0.022900763358778626,0.022900763358778626,-0.007633587786259542,0.0,0.0,0.0,0.0,0.0,118.23,76.74,-3.0,0.0,-2.0,
5.415,-20.172389623036832,160.9641785425739,-0.007633587786259542,-0.007633587786259542,-0.030534351145038167,190.01613300457504,142.27892407474783,-0.022900763358778626,0.007633587786259542,0.015267175572519083,-77.31983966785154,162.214893071799,-0.007633587786259542,-0.0,-0.022900763358778626,180.00134311107774,130.00129563889828,0.022900763358778626,0.022900763358778626,-0.007633587786259542,0.0,0.0,0.0,0.0,0.0,118.15,76.81,-3.0,0.0,0.0,
5.453,-20.095269941701737,160.91303771647142,-0.007633587786259542,-0.007633587786259542,-0.030534351145038167,190.0186768875349,142.28544131083666,-0.022900763358778626,0.007633587786259542,0.015267175572519083,-77.14462671336855,162.22782250964661,0.0,-0.0,-0.022900763358778626,180.00133631633062,130.00129595640806,0.022900763358778626,0.022900763358778626,-0.007633587786259542,0.0,0.0,0.0,0.0,0.0,117.99,76.86,-3.0,0.0,-1.0,
5.492,-20.0512747536436,160.98793957995292,-0.007633587786259542,-0.015267175572519083,-0.03816793893129771,190.02083918805076,142.29098096151216,-0.022900763358778626,0.007633587786259542,0.015267175572519083,-76.995695702058,162.23881253181708,0.0,-0.0,-0.022900763358778626,180.00133054079555,130.0012962262914,0.022900763358778626,0.022900763358778626,-0.007633587786259542,0.0,0.0,0.0,0.0,0.0,117.99,76.9,-4.0,0.0,-2.0,
5.53,-20.04801711690359,161.08312348100077,0.0,-0.015267175572519083,-0.030534351145038167,190.02267714348923,142.29568966458635,-0.022900763358778626,0.007633587786259542,0.015267175572519083,-76.86910434244403,162.24815405066198,0.0,-0.0,-0.022900763358778626,180.00132563159076,130.00129645569223,0.022900763358778626,0.022900763358778626,-0.007633587786259542,0.0,0.0,0.0,0.0,0.0,118.0,76.94,-4.0,0.0,-1.0,
5.569,-20.041436502912575,161.15718254877703,-0.007633587786259542,-0.015267175572519083,-0.022900763358778626,190.02423940561195,142.2996920621994,-0.022900763358778626,0.007633587786259542,0.015267175572519083,-76.76150168677216,162.25609434168013,0.0,-0.0,-0.022900763358778626,180.00132145876668,130.00129665068295,0.022900763358778626,0.022900763358778626,-0.007633587786259542,0.0,0.0,0.0,0.0,0.0,118.02,76.98,-4.0,0.0,-2.0,
5.607,-20.022142521518226,161.23374689439598,-0.007633587786259542,-0.007633587786259542,-0.022900763358778626,190.02556732841626,142.30309410017048,-0.022900763358778626,0.007633587786259542,0.015267175572519083,-76.67003942945108,162.2628435890456,0.0,-0.0,-0.022900763358778626,180.0013179118662,130.00129681642505,0.022900763358778626,0.022900763358778626,-0.007633587786259542,0.0,0.0,0.0,0.0,0.0,117.99,77.01,-3.0,0.0,-1.0,
5.645,-20.034597448002348,161.3682120450364,0.0,-0.007633587786259542,-0.015267175572519083,190.0266960627999,142.3059858324459,-0.022900763358778626,0.007633587786259542,0.015267175572519083,-76.59229651072816,162.26858044930623,0.0,-0.0,-0.022900763358778626,180.0013148970008,130.00129695730584,0.022900763358778626,0.022900763358778626,-0.007633587786259542,0.0,0.0,0.0,0.0,0.0,117.95,77.08,-4.0,1.0,-1.0,
5.683,-20.04518413551385,161.48250742308073,0.0,-0.007633587786259542,-0.015267175572519083,190.02765548702604,142.30844380488003,-0.022900763358778626,0.007633587786259542,0.015267175572519083,-76.72508881627033,162.34088389377607,0.0,-0.0,-0.015267175572519083,180.00131233436522,130.00129707705452,0.022900763358778626,0.022900763358778626,-0.007633587786259542,0.0,0.0,0.0,0.0,0.0,117.96,77.14,-4.0,0.0,-1.0,
5.722,-20.054182819898625,161.57965849441842,0.0,-0.007633587786259542,-0.015267175572519083,190.0046842835505,142.24265312439465,-0.007633587786259542,0.015267175572519083,0.007633587786259542,-76.83796227598117,162.40234182157542,0.0,-0.0,-0.015267175572519083,180.001310156125,130.00129717884087,0.022900763358778626,0.022900763358778626,-0.007633587786259542,0.0,0.0,0.0,0.0,0.0,118.0,77.16,-2.0,-1.0,0.0,
5.76,-20.05652730058283,161.54489683151886,0.0,-0.007633587786259542,0.0,189.98515876059628,142.1867310459821,-0.007633587786259542,0.015267175572519083,0.007633587786259542,-76.93390471673538,162.45458106020487,0.0,-0.0,-0.015267175572519083,180.00130830462078,130.00129726535928,0.022900763358778626,0.022900763358778626,-0.007633587786259542,0.0,0.0,0.0,0.0,0.0,117.94,77.18,-2.0,-1.0,0.0,
5.799,-20.0585201091644,161.5153494180542,0.0,-0.007633587786259542,0.0,189.9368168040298,142.12965992427348,-0.007633587786259542,0.007633587786259542,0.0,-77.01545579137647,162.49898441303992,0.0,-0.0,-0.015267175572519083,180.0013067308422,130.00129733889992,0.022900763358778626,0.022900763358778626,-0.007633587786259542,0.0,0.0,0.0,0.0,0.0,117.9,77.21,-3.0,0.0,0.0,
5.837,-20.074721179624753,161.53487582765413,-0.007633587786259542,-0.007633587786259542,-0.007633587786259542,189.8957261409483,142.08114947082115,-0.007633587786259542,0.007633587786259542,0.0,-77.0847742048214,162.5367272629497,0.0,-0.0,-0.015267175572519083,180.0013053931304,130.00129740140946,0.022900763358778626,0.022900763358778626,-0.007633587786259542,0.0,0.0,0.0,0.0,0.0,117.96,77.27,-4.0,0.0,0.0,
5.875,-20.088492089516052,161.5514732758141,-0.007633587786259542,-0.007633587786259542,-0.007633587786259542,189.86079907732903,142.03991558538667,-0.007633587786259542,0.007633587786259542,0.0,-77.01565048581749,162.54138248767723,-0.007633587786259542,-0.0,-0.015267175572519083,180.00130425607537,130.00129745454257,0.022900763358778626,0.022900763358778626,-0.007633587786259542,0.0,0.0,0.0,0.0,0.0,118.02,77.28,-3.0,-2.0,0.0,
5.914,-20.119118457872172,161.57608951055758,0.0,-0.007633587786259542,-0.007633587786259542,189.83111107325266,142.00486678276735,-0.007633587786259542,0.007633587786259542,0.0,-76.95689532466417,162.54533942869563,-0.007633587786259542,-0.0,-0.015267175572519083,180.0013032895786,130.00129749970571,0.022900763358778626,0.022900763358778626,-0.007633587786259542,0.0,0.0,0.0,0.0,0.0,117.91,77.34,-3.0,-2.0,0.0,
5.952,-20.145150870974874,161.59701331008952,0.0,-0.007633587786259542,-0.007633587786259542,189.81048787897382,141.9559290015519,-0.007633587786259542,0.007633587786259542,0.0,-76.90695343768385,162.54870282856126,-0.007633587786259542,-0.0,-0.015267175572519083,180.00130246805634,130.00129753809438,0.022900763358778626,0.022900763358778626,-0.007633587786259542,0.0,0.0,0.0,0.0,0.0,117.81,77.46,-3.0,-2.0,0.0,
5.991,-20.123198918715836,161.5833008196153,-0.007633587786259542,-0.007633587786259542,-0.007633587786259542,189.7929581638368,141.91433188751878,-0.007633587786259542,0.007633587786259542,0.0,-76.86450283375058,162.55156171844706,-0.007633587786259542,-0.0,-0.015267175572519083,180.00130176976242,130.00129757072477,0.022900763358778626,0.022900763358778626,-0.007633587786259542,0.0,0.0,0.0,0.0,0.0,117.74,77.53,-3.0,-2.0,0.0,
6.029,-20.104539759295655,161.5716452027122,-0.007633587786259542,-0.007633587786259542,-0.007633587786259542,189.77805790597034,141.87897434059064,-0.007633587786259542,0.007633587786259542,0.0,-76.80492961529964,162.5693677805102,0.0,-0.0,-0.015267175572519083,180.0013011762126,130.0012975984606,0.022900763358778626,0.022900763358778626,-0.007633587786259542,0.0,0.0,0.0,0.0,0.0,117.64,77.67,-2.0,-2.0,0.0,
6.067,-20.078869069527038,161.61732871398237,0.0,-0.015267175572519083,-0.007633587786259542,189.76539268678383,141.84892042570172,-0.007633587786259542,0.007633587786259542,0.0,-76.75429237961634,162.58450293326385,0.0,-0.0,-0.015267175572519083,180.00130067169525,130.00129762203605,0.022900763358778626,0.022900763358778626,-0.007633587786259542,0.0,0.0,0.0,0.0,0.0,117.59,77.6,-3.0,-3.0,0.0,
6.105,-20.057048983223712,161.65615969856202,0.0,-0.015267175572519083,-0.007633587786259542,189.7546272504753,141.82337459804612,-0.007633587786259542,0.007633587786259542,0.0,-76.7002979785526,162.58205669294043,0.0,-0.007633587786259542,0.0,180.0013002428555,130.00129764207517,0.022900763358778626,0.022900763358778626,-0.007633587786259542,0.0,0.0,0.0,0.0,0.0,117.5,77.64,-5.0,-1.0,0.0,
6.144,-20.038501909865886,161.68916603545472,0.0,-0.015267175572519083,-0.007633587786259542,189.74547662961305,141.80166064453886,-0.007633587786259542,0.007633587786259542,0.0,-76.70457475833007,162.5668313396741,-0.007633587786259542,-0.0,0.0,180.0012998783417,130.00129765910845,0.022900763358778626,0.022900763358778626,-0.007633587786259542,0.0,0.0,0.0,0.0,0.0,117.41,77.72,-2.0,-3.0,0.0,
6.182,-20.02273689751173,161.7172214218135,0.0,-0.015267175572519083,-0.007633587786259542,189.73769860188014,141.7832037840577,-0.007633587786259542,0.007633587786259542,0.0,-76.76514266117745,162.5515505971215,-0.015267175572519083,-0.0,-0.007633587786259542,180.00129956850498,130.00129767358672,0.022900763358778626,0.022900763358778626,-0.007633587786259542,0.0,0.0,0.0,0.0,0.0,117.27,77.76,-1.0,-3.0,2.0,
6.221,-20.0093366370107,161.74106850021846,0.0,-0.015267175572519083,-0.007633587786259542,189.73108727830717,141.7675154526487,-0.007633587786259542,0.007633587786259542,0.0,-76.74149662749468,162.54991019147258,-0.007633587786259542,-0.0,-0.007633587786259542,180.00129930514376,130.00129768589323,0.022900763358778626,0.022900763358778626,-0.007633587786259542,0.0,0.0,0.0,0.0,0.0,117.16,77.82,-3.0,-3.0,0.0,
6.259,-19.997946415584824,161.76133851686268,0.0,-0.015267175572519083,-0.007633587786259542,189.72546765327016,141.75418037095105,-0.007633587786259542,0.007633587786259542,0.0,-76.72139749886433,162.548515846671,-0.007633587786259542,-0.0,-0.007633587786259542,180.0011044247982,130.00116792536141,0.007633587786259542,-0.0,0.022900763358778626,0.0,0.0,0.0,0.0,0.0,116.93,77.85,-3.0,-1.0,0.0,
6.298,-20.005606895909803,161.771539303872,-0.007633587786259542,-0.0,-0.007633587786259542,189.7206909719887,141.74284555150805,-0.007633587786259542,0.007633587786259542,0.0,-76.70431323952855,162.54733065358965,-0.007633587786259542,-0.0,-0.007633587786259542,180.00093877650446,130.00105762890936,0.007633587786259542,-0.0,0.022900763358778626,0.0,0.0,0.0,0.0,0.0,116.67,77.9,-3.0,-2.0,0.0,
6.336,-20.012118304186036,161.78020997282994,-0.007633587786259542,-0.0,-0.007633587786259542,189.71663079289942,141.7332109549815,-0.007633587786259542,0.007633587786259542,0.0,-76.72480993781684,162.55300054592442,-0.007633587786259542,-0.0,0.0,180.0007979754548,130.00096387692514,0.007633587786259542,-0.0,0.022900763358778626,0.0,0.0,0.0,0.0,0.0,116.55,77.84,-1.0,-3.0,1.0,
6.374,-20.017653001220832,161.7875800414442,-0.007633587786259542,-0.0,-0.007633587786259542,189.71317964067356,141.72502154793395,-0.007633587786259542,0.007633587786259542,0.0,-76.73613983504075,162.54326743892827,-0.007633587786259542,-0.0,-0.007633587786259542,180.00067829456256,130.00088418773854,0.007633587786259542,-0.0,0.022900763358778626,0.0,0.0,0.0,0.0,0.0,116.43,77.91,-3.0,-2.0,0.0,
6.412,-20.01399257899562,161.76958476316307,-0.007633587786259542,-0.0,0.0,189.71024616128156,141.71806055194352,-0.007633587786259542,0.007633587786259542,0.0,-76.74577024768107,162.53499429798154,-0.007633587786259542,-0.0,-0.007633587786259542,180.00057656580418,130.00081645192992,0.007633587786259542,-0.0,0.022900763358778626,0.0,0.0,0.0,0.0,0.0,116.33,77.94,-4.0,-1.0,0.0,
6.45,-20.01088122010419,161.75428877662412,-0.007633587786259542,-0.0,0.0,189.70775270379838,141.71214370535165,-0.007633587786259542,0.007633587786259542,0.0,-76.7493556358786,162.53028803519516,0.0,-0.0,0.0,180.00049009635956,130.0007588764926,0.007633587786259542,-0.0,0.022900763358778626,0.0,0.0,0.0,0.0,0.0,116.13,77.98,-3.0,-2.0,0.0,
6.488,-20.01361772789891,161.7551642261748,-0.007633587786259542,-0.007633587786259542,-0.007633587786259542,189.70563326493766,141.70711438574858,-0.007633587786259542,0.007633587786259542,0.0,-76.7524032158465,162.52628771182674,0.0,-0.0,0.0,180.00041659733162,130.00070993737086,0.007633587786259542,-0.0,0.022900763358778626,0.0,0.0,0.0,0.0,0.0,116.02,78.01,-2.0,-2.0,0.0,
6.527,-20.015943759524426,161.77669274742982,-0.007633587786259542,-0.007633587786259542,-0.007633587786259542,189.70383174190607,141.70283946408597,-0.007633587786259542,0.007633587786259542,0.0,-76.75499365881922,162.52288743696357,0.0,-0.0,0.0,180.00035412315788,130.0006683391174,0.007633587786259542,-0.0,0.022900763358778626,0.0,0.0,0.0,0.0,0.0,115.95,78.06,-3.0,-2.0,0.0,
6.565,-19.989808055446236,161.82672331859638,-0.007633587786259542,-0.007633587786259542,-0.007633587786259542,189.7023004473292,141.69920578067274,-0.007633587786259542,0.007633587786259542,0.0,-76.75719553534603,162.5199972033299,0.0,-0.0,0.0,180.0003010201102,130.00063298060195,0.007633587786259542,-0.0,0.022900763358778626,0.0,0.0,0.0,0.0,0.0,115.8,78.12,-3.0,-1.0,0.0,
6.603,-19.962238668130077,161.80266610557368,-0.007633587786259542,-0.007633587786259542,0.0,189.7009988469389,141.6961171497715,-0.007633587786259542,0.007633587786259542,0.0,-76.75906713039382,162.51754050474128,0.0,-0.0,0.0,180.00025588251964,130.00060292586383,0.007633587786259542,-0.0,0.022900763358778626,0.0,0.0,0.0,0.0,0.0,115.75,78.17,-4.0,0.0,0.0,
6.641,-19.938804688911343,161.7822174745044,-0.007633587786259542,-0.007633587786259542,0.0,189.66977215367106,141.6645938709384,-0.007633587786259542,0.007633587786259542,0.0,-76.76065798618444,162.51545231094093,0.0,-0.0,0.0,180.0002175155677,130.00057737933642,0.007633587786259542,-0.0,0.022900763358778626,0.0,0.0,0.0,0.0,0.0,115.58,78.24,-4.0,0.0,-1.0,
6.68,-19.955401313733528,161.78928641786746,-0.007633587786259542,-0.007633587786259542,0.0,189.64322946439341,141.63779908393025,-0.007633587786259542,0.007633587786259542,0.0,-76.76201021360647,162.51367734621064,0.0,-0.0,0.0,180.00018490365855,130.00055566478812,0.007633587786259542,-0.0,0.022900763358778626,0.0,0.0,0.0,0.0,0.0,115.62,78.31,-3.0,0.0,0.0,
6.718,-19.969508444832385,161.79529501972607,-0.007633587786259542,-0.007633587786259542,0.0,189.6206681785074,141.61502351497333,-0.007633587786259542,0.007633587786259542,0.0,-76.74378424346122,162.5184281991119,-0.007633587786259542,-0.0,0.0,180.00015718353575,130.00053720742207,0.007633587786259542,-0.0,0.022900763358778626,0.0,0.0,0.0,0.0,0.0,115.54,78.31,-4.0,0.0,0.0,
6.755,-19.975408153196835,161.83172794921984,0.0,-0.007633587786259542,0.0,189.6014910855043,141.59566428135994,-0.007633587786259542,0.007633587786259542,0.0,-76.72829216883775,162.52246642407795,-0.007633587786259542,-0.0,0.0,180.0001336214314,130.00052151866095,0.007633587786259542,-0.0,0.022900763358778626,0.0,0.0,0.0,0.0,0.0,115.42,78.33,-3.0,-1.0,0.0,
6.793,-19.949998751218086,161.83842990971237,-0.007633587786259542,-0.007633587786259542,0.0,189.58519055645166,141.57920893278856,-0.007633587786259542,0.007633587786259542,0.0,-76.71512390540781,162.5258989152991,-0.007633587786259542,-0.0,0.0,180.00011359364268,130.00050818321398,0.007633587786259542,-0.0,0.022900763358778626,0.0,0.0,0.0,0.0,0.0,115.35,78.36,-3.0,0.0,0.0,
6.831,-19.948180508668294,161.80933975829186,0.0,-0.007633587786259542,0.0,189.57133510675692,141.56522188650288,-0.007633587786259542,0.007633587786259542,0.0,-76.70393088149235,162.52881653283708,-0.007633587786259542,-0.0,0.0,180.00009657002227,130.00049684808405,0.007633587786259542,-0.0,0.022900763358778626,0.0,0.0,0.0,0.0,0.0,115.29,78.37,-4.0,0.0,0.0,
6.869,-19.9458988209976,161.8402143399801,-0.007633587786259542,-0.007633587786259542,0.0,189.5595579745164,141.55333289716006,-0.007633587786259542,0.007633587786259542,0.0,-76.69441681116422,162.53129650774437,-0.007633587786259542,-0.0,0.0,180.0000820999449,130.0004872132236,0.007633587786259542,-0.0,0.022900763358778626,0.0,0.0,0.0,0.0,0.0,115.28,78.37,-3.0,0.0,0.0,
6.907,-19.93935213542492,161.79682036581772,-0.007633587786259542,-0.007633587786259542,0.0,189.54954741211193,141.54322725621867,-0.007633587786259542,0.007633587786259542,0.0,-76.68632985138531,162.53340448641558,-0.007633587786259542,-0.0,0.0,180.00006980037915,130.00047902359222,0.007633587786259542,-0.0,0.022900763358778626,0.0,0.0,0.0,0.0,0.0,115.24,78.36,-4.0,0.0,0.0,
6.946,-19.933787452688144,161.7599354877797,-0.007633587786259542,-0.007633587786259542,0.0,189.5590700987288,141.56341468535217,-0.007633587786259542,0.007633587786259542,0.0,-76.67945593557323,162.5351962682861,-0.007633587786259542,-0.0,0.0,180.00005934574827,130.00047206240555,0.007633587786259542,-0.0,0.022900763358778626,0.0,0.0,0.0,0.0,0.0,115.21,78.41,-3.0,-1.0,0.0,
6.984,-19.959495639496776,161.76349807598888,0.0,-0.007633587786259542,0.0,189.56716438235313,141.58057400011566,-0.007633587786259542,0.007633587786259542,0.0,-76.67361310713297,162.53671928287602,-0.007633587786259542,-0.0,0.0,180.00005045931204,130.0004661453969,0.007633587786259542,-0.0,0.022900763358778626,0.0,0.0,0.0,0.0,0.0,115.14,78.42,-3.0,0.0,0.0,
7.022,-19.981347598284113,161.76652627596667,0.0,-0.007633587786259542,0.0,189.5920633825368,141.60963381717642,-0.007633587786259542,0.007633587786259542,0.007633587786259542,-76.66864670295874,162.53801384527748,-0.007633587786259542,-0.0,0.0,180.0000429058412,130.00046111593952,0.007633587786259542,-0.0,0.022900763358778626,0.0,0.0,0.0,0.0,0.0,115.11,78.44,-4.0,0.0,-1.0,
7.06,-19.988514149351847,161.76563098611211,0.0,-0.007633587786259542,0.0,189.61322753269292,141.63433466167805,-0.007633587786259542,0.007633587786259542,0.007633587786259542,-76.66442525941065,162.5391142233187,-0.007633587786259542,-0.0,0.0,180.00003648539104,130.00045684090077,0.007633587786259542,-0.0,0.022900763358778626,0.0,0.0,0.0,0.0,0.0,115.07,78.44,-4.0,0.0,0.0,
7.097,-20.019643726977634,161.80620071099847,0.0,-0.007633587786259542,0.0,189.63121706032564,141.65533037950445,-0.007633587786259542,0.007633587786259542,0.007633587786259542,-76.66083703239477,162.54004954465375,-0.007633587786259542,-0.0,0.0,180.00003102800838,130.0004532071178,0.007633587786259542,-0.0,0.022900763358778626,0.0,0.0,0.0,0.0,0.0,115.01,78.48,-4.0,0.0,0.0,
7.135,-20.046103867959552,161.84068497715185,0.0,-0.007633587786259542,0.0,189.64650815881345,141.6731767396569,-0.007633587786259542,0.007633587786259542,0.007633587786259542,-76.65778703943127,162.54084456778853,-0.007633587786259542,-0.0,0.0,180.0000263892331,130.00045011840228,0.007633587786259542,-0.0,0.015267175572519083,0.0,0.0,0.0,0.0,0.0,115.0,78.45,-4.0,0.0,0.0,
7.174,-20.06859498779418,161.86999660338225,0.0,-0.007633587786259542,0.0,189.65950559252806,141.68834614578648,-0.007633587786259542,0.007633587786259542,0.007633587786259542,-76.6551945454123,162.5415203374531,-0.007633587786259542,-0.0,0.0,180.00002244627413,130.0004474929941,0.007633587786259542,-0.0,0.022900763358778626,0.0,0.0,0.0,0.0,0.0,115.03,78.44,-3.0,0.0,0.0,
7.212,-20.087712439653618,161.89491148567808,0.0,-0.007633587786259542,0.0,189.65848084045808,141.7012098846012,-0.007633587786259542,0.007633587786259542,0.007633587786259542,-76.65299092549617,162.542094741668,-0.007633587786259542,-0.0,0.0,180.000019094759,130.00044526139715,0.007633587786259542,-0.0,0.022900763358778626,0.0,0.0,0.0,0.0,0.0,115.0,78.44,-4.0,0.0,0.0,
7.25,-20.10396227373414,161.91608913562953,0.0,-0.007633587786259542,0.0,189.6501386987527,141.69769991947734,-0.007633587786259542,0.007633587786259542,0.0,-76.65111784856747,162.54258298525065,-0.007633587786259542,-0.0,0.0,180.00001624597115,130.00044336453976,0.007633587786259542,-0.0,0.022900763358778626,0.0,0.0,0.0,0.0,0.0,114.99,78.48,-4.0,0.0,0.0,
7.288,-20.117774632702584,161.93409013808827,0.0,-0.007633587786259542,0.0,189.65051898074904,141.69958761038743,-0.007633587786259542,0.007633587786259542,0.007633587786259542,-76.64952573317807,162.5429979922959,-0.007633587786259542,-0.0,0.0,180.00001382450148,130.00044175221097,0.007633587786259542,-0.0,0.022900763358778626,0.0,0.0,0.0,0.0,0.0,114.98,78.43,-4.0,0.0,0.0,
7.326,-20.087755498691838,161.91149807468702,0.0,-0.007633587786259542,0.0,189.65084222044592,141.701192147661,-0.007633587786259542,0.007633587786259542,0.007633587786259542,-76.64817243509708,162.54335074828438,-0.007633587786259542,-0.0,0.0,180.00001176625224,130.0004403817315,0.007633587786259542,-0.0,0.022900763358778626,0.0,0.0,0.0,0.0,0.0,114.95,78.46,-4.0,0.0,0.0,
7.364,-20.062239234782705,161.89229482079597,0.0,-0.007633587786259542,0.0,189.65111697418828,141.70255600434353,-0.007633587786259542,0.007633587786259542,0.007633587786259542,-76.64702213172824,162.53998744315282,0.0,-0.0,-0.007633587786259542,180.0000100167404,130.00043921682393,0.007633587786259542,-0.0,0.022900763358778626,0.0,0.0,0.0,0.0,0.0,114.98,78.43,-3.0,0.0,0.0,
7.402,-20.040550410459943,161.87597205498858,0.0,-0.007633587786259542,0.0,189.65135051486928,141.7037152825237,-0.007633587786259542,0.007633587786259542,0.007633587786259542,-76.64604437386473,162.53712863379099,0.0,-0.0,-0.007633587786259542,180.00000852965533,130.0004382266525,0.007633587786259542,-0.0,0.015267175572519083,0.0,0.0,0.0,0.0,0.0,114.92,78.4,-4.0,0.0,0.0,
7.44,-20.022114909785593,161.8620977040523,0.0,-0.007633587786259542,0.0,189.65154902444812,141.7047006689768,-0.007633587786259542,0.007633587786259542,0.007633587786259542,-76.64977240924605,162.53237493452505,-0.007633587786259542,-0.0,-0.007633587786259542,180.00000726563303,130.0004373850068,0.007633587786259542,-0.0,0.015267175572519083,0.0,0.0,0.0,0.0,0.0,114.86,78.35,-5.0,1.0,-1.0,
7.478,-20.006444734212398,161.85030450575644,0.0,-0.007633587786259542,0.0,189.65171775759012,141.70553824746196,-0.007633587786259542,0.007633587786259542,0.007633587786259542,-76.64632244169053,162.53699457760672,0.0,-0.0,-0.007633587786259542,180.00000619121406,130.00043666960795,0.007633587786259542,-0.0,0.015267175572519083,0.0,0.0,0.0,0.0,0.0,114.97,78.38,-4.0,1.0,0.0,
7.516,-19.99312508497518,161.84028028720496,0.0,-0.007633587786259542,0.0,189.65033360957818,141.70625018917434,-0.007633587786259542,0.007633587786259542,0.0,-76.64338996926834,162.54092127422612,0.0,-0.0,-0.007633587786259542,180.00000527795794,130.00043606151894,0.007633587786259542,-0.0,0.015267175572519083,0.0,0.0,0.0,0.0,0.0,114.96,78.39,-4.0,0.0,0.0,
7.554,-19.981803383123545,161.83175970143623,0.0,-0.007633587786259542,0.0,189.649157083768,141.70685533962987,-0.007633587786259542,0.007633587786259542,0.0,-76.64089736770947,162.54425896635263,0.0,-0.0,-0.007633587786259542,180.00000450169023,130.00043554464327,0.007633587786259542,-0.0,0.015267175572519083,0.0,0.0,0.0,0.0,0.0,114.92,78.42,-3.0,0.0,0.0,
7.592,-19.972179936549654,161.8245172035328,0.0,-0.007633587786259542,0.0,189.64815703682933,141.70736971751708,-0.007633587786259542,0.007633587786259542,0.0,-76.63877865638443,162.54709600466015,0.0,-0.0,-0.007633587786259542,180.00000384186268,130.00043510529895,0.007633587786259542,-0.0,0.015267175572519083,0.0,0.0,0.0,0.0,0.0,114.88,78.49,-5.0,1.0,-1.0,
7.63,-19.96400000696185,161.81836108031487,0.0,-0.007633587786259542,0.0,189.65782409365454,141.7222027950782,-0.007633587786259542,0.007633587786259542,0.0,-76.63697775175815,162.54950748722155,0.0,-0.0,-0.007633587786259542,180.00000328100927,130.00043473185627,0.007633587786259542,-0.0,0.015267175572519083,0.0,0.0,0.0,0.0,0.0,114.88,78.49,-5.0,1.0,-1.0,
7.668,-19.976027057603687,161.85470237515676,0.0,-0.007633587786259542,-0.007633587786259542,189.66604109195598,141.73481091100516,-0.007633587786259542,0.007633587786259542,0.0,-76.63544698282581,162.55155724739873,0.0,-0.0,-0.007633587786259542,180.00000280428387,130.00043441443,0.007633587786259542,-0.0,0.015267175572519083,0.0,0.0,0.0,0.0,0.0,114.88,78.44,-4.0,1.0,0.0,
7.706,-19.975633830861923,161.85786242506407,-0.007633587786259542,-0.007633587786259542,0.0,189.6730255405122,141.74552780954306,-0.007633587786259542,0.007633587786259542,0.0,-76.63414582923333,162.55329954354934,0.0,-0.0,-0.007633587786259542,180.00000239906728,130.00043414461766,0.007633587786259542,-0.0,0.015267175572519083,0.0,0.0,0.0,0.0,0.0,114.93,78.51,-5.0,0.0,-2.0,
7.745,-19.966935817127275,161.8258573963408,0.0,-0.007633587786259542,0.0,189.678962321785,141.7546371733003,-0.007633587786259542,0.007633587786259542,0.0,-76.63303984867972,162.55478049527736,0.0,-0.0,-0.007633587786259542,180.00000205463317,130.00043391527717,0.007633587786259542,-0.0,0.015267175572519083,0.0,0.0,0.0,0.0,0.0,114.93,78.43,-4.0,1.0,0.0,
7.783,-19.959542505452827,161.79865312192604,0.0,-0.007633587786259542,0.0,189.6750190603265,141.75275869531478,-0.007633587786259542,0.007633587786259542,0.0,-76.63209976520915,162.55603930424618,0.0,-0.0,-0.007633587786259542,180.00000176186418,130.00043372033775,0.007633587786259542,-0.0,0.015267175572519083,0.0,0.0,0.0,0.0,0.0,114.99,78.38,-5.0,1.0,-1.0,
7.82,-19.96693710472421,161.82414347348794,0.0,-0.007633587786259542,-0.007633587786259542,189.67166728808675,141.75116198902708,-0.007633587786259542,0.007633587786259542,0.0,-76.63130069425917,162.55710929186966,0.0,-0.0,-0.007633587786259542,180.00000151301055,130.00043355463924,0.007633587786259542,-0.0,0.015267175572519083,0.0,0.0,0.0,0.0,0.0,115.02,78.35,-4.0,0.0,0.0,
7.858,-19.954201346804915,161.85656768371484,0.0,-0.007633587786259542,0.0,189.66881828168297,141.74980478868252,-0.007633587786259542,0.007633587786259542,0.0,-76.63062148395169,162.55801878134963,0.0,-0.0,-0.007633587786259542,180.00000130148496,130.00043341379552,0.007633587786259542,-0.0,0.015267175572519083,0.0,0.0,0.0,0.0,0.0,114.96,78.34,-5.0,2.0,-1.0,
7.896,-19.965439835594527,161.88380971361028,0.0,-0.007633587786259542,0.0,189.66639662623976,141.74865116838967,-0.007633587786259542,0.007633587786259542,0.0,-76.63004415519032,162.5587918474076,0.0,-0.0,-0.007633587786259542,180.0000011216882,130.00043329407836,0.007633587786259542,-0.0,0.015267175572519083,0.0,0.0,0.0,0.0,0.0,115.04,78.35,-5.0,1.0,-2.0,
7.935,-19.955961997832308,161.87573639026328,0.0,-0.007633587786259542,0.0,189.66433821911303,141.74767059114075,-0.007633587786259542,0.007633587786259542,0.0,-76.62955342574315,162.55944895355688,0.0,-0.0,-0.007633587786259542,180.00000096886097,130.00043319231878,0.007633587786259542,-0.0,0.015267175572519083,0.0,0.0,0.0,0.0,0.0,115.1,78.34,-5.0,1.0,-1.0,
7.973,-19.947905835734424,161.86887406541834,0.0,-0.007633587786259542,0.0,189.6625885730553,141.74683710047915,-0.007633587786259542,0.007633587786259542,0.0,-76.66992601573519,162.56330110089658,-0.007633587786259542,-0.0,0.0,180.00000083895782,130.00043310582313,0.007633587786259542,-0.0,0.015267175572519083,0.0,0.0,0.0,0.0,0.0,115.15,78.29,-5.0,0.0,-1.0,
8.011,-19.94105809795122,161.86304108930014,0.0,-0.007633587786259542,0.0,189.66110137390623,141.7461286334168,-0.007633587786259542,0.007633587786259542,0.0,-76.70424271722842,162.56657542613533,-0.007633587786259542,-0.0,0.0,180.00000072854013,130.00043303230183,0.007633587786259542,-0.0,0.022900763358778626,0.0,0.0,0.0,0.0,0.0,115.19,78.24,-5.0,0.0,-1.0,
8.049,-19.9352375208355,161.85808305959966,0.0,-0.007633587786259542,0.0,189.65983725462954,141.7455264364138,-0.007633587786259542,0.007633587786259542,0.0,-76.73341191349768,162.56935860258824,-0.007633587786259542,-0.0,0.0,180.0000006346851,130.00043296980874,0.007633587786259542,-0.0,0.007633587786259542,0.0,0.0,0.0,0.0,0.0,115.16,78.34,-5.0,2.0,0.0,
8.087,-19.930290030287136,161.85386873435425,0.0,-0.007633587786259542,0.0,189.66029352395807,141.74501456896124,-0.007633587786259542,0.007633587786259542,0.007633587786259542,-76.75820573032654,162.57172430257322,-0.007633587786259542,-0.0,0.0,180.00000055490833,130.0004329166896,0.007633587786259542,-0.0,0.007633587786259542,0.0,0.0,0.0,0.0,0.0,115.12,78.35,-6.0,1.0,-1.0,
8.125,-19.926084663321028,161.85028655789566,0.0,-0.007633587786259542,0.0,189.66068135288734,141.74457948162657,-0.007633587786259542,0.007633587786259542,0.007633587786259542,-76.75788676980586,162.56031424523863,-0.007633587786259542,-0.0,-0.007633587786259542,180.00000048709808,130.00043287153832,0.007633587786259542,-0.0,0.007633587786259542,0.0,0.0,0.0,0.0,0.0,115.08,78.39,-7.0,4.0,5.0,
8.163,-19.922510101399833,161.84724170790585,0.0,-0.007633587786259542,0.0,189.6610110074772,141.7442096573921,-0.007633587786259542,0.007633587786259542,0.007633587786259542,-76.7576156533633,162.55061569650422,-0.007633587786259542,-0.0,-0.007633587786259542,180.00000042945936,130.00043283315972,0.007633587786259542,-0.0,0.015267175572519083,0.0,0.0,0.0,0.0,0.0,115.14,78.25,-3.0,3.0,4.0,
8.201,-19.91947172376682,161.84465358541453,0.0,-0.007633587786259542,0.0,189.6612912138786,141.7438953067928,-0.007633587786259542,0.007633587786259542,0.007633587786259542,-76.75738520438712,162.54237193007998,-0.007633587786259542,-0.0,-0.007633587786259542,180.00000038046645,130.00036791504175,0.0,-0.0,0.0,0.0,0.0,0.0,0.0,0.0,115.33,77.93,1.0,-4.0,4.0,
8.239,-19.93817801688791,161.79407117731898,-0.022900763358778626,-0.007633587786259542,0.022900763358778626,189.66152938931978,141.7436281087834,-0.007633587786259542,0.007633587786259542,0.007633587786259542,-76.75718932275737,162.53536472861938,-0.007633587786259542,-0.0,-0.007633587786259542,180.00000033882247,130.00031273464148,0.0,-0.0,0.0,0.0,0.0,0.0,0.0,0.0,115.47,77.6,-1.0,1.0,-4.0,
8.277,-19.95407836604084,161.75107613043778,-0.022900763358778626,-0.007633587786259542,0.022900763358778626,189.66173183844478,141.7434009904754,-0.007633587786259542,0.007633587786259542,0.007633587786259542,-76.75702282337207,162.5294086073779,-0.007633587786259542,-0.0,-0.007633587786259542,180.00000030342508,130.0002009458051,-0.007633587786259542,-0.0,0.0,0.0,0.0,0.0,0.0,0.0,115.67,77.31,-9.0,5.0,-16.0,
8.316,-19.921247420585516,161.61665898792228,-0.007633587786259542,-0.022900763358778626,-0.030534351145038167,189.66190392020104,141.74320793991362,-0.007633587786259542,0.007633587786259542,0.007633587786259542,-76.75688129889457,162.52434590432262,-0.007633587786259542,-0.0,-0.007633587786259542,180.00000027333732,130.00010592529415,-0.007633587786259542,-0.0,0.0,0.0,0.0,0.0,0.0,0.0,115.78,77.41,-9.0,2.0,-16.0,
8.354,-19.89334111694849,161.50240441678412,-0.007633587786259542,-0.022900763358778626,-0.030534351145038167,189.74124293481668,141.771205085464,0.0,-0.0,-0.05343511450381679,-76.7567610030887,162.5200426067256,-0.007633587786259542,-0.0,-0.007633587786259542,180.00000024776273,130.00002515785985,-0.007633587786259542,-0.0,0.0,0.0,0.0,0.0,0.0,0.0,115.51,77.89,-9.0,-3.0,-15.0,
8.393,-19.869620758857018,161.40528803131667,-0.007633587786259542,-0.022900763358778626,-0.030534351145038167,189.84520940555336,141.72042134621378,-0.007633587786259542,-0.0,-0.015267175572519083,-76.7566587516537,162.51638480376818,-0.007633587786259542,-0.0,-0.007633587786259542,180.0000002260243,129.9999565055407,-0.007633587786259542,-0.0,0.0,0.0,0.0,0.0,0.0,0.0,115.33,78.38,-6.0,-2.0,-6.0,
8.432,-19.936736383715168,161.68779092680805,-0.015267175572519083,-0.0,0.015267175572519083,189.93358090567955,141.6772551678511,-0.007633587786259542,-0.0,-0.015267175572519083,-76.75657183793396,162.51327567125435,-0.007633587786259542,-0.0,-0.007633587786259542,180.00000020754663,129.99989815106943,-0.007633587786259542,-0.0,0.0,0.0,0.0,0.0,0.0,0.0,114.92,78.86,-13.0,7.0,-6.0,
8.47,-19.912839608595174,161.88353211438366,-0.022900763358778626,0.030534351145038167,0.061068702290076333,190.00869668078684,141.6405639162428,-0.007633587786259542,-0.0,-0.015267175572519083,-76.75649796127217,162.5106329086176,-0.007633587786259542,-0.0,-0.007633587786259542,180.00000019184063,129.99984854976884,-0.007633587786259542,-0.0,0.0,0.0,0.0,0.0,0.0,0.0,115.11,78.75,-11.0,9.0,-5.0,
8.509,-19.924493651595938,161.94791075393425,-0.007633587786259542,0.04580152671755725,0.07633587786259542,190.07254508962802,141.60937635237573,-0.007633587786259542,-0.0,-0.015267175572519083,-76.75643516610965,162.50838656037635,-0.007633587786259542,-0.0,-0.007633587786259542,180.00000017849052,129.99980638866333,-0.007633587786259542,-0.0,0.0,0.0,0.0,0.0,0.0,0.0,115.06,78.66,-9.0,14.0,2.0,
8.546,-19.934399588146587,162.00263259755224,-0.007633587786259542,0.04580152671755725,0.07633587786259542,189.81767895106003,141.29797823522628,-0.06870229007633588,-0.03816793893129771,-0.04580152671755725,-76.75638179022151,162.5064771643713,-0.007633587786259542,-0.0,-0.007633587786259542,180.00000016714293,129.99977055172366,-0.007633587786259542,-0.0,0.0,0.0,0.0,0.0,0.0,0.0,115.15,78.62,-29.0,25.0,-13.0,
8.585,-19.942819634214636,162.04914616462753,-0.007633587786259542,0.04580152671755725,0.07633587786259542,189.60104273327724,141.03328983564927,-0.06870229007633588,-0.03816793893129771,-0.04580152671755725,-77.04996274454552,162.42433802205457,-0.05343511450381679,-0.0,0.11450381679389313,180.00000015749748,129.99974009032493,-0.007633587786259542,-0.0,0.0,0.0,0.0,0.0,0.0,0.0,115.05,78.29,-33.0,21.0,-3.0,
8.624,-19.94997667337248,162.08868269664154,-0.007633587786259542,0.04580152671755725,0.07633587786259542,189.41690194816186,140.8083046960088,-0.06870229007633588,-0.03816793893129771,-0.04580152671755725,-77.02354373889035,162.44517050710746,-0.08396946564885496,-0.0,0.1297709923664122,180.00000014929884,129.99971419813602,-0.007633587786259542,-0.0,0.0,0.0,0.0,0.0,0.0,0.0,115.44,78.0,-26.0,22.0,-23.0,
8.663,-19.956060156656648,162.12228874885344,-0.007633587786259542,0.04580152671755725,0.07633587786259542,189.17210135929082,140.53001352546175,-0.015267175572519083,-0.0,0.07633587786259542,-77.00108758408346,162.46287811940243,-0.08396946564885496,-0.0,0.1297709923664122,180.00000014233,129.99969218977543,-0.007633587786259542,-0.0,0.0,0.0,0.0,0.0,0.0,0.0,115.95,77.18,-26.0,41.0,-10.0,
8.702,-19.831101168899288,162.0141452064536,-0.007633587786259542,0.007633587786259542,0.061068702290076333,188.96402085875042,140.29346603049677,-0.015267175572519083,-0.0,0.07633587786259542,-76.98199985249761,162.47792958985315,-0.08396946564885496,-0.0,0.1297709923664122,180.0000001364065,129.99967348266892,-0.007633587786259542,-0.0,0.0,0.0,0.0,0.0,0.0,0.0,116.21,77.16,-43.0,42.0,-23.0,
8.741,-19.724886029305534,161.92222319541375,-0.007633587786259542,0.007633587786259542,0.061068702290076333,188.78715243329108,140.09240065977653,-0.015267175572519083,-0.0,0.07633587786259542,-77.0474154720164,162.45878846180588,-0.061068702290076333,-0.0,0.15267175572519084,180.0000001313715,129.9996575816284,-0.007633587786259542,-0.0,0.0,0.0,0.0,0.0,0.0,0.0,116.28,77.02,-47.0,58.0,-17.0,
8.779,-19.634603160650844,161.84408948602987,-0.007633587786259542,0.007633587786259542,0.061068702290076333,188.7391590859671,139.91925033186587,0.015267175572519083,-0.022900763358778626,0.0,-77.10301874860737,162.44251850296573,-0.061068702290076333,-0.0,0.15267175572519084,180.00000012709177,129.99964406574398,-0.007633587786259542,-0.0,0.0,0.0,0.0,0.0,0.0,0.0,117.62,77.04,-38.0,59.0,-13.0,
8.818,-19.557862722294356,161.7776758330536,-0.007633587786259542,0.007633587786259542,0.061068702290076333,188.69836474074168,139.7720725531418,0.015267175572519083,-0.022900763358778626,0.0,-77.4284434034772,162.3186803943289,-0.007633587786259542,0.007633587786259542,0.183206106870229,180.000000123454,129.9996325772422,-0.007633587786259542,-0.0,0.0,0.0,0.0,0.0,0.0,0.0,119.07,75.65,-27.0,59.0,-16.0,
8.857,-19.167268990391577,161.73960762470608,0.06870229007633588,-0.04580152671755725,0.015267175572519083,188.6636895473001,139.64697144122636,0.015267175572519083,-0.022900763358778626,0.0,-77.70505436011656,162.2134180019876,-0.007633587786259542,0.007633587786259542,0.183206106870229,180.00000012036188,129.9996228120157,-0.007633587786259542,-0.0,0.0,0.0,0.0,0.0,0.0,0.0,120.61,74.13,-39.0,63.0,-48.0,
8.895,-19.258568685797194,161.3587581342472,0.08396946564885496,-0.07633587786259542,0.030534351145038167,188.63421563287474,139.54063549609822,0.015267175572519083,-0.022900763358778626,0.0,-77.94017367326,162.1239449684975,-0.007633587786259542,0.007633587786259542,0.183206106870229,180.00000011773358,129.99961451157316,-0.007633587786259542,-0.0,0.0,0.0,0.0,0.0,0.0,0.0,121.83,73.36,-53.0,89.0,-38.0,
8.934,-19.61691116858818,161.4421858402022,0.061068702290076333,-0.1297709923664122,0.04580152671755725,188.60916280561318,139.4502499427393,0.015267175572519083,-0.022900763358778626,0.0,-78.14002508943194,162.04789289003094,-0.007633587786259542,0.007633587786259542,0.183206106870229,180.00000011549955,129.999607456197,-0.007633587786259542,-0.0,0.0,0.0,0.0,0.0,0.0,0.0,124.11,72.93,-58.0,61.0,-66.0,
8.971,-19.22817490252498,161.25195963877903,0.007633587786259542,-0.1450381679389313,0.16793893129770993,188.58786790244085,139.37342222238422,0.015267175572519083,-0.022900763358778626,0.0,-78.30989879317809,161.98324862333433,-0.007633587786259542,0.007633587786259542,0.183206106870229,180.0000001136006,129.9996014591273,-0.007633587786259542,-0.0,0.0,0.0,0.0,0.0,0.0,0.0,127.12,70.5,-44.0,48.0,-46.0,
9.01,-18.89774907637126,161.0902673675693,0.007633587786259542,-0.1450381679389313,0.16793893129770993,188.56976723474438,139.3081186600824,0.015267175572519083,-0.022900763358778626,0.0,-77.80580843544848,161.99677920577832,0.03816793893129771,-0.1297709923664122,-0.07633587786259542,180.0000001119865,129.99959636161802,-0.007633587786259542,-0.0,0.0,0.0,0.0,0.0,0.0,0.0,131.11,66.83,-62.0,58.0,-68.0,
9.048,-18.67334794266969,161.35269259370267,0.08396946564885496,-0.183206106870229,0.1450381679389313,188.55438166720236,139.25261063212585,0.015267175572519083,-0.022900763358778626,0.0,-77.37733163137833,162.00828020085572,0.03816793893129771,-0.1297709923664122,-0.07633587786259542,180.00000011061454,129.99959202873515,-0.007633587786259542,-0.0,0.0,0.0,0.0,0.0,0.0,0.0,136.42,63.29,-89.0,38.0,-62.0,
9.087,-17.360281930442888,160.83198667903562,0.07633587786259542,-0.3282442748091603,0.15267175572519084,188.54130393479167,139.2054288083628,0.015267175572519083,-0.022900763358778626,0.0,-77.01312634791867,162.01805604667152,0.03816793893129771,-0.1297709923664122,-0.07633587786259542,180.00000010944834,129.9995883457847,-0.007633587786259542,-0.0,0.0,0.0,0.0,0.0,0.0,0.0,141.03,67.41,-43.0,-12.0,-48.0,
9.126,-16.238068777486962,161.76171074031816,0.08396946564885496,-0.3816793893129771,0.22900763358778625,188.53018786224257,139.1653242581642,0.015267175572519083,-0.022900763358778626,0.0,-76.70355185697798,162.02636551561494,0.03816793893129771,-0.1297709923664122,-0.07633587786259542,180.00000010845707,129.99958521527682,-0.007633587786259542,-0.0,0.0,0.0,0.0,0.0,0.0,0.0,143.32,66.7,31.0,-75.0,60.0,
9.165,-15.284187597474427,162.55197619240835,0.08396946564885496,-0.3816793893129771,0.22900763358778625,188.52073920057583,139.13123539049536,0.015267175572519083,-0.022900763358778626,0.0,-76.44041353967839,162.03342856421685,0.03816793893129771,-0.1297709923664122,-0.07633587786259542,180.00356880990458,130.00062072228405,0.11450381679389313,0.4198473282442748,0.22900763358778625,0.0,0.0,0.0,0.0,0.0,143.69,65.25,-14.0,-59.0,17.0,
9.204,-14.473388594463772,163.223701826685,0.08396946564885496,-0.3816793893129771,0.22900763358778625,186.36483209431518,134.62748705444773,-0.2824427480916031,0.549618320610687,0.2595419847328244,-76.21674596997374,162.03943215552846,0.03816793893129771,-0.1297709923664122,-0.07633587786259542,180.00660220613494,130.00150090324018,0.11450381679389313,0.4198473282442748,0.22900763358778625,0.0,0.0,0.0,0.0,0.0,143.36,65.09,-35.0,-72.0,0.0,
9.243,-13.784209441904716,163.79466861582014,0.08396946564885496,-0.3816793893129771,0.22900763358778625,184.5323110539936,130.79930096880722,-0.2824427480916031,0.549618320610687,0.2595419847328244,-76.0266285357248,162.04453520814334,0.03816793893129771,-0.1297709923664122,-0.07633587786259542,180.01261952422848,118.00224904334091,0.11450381679389313,0.8244274809160306,-0.22137404580152673,0.0,0.0,0.0,0.0,0.0,141.23,64.97,-1.0,-84.0,46.0,
9.282,-14.79758059462323,161.8349098638583,0.17557251908396945,-0.1450381679389313,-0.05343511450381679,182.97466816972027,127.54534279601278,-0.2824427480916031,0.549618320610687,0.2595419847328244,-75.86502871661318,162.048872802866,0.03816793893129771,-0.1297709923664122,-0.07633587786259542,180.017734244608,107.80288496242652,0.11450381679389313,0.8244274809160306,-0.22137404580152673,0.0,0.0,0.0,0.0,0.0,139.61,65.2,-37.0,-72.0,18.0,
9.322,-15.658946074433969,160.1691149246907,0.17557251908396945,-0.1450381679389313,-0.05343511450381679,181.65067171808795,124.77947834913749,-0.2824427480916031,0.549618320610687,0.2595419847328244,-75.72766887036832,162.05255975838023,0.03816793893129771,-0.1297709923664122,-0.07633587786259542,180.02558557372447,111.12959726308648,-0.33587786259541985,1.2366412213740459,-0.3435114503816794,0.0,0.0,0.0,0.0,0.0,137.95,63.7,-23.0,-35.0,50.0,
9.362,-17.51028237454389,159.05678169477295,0.03816793893129771,-0.31297709923664124,-0.13740458015267176,180.52527473420045,122.42849356929351,-0.2824427480916031,0.549618320610687,0.2595419847328244,-75.61091300106017,162.05569367056734,0.03816793893129771,-0.1297709923664122,-0.07633587786259542,180.03225920347347,113.95730271864744,-0.33587786259541985,1.2366412213740459,-0.3435114503816794,0.0,0.0,0.0,0.0,0.0,136.79,64.35,-43.0,-13.0,8.0,
9.4,-19.083918229637327,158.11129844934288,0.03816793893129771,-0.31297709923664124,-0.13740458015267176,179.56868729789608,120.43015650642612,-0.2824427480916031,0.549618320610687,0.2595419847328244,-26.10585331320899,162.42690334979267,0.5572519083969466,-1.1221374045801527,0.5877862595419847,180.03793178876012,116.36085235587426,-0.33587786259541985,1.2366412213740459,-0.3435114503816794,0.0,0.0,0.0,0.0,0.0,136.25,64.67,-27.0,-6.0,11.0,
9.44,-21.43670067008924,158.43006626600044,0.10687022900763359,-0.4580152671755725,0.11450381679389313,178.75558797703738,118.73157000298883,-0.2824427480916031,0.549618320610687,0.2595419847328244,15.973447421464506,162.7424315771342,0.5572519083969466,-1.1221374045801527,0.5877862595419847,180.04275348625376,118.40386954751706,-0.33587786259541985,1.2366412213740459,-0.3435114503816794,0.0,0.0,0.0,0.0,0.0,136.26,63.99,0.0,-18.0,17.0,
9.479,-24.662894536362852,159.11182320443373,0.1984732824427481,-0.4198473282442748,0.5419847328244275,178.06445355430748,117.28777147506715,-0.2824427480916031,0.549618320610687,0.2595419847328244,51.74085304593698,163.0106305703745,0.5572519083969466,-1.1221374045801527,0.5877862595419847,180.04685192912336,120.14043416041343,-0.33587786259541985,1.2366412213740459,-0.3435114503816794,0.0,0.0,0.0,0.0,0.0,136.55,63.86,5.0,-1.0,14.0,
9.518,-27.40515932269542,159.69131660210203,0.1984732824427481,-0.4198473282442748,0.5419847328244275,177.47698929498705,116.06054272633371,-0.2824427480916031,0.549618320610687,0.2595419847328244,80.55383014378617,140.38902474057866,0.2748091603053435,-0.5267175572519084,0.6106870229007634,180.05033560556254,121.61651408137536,-0.33587786259541985,1.2366412213740459,-0.3435114503816794,0.0,0.0,0.0,0.0,0.0,136.28,63.88,12.0,-6.0,12.0,
9.558,-30.25220886395161,160.47790424128377,0.29770992366412213,-0.549618320610687,0.3893129770992366,176.9776446745647,115.01739828991029,-0.2824427480916031,0.549618320610687,0.2595419847328244,105.044860676958,121.16065978525222,0.2748091603053435,-0.5267175572519084,0.6106870229007634,180.05329673053583,122.871182014193,-0.33587786259541985,1.2366412213740459,-0.3435114503816794,0.0,0.0,0.0,0.0,0.0,136.1,63.84,19.0,-5.0,16.0,
9.597,-32.67220097401937,161.14650373458824,0.29770992366412213,-0.549618320610687,0.3893129770992366,176.5532017472057,114.13072551895038,-0.2824427480916031,0.549618320610687,0.2595419847328244,125.86223663015403,104.81654957322475,0.2748091603053435,-0.5267175572519084,0.6106870229007634,153.04848159484243,123.94037494792768,-0.015267175572519083,0.37404580152671757,0.0,0.0,0.0,0.0,0.0,0.0,135.04,64.35,37.0,-11.0,18.0,
9.637,-34.729194267576965,161.71481330389705,0.29770992366412213,-0.549618320610687,0.3893129770992366,176.19242525895055,113.37705366363447,-0.2824427480916031,0.549618320610687,0.2595419847328244,143.32640003060044,114.48027436066386,-0.10687022900763359,-0.20610687022900764,0.2824427480916031,130.09438872950304,124.84918894160215,-0.015267175572519083,0.37404580152671757,0.0,0.0,0.0,0.0,0.0,0.0,134.59,64.38,40.0,-10.0,21.0,
9.676,-36.47763856710092,162.19787643780953,0.29770992366412213,-0.549618320610687,0.3893129770992366,181.09363524121514,119.47596387577869,-0.022900763358778626,0.6870229007633588,-0.0916030534351145,158.1709389209799,122.6944404299871,-0.10687022900763359,-0.20610687022900764,0.2824427480916031,110.58340979396456,125.62168083622545,-0.015267175572519083,0.37404580152671757,0.0,0.0,0.0,0.0,0.0,0.0,133.58,64.29,46.0,-7.0,22.0,
9.715,-37.963816221696284,162.60848010163514,0.29770992366412213,-0.549618320610687,0.3893129770992366,185.25966372614005,124.66003755610127,-0.022900763358778626,0.6870229007633588,-0.0916030534351145,170.7887969778024,129.67648158891186,-0.10687022900763359,-0.20610687022900764,0.2824427480916031,93.99713113387136,126.27836383215144,-0.007633587786259542,0.1450381679389313,0.04580152671755725,0.0,0.0,0.0,0.0,0.0,133.09,64.48,35.0,2.0,12.0,
9.754,-39.22706722810234,162.9574932158869,0.29770992366412213,-0.549618320610687,0.3893129770992366,188.8007879383262,129.06650018437549,-0.022900763358778626,0.6870229007633588,-0.0916030534351145,181.51397632610156,135.6112165739979,-0.10687022900763359,-0.20610687022900764,0.2824427480916031,79.8982103033265,126.83660926418472,0.0,0.07633587786259542,0.06870229007633588,0.0,0.0,0.0,0.0,0.0,132.61,64.81,29.0,3.0,10.0,
9.793,-40.30083058354749,163.2541543630009,0.29770992366412213,-0.549618320610687,0.3893129770992366,191.81074351868446,132.81199341840858,-0.022900763358778626,0.6870229007633588,-0.0916030534351145,190.31955016351185,139.98143999850956,0.022900763358778626,0.06870229007633588,-0.6259541984732825,67.91412759736336,127.31111788141301,0.0,0.07633587786259542,0.06870229007633588,0.0,0.0,0.0,0.0,0.0,132.26,65.05,32.0,-2.0,9.0,
9.832,-41.213529435675866,163.5063163380478,0.29770992366412213,-0.549618320610687,0.3893129770992366,194.36920576198898,135.9956626673367,-0.022900763358778626,0.6870229007633588,-0.0916030534351145,197.80428792531063,143.69612990934445,0.022900763358778626,0.06870229007633588,-0.6259541984732825,57.725580961416824,127.71399600758377,-0.05343511450381679,-0.16793893129770993,0.0,0.0,0.0,0.0,0.0,0.0,132.16,65.23,38.0,-14.0,14.0,
9.87,-41.98932345998499,163.72065401683767,0.29770992366412213,-0.549618320610687,0.3893129770992366,196.5438986687978,138.70178152892558,-0.022900763358778626,0.6870229007633588,-0.0916030534351145,204.50491205878222,146.966956482524,-0.022900763358778626,0.4198473282442748,-0.26717557251908397,49.06531632086227,128.05644241482892,-0.05343511450381679,-0.16793893129770993,0.0,0.0,0.0,0.0,0.0,0.0,131.31,65.79,44.0,-24.0,9.0,
9.91,-44.355916733653146,163.5270588846086,-0.061068702290076333,-0.8931297709923665,-0.13740458015267176,198.3923876395853,141.00198256127615,-0.022900763358778626,0.6870229007633588,-0.0916030534351145,210.20044257223307,149.74715906972665,-0.022900763358778626,0.4198473282442748,-0.26717557251908397,41.704091376390906,128.34752186098729,-0.05343511450381679,-0.16793893129770993,0.0,0.0,0.0,0.0,0.0,0.0,130.66,66.85,40.0,-30.0,7.0,
9.949,-46.367521016271084,163.3625030222139,-0.061068702290076333,-0.8931297709923665,-0.13740458015267176,199.96360326475468,142.95715343877413,-0.022900763358778626,0.6870229007633588,-0.0916030534351145,215.04164350866628,152.11033126884888,-0.022900763358778626,0.4198473282442748,-0.26717557251908397,35.44497383771238,128.59539358869517,0.0,-0.4122137404580153,0.25190839694656486,0.0,0.0,0.0,0.0,0.0,129.45,67.66,39.0,-35.0,5.0,
9.989,-47.88049520926094,163.5978168267314,0.09923664122137404,-0.916030534351145,-0.24427480916030533,201.29913654614865,144.61904868464742,-0.022900763358778626,0.6870229007633588,-0.0916030534351145,219.15666430463452,154.11902763810278,-0.022900763358778626,0.4198473282442748,-0.26717557251908397,30.124723929835632,128.8060845572469,0.0,-0.4122137404580153,0.25190839694656486,0.0,0.0,0.0,0.0,0.0,128.23,68.67,29.0,-33.0,-21.0,
10.028,-49.55375619672955,164.09990623234515,0.20610687022900764,-0.7786259541984732,-0.1450381679389313,202.43433983533353,146.03165964363973,-0.022900763358778626,0.6870229007633588,-0.0916030534351145,222.65443198120752,155.8264195519686,-0.022900763358778626,0.4198473282442748,-0.26717557251908397,25.602511508140395,128.98517188051585,0.0,-0.4122137404580153,0.25190839694656486,0.0,0.0,0.0,0.0,0.0,127.34,70.45,17.0,-25.0,-19.0,
10.068,-50.873636172428654,164.5744596148608,0.21374045801526717,-0.8473282442748091,0.007633587786259542,203.3992626311407,147.23237895878316,-0.022900763358778626,0.6870229007633588,-0.0916030534351145,225.62753450629458,157.27770267875454,-0.022900763358778626,0.4198473282442748,-0.26717557251908397,21.758630949699445,129.13739610529447,0.0,-0.4122137404580153,0.25190839694656486,0.0,0.0,0.0,0.0,0.0,126.18,73.25,11.0,-19.0,-16.0,
10.107,-52.61531073016177,164.86178314685472,0.25190839694656486,-0.6183206106870229,0.1450381679389313,204.21944700757675,148.25299037665508,-0.022900763358778626,0.6870229007633588,-0.0916030534351145,228.15467165261856,158.51129333652258,-0.022900763358778626,0.4198473282442748,-0.26717557251908397,18.491332475024635,129.2667866963563,0.0,-0.4122137404580153,0.25190839694656486,0.0,0.0,0.0,0.0,0.0,124.58,75.92,9.0,-4.0,-2.0,
10.146,-54.81811298427858,164.78011754877264,0.3893129770992366,-0.4961832061068702,0.29770992366412213,204.9166037275474,149.12051008184622,-0.022900763358778626,0.6870229007633588,-0.0916030534351145,230.30273822699394,159.55984539562542,-0.022900763358778626,0.4198473282442748,-0.26717557251908397,15.71412877155105,129.37676869875884,0.0,-0.4122137404580153,0.25190839694656486,0.0,0.0,0.0,0.0,0.0,124.05,78.23,13.0,-18.0,19.0,
10.186,-57.90918276486472,164.68652727219379,0.16793893129770993,-0.45038167938931295,0.366412213740458,205.50918693952246,149.8579018312587,-0.022900763358778626,0.6870229007633588,-0.0916030534351145,232.12859481521303,160.45111464586284,-0.022900763358778626,0.4198473282442748,-0.26717557251908397,13.3535056235985,129.47025340080103,0.0,-0.4122137404580153,0.25190839694656486,0.0,0.0,0.0,0.0,0.0,122.64,79.38,21.0,-24.0,37.0,
10.225,-60.733075284489516,164.81512316536873,0.04580152671755725,-0.46564885496183206,0.022900763358778626,206.01288266970127,150.4846848182593,-0.022900763358778626,0.6870229007633588,-0.0916030534351145,233.68057291519926,161.20869350856466,-0.022900763358778626,0.4198473282442748,-0.26717557251908397,11.346975947838832,129.5497153975369,0.0,-0.4122137404580153,0.25190839694656486,0.0,0.0,0.0,0.0,0.0,121.59,80.67,9.0,-19.0,34.0,
10.264,-62.6360694297523,165.01725097863815,0.0,-0.48854961832061067,-0.17557251908396945,206.44102404035326,151.0174503572098,-0.022900763358778626,0.6870229007633588,-0.0916030534351145,234.99975430018756,161.8526355418612,-0.022900763358778626,0.4198473282442748,-0.26717557251908397,9.641425723443115,129.61725809476235,0.0,-0.4122137404580153,0.25190839694656486,0.0,0.0,0.0,0.0,0.0,120.27,80.85,13.0,-21.0,40.0,
10.303,-64.4041079673937,164.90065989171174,-0.015267175572519083,-0.37404580152671757,-0.17557251908396945,206.80494420540745,151.47030106531776,-0.022900763358778626,0.6870229007633588,-0.0916030534351145,236.1210584774276,162.39998627016325,-0.022900763358778626,0.4198473282442748,-0.26717557251908397,8.191708032706755,129.67466938740398,0.0,-0.4122137404580153,0.25190839694656486,0.0,0.0,0.0,0.0,0.0,119.38,80.62,15.0,-25.0,37.0,
10.343,-65.9069407243889,164.8015574678243,-0.015267175572519083,-0.37404580152671757,-0.17557251908396945,207.1142763457035,151.8552241672095,-0.022900763358778626,0.6870229007633588,-0.0916030534351145,240.65541837916447,162.5572747528939,-0.0916030534351145,0.1297709923664122,-0.25190839694656486,6.95944799558085,129.72346898614938,0.0,-0.4122137404580153,0.25190839694656486,0.0,0.0,0.0,0.0,0.0,118.39,80.43,11.0,-17.0,15.0,
10.381,-67.18434856783482,164.71732040751996,-0.015267175572519083,-0.37404580152671757,-0.17557251908396945,213.14969462647983,153.06655614848864,0.17557251908396945,0.5038167938931297,-0.5648854961832062,244.50962429564083,162.69096996321494,-0.0916030534351145,0.1297709923664122,-0.25190839694656486,5.9120269640238305,129.76494864508297,0.0,-0.4122137404580153,0.25190839694656486,0.0,0.0,0.0,0.0,0.0,117.44,80.9,3.0,-5.0,5.0,
10.42,-68.27014523476385,164.6457189062613,-0.015267175572519083,-0.37404580152671757,-0.17557251908396945,219.20746338522048,154.4718733234352,0.03816793893129771,0.4580152671755725,-0.4198473282442748,247.78569932464575,162.80461089198783,-0.0916030534351145,0.1297709923664122,-0.25190839694656486,5.021719087200364,129.8002063551765,0.0,-0.4122137404580153,0.25190839694656486,0.0,0.0,0.0,0.0,0.0,116.68,81.82,0.0,-5.0,0.0,
10.459,-69.19307240165352,164.5848576301914,-0.015267175572519083,-0.37404580152671757,-0.17557251908396945,224.35656683015003,155.66639292213978,0.03816793893129771,0.4580152671755725,-0.4198473282442748,249.8399062246485,162.80721132922145,-0.10687022900763359,0.1450381679389313,0.022900763358778626,4.264957391900419,129.83017540875602,0.0,-0.4122137404580153,0.25190839694656486,0.0,0.0,0.0,0.0,0.0,115.98,82.68,9.0,-13.0,22.0,
10.498,-70.45182627523262,164.9105914927343,-0.022900763358778626,-0.20610687022900764,-0.022900763358778626,228.73330475834013,156.6817345810387,0.03816793893129771,0.4580152671755725,-0.4198473282442748,251.58598208965083,162.80942170087002,-0.10687022900763359,0.1450381679389313,0.022900763358778626,3.621709950895464,129.8556491042986,0.0,-0.4122137404580153,0.25190839694656486,0.0,0.0,0.0,0.0,0.0,114.82,83.09,10.0,-25.0,26.0,
10.538,-71.52176706777485,165.1874652758958,-0.022900763358778626,-0.20610687022900764,-0.022900763358778626,231.9241248524732,157.43852379577064,0.12213740458015267,0.44274809160305345,0.48091603053435117,253.0701465749028,162.8113005167713,-0.10687022900763359,0.1450381679389313,0.022900763358778626,3.0749496260412523,129.8773017455098,0.0,-0.4122137404580153,0.25190839694656486,0.0,0.0,0.0,0.0,0.0,113.89,83.29,6.0,-21.0,18.0,
10.577,-72.43121674143575,165.42280799158306,-0.022900763358778626,-0.20610687022900764,-0.022900763358778626,234.63632193248634,158.08179462829276,0.12213740458015267,0.44274809160305345,0.48091603053435117,254.33168638736697,162.8128975102874,-0.10687022900763359,0.1450381679389313,0.022900763358778626,29.61286368611068,129.89635534550115,0.07633587786259542,-0.09923664122137404,0.07633587786259542,0.0,0.0,0.0,0.0,0.0,113.03,83.34,1.0,-17.0,13.0,
10.616,-73.34287694911444,165.6052366542985,-0.08396946564885496,-0.25190839694656486,-0.22900763358778625,236.9416894504975,158.62857483593655,0.12213740458015267,0.44274809160305345,0.48091603053435117,255.40399522796153,162.8142549547761,-0.10687022900763359,0.1450381679389313,0.022900763358778626,52.17009063716969,129.9125509054938,0.07633587786259542,-0.09923664122137404,0.07633587786259542,0.0,0.0,0.0,0.0,0.0,112.23,84.02,-2.0,-18.0,12.0,
10.655,-74.13827002647231,165.64609338364355,-0.06870229007633588,-0.2366412213740458,0.0,238.901251840807,159.09333801243378,0.12213740458015267,0.44274809160305345,0.48091603053435117,256.3154577424669,162.81540878259148,-0.10687022900763359,0.1450381679389313,0.022900763358778626,71.34373354556985,129.92631713148754,0.07633587786259542,-0.09923664122137404,0.07633587786259542,0.0,0.0,0.0,0.0,0.0,111.03,84.69,0.0,-25.0,21.0,
10.694,-74.8143541422265,165.68082160358685,-0.06870229007633588,-0.2366412213740458,0.0,240.56687987257004,159.48838671245642,0.12213740458015267,0.44274809160305345,0.48091603053435117,257.6893630526382,162.98451055568322,-0.1450381679389313,0.20610687022900764,-0.07633587786259542,87.64133001770998,129.9380184235822,0.07633587786259542,-0.09923664122137404,0.07633587786259542,0.0,0.0,0.0,0.0,0.0,109.95,85.09,2.0,-25.0,28.0,
10.732,-75.38902564061758,165.71034059053866,-0.06870229007633588,-0.2366412213740458,0.0,241.98266369956866,159.82417810747566,0.12213740458015267,0.44274809160305345,0.48091603053435117,258.8571825662838,163.1282470628112,-0.1450381679389313,0.20610687022900764,-0.07633587786259542,101.49532518696803,129.94764009438177,0.03816793893129771,0.022900763358778626,-0.04580152671755725,0.0,0.0,0.0,0.0,0.0,108.66,85.12,-1.0,-23.0,28.0,
10.771,-75.87749641424998,165.7354317294477,-0.06870229007633588,-0.2366412213740458,0.0,243.18607995251745,160.10960079324204,0.12213740458015267,0.44274809160305345,0.48091603053435117,259.8498291528826,163.25042309386998,-0.1450381679389313,0.20610687022900764,-0.07633587786259542,86.27135082097774,129.95581851456143,0.03816793893129771,0.03816793893129771,-0.015267175572519083,0.0,0.0,0.0,0.0,0.0,107.18,85.0,-1.0,-24.0,29.0,
10.809,-76.29269657183752,165.75675919752038,-0.06870229007633588,-0.2366412213740458,0.0,244.20898376752393,160.35221007614345,0.12213740458015267,0.44274809160305345,0.48091603053435117,260.69357875149154,163.35427272026993,-0.1450381679389313,0.20610687022900764,-0.07633587786259542,73.33090772438982,129.9627701717141,0.03816793893129771,0.030534351145038167,0.022900763358778626,0.0,0.0,0.0,0.0,0.0,105.95,84.33,-3.0,-21.0,17.0,
10.848,-77.28334648320019,165.80846744895734,-0.1297709923664122,-0.2595419847328244,-0.08396946564885496,245.07845201027948,160.55842796660966,0.12213740458015267,0.44274809160305345,0.48091603053435117,261.4107659103092,163.4425449027099,-0.1450381679389313,0.20610687022900764,-0.07633587786259542,62.331531092290085,129.9686790802939,0.03816793893129771,0.030534351145038167,0.022900763358778626,0.0,0.0,0.0,0.0,0.0,105.2,84.02,-9.0,-10.0,8.0,
10.887,-78.15700900392675,165.87731294893405,-0.21374045801526717,-0.366412213740458,0.030534351145038167,245.81750001662164,160.73371317350592,0.12213740458015267,0.44274809160305345,0.48091603053435117,262.02037499530417,163.51757625778387,-0.1450381679389313,0.20610687022900764,-0.07633587786259542,52.98206095500531,129.97370165258673,0.03816793893129771,0.030534351145038167,0.022900763358778626,0.0,0.0,0.0,0.0,0.0,104.39,84.11,-9.0,0.0,1.0,
10.926,-78.89962214654432,165.93583162391425,-0.21374045801526717,-0.366412213740458,0.030534351145038167,246.44569082201252,160.88270559936774,0.12213740458015267,0.44274809160305345,0.48091603053435117,209.36025304001365,163.5654787560045,-0.0916030534351145,0.12213740458015267,-0.2595419847328244,45.03501133831325,129.9779708390356,0.03816793893129771,0.030534351145038167,0.022900763358778626,0.0,0.0,0.0,0.0,0.0,103.77,84.12,-7.0,-3.0,13.0,
10.965,-79.59655086908681,165.9345484809155,-0.1297709923664122,-0.22137404580152673,0.5267175572519084,246.97965300659473,161.0093491613503,0.12213740458015267,0.44274809160305345,0.48091603053435117,164.5991493780167,163.60619587949202,-0.0916030534351145,0.12213740458015267,-0.2595419847328244,38.280019164124994,129.98159964751716,0.03816793893129771,0.030534351145038167,0.022900763358778626,0.0,0.0,0.0,0.0,0.0,103.18,83.67,-3.0,-7.0,16.0,
11.004,-80.18894028324794,165.9334578093666,-0.1297709923664122,-0.22137404580152673,0.5267175572519084,247.4335208634896,161.11699618903546,0.12213740458015267,0.44274809160305345,0.48091603053435117,128.44391120458306,163.61823936940027,-0.0916030534351145,0.030534351145038167,-0.030534351145038167,32.53827581606498,129.98468413472648,0.03816793893129771,0.030534351145038167,0.022900763358778626,0.0,0.0,0.0,0.0,0.0,102.57,83.37,-2.0,-10.0,8.0,
11.043,-80.6924712852849,165.93253073855,-0.1297709923664122,-0.22137404580152673,0.5267175572519084,248.67218132342185,161.61376507439275,0.05343511450381679,0.11450381679389313,-0.17557251908396945,97.71195875716444,163.62847633582228,-0.0916030534351145,0.030534351145038167,-0.030534351145038167,27.657793970213966,129.9873059488544,0.03816793893129771,0.030534351145038167,0.022900763358778626,0.0,0.0,0.0,0.0,0.0,101.67,83.24,0.0,-9.0,3.0,
11.082,-81.1204726370163,165.9317427283559,-0.1297709923664122,-0.22137404580152673,0.5267175572519084,249.56443351988173,161.81587021828727,0.06870229007633588,0.04580152671755725,-0.06870229007633588,71.5897991768586,163.637177757281,-0.0916030534351145,0.030534351145038167,-0.030534351145038167,23.509384401240602,129.98953449086315,0.03816793893129771,0.030534351145038167,0.022900763358778626,0.0,0.0,0.0,0.0,0.0,100.91,83.38,-2.0,-7.0,3.0,
11.12,-81.48427378598801,165.93107291969093,-0.1297709923664122,-0.22137404580152673,0.5267175572519084,250.30811046816132,162.04424610755896,0.08396946564885496,-0.0,0.022900763358778626,49.38596353359865,163.6445739655209,-0.0916030534351145,0.030534351145038167,-0.030534351145038167,19.983236267613243,129.9914287515706,0.03816793893129771,0.030534351145038167,0.022900763358778626,0.0,0.0,0.0,0.0,0.0,100.54,83.36,-4.0,-6.0,8.0,
11.159,-81.79350476261396,165.93050358232568,-0.1297709923664122,-0.22137404580152673,0.5267175572519084,250.94023587419898,162.2383656134399,0.08396946564885496,-0.0,0.022900763358778626,81.40575754045247,163.69204174133102,-0.04580152671755725,-0.03816793893129771,0.07633587786259542,16.98601035402999,129.9930388731719,0.03816793893129771,0.030534351145038167,0.022900763358778626,0.0,0.0,0.0,0.0,0.0,100.16,83.15,-4.0,-4.0,7.0,
11.197,-82.05635109274601,165.93001964556524,-0.1297709923664122,-0.22137404580152673,0.5267175572519084,251.47754246933098,162.4033671934387,0.08396946564885496,-0.0,0.022900763358778626,109.48558097265027,163.75301103364154,-0.06870229007633588,-0.06870229007633588,-0.030534351145038167,14.438368327484225,129.994407476533,0.03816793893129771,0.030534351145038167,0.022900763358778626,0.0,0.0,0.0,0.0,0.0,99.81,82.86,-3.0,-7.0,5.0,
11.235,-82.27977047335825,165.92960829931886,-0.1297709923664122,-0.22137404580152673,0.5267175572519084,252.8277149241917,162.63312874780664,0.061068702290076333,0.030534351145038167,-0.03816793893129771,133.3534308900184,163.8048349321055,-0.06870229007633588,-0.06870229007633588,-0.030534351145038167,12.272872604920325,129.99557078938997,0.03816793893129771,0.030534351145038167,0.022900763358778626,0.0,0.0,0.0,0.0,0.0,99.46,82.65,-4.0,-5.0,0.0,
11.273,-82.46967694687866,165.92925865500942,-0.1297709923664122,-0.22137404580152673,0.5267175572519084,253.9753615108233,162.8284260690194,0.061068702290076333,0.030534351145038167,-0.03816793893129771,153.30862648190964,163.600526223216,-0.05343511450381679,-0.09923664122137404,-0.030534351145038167,10.43220124074101,129.9965596053184,0.03816793893129771,0.030534351145038167,0.022900763358778626,0.0,0.0,0.0,0.0,0.0,98.99,82.64,-2.0,-6.0,1.0,
11.311,-82.63109744937101,165.92896145734642,-0.1297709923664122,-0.22137404580152673,0.5267175572519084,254.4100453020776,163.06516443592835,0.030534351145038167,0.022900763358778626,-0.06870229007633588,170.27054273501716,163.42686382065992,-0.05343511450381679,-0.09923664122137404,-0.030534351145038167,8.867630581188592,129.99740009885755,0.03816793893129771,0.030534351145038167,0.022900763358778626,0.0,0.0,0.0,0.0,0.0,98.57,82.82,-5.0,-4.0,0.0,
11.35,-82.76830487648951,165.92870883933287,-0.1297709923664122,-0.22137404580152673,0.5267175572519084,255.1811165662381,163.39331252524053,0.03816793893129771,0.007633587786259542,-0.022900763358778626,184.6881715501586,163.27925077848727,-0.05343511450381679,-0.09923664122137404,-0.030534351145038167,7.537745520569037,129.9981145183658,0.03816793893129771,0.030534351145038167,0.022900763358778626,0.0,0.0,0.0,0.0,0.0,98.15,82.84,-4.0,-3.0,1.0,
11.388,-83.71699093416208,165.63576314160005,-0.030534351145038167,-0.022900763358778626,-0.007633587786259542,255.8365271407745,163.6722384011559,0.03816793893129771,0.007633587786259542,-0.022900763358778626,196.9431560430288,163.1537796926405,-0.05343511450381679,-0.09923664122137404,-0.030534351145038167,6.407343219042416,129.99872177494785,0.03816793893129771,0.030534351145038167,0.022900763358778626,0.0,0.0,0.0,0.0,0.0,97.87,82.72,-5.0,-2.0,2.0,
