time,pitch,roll,gyrx,gyry,gyrz,f1,f2,f3,f4,f5,f6,f7,g1,g2,g3
0.39,56.99,66.8,-7.71,-4.24,1.67,0.0,1.0,0.0,0.0,0.0,0.0,0.0,0.0,0.98,0.39,
0.413,65.108,76.67299999999999,-8.03,-4.92,1.75,0.0,1.0,0.0,0.0,0.0,0.0,0.0,0.0,1.28,0.39,
0.437,72.9848,86.0393,-5.7,0.38,0.55,0.0,1.0,0.0,0.0,0.0,0.0,0.0,0.0,1.18,0.49,
0.461,79.56848,94.13093,-7.83,-8.12,5.23,0.0,1.0,0.0,0.0,0.0,0.0,0.0,0.0,1.96,0.49,
0.485,85.257848,100.916093,-8.2,-1.92,-2.99,0.0,1.0,0.0,0.0,0.0,0.0,0.0,0.0,2.26,0.49,
0.508,90.3627848,106.8596093,-4.04,0.67,-1.2,0.0,1.0,0.0,0.0,0.0,0.0,0.0,0.0,1.86,0.39,
0.533,94.53627848,111.87296093,-2.99,-0.66,4.08,0.0,1.0,0.0,0.0,0.0,0.0,0.0,0.0,1.67,0.49,
0.557,98.040627848,115.974296093,-2.83,-0.94,1.19,0.0,1.0,0.0,0.0,0.0,0.0,0.0,0.0,2.06,0.59,
0.58,100.9380627848,119.3814296093,-2.4,1.54,-0.8,0.0,1.0,0.0,0.0,0.0,0.0,0.0,0.0,1.96,0.59,
0.605,103.54080627848,122.35914296093,-3.57,-0.09,1.66,0.0,1.0,0.0,0.0,0.0,0.0,0.0,0.0,1.96,0.49,
0.628,105.511080627848,124.843914296093,-5.84,-7.54,1.65,0.0,1.0,0.0,0.0,0.0,0.0,0.0,0.0,1.96,0.69,
0.653,107.4091080627848,126.9103914296093,-6.11,-0.36,-1.37,0.0,1.0,0.0,0.0,0.0,0.0,0.0,0.0,1.77,0.59,
0.676,109.08391080627848,128.82703914296093,-1.4,-3.74,0.86,0.0,1.0,0.0,0.0,0.0,0.0,0.0,0.0,1.57,0.59,
0.701,110.25939108062785,130.37770391429612,-2.32,-2.96,-0.28,0.0,1.0,0.0,0.0,0.0,0.0,0.0,0.0,1.57,0.59,
0.724,111.42093910806278,131.8017703914296,-3.52,2.02,-3.92,0.0,1.0,0.0,0.0,0.0,0.0,0.0,0.0,1.47,0.78,
0.749,112.45509391080628,133.15917703914295,-2.92,-3.08,0.71,0.0,1.0,0.0,0.0,0.0,0.0,0.0,0.0,1.47,0.78,
0.773,113.39550939108064,134.0149177039143,-1.15,0.47,-2.41,0.0,1.0,0.0,0.0,0.0,0.0,0.0,0.0,1.47,0.88,
0.797,114.45255093910806,134.84749177039143,0.06,4.13,-2.73,0.0,1.0,0.0,0.0,0.0,0.0,0.0,0.0,1.47,0.78,
0.821,115.0532550939108,135.51574917703914,-0.56,-1.69,1.89,0.0,1.0,0.0,0.0,0.0,0.0,0.0,0.0,1.47,0.78,
0.845,115.57232550939108,136.13157491770392,-1.94,-0.83,0.43,0.0,1.0,0.0,0.0,0.0,0.0,0.0,0.0,1.37,0.78,
0.869,115.9752325509391,136.5801574917704,-1.76,-0.52,0.41,0.0,1.0,0.0,0.0,0.0,0.0,0.0,0.0,1.08,0.78,
0.893,116.37552325509391,136.81401574917703,-3.01,-0.23,-2.18,0.0,1.0,0.0,0.0,0.0,0.0,0.0,0.0,0.78,0.88,
0.917,116.80255232550938,136.9724015749177,-4.01,0.46,-2.79,0.0,1.0,0.0,0.0,0.0,0.0,0.0,0.0,0.88,0.98,
0.942,117.14225523255094,137.20424015749177,-6.48,-4.01,2.01,0.0,1.0,0.0,0.0,0.0,0.0,0.0,0.0,0.88,0.88,
0.965,117.1582255232551,137.39842401574919,-9.13,-5.45,-1.25,0.0,1.0,0.0,0.0,0.0,0.0,0.0,0.0,0.98,0.88,
0.99,117.3578225523255,137.6248424015749,-6.15,-4.99,-0.72,0.0,1.0,0.0,0.0,0.0,0.0,0.0,0.0,0.78,0.78,
1.013,117.11678225523255,137.7374842401575,-2.85,-5.11,4.45,0.0,1.0,0.0,0.0,0.0,0.0,0.0,0.0,0.59,0.49,
1.038,117.02967822552326,138.01874842401577,-7.02,-2.22,-0.86,0.0,1.0,0.0,0.0,0.0,0.0,0.0,0.0,0.59,0.49,
1.061,117.13796782255233,138.36187484240156,-7.81,-5.14,-0.56,0.0,1.0,0.0,0.0,0.0,0.0,0.0,0.0,0.59,0.29,
1.086,117.09479678225523,138.63918748424015,-2.0,0.7,-0.72,1.0,1.0,0.0,0.0,0.0,0.0,0.0,0.0,0.69,0.49,
1.11,117.47747967822552,138.954918748424,2.25,6.57,-3.26,1.0,1.0,0.0,0.0,0.0,0.0,0.0,0.0,0.88,0.39,
1.133,117.82174796782255,138.86949187484242,2.24,6.86,-2.77,1.0,1.0,0.0,0.0,0.0,0.0,0.0,0.0,0.88,0.39,
1.158,117.99117479678226,138.74394918748425,-0.59,-0.55,2.89,0.0,1.0,0.0,0.0,0.0,0.0,0.0,0.0,0.88,0.59,
1.181,117.69311747967822,138.46139491874843,-5.85,-2.82,5.05,0.0,1.0,0.0,0.0,0.0,0.0,0.0,0.0,0.88,0.59,
1.206,117.53731174796782,138.36113949187484,-7.76,-5.69,1.36,1.0,1.0,0.0,0.0,0.0,0.0,0.0,0.0,1.37,0.59,
1.229,117.45873117479678,138.3691139491875,-7.95,-4.82,0.47,1.0,1.0,0.0,0.0,0.0,0.0,0.0,0.0,1.77,0.59,
1.254,117.67587311747968,138.45091139491876,-5.64,2.44,-3.31,1.0,1.0,0.0,0.0,0.0,0.0,0.0,0.0,1.57,0.69,
1.277,118.05758731174795,138.64809113949187,-3.35,-0.93,2.63,1.0,1.0,0.0,0.0,0.0,0.0,0.0,0.0,1.67,0.59,
1.302,118.3657587311748,138.6948091139492,-1.72,2.41,0.85,1.0,1.0,0.0,0.0,0.0,0.0,0.0,0.0,2.16,0.49,
1.326,118.42357587311749,138.63648091139493,-2.31,3.05,0.69,1.0,1.0,0.0,0.0,0.0,0.0,0.0,0.0,2.35,0.69,
1.349,118.22235758731176,138.3426480911395,-5.93,-1.61,2.72,1.0,1.0,0.0,0.0,0.0,0.0,0.0,0.0,2.16,0.69,
1.374,117.96823575873117,138.20526480911394,-10.33,-5.96,2.24,1.0,1.0,0.0,0.0,0.0,0.0,0.0,0.0,2.26,0.78,
1.397,117.69982357587313,138.1825264809114,-11.0,-7.64,1.53,1.0,1.0,0.0,0.0,0.0,0.0,0.0,0.0,5.69,0.78,
1.422,117.52898235758731,138.27025264809114,-9.49,-6.43,-0.71,1.0,1.0,0.0,0.0,0.0,0.0,0.0,0.0,5.98,0.78,
1.445,117.64689823575873,138.5130252648091,-6.19,-2.69,-4.1,1.0,1.0,0.0,0.0,0.0,0.0,0.0,0.0,5.79,0.78,
1.47,117.93768982357587,138.7443025264809,-1.53,1.62,0.66,1.0,1.0,0.0,0.0,0.0,0.0,0.0,0.0,3.63,0.78,
1.494,118.10176898235758,138.83043025264809,0.61,3.42,-0.52,1.0,1.0,0.0,0.0,0.0,0.0,0.0,0.0,2.75,0.78,
1.517,118.23517689823575,138.6680430252648,-0.05,4.33,-2.71,1.0,1.0,0.0,0.0,0.0,0.0,0.0,0.0,2.84,0.78,
1.542,118.20351768982358,138.4538043025265,-2.65,0.65,-0.54,1.0,1.0,0.0,0.0,0.0,0.0,0.0,0.0,2.75,0.88,
1.565,118.02035176898235,138.18938043025264,-7.06,-4.31,2.95,1.0,1.0,0.0,0.0,0.0,0.0,0.0,0.0,1.96,0.88,
1.59,117.84903517689823,137.96493804302526,-7.93,-4.6,2.67,1.0,1.0,0.0,0.0,0.0,0.0,0.0,0.0,1.67,0.98,
1.613,117.60690351768983,137.98749380430255,-7.1,-5.34,1.08,1.0,1.0,0.0,0.0,0.0,0.0,0.0,0.0,5.2,0.78,
1.637,117.339690351769,138.07074938043027,-7.73,-9.18,4.11,1.0,1.0,0.0,0.0,0.0,0.0,0.0,0.0,5.49,0.78,
1.661,117.39396903517691,138.13307493804302,-3.16,-1.45,-2.6,1.0,1.0,0.0,0.0,0.0,0.0,0.0,0.0,8.34,0.39,
1.685,117.63339690351769,138.2833074938043,-0.46,2.28,-3.47,1.0,1.0,0.0,0.0,0.0,0.0,0.0,0.0,7.55,0.29,
1.71,117.72033969035178,138.29833074938045,-0.4,3.46,-0.93,1.0,1.0,0.0,0.0,0.0,0.0,0.0,0.0,4.91,0.2,
1.733,117.74703396903519,138.29983307493805,-0.73,-0.89,1.49,1.0,1.0,0.0,0.0,0.0,0.0,0.0,0.0,4.51,0.29,
1.757,117.47970339690352,138.2639833074938,-1.95,-2.31,-0.63,1.0,1.0,0.0,0.0,0.0,0.0,0.0,0.0,3.92,0.39,
1.781,117.47097033969035,138.3863983307494,-3.77,-3.19,-0.34,1.0,1.0,0.0,0.0,0.0,0.0,0.0,0.0,4.81,0.49,
1.805,117.56909703396903,138.45263983307495,-1.76,0.7,-4.73,1.0,1.0,0.0,0.0,0.0,0.0,0.0,0.0,5.2,0.49,
1.829,117.73190970339691,138.5492639833075,0.31,-0.18,0.1,1.0,1.0,0.0,0.0,0.0,0.0,0.0,0.0,4.81,0.49,
1.853,117.76619097033968,138.56792639833074,0.34,-0.54,0.15,1.0,1.0,0.0,0.0,0.0,0.0,0.0,0.0,3.83,0.59,
1.876,117.86861909703396,138.41679263983306,0.71,2.58,-2.16,1.0,1.0,0.0,0.0,0.0,0.0,0.0,0.0,3.34,0.49,
1.901,118.0138619097034,138.3566792639833,-0.02,0.92,-1.95,1.0,1.0,0.0,0.0,0.0,0.0,0.0,0.0,3.24,0.49,
1.925,117.77638619097034,138.13466792639835,-3.21,-3.98,5.39,1.0,1.0,0.0,0.0,0.0,0.0,0.0,0.0,3.14,0.59,
1.948,117.68063861909704,138.12146679263984,-3.21,-0.05,-3.32,1.0,1.0,0.0,0.0,0.0,0.0,0.0,0.0,3.04,0.59,
1.973,117.7250638619097,138.282146679264,-4.38,-2.0,-1.82,1.0,1.0,0.0,0.0,0.0,0.0,0.0,0.0,2.65,0.69,
1.996,117.84650638619097,138.3792146679264,-2.47,-1.4,-1.23,1.0,1.0,0.0,0.0,0.0,0.0,0.0,0.0,2.35,0.69,
2.021,117.6786506386191,138.43392146679264,-2.24,-5.17,1.64,1.0,1.0,0.0,0.0,0.0,0.0,0.0,0.0,2.35,0.78,
2.044,117.62586506386191,138.33139214667926,-1.75,0.68,-0.75,1.0,1.0,0.0,0.0,0.0,0.0,0.0,0.0,2.16,0.69,
2.069,117.93558650638619,138.20413921466792,-0.36,3.02,-1.17,1.0,1.0,0.0,0.0,0.0,0.0,0.0,0.0,2.45,0.69,
2.093,117.87655865063863,138.1914139214668,-4.01,-1.74,2.73,1.0,1.0,0.0,0.0,0.0,0.0,0.0,0.0,2.84,0.78,
2.117,117.69965586506386,138.05514139214665,-6.45,-2.75,7.27,1.0,1.0,0.0,0.0,0.0,0.0,0.0,0.0,3.04,0.69,
2.141,117.87096558650639,137.82551413921468,-1.22,2.92,1.37,1.0,1.0,0.0,0.0,0.0,0.0,0.0,0.0,2.35,0.88,
2.164,117.93309655865063,137.46055141392145,-7.34,0.4,5.43,1.0,1.0,0.0,0.0,0.0,0.0,0.0,0.0,1.28,0.88,
2.189,118.29030965586506,137.19005514139215,-13.25,1.02,6.81,1.0,1.0,0.0,0.0,0.0,0.0,0.0,0.0,0.49,0.88,
2.212,118.7130309655865,136.44300551413923,-11.15,9.5,11.52,0.0,1.0,0.0,0.0,0.0,0.0,0.0,0.0,0.0,0.88,
2.237,119.86230309655865,135.23430055141392,-9.45,23.61,15.28,0.0,1.0,0.0,0.0,0.0,0.0,0.0,0.0,0.0,0.78,
2.26,121.42623030965586,133.5024300551414,-12.21,23.56,26.63,0.0,1.0,0.0,0.0,0.0,0.0,0.0,0.0,0.0,0.88,
2.285,121.96062303096558,130.64724300551416,-24.8,9.47,28.86,0.0,1.0,0.0,0.0,0.0,0.0,0.0,0.0,0.0,1.18,
2.309,122.95006230309656,126.05972430055142,-40.36,16.1,18.02,0.0,1.0,0.0,0.0,0.0,0.0,0.0,0.0,0.0,1.08,
2.333,127.12600623030966,112.67697243005514,-47.6,12.22,-13.42,0.0,1.0,0.0,0.0,0.0,0.0,0.0,0.0,0.0,0.59,
2.358,128.33560062303096,110.73569724300552,-66.12,11.22,39.56,0.0,1.0,0.0,0.0,0.0,0.0,0.0,0.0,0.0,0.39,
2.381,127.2145600623031,109.83056972430056,-88.18,30.23,39.55,0.0,1.0,0.0,0.0,0.0,0.0,0.0,0.0,0.0,0.39,
2.406,126.33745600623031,109.98305697243005,-98.06,41.79,34.08,0.0,1.0,0.0,0.0,0.0,0.0,0.0,0.0,0.0,0.29,
2.429,126.24074560062303,110.97030569724299,-98.17,38.71,46.12,0.0,1.0,0.0,0.0,0.0,0.0,0.0,0.0,0.0,0.39,
2.454,126.4200745600623,113.2560305697243,-89.75,-0.58,44.33,0.0,1.0,0.0,0.0,0.0,0.0,0.0,0.0,0.0,0.59,
2.479,125.86200745600622,116.34660305697243,-86.07,21.86,22.96,0.0,1.0,0.0,0.0,0.0,0.0,0.0,0.0,0.0,0.49,
2.502,125.11320074560062,118.77066030569725,-73.18,0.25,52.13,0.0,1.0,0.0,0.0,0.0,0.0,0.0,0.0,0.0,0.59,
2.527,123.85032007456006,120.58806603056973,-54.35,-1.37,32.95,0.0,1.0,0.0,0.0,0.0,0.0,0.0,0.0,0.0,0.59,
2.55,123.19303200745601,121.58880660305697,-39.95,-4.65,25.76,0.0,1.0,0.0,0.0,0.0,0.0,0.0,0.0,0.49,0.39,
2.575,126.4753032007456,123.3358806603057,-24.18,-127.71,13.81,0.0,1.0,0.0,0.0,0.0,0.0,0.0,0.0,8.83,0.69,
2.599,126.53353032007456,123.36658806603057,-30.98,-59.72,-1.7,0.0,1.0,0.0,0.0,0.0,0.0,0.0,0.0,3.83,0.69,
2.624,125.42335303200745,122.31665880660306,-35.28,-29.66,6.05,0.0,1.0,0.0,0.0,0.0,0.0,0.0,0.0,2.94,0.69,
2.648,124.02533530320075,121.21266588066031,-40.1,-16.42,11.98,0.0,1.0,0.0,0.0,0.0,0.0,0.0,0.0,3.43,1.08,
2.672,123.41753353032007,119.80626658806602,-34.83,-7.38,10.14,0.0,1.0,0.0,0.0,0.0,0.0,0.0,0.0,993.46,0.78,
2.697,122.89775335303202,119.1706266588066,-29.18,-30.27,-0.37,0.0,1.0,0.0,0.0,0.0,0.0,0.0,0.0,0.0,0.69,
2.721,122.71077533530321,118.56706266588066,-30.18,-29.86,4.45,0.0,1.0,0.0,0.0,0.0,0.0,0.0,0.0,0.49,0.78,
2.745,122.09807753353032,118.65070626658806,-25.22,-21.11,4.4,0.0,1.0,0.0,0.0,0.0,0.0,0.0,0.0,0.29,0.78,
2.769,121.45180775335304,118.3530706266588,-8.34,-7.59,15.95,0.0,1.0,0.0,0.0,0.0,0.0,0.0,0.0,1.37,0.39,
2.794,120.42418077533532,117.13530706266587,1.72,5.97,13.65,0.0,1.0,0.0,0.0,0.0,0.0,0.0,0.0,1.67,0.49,
2.818,119.84441807753353,115.18653070626658,2.85,-1.75,6.52,0.0,1.0,0.0,0.0,0.0,0.0,0.0,0.0,5.59,0.59,
2.841,119.39944180775335,112.39065307062666,-13.47,-11.25,-4.33,0.0,1.0,0.0,0.0,0.0,0.0,0.0,0.0,10.89,0.49,
2.866,118.53594418077533,110.19406530706266,-34.07,-15.69,-3.08,0.0,1.0,0.0,0.0,0.0,0.0,0.0,0.0,9.71,0.49,
2.89,117.86459441807754,108.73240653070626,-42.84,-8.63,7.63,0.0,1.0,0.0,0.0,0.0,0.0,0.0,0.0,11.48,0.49,
2.915,117.72545944180774,107.29024065307063,-38.92,-5.88,11.31,1.0,1.0,0.0,0.0,0.0,0.0,0.0,0.0,82.4,0.78,
2.938,117.42354594418077,106.07502406530706,-33.11,-6.01,11.13,1.0,1.0,0.0,0.0,0.0,0.0,0.0,0.0,134.1,0.29,
2.963,117.07835459441809,105.1795024065307,-34.04,-6.83,11.72,1.0,1.0,0.0,0.0,0.0,0.0,0.0,0.0,137.24,0.88,
2.988,116.71083545944181,104.63095024065306,-41.8,-9.07,12.89,1.0,1.0,0.0,0.0,0.0,0.0,0.0,0.0,37.57,0.59,
3.012,116.02608354594418,103.5410950240653,-43.67,-7.61,12.73,1.0,1.0,0.0,0.0,0.0,0.0,0.0,0.0,0.0,0.88,
3.036,116.5426083545944,104.65610950240654,-34.89,-35.95,-2.97,1.0,1.0,0.0,0.0,0.0,0.0,0.0,0.0,0.0,2.35,
3.06,113.50726083545945,108.15161095024065,10.61,-39.14,-47.65,1.0,1.0,0.0,0.0,0.0,0.0,0.0,0.0,0.0,2.16,
3.085,113.46472608354593,110.89516109502406,24.58,18.6,10.12,1.0,1.0,0.0,0.0,0.0,0.0,0.0,0.0,4.51,0.69,
3.109,112.51547260835459,110.1795161095024,-10.33,10.57,27.85,2.0,1.0,0.0,0.0,0.0,0.0,0.0,0.0,6.38,0.69,
3.133,112.36654726083545,108.45195161095025,-6.23,3.92,14.79,2.0,1.0,0.0,0.0,0.0,0.0,0.0,0.0,7.85,1.08,
3.158,111.96465472608355,105.88519516109501,-4.14,8.69,15.08,2.0,1.0,0.0,0.0,0.0,0.0,0.0,0.0,7.75,1.77,
3.182,112.67146547260836,104.7375195161095,-0.53,15.0,3.77,2.0,1.0,0.0,0.0,0.0,0.0,0.0,0.0,987.28,1.18,
3.207,113.57014654726083,104.57775195161095,0.99,7.13,0.44,1.0,1.0,0.0,0.0,0.0,0.0,0.0,0.0,2.35,0.39,
3.23,114.29901465472608,104.42677519516108,-4.6,-0.51,3.53,2.0,1.0,0.0,0.0,0.0,0.0,0.0,0.0,4.22,0.39,
3.255,114.3719014654726,103.45767751951611,-1.28,-2.49,0.66,2.0,1.0,0.0,0.0,0.0,0.0,0.0,0.0,3.04,0.29,
3.278,114.39719014654726,102.91076775195161,5.67,0.09,-1.18,2.0,1.0,0.0,0.0,0.0,0.0,0.0,0.0,3.73,0.49,
3.303,114.14771901465474,102.83807677519516,0.5,3.42,1.4,3.0,1.0,0.0,0.0,0.0,0.0,0.0,0.0,3.63,0.2,
3.326,114.19477190146547,102.78580767751953,-3.79,-3.18,0.34,3.0,1.0,0.0,0.0,0.0,0.0,0.0,0.0,4.32,0.0,
3.351,114.28047719014654,102.34858076775194,-4.71,-2.28,1.05,3.0,1.0,0.0,0.0,0.0,0.0,0.0,0.0,4.51,0.1,
3.375,114.35204771901466,101.98085807677519,-4.82,-1.22,0.55,3.0,1.0,0.0,0.0,0.0,0.0,0.0,0.0,4.61,0.39,
3.399,114.45820477190146,101.71008580767753,-4.67,1.28,0.76,3.0,1.0,0.0,0.0,1.0,0.0,0.0,0.0,3.53,0.69,
3.424,114.46882047719014,101.48500858076774,-4.96,0.19,1.3,4.0,1.0,0.0,0.0,1.0,0.0,0.0,0.0,2.84,0.49,
3.447,114.59588204771902,101.33650085807677,-5.48,-2.4,0.47,4.0,1.0,0.0,0.0,0.0,0.0,0.0,0.0,2.75,0.59,
3.472,114.67158820477191,101.20465008580767,-6.28,-2.7,-1.31,4.0,1.0,0.0,0.0,1.0,0.0,0.0,0.0,3.43,0.49,
3.495,114.77815882047719,101.00246500858077,-6.85,-3.02,-0.98,4.0,1.0,0.0,0.0,1.0,0.0,0.0,0.0,5.3,0.59,
3.52,114.57281588204772,100.71224650085809,-5.98,-2.89,-0.36,4.0,1.0,0.0,0.0,1.0,0.0,0.0,0.0,6.47,0.69,
3.545,114.46228158820477,100.46722465008581,-3.56,-1.02,0.18,4.0,1.0,0.0,0.0,1.0,0.0,0.0,0.0,5.89,0.98,
3.569,114.48722815882047,100.37072246500858,-1.95,1.05,1.21,5.0,1.0,0.0,0.0,1.0,0.0,0.0,0.0,6.47,0.78,
3.593,114.45372281588206,100.30707224650085,-1.47,2.34,1.82,5.0,1.0,0.0,0.0,1.0,0.0,0.0,0.0,7.26,0.59,
3.617,114.63037228158821,100.2917072246501,-1.79,2.38,1.53,5.0,1.0,0.0,0.0,1.0,0.0,0.0,0.0,6.97,0.69,
3.641,114.65703722815883,100.26317072246502,-2.21,0.29,0.13,5.0,1.0,0.0,0.0,1.0,0.0,0.0,0.0,5.79,0.49,
3.665,114.69570372281588,100.1973170722465,-2.28,-0.84,0.21,5.0,1.0,0.0,0.0,1.0,0.0,0.0,0.0,4.81,0.0,
3.689,114.70857037228157,100.25373170722466,-1.58,-0.29,0.82,5.0,1.0,0.0,0.0,1.0,0.0,0.0,0.0,4.51,0.1,
3.714,114.79985703722816,100.17837317072247,-0.58,4.36,2.18,5.0,1.0,0.0,0.0,1.0,0.0,0.0,0.0,4.12,0.0,
3.737,114.92598570372282,100.26083731707224,-1.77,-1.27,0.39,5.0,1.0,0.0,0.0,1.0,0.0,0.0,0.0,4.22,0.0,
3.762,115.04659857037228,100.28708373170723,-2.1,-0.05,0.95,5.0,1.0,0.0,0.0,1.0,0.0,0.0,0.0,4.22,0.29,
3.786,115.22965985703723,100.29870837317071,-2.08,-1.47,0.23,5.0,1.0,0.0,1.0,1.0,0.0,0.0,0.0,4.32,0.2,
3.81,115.07696598570372,100.17387083731708,-2.02,0.53,0.53,5.0,1.0,0.0,1.0,1.0,0.0,0.0,0.0,4.51,0.49,
3.834,115.09769659857037,100.17038708373171,-1.62,0.31,0.27,5.0,1.0,0.0,0.0,1.0,0.0,0.0,0.0,4.71,0.29,
3.858,115.14476965985703,100.20603870837316,-2.27,-0.37,0.82,5.0,1.0,0.0,0.0,1.0,0.0,0.0,0.0,4.91,0.39,
3.883,115.3564769659857,100.2636038708373,-2.77,-0.08,0.63,5.0,1.0,0.0,1.0,1.0,0.0,0.0,0.0,5.1,0.59,
3.907,115.48564769659858,100.31436038708372,-3.96,-0.62,0.91,5.0,1.0,0.0,1.0,1.0,0.0,0.0,0.0,5.1,0.39,
3.931,115.58856476965985,100.37343603870838,-4.15,-4.35,-0.15,5.0,1.0,0.0,1.0,1.0,0.0,0.0,0.0,5.2,0.29,
3.955,115.58085647696599,100.35234360387084,-4.53,-4.09,0.35,5.0,1.0,0.0,1.0,1.0,0.0,0.0,0.0,5.4,0.39,
3.98,115.5620856476966,100.29623436038709,-4.6,-3.73,-0.24,5.0,1.0,0.0,1.0,1.0,0.0,0.0,0.0,5.3,0.69,
4.003,115.52420856476967,100.19162343603871,-4.02,-2.21,0.41,5.0,1.0,0.0,1.0,1.0,0.0,0.0,0.0,5.2,0.78,
4.028,115.57442085647696,100.18116234360387,-3.67,-0.71,0.8,5.0,1.0,0.0,1.0,1.0,0.0,0.0,0.0,5.2,0.69,
4.052,115.44444208564771,100.1351162343604,-3.47,-1.0,0.34,5.0,1.0,0.0,1.0,1.0,0.0,0.0,0.0,5.1,0.49,
4.076,115.48544420856477,100.21151162343605,-2.87,-1.79,0.26,5.0,1.0,0.0,1.0,1.0,0.0,0.0,0.0,5.1,0.59,
4.101,115.37254442085647,100.0931511623436,-1.82,-2.3,0.8,5.0,1.0,0.0,1.0,1.0,0.0,0.0,0.0,5.2,0.0,
4.124,115.14525444208564,100.09031511623436,-2.17,-0.47,0.82,5.0,1.0,0.0,1.0,1.0,0.0,0.0,0.0,5.4,0.1,
4.149,115.20352544420855,100.13503151162344,-3.59,-1.82,0.2,5.0,1.0,0.0,1.0,1.0,0.0,0.0,0.0,5.4,0.0,
4.173,115.06535254442085,100.10350315116234,-3.86,-1.88,0.07,5.0,1.0,0.0,1.0,1.0,0.0,0.0,0.0,5.2,0.29,
4.197,115.06053525444209,100.04635031511623,-2.63,-1.06,0.66,5.0,1.0,0.0,1.0,1.0,0.0,0.0,0.0,5.2,0.39,
4.221,115.0960535254442,100.07663503151163,-2.71,-1.11,0.38,5.0,1.0,0.0,1.0,1.0,0.0,0.0,0.0,5.1,0.29,
4.246,115.10860535254442,100.09766350315117,-2.94,-2.13,-0.42,5.0,1.0,0.0,1.0,1.0,0.0,0.0,0.0,4.91,0.2,
4.27,115.12786053525444,100.00076635031512,-2.98,-2.27,0.16,5.0,1.0,0.0,1.0,1.0,0.0,0.0,0.0,4.91,0.29,
4.294,115.16578605352545,99.91007663503152,-2.52,0.21,0.68,5.0,1.0,0.0,1.0,1.0,0.0,0.0,0.0,5.0,0.39,
4.318,115.19657860535256,99.84700766350316,-2.27,0.08,0.43,5.0,1.0,0.0,1.0,1.0,0.0,0.0,0.0,5.1,0.69,
4.342,115.23565786053524,99.93970076635031,-2.99,-0.27,0.44,5.0,1.0,0.0,1.0,1.0,0.0,0.0,0.0,5.1,0.69,
4.366,115.21256578605352,99.93997007663503,-3.11,-1.21,-0.08,5.0,1.0,0.0,1.0,1.0,0.0,0.0,0.0,4.91,0.49,
4.39,115.21025657860534,99.98499700766351,-3.06,-2.34,-0.12,5.0,1.0,0.0,1.0,1.0,0.0,0.0,0.0,4.91,0.49,
4.415,115.20102565786054,99.99849970076635,-2.67,-2.01,-0.02,5.0,1.0,0.0,1.0,1.0,0.0,0.0,0.0,4.91,0.49,
4.439,115.15510256578605,100.04484997007663,-2.43,-0.32,0.5,5.0,1.0,0.0,1.0,1.0,0.0,0.0,0.0,4.91,0.69,
4.463,115.17751025657861,100.03148499700767,-2.65,-1.36,0.31,5.0,1.0,0.0,1.0,1.0,0.0,0.0,0.0,4.91,0.59,
4.487,115.19775102565787,100.00314849970076,-2.66,-0.81,0.36,5.0,1.0,0.0,1.0,1.0,0.0,0.0,0.0,4.81,0.69,
4.511,115.1637751025658,100.01831484997007,-2.58,-0.85,0.28,5.0,1.0,0.0,1.0,1.0,0.0,0.0,0.0,4.81,0.59,
4.536,115.27737751025658,100.05583148499701,-2.18,-0.79,0.25,5.0,1.0,0.0,1.0,1.0,0.0,0.0,0.0,4.71,0.59,
4.559,115.19873775102566,100.0955831484997,-2.44,0.36,0.51,5.0,1.0,0.0,1.0,1.0,0.0,0.0,0.0,4.81,0.78,
4.584,115.25387377510258,100.09055831484997,-2.22,-0.37,0.17,5.0,1.0,0.0,1.0,1.0,0.0,0.0,0.0,4.81,0.29,
4.609,115.18738737751026,100.054055831485,-2.02,0.27,0.19,5.0,1.0,0.0,1.0,1.0,0.0,0.0,0.0,4.71,0.2,
4.632,115.19873873775103,100.1134055831485,-2.17,-0.08,0.59,5.0,1.0,0.0,1.0,1.0,0.0,0.0,0.0,4.81,0.2,
4.657,115.2898738737751,100.08334055831486,-2.23,-0.12,0.34,5.0,1.0,0.0,1.0,1.0,0.0,0.0,0.0,4.91,0.49,
4.68,115.28098738737752,100.04433405583148,-2.08,-0.07,-0.01,5.0,1.0,0.0,1.0,1.0,0.0,0.0,0.0,4.91,0.49,
4.705,115.26209873873776,100.03143340558314,-2.11,0.63,0.44,5.0,1.0,0.0,1.0,1.0,0.0,0.0,0.0,5.0,0.29,
4.729,115.35920987387378,100.09314334055831,-2.12,0.23,0.41,5.0,1.0,0.0,1.0,1.0,0.0,0.0,0.0,5.1,0.49,
4.753,115.40492098738737,100.06331433405583,-2.35,-0.89,0.15,5.0,1.0,0.0,1.0,1.0,0.0,0.0,0.0,5.2,0.59,
4.777,115.46349209873874,100.06033143340558,-2.56,-1.18,0.11,5.0,1.0,0.0,1.0,1.0,0.0,0.0,0.0,5.3,0.59,
4.801,115.52334920987387,100.06903314334056,-2.85,-1.16,-0.07,5.0,1.0,0.0,1.0,1.0,0.0,0.0,0.0,5.3,0.59,
4.826,115.42133492098739,100.06990331433406,-2.95,-1.1,0.24,5.0,1.0,0.0,1.0,1.0,0.0,0.0,0.0,5.4,0.59,
4.85,115.43813349209874,100.0879903314334,-2.53,-0.08,0.42,5.0,1.0,0.0,1.0,1.0,0.0,0.0,0.0,5.4,0.59,
4.874,115.49381334920987,100.13479903314334,-2.76,0.27,0.48,5.0,1.0,0.0,1.0,1.0,0.0,0.0,0.0,5.49,0.59,
4.898,115.55338133492099,100.19347990331434,-3.1,-0.37,0.03,5.0,1.0,0.0,1.0,1.0,0.0,0.0,0.0,5.49,0.78,
4.922,115.5863381334921,100.26234799033142,-2.97,-0.74,0.4,5.0,1.0,0.0,1.0,1.0,0.0,0.0,0.0,5.49,0.69,
4.946,115.55363381334921,100.26023479903316,-3.04,-0.83,0.44,5.0,1.0,0.0,1.0,1.0,0.0,0.0,0.0,5.49,0.69,
4.971,115.60436338133492,100.28702347990333,-3.15,-0.79,0.08,5.0,1.0,0.0,1.0,1.0,0.0,0.0,0.0,5.59,0.78,
4.995,115.59143633813349,100.28070234799034,-2.9,0.27,0.14,5.0,1.0,0.0,1.0,1.0,0.0,0.0,0.0,5.59,0.59,
5.019,115.54514363381335,100.28007023479904,-2.79,-0.33,0.01,5.0,1.0,0.0,1.0,1.0,0.0,0.0,0.0,5.59,0.59,
5.043,115.62151436338132,100.33400702347991,-2.69,-0.41,0.11,5.0,1.0,0.0,1.0,1.0,0.0,0.0,0.0,5.69,0.1,
5.067,115.62915143633812,100.339400702348,-2.74,-0.32,0.37,5.0,1.0,0.0,1.0,1.0,0.0,0.0,0.0,5.69,0.2,
5.092,115.62991514363381,100.38494007023479,-2.88,-0.14,0.08,5.0,1.0,0.0,1.0,1.0,0.0,0.0,0.0,5.59,0.2,
5.115,115.65699151436337,100.30849400702347,-2.73,-0.15,0.37,5.0,1.0,0.0,1.0,1.0,0.0,0.0,0.0,5.69,0.29,
5.14,115.74969915143635,100.26484940070236,-2.66,-0.51,0.14,5.0,1.0,0.0,1.0,1.0,0.0,0.0,0.0,5.89,0.29,
5.165,115.74996991514362,100.18848494007024,-2.67,0.12,0.11,5.0,1.0,0.0,1.0,1.0,0.0,0.0,0.0,5.79,0.39,
5.188,115.74099699151435,100.21684849400702,-2.38,0.81,0.37,5.0,1.0,0.0,1.0,1.0,0.0,0.0,0.0,5.79,0.2,
5.213,115.80309969915143,100.32768484940071,-2.63,0.08,0.26,5.0,1.0,0.0,1.0,1.0,0.0,0.0,0.0,5.79,0.39,
5.236,115.85430996991514,100.33876848494008,-2.85,-0.54,0.06,5.0,1.0,0.0,1.0,1.0,0.0,0.0,0.0,5.79,0.59,
5.261,115.8864309969915,100.375876848494,-2.8,-1.24,-0.08,5.0,1.0,0.0,1.0,1.0,0.0,0.0,0.0,5.79,0.59,
5.285,115.95264309969915,100.3885876848494,-2.71,-1.24,0.05,5.0,1.0,0.0,1.0,1.0,0.0,0.0,0.0,5.89,0.59,
5.309,115.97726430996991,100.36285876848494,-2.8,-0.79,-0.22,5.0,1.0,0.0,1.0,1.0,0.0,0.0,0.0,5.89,0.59,
5.334,115.98872643099698,100.36928587684851,-2.88,-0.32,0.21,5.0,1.0,0.0,1.0,1.0,0.0,0.0,0.0,5.89,0.78,
5.358,116.04387264309969,100.40592858768485,-2.87,-0.11,-0.01,5.0,1.0,0.0,1.0,1.0,0.0,0.0,0.0,5.89,0.78,
5.382,116.09438726430996,100.41859285876848,-2.97,-0.29,0.28,5.0,1.0,0.0,1.0,1.0,0.0,0.0,0.0,5.89,0.78,
5.406,116.045438726431,100.43785928587684,-3.06,0.08,0.23,5.0,1.0,0.0,1.0,1.0,0.0,0.0,0.0,5.89,0.29,
5.43,116.13054387264309,100.47578592858768,-2.98,-0.2,0.31,5.0,1.0,0.0,1.0,1.0,0.0,0.0,0.0,5.79,0.2,
5.454,116.13905438726431,100.51557859285877,-2.69,-1.28,-0.18,5.0,1.0,0.0,1.0,1.0,0.0,0.0,0.0,5.79,0.69,
5.479,116.09490543872644,100.49255785928588,-2.63,-0.27,0.09,5.0,1.0,0.0,1.0,1.0,0.0,0.0,0.0,5.89,1.47,
5.502,116.08149054387263,100.4992557859286,-2.54,0.82,0.81,5.0,1.0,0.0,1.0,1.0,0.0,0.0,0.0,5.98,0.49,
5.527,116.15214905438725,100.50892557859287,-2.92,-0.38,0.08,5.0,1.0,0.0,1.0,1.0,0.0,0.0,0.0,5.98,0.2,
5.552,116.24021490543872,100.51889255785929,-2.87,-1.02,0.03,5.0,1.0,0.0,1.0,1.0,0.0,0.0,0.0,5.89,0.29,
5.575,116.25802149054387,100.52888925578593,-3.08,-1.11,0.14,5.0,1.0,0.0,1.0,1.0,0.0,0.0,0.0,5.89,0.29,
5.6,116.21480214905438,100.52988892557859,-3.05,-0.92,0.11,5.0,1.0,0.0,0.0,1.0,0.0,0.0,0.0,5.89,0.49,
5.624,116.19248021490543,100.52098889255785,-2.96,-0.99,0.08,5.0,1.0,0.0,0.0,1.0,0.0,0.0,0.0,5.79,0.49,
5.648,116.15424802149055,100.51109888925579,-2.85,-0.55,0.15,5.0,1.0,0.0,0.0,1.0,0.0,0.0,0.0,5.79,0.39,
5.672,116.19542480214905,100.51910988892558,-3.02,-0.73,0.05,5.0,1.0,0.0,0.0,1.0,0.0,0.0,0.0,5.69,0.39,
5.696,116.2445424802149,100.55591098889256,-2.89,-0.73,0.15,5.0,1.0,0.0,0.0,1.0,0.0,0.0,0.0,5.69,0.49,
5.721,116.2584542480215,100.55959109888926,-2.84,-1.13,0.09,5.0,1.0,0.0,0.0,1.0,0.0,0.0,0.0,5.79,0.69,
5.745,116.25084542480215,100.55995910988892,-2.94,-0.78,0.25,5.0,1.0,0.0,0.0,1.0,0.0,0.0,0.0,5.79,0.69,
5.769,116.31308454248021,100.51499591098889,-2.67,-1.06,0.22,5.0,1.0,0.0,0.0,1.0,0.0,0.0,0.0,5.79,0.78,
5.793,116.38230845424802,100.56449959109888,-2.79,-1.01,0.27,5.0,1.0,0.0,0.0,1.0,0.0,0.0,0.0,5.89,0.59,
5.818,116.47023084542481,100.56044995910989,-3.06,-1.4,-0.02,5.0,1.0,0.0,0.0,1.0,0.0,0.0,0.0,5.89,0.59,
5.841,116.49702308454249,100.560044995911,-2.95,-1.61,-0.19,5.0,1.0,0.0,0.0,1.0,0.0,0.0,0.0,5.79,0.78,
5.866,116.49070230845425,100.5780044995911,-2.94,-1.19,-0.02,5.0,1.0,0.0,0.0,1.0,0.0,0.0,0.0,5.89,0.88,
5.891,116.40907023084543,100.55280044995911,-3.3,-0.73,0.13,5.0,1.0,0.0,0.0,1.0,0.0,0.0,0.0,5.79,0.88,
5.914,116.40990702308454,100.55928004499592,-3.06,-1.62,-0.08,5.0,1.0,0.0,0.0,1.0,0.0,0.0,0.0,5.79,0.88,
5.939,116.40999070230846,100.5239280044996,-3.16,-1.21,-0.08,5.0,1.0,0.0,0.0,1.0,0.0,0.0,0.0,5.79,0.59,
5.963,116.35599907023085,100.58339280044996,-2.95,-0.68,0.03,5.0,1.0,0.0,0.0,1.0,0.0,0.0,0.0,5.79,0.29,
5.987,116.44059990702308,100.607339280045,-2.89,-1.0,0.15,5.0,1.0,0.0,0.0,1.0,0.0,0.0,0.0,5.89,0.2,
6.011,116.52105999070231,100.5827339280045,-3.05,-1.11,0.07,5.0,1.0,0.0,0.0,1.0,0.0,0.0,0.0,5.89,0.2,
6.036,116.53810599907024,100.59827339280044,-3.05,-0.82,-0.03,5.0,1.0,0.0,0.0,1.0,0.0,0.0,0.0,5.89,0.39,
6.06,116.53081059990703,100.59982733928004,-3.17,-0.61,0.37,5.0,1.0,0.0,0.0,1.0,0.0,0.0,0.0,5.79,0.39,
6.084,116.5390810599907,100.58198273392802,-3.16,-1.36,0.13,5.0,1.0,0.0,0.0,1.0,0.0,0.0,0.0,5.79,0.59,
6.109,116.45890810599907,100.64319827339281,-3.08,-1.42,0.07,5.0,1.0,0.0,0.0,1.0,0.0,0.0,0.0,5.79,0.59,
6.132,116.45089081059992,100.61331982733928,-3.29,-0.83,0.16,5.0,1.0,0.0,0.0,1.0,0.0,0.0,0.0,5.69,0.39,
6.157,116.40508908106,100.58333198273394,-3.19,-1.07,-0.01,5.0,1.0,0.0,0.0,1.0,0.0,0.0,0.0,5.79,0.59,
6.18,116.409508908106,100.5893331982734,-3.05,-1.44,-0.24,5.0,1.0,0.0,0.0,1.0,0.0,0.0,0.0,5.79,0.69,
6.205,116.3919508908106,100.58093331982734,-3.16,-1.66,-0.03,5.0,1.0,0.0,0.0,1.0,0.0,0.0,0.0,5.79,0.78,
6.23,116.41719508908106,100.58909333198274,-3.18,-1.01,0.04,5.0,1.0,0.0,1.0,1.0,0.0,0.0,0.0,5.89,0.69,
6.253,116.43771950890812,100.58990933319828,-3.04,-0.87,0.18,5.0,1.0,0.0,1.0,1.0,0.0,0.0,0.0,5.79,0.88,
6.278,116.44877195089082,100.61699093331984,-2.99,-1.4,-0.05,5.0,1.0,0.0,1.0,1.0,0.0,0.0,0.0,5.89,0.59,
6.302,116.44087719508909,100.58369909333199,-3.24,-1.22,0.07,5.0,1.0,0.0,1.0,1.0,0.0,0.0,0.0,5.89,0.78,
6.326,116.4580877195089,100.5623699093332,-3.17,-1.31,-0.2,5.0,1.0,0.0,1.0,1.0,0.0,0.0,0.0,5.89,0.88,
6.35,116.47780877195089,100.57823699093332,-3.17,-1.5,0.14,5.0,1.0,0.0,1.0,1.0,0.0,0.0,0.0,5.79,0.88,
6.375,116.4527808771951,100.57982369909334,-3.08,-1.2,0.08,5.0,1.0,0.0,1.0,1.0,0.0,0.0,0.0,5.89,0.49,
6.398,116.4592780877195,100.60698236990933,-3.01,-1.65,-0.17,5.0,1.0,0.0,1.0,1.0,0.0,0.0,0.0,5.89,0.2,
6.423,116.45992780877194,100.62769823699092,-3.22,-1.18,0.05,5.0,1.0,0.0,1.0,1.0,0.0,0.0,0.0,5.79,0.39,
6.448,116.4779927808772,100.57576982369908,-3.07,-1.21,-0.16,5.0,1.0,0.0,1.0,1.0,0.0,0.0,0.0,5.79,0.2,
6.471,116.47979927808773,100.60657698236992,-3.15,-1.56,0.02,5.0,1.0,0.0,1.0,1.0,0.0,0.0,0.0,5.89,0.39,
6.496,116.50697992780877,100.537657698237,-3.14,-0.96,0.15,5.0,1.0,0.0,1.0,1.0,0.0,0.0,0.0,5.89,0.49,
6.52,116.48269799278088,100.5217657698237,-3.11,-0.82,0.27,5.0,1.0,0.0,1.0,1.0,0.0,0.0,0.0,5.89,0.59,
6.544,116.5792697992781,100.55617657698238,-3.21,-1.66,0.03,5.0,1.0,0.0,1.0,1.0,0.0,0.0,0.0,5.79,0.39,
6.568,116.46292697992781,100.54161765769824,-2.98,-1.37,0.05,5.0,1.0,0.0,1.0,1.0,0.0,0.0,0.0,5.79,0.49,
6.593,116.46929269799278,100.49516176576982,-3.2,-1.07,0.34,5.0,1.0,0.0,1.0,1.0,0.0,0.0,0.0,5.79,0.39,
6.617,116.46992926979928,100.48151617657697,-3.14,-1.2,0.05,5.0,1.0,0.0,1.0,1.0,0.0,0.0,0.0,5.79,0.69,
6.641,116.46099292697991,100.4711516176577,-3.25,-1.04,0.1,5.0,1.0,0.0,1.0,1.0,0.0,0.0,0.0,5.79,0.78,
6.666,116.46909929269799,100.42511516176577,-3.22,-1.1,0.24,5.0,1.0,0.0,1.0,1.0,0.0,0.0,0.0,5.79,0.78,
6.689,116.4159099292698,100.41151151617657,-3.13,-1.43,-0.05,5.0,1.0,0.0,1.0,1.0,0.0,0.0,0.0,5.79,0.78,
6.714,116.43759099292699,100.43715115161766,-3.02,-1.06,0.15,5.0,1.0,0.0,1.0,1.0,0.0,0.0,0.0,5.79,0.69,
6.737,116.4127590992927,100.42171511516176,-3.32,-1.58,0.05,5.0,1.0,0.0,1.0,1.0,0.0,0.0,0.0,5.89,0.69,
6.762,116.32927590992927,100.39317151151617,-3.1,-1.37,0.05,5.0,1.0,0.0,1.0,1.0,0.0,0.0,0.0,5.79,0.88,
6.787,116.35692759099292,100.4083171511516,-3.08,-0.84,0.26,5.0,1.0,0.0,1.0,1.0,0.0,0.0,0.0,5.79,0.88,
6.81,116.35969275909929,100.37383171511517,-3.21,-1.4,0.09,5.0,1.0,0.0,1.0,1.0,0.0,0.0,0.0,5.79,0.78,
6.835,116.42296927590994,100.39738317151154,-3.13,-1.41,-0.02,5.0,1.0,0.0,1.0,1.0,0.0,0.0,0.0,5.69,0.49,
6.859,116.438296927591,100.43573831715115,-3.11,-1.57,-0.14,5.0,1.0,0.0,1.0,1.0,0.0,0.0,0.0,5.79,0.29,
6.883,116.3678296927591,100.41257383171511,-2.99,-1.68,-0.1,5.0,1.0,0.0,1.0,1.0,0.0,0.0,0.0,5.79,0.2,
6.907,116.35178296927592,100.39225738317151,-3.21,-1.78,-0.22,5.0,1.0,0.0,1.0,1.0,0.0,0.0,0.0,5.69,0.29,
6.932,116.3411782969276,100.37222573831716,-3.08,-1.31,0.08,5.0,1.0,0.0,1.0,1.0,0.0,0.0,0.0,5.89,0.39,
6.956,116.32211782969276,100.41522257383171,-3.2,-1.17,0.06,5.0,1.0,0.0,1.0,1.0,0.0,0.0,0.0,5.69,0.39,
6.98,116.30221178296928,100.42852225738318,-3.34,-1.61,0.02,5.0,1.0,0.0,1.0,1.0,0.0,0.0,0.0,5.79,0.59,
7.005,116.35422117829692,100.43885222573832,-3.02,-1.24,-0.02,5.0,1.0,0.0,1.0,1.0,0.0,0.0,0.0,5.79,0.59,
7.028,116.3684221178297,100.46688522257384,-2.85,-1.55,-0.05,5.0,1.0,0.0,1.0,1.0,0.0,0.0,0.0,5.89,0.59,
7.053,116.41484221178297,100.47868852225739,-2.76,-1.36,0.05,5.0,1.0,0.0,1.0,1.0,0.0,0.0,0.0,5.89,0.39,
7.077,116.4014842211783,100.46186885222573,-2.93,-0.44,0.05,5.0,1.0,0.0,1.0,1.0,0.0,0.0,0.0,5.98,0.59,
7.101,116.43614842211784,100.53218688522257,-3.14,-0.95,0.21,5.0,1.0,0.0,1.0,1.0,0.0,0.0,0.0,5.98,0.69,
7.126,116.43961484221178,100.52121868852225,-3.08,-1.56,-0.02,5.0,1.0,0.0,1.0,1.0,0.0,0.0,0.0,5.98,0.69,
7.15,116.46696148422119,100.51112186885223,-3.11,-1.56,-0.18,5.0,1.0,0.0,1.0,1.0,0.0,0.0,0.0,5.89,0.78,
7.174,116.45169614842212,100.51011218688522,-3.15,-1.38,0.05,5.0,1.0,0.0,1.0,1.0,0.0,0.0,0.0,5.89,0.69,
7.198,116.49516961484221,100.57301121868852,-3.18,-1.39,0.02,5.0,1.0,0.0,1.0,1.0,0.0,0.0,0.0,5.98,0.78,
7.223,116.51751696148422,100.57930112186885,-3.23,-1.25,-0.04,5.0,1.0,0.0,1.0,1.0,0.0,0.0,0.0,5.98,0.78,
7.246,116.50175169614843,100.57993011218689,-2.92,-1.25,-0.17,5.0,1.0,0.0,1.0,1.0,0.0,0.0,0.0,5.98,0.1,
7.271,116.57217516961484,100.63399301121869,-3.03,-1.33,0.0,5.0,1.0,0.0,1.0,1.0,0.0,0.0,0.0,5.98,0.2,
7.296,116.54321751696149,100.64839930112187,-2.95,-1.15,-0.05,5.0,1.0,0.0,1.0,1.0,0.0,0.0,0.0,5.98,0.1,
7.319,116.54932175169614,100.65883993011218,-3.07,-1.33,0.01,5.0,1.0,0.0,1.0,1.0,0.0,0.0,0.0,5.89,0.29,
7.344,116.6309321751696,100.66888399301122,-2.98,-0.87,0.22,5.0,1.0,0.0,1.0,1.0,0.0,0.0,0.0,5.98,0.29,
7.368,116.59409321751697,100.65188839930113,-3.26,-1.58,-0.21,5.0,1.0,0.0,1.0,1.0,0.0,0.0,0.0,5.98,0.39,
7.392,116.57240932175169,100.60518883993011,-3.15,-1.58,-0.13,5.0,1.0,0.0,1.0,1.0,0.0,0.0,0.0,5.98,0.39,
7.416,116.54324093217518,100.600518883993,-3.31,-0.9,0.04,5.0,1.0,0.0,1.0,1.0,0.0,0.0,0.0,5.89,0.39,
7.441,116.57632409321751,100.5460518883993,-3.07,-1.17,-0.03,5.0,1.0,0.0,1.0,1.0,0.0,0.0,0.0,5.98,0.59,
7.464,116.47163240932174,100.47760518883993,-2.74,-0.97,0.25,5.0,1.0,0.0,1.0,1.0,0.0,0.0,0.0,5.98,0.59,
7.489,116.50616324093218,100.46176051888399,-2.12,0.86,0.68,5.0,1.0,0.0,1.0,1.0,0.0,0.0,0.0,5.89,0.59,
7.514,116.51861632409322,100.5321760518884,-1.75,1.7,0.64,5.0,1.0,0.0,1.0,1.0,0.0,0.0,0.0,5.79,0.49,
7.537,116.57386163240932,100.60221760518884,-2.34,0.56,0.53,5.0,1.0,0.0,0.0,1.0,0.0,0.0,0.0,5.59,0.59,
7.562,116.56138616324094,100.59122176051889,-2.47,0.16,0.01,5.0,1.0,0.0,0.0,1.0,0.0,0.0,0.0,5.49,0.69,
7.585,116.55113861632408,100.53612217605189,-2.02,1.21,0.24,5.0,1.0,0.0,0.0,1.0,0.0,0.0,0.0,5.59,0.98,
7.61,116.5501138616324,100.4586122176052,-1.5,2.76,0.53,5.0,1.0,0.0,0.0,1.0,0.0,0.0,0.0,5.59,0.78,
7.633,116.68501138616324,100.47786122176052,-1.81,2.63,0.64,5.0,1.0,0.0,0.0,1.0,0.0,0.0,0.0,5.59,0.78,
7.658,116.74350113861632,100.55178612217605,-2.32,5.8,1.97,5.0,1.0,0.0,0.0,1.0,0.0,0.0,0.0,5.59,0.88,
7.682,116.78535011386164,100.4961786122176,-2.57,3.91,1.19,5.0,1.0,0.0,0.0,1.0,0.0,0.0,0.0,5.49,0.78,
7.706,116.92453501138615,100.56261786122175,-3.89,3.38,1.92,5.0,1.0,0.0,0.0,0.0,0.0,0.0,0.0,5.49,1.47,
7.731,117.10045350113862,100.56926178612217,-4.34,5.66,2.36,5.0,1.0,0.0,0.0,1.0,0.0,0.0,0.0,5.69,0.49,
7.754,117.24404535011386,100.47092617861222,-3.98,10.68,5.83,5.0,1.0,0.0,0.0,1.0,0.0,0.0,0.0,5.98,0.29,
7.779,117.59140453501139,100.83009261786123,-3.83,7.48,4.7,5.0,1.0,0.0,1.0,1.0,0.0,0.0,0.0,6.47,0.39,
7.802,117.64414045350114,100.81200926178612,-4.39,0.15,2.18,5.0,1.0,0.0,1.0,1.0,0.0,0.0,0.0,6.87,0.59,
7.827,117.4874140453501,100.89120092617861,-3.46,0.32,0.66,5.0,1.0,0.0,1.0,1.0,0.0,0.0,0.0,7.16,0.49,
7.851,117.32774140453502,100.84512009261786,-3.07,0.95,-1.11,5.0,1.0,0.0,1.0,1.0,0.0,0.0,0.0,7.36,0.39,
7.875,117.4827741404535,100.88551200926179,-2.74,2.4,-1.37,5.0,1.0,0.0,1.0,1.0,0.0,0.0,0.0,7.26,0.59,
7.9,117.90327741404535,100.96155120092618,-5.73,2.54,-1.51,5.0,1.0,0.0,1.0,1.0,0.0,0.0,0.0,6.97,0.78,
7.923,117.67532774140454,100.58215512009262,-9.67,1.37,-1.77,5.0,1.0,0.0,1.0,1.0,0.0,0.0,0.0,6.87,0.59,
7.948,117.89553277414045,100.47221551200926,-7.9,-2.56,-7.2,5.0,1.0,0.0,1.0,1.0,0.0,0.0,0.0,6.87,0.29,
7.972,118.02555327741405,100.15522155120092,-9.5,1.94,-11.15,5.0,1.0,0.0,1.0,1.0,0.0,0.0,0.0,6.97,0.39,
7.996,118.15555532774141,99.88952215512009,-7.4,8.37,-5.28,5.0,1.0,0.0,1.0,1.0,0.0,0.0,0.0,6.67,0.78,
8.02,118.61855553277414,99.89895221551203,-4.47,9.12,-4.59,5.0,1.0,0.0,1.0,1.0,0.0,0.0,0.0,6.38,1.08,
8.044,118.79985555327741,100.19689522155122,-10.44,3.76,-7.47,5.0,1.0,0.0,1.0,1.0,0.0,0.0,0.0,6.77,0.49,
8.069,118.61998555532773,99.98368952215512,-8.98,7.77,-8.95,6.0,1.0,0.0,2.0,1.0,0.0,0.0,0.0,7.16,0.39,
8.093,118.83599855553277,99.95336895221551,-7.08,8.45,-7.64,6.0,1.0,0.0,2.0,1.0,0.0,0.0,0.0,7.46,0.0,
8.117,119.57759985555327,100.28333689522154,-8.27,4.2,-9.06,6.0,1.0,0.0,2.0,1.0,0.0,0.0,0.0,7.85,0.0,
8.141,119.51675998555534,100.40633368952216,-7.5,1.36,-5.76,6.0,1.0,0.0,2.0,1.0,0.0,0.0,0.0,8.24,0.0,
8.165,119.74467599855552,100.01363336895221,-7.78,7.12,-7.56,7.0,1.0,0.0,2.0,1.0,0.0,0.0,0.0,8.63,2.84,
8.189,120.23546759985555,99.65936333689523,-2.0,7.74,-7.74,7.0,1.0,0.0,2.0,1.0,0.0,0.0,0.0,9.12,0.29,
8.213,120.73454675998556,99.69593633368953,5.21,9.37,-7.27,7.0,1.0,0.0,1.0,1.0,0.0,0.0,0.0,9.32,0.78,
8.238,121.49545467599854,100.20359363336897,9.61,10.33,-5.24,6.0,1.0,0.0,1.0,1.0,0.0,0.0,0.0,9.32,2.45,
8.261,121.23854546759985,101.01035936333689,8.76,1.71,-3.01,6.0,1.0,0.0,0.0,1.0,0.0,0.0,0.0,10.5,1.47,
8.286,121.51885454675998,101.4240359363337,4.36,-0.41,-2.01,5.0,1.0,0.0,0.0,1.0,0.0,0.0,0.0,11.09,5.1,
8.31,121.29488545467599,101.33040359363338,4.04,-2.72,-1.63,5.0,1.0,0.0,0.0,0.0,0.0,0.0,0.0,11.87,3.14,
8.335,121.5334885454676,101.83404035936334,0.64,-9.84,-1.0,5.0,1.0,0.0,0.0,0.0,0.0,0.0,0.0,10.59,2.35,
8.358,121.48534885454677,102.18140403593634,-11.32,-23.43,-2.56,6.0,1.0,0.0,0.0,0.0,0.0,0.0,0.29,10.4,1.18,
8.383,121.19253488545468,102.32414040359365,-17.58,-27.47,1.63,7.0,1.0,0.0,0.0,0.0,0.0,0.0,0.49,11.18,0.2,
8.408,120.38025348854548,101.69941404035936,-15.38,-34.98,0.82,8.0,1.0,0.0,0.0,0.0,0.0,0.0,0.69,11.48,0.0,
8.432,119.13802534885455,101.24094140403594,-3.5,-29.31,3.66,8.0,1.0,0.0,0.0,0.0,0.0,0.0,0.78,12.56,0.0,
8.457,118.71680253488545,101.51909414040358,-11.53,-21.94,1.72,8.0,1.0,0.0,0.0,0.0,0.0,0.0,0.78,11.77,0.0,
8.481,118.59368025348854,101.28590941404036,-28.83,-27.21,-2.67,9.0,1.0,0.0,0.0,0.0,1.0,0.0,0.59,10.59,0.0,
8.506,117.76236802534886,100.36259094140405,-12.08,-40.89,-3.07,9.0,1.0,0.0,1.0,0.0,0.0,0.0,0.49,11.38,0.0,
8.529,116.81523680253488,100.4502590941404,-8.44,-30.15,2.92,9.0,1.0,0.0,1.0,0.0,1.0,0.0,0.29,10.59,1.28,
8.554,115.82052368025349,100.10802590941404,12.95,-27.29,5.05,8.0,1.0,0.0,0.0,0.0,1.0,0.0,0.39,9.52,2.06,
8.579,114.93805236802535,100.6588025909414,11.65,-20.36,11.69,7.0,1.0,0.0,0.0,0.0,1.0,0.0,0.78,8.44,2.75,
8.603,114.70580523680253,100.61488025909415,3.71,-14.02,14.0,7.0,1.0,0.0,0.0,0.0,1.0,0.0,0.98,8.04,3.04,
8.627,113.95358052368026,101.0244880259094,-7.17,-16.73,11.66,8.0,1.0,0.0,0.0,0.0,1.0,0.0,0.98,7.26,2.45,
8.651,113.67135805236802,100.47144880259094,-19.17,3.01,2.1,8.0,1.0,0.0,0.0,0.0,1.0,0.0,0.88,8.44,1.18,
8.675,113.3641358052368,100.6951448802591,-29.73,14.9,4.47,10.0,1.0,0.0,0.0,0.0,1.0,0.0,0.78,9.61,0.0,
8.699,113.07241358052369,100.59151448802591,-33.48,27.5,0.39,11.0,1.0,0.0,1.0,0.0,1.0,0.0,0.69,13.24,0.0,
8.724,113.68224135805237,100.1851514488026,-26.82,20.32,-0.56,12.0,1.0,0.0,1.0,0.0,1.0,0.0,0.29,15.4,0.0,
8.749,114.16622413580524,99.05551514488026,-23.07,12.22,0.99,3.0,1.0,0.0,2.0,0.0,1.0,0.0,0.0,17.66,0.0,
8.772,114.25962241358053,97.92555151448802,-17.93,5.06,-0.44,7.0,2.0,0.0,2.0,0.0,1.0,0.0,0.0,21.68,0.0,
8.797,114.90796224135805,97.75855515144879,-14.76,-0.11,-1.61,10.0,2.0,0.0,3.0,0.0,1.0,0.0,0.0,25.41,0.0,
8.821,115.08079622413581,97.58885551514487,-9.23,-5.61,-2.31,12.0,2.0,0.0,3.0,0.0,1.0,0.0,0.0,28.06,0.0,
8.846,114.79207962241358,97.29288555151449,-8.73,-1.79,-2.51,14.0,2.0,0.0,3.0,0.0,0.0,0.0,0.0,28.84,0.0,
8.869,114.99720796224136,97.51528855515144,-10.92,-1.63,-2.27,15.0,2.0,0.0,4.0,0.0,0.0,0.0,0.0,28.74,0.0,
8.894,115.31472079622414,97.18652885551515,-26.31,-12.48,-4.21,17.0,2.0,0.0,4.0,1.0,1.0,0.0,0.0,28.74,0.0,
8.919,114.08647207962241,95.98365288555152,-17.89,-12.22,-0.37,20.0,2.0,0.0,5.0,1.0,1.0,0.0,0.0,29.04,0.0,
8.943,114.04464720796224,95.56636528855515,-8.47,-3.49,-1.2,21.0,2.0,0.0,5.0,2.0,2.0,0.0,0.0,28.74,0.0,
8.968,114.04946472079622,95.46163652885551,-7.65,-5.73,-0.6,21.0,2.0,0.0,5.0,2.0,2.0,0.0,0.0,27.96,0.0,
8.992,114.66194647207962,96.08116365288556,-23.71,-17.92,1.03,23.0,2.0,0.0,5.0,2.0,2.0,0.0,0.0,26.98,0.0,
9.017,114.01219464720796,95.40511636528855,-30.15,-30.26,2.85,26.0,3.0,0.0,6.0,3.0,3.0,0.0,0.0,26.78,0.0,
9.041,113.4522194647208,95.22051163652885,-30.37,-24.21,5.31,30.0,3.0,0.0,7.0,3.0,4.0,1.0,0.0,26.68,0.0,
9.066,112.61322194647208,94.3920511636529,-22.95,-22.56,4.0,32.0,4.0,0.0,8.0,4.0,5.0,1.0,0.0,26.09,0.0,
9.091,112.3493221946472,94.25520511636529,-17.72,-18.9,3.69,34.0,4.0,0.0,9.0,4.0,5.0,1.0,0.0,25.31,0.0,
9.115,111.86393221946471,94.40352051163654,-13.55,-27.8,12.73,35.0,4.0,0.0,10.0,5.0,5.0,2.0,0.0,25.02,0.39,
9.14,111.30239322194647,93.98635205116366,-3.06,-17.6,23.83,35.0,4.0,0.0,10.0,5.0,6.0,2.0,0.0,25.41,0.0,
9.164,111.03023932219465,93.18863520511636,-0.21,-12.86,19.87,35.0,4.0,0.0,11.0,6.0,6.0,3.0,0.0,23.84,0.0,
9.189,110.64302393221945,92.10986352051162,-0.21,-7.6,12.86,34.0,4.0,0.0,11.0,6.0,6.0,3.0,0.0,22.86,0.0,
9.213,110.43330239322194,91.02998635205117,1.27,4.71,5.24,34.0,4.0,0.0,11.0,6.0,7.0,4.0,0.0,21.58,0.0,
9.238,110.04333023932219,90.92199863520511,-2.21,8.19,2.64,35.0,4.0,0.0,11.0,6.0,7.0,4.0,0.0,21.88,0.0,
9.263,109.90533302393222,90.37119986352052,0.4,12.42,-2.85,37.0,4.0,0.0,11.0,6.0,8.0,5.0,0.0,24.92,0.0,
9.287,109.82853330239321,90.21711998635206,1.21,25.18,-6.31,39.0,4.0,0.0,12.0,6.0,8.0,5.0,0.0,27.47,0.0,
9.312,110.23485333023933,90.5887119986352,-0.95,25.4,-0.87,40.0,5.0,0.0,12.0,6.0,8.0,5.0,0.0,29.82,0.0,
9.336,110.41948533302393,90.72487119986351,-6.66,12.71,-4.35,39.0,5.0,0.0,1.0,6.0,9.0,5.0,0.0,32.18,0.0,
9.361,111.13994853330239,90.69348711998634,-7.86,16.88,-3.74,46.0,6.0,0.0,2.0,7.0,9.0,5.0,0.0,33.94,0.0,
9.384,111.35599485333024,91.14934871199863,-7.41,6.11,-8.89,48.0,6.0,0.0,5.0,7.0,10.0,6.0,0.0,34.63,0.0,
9.409,111.67459948533302,91.01493487119987,-9.91,5.94,-5.24,50.0,7.0,0.0,7.0,7.0,11.0,6.0,0.1,33.94,0.0,
9.434,111.85045994853331,91.16349348712,-6.31,-0.4,-4.92,53.0,7.0,0.0,10.0,7.0,12.0,7.0,1.37,33.35,0.0,
9.458,111.93104599485332,91.097349348712,-5.34,0.15,-0.76,55.0,7.0,0.0,11.0,7.0,0.0,7.0,2.75,34.14,0.0,
9.483,112.10110459948532,90.97373493487119,-6.3,-3.47,1.18,58.0,7.0,0.0,12.0,7.0,1.0,7.0,4.12,35.22,0.69,
9.507,112.14511045994853,90.88037349348711,-5.88,-3.49,1.04,55.0,8.0,0.0,14.0,7.0,2.0,8.0,5.98,36.4,0.0,
9.532,111.97851104599485,90.66403734934872,-5.32,-10.63,-0.41,58.0,8.0,0.0,16.0,8.0,3.0,8.0,7.65,37.47,0.0,
9.556,111.86285110459947,90.55240373493487,-3.98,-11.19,1.79,58.0,8.0,0.0,19.0,8.0,3.0,8.0,9.12,37.96,0.2,
9.581,112.07628511045995,90.43324037349349,-0.45,-13.21,-1.45,53.0,8.0,0.0,18.0,8.0,3.0,8.0,10.2,38.75,0.0,
9.606,112.385628511046,90.48432403734935,-0.05,-18.8,-1.34,58.0,8.0,0.0,18.0,8.0,3.0,8.0,10.99,41.59,1.08,
9.63,111.98456285110458,90.33643240373493,0.0,-5.73,1.69,58.0,8.0,0.0,17.0,8.0,3.0,8.0,11.58,44.15,1.08,
9.655,111.55745628511046,90.42064324037351,-0.34,0.8,2.53,58.0,8.0,0.0,18.0,9.0,2.0,8.0,11.97,46.4,0.29,
9.679,111.80274562851105,90.35706432403734,-1.29,1.43,2.4,58.0,8.0,0.0,19.0,9.0,2.0,8.0,11.97,48.46,0.0,
9.704,111.5302745628511,90.31470643240374,1.35,5.95,1.75,58.0,8.0,0.0,20.0,9.0,2.0,8.0,11.38,49.34,0.0,
9.729,111.50302745628511,90.57147064324036,-0.99,0.06,1.95,55.0,8.0,0.0,17.0,9.0,2.0,8.0,10.4,51.4,0.0,
9.753,111.71630274562851,90.67814706432404,-3.17,-2.27,2.5,58.0,8.0,0.0,18.0,9.0,2.0,8.0,10.1,53.86,0.0,
9.778,111.67463027456284,90.5988147064324,-2.92,-1.39,2.67,55.0,7.0,0.0,17.0,9.0,2.0,9.0,10.5,55.62,0.0,
9.802,111.50846302745627,90.81588147064323,-2.95,2.54,3.6,58.0,8.0,0.0,17.0,9.0,2.0,9.0,11.28,57.0,0.0,
9.827,111.44684630274563,90.54058814706433,-2.21,0.84,2.27,58.0,7.0,0.0,16.0,10.0,2.0,9.0,11.87,59.74,0.0,
9.851,111.64768463027455,90.53105881470643,0.17,2.56,1.55,55.0,7.0,0.0,15.0,10.0,2.0,8.0,12.26,62.69,0.0,
9.876,111.42476846302746,90.53010588147065,0.8,3.85,0.69,55.0,7.0,0.0,14.0,10.0,1.0,8.0,11.97,65.83,0.0,
9.901,111.24047684630274,90.42201058814706,1.42,12.28,-0.37,55.0,7.0,0.0,12.0,10.0,12.0,7.0,11.38,68.67,0.0,
9.925,111.83404768463028,90.42920105881473,1.73,18.91,-0.9,55.0,7.0,0.0,8.0,10.0,11.0,6.0,10.89,72.4,0.0,
9.95,112.13640476846302,90.53792010588148,2.37,15.32,-3.61,55.0,6.0,0.0,7.0,10.0,10.0,5.0,10.3,77.4,0.0,
9.974,112.4996404768463,90.95379201058816,2.76,6.78,-3.47,55.0,6.0,0.0,6.0,9.0,9.0,5.0,9.22,79.36,0.0,
9.999,112.75196404768464,91.20237920105882,2.65,9.26,-2.26,55.0,6.0,0.0,5.0,9.0,8.0,5.0,7.85,80.54,0.0,
10.023,113.25419640476846,91.56023792010588,3.09,4.77,-2.16,53.0,5.0,0.0,4.0,9.0,7.0,4.0,6.97,81.52,0.0,
10.047,113.42141964047684,91.8390237920106,4.29,8.49,-0.32,53.0,5.0,0.0,3.0,8.0,6.0,4.0,6.18,82.31,0.0,
10.072,113.76214196404769,92.13690237920106,3.7,2.34,-1.26,50.0,4.0,0.0,0.0,9.0,5.0,3.0,4.91,83.29,0.0,
10.096,114.06621419640476,92.37369023792012,3.22,-8.62,-1.71,48.0,4.0,0.0,11.0,8.0,4.0,3.0,4.12,84.17,0.0,
10.121,113.77262141964047,92.37936902379201,4.27,-10.59,-0.56,46.0,3.0,0.0,10.0,8.0,4.0,2.0,3.34,84.46,0.0,
10.145,113.66226214196405,92.4519369023792,5.42,-4.52,-0.03,44.0,3.0,0.0,9.0,7.0,3.0,2.0,2.16,83.58,0.0,
10.17,113.6062262141964,92.53119369023793,7.5,-0.16,0.66,40.0,3.0,0.0,8.0,6.0,3.0,1.0,0.1,80.15,0.2,
10.194,113.39362262141964,92.79111936902379,5.73,-2.18,-0.23,39.0,3.0,0.0,8.0,6.0,2.0,1.0,0.0,74.36,1.37,
10.219,113.39036226214196,92.92511193690238,5.5,0.02,1.06,35.0,3.0,0.0,7.0,5.0,2.0,0.0,0.0,69.75,2.45,
10.243,113.63303622621419,93.11851119369024,1.23,0.34,1.13,34.0,3.0,0.0,7.0,5.0,2.0,0.0,0.0,68.57,1.86,
10.267,113.70230362262141,93.32685111936902,-3.19,-0.96,0.62,34.0,3.0,0.0,7.0,5.0,2.0,0.0,0.0,67.1,1.08,
10.292,113.68223036226215,93.44668511193689,-6.4,-5.11,-0.42,34.0,3.0,0.0,7.0,5.0,2.0,1.0,0.0,65.24,0.29,
10.316,113.85122303622622,93.45866851119368,-7.88,-4.56,-0.18,34.0,3.0,0.0,7.0,5.0,2.0,1.0,0.0,62.29,0.2,
10.341,113.76912230362262,93.45986685111936,-6.85,-6.92,-0.37,34.0,3.0,0.0,7.0,4.0,2.0,1.0,0.0,55.82,0.59,
10.365,113.51791223036226,93.32498668511194,-6.75,-5.46,-0.88,34.0,3.0,0.0,7.0,4.0,2.0,1.0,0.0,51.5,0.88,
10.39,113.58279122303622,93.32049866851119,-5.5,-3.54,0.97,32.0,3.0,0.0,7.0,4.0,2.0,1.0,0.0,49.44,0.69,
10.415,113.62527912230361,93.28404986685112,-4.85,-5.19,1.02,34.0,3.0,0.0,7.0,4.0,2.0,1.0,0.0,48.46,0.29,
10.439,113.55752791223036,93.28940498668513,-4.79,-6.67,0.87,34.0,3.0,0.0,7.0,4.0,2.0,1.0,0.0,47.77,0.29,
10.464,113.47875279122303,93.27194049866851,-5.59,-10.59,0.63,34.0,3.0,0.0,7.0,4.0,2.0,1.0,0.0,46.79,0.29,
10.488,113.2728752791223,93.15319404986685,-6.31,-12.62,0.19,34.0,3.0,0.0,7.0,4.0,2.0,1.0,0.0,45.32,0.0,
10.513,113.09928752791224,93.12331940498669,-5.96,-12.55,-0.02,34.0,3.0,0.0,8.0,4.0,3.0,1.0,0.0,43.56,0.0,
10.537,112.86592875279123,93.02133194049867,-5.54,-6.79,0.61,34.0,3.0,0.0,8.0,3.0,3.0,1.0,0.0,41.59,0.1,
10.562,112.68059287527913,92.91213319404989,-5.15,-2.99,0.6,39.0,3.0,0.0,8.0,3.0,3.0,1.0,0.0,39.93,0.78,
10.587,112.5360592875279,92.901213319405,-4.19,-2.42,0.23,3300.0,3.0,0.0,8.0,3.0,3.0,1.0,0.0,38.46,0.69,
10.611,112.48560592875279,92.81912133194051,-4.12,-2.5,0.24,206.0,3.0,0.0,8.0,3.0,3.0,1.0,0.0,37.28,0.0,
10.636,112.48956059287528,92.78391213319406,-3.79,-4.68,-0.25,60.0,3.0,0.0,8.0,3.0,3.0,1.0,0.0,36.4,0.59,
10.66,112.29195605928751,92.7713912133194,-2.53,-2.78,-0.02,37.0,3.0,0.0,7.0,3.0,3.0,1.0,0.0,35.51,0.29,
10.685,112.28119560592876,92.97713912133194,-2.41,0.75,0.54,32.0,3.0,0.0,7.0,3.0,3.0,1.0,0.0,34.34,1.28,
10.708,112.16311956059288,93.0247139121332,-5.79,-4.09,0.55,30.0,3.0,0.0,7.0,3.0,3.0,1.0,0.0,34.43,1.08,
10.733,112.24131195605929,92.94847139121332,-5.72,-7.01,1.07,98.0,3.0,0.0,8.0,4.0,3.0,1.0,0.0,35.81,0.0,
10.758,112.18613119560592,92.79684713912134,-3.41,-10.51,0.27,32.0,3.0,0.0,8.0,4.0,3.0,1.0,0.0,37.28,0.0,
10.782,112.03661311956058,92.80868471391214,-2.71,-11.72,1.73,345.0,3.0,0.0,8.0,4.0,3.0,1.0,0.0,37.87,0.0,
10.807,111.85066131195606,92.74686847139121,-4.05,-13.73,0.57,34.0,3.0,0.0,8.0,4.0,3.0,1.0,0.0,37.87,0.0,
10.831,111.64306613119561,92.62368684713913,-4.69,-13.96,0.59,32.0,3.0,0.0,8.0,4.0,3.0,1.0,0.0,37.77,0.49,
10.856,111.35230661311957,92.5393686847139,-4.5,-10.36,0.67,34.0,3.0,0.0,8.0,4.0,3.0,1.0,0.0,37.28,0.0,
10.881,111.10723066131195,92.44993686847138,-4.73,-6.57,0.85,34.0,3.0,0.0,8.0,4.0,3.0,1.0,0.0,36.49,0.1,
10.905,110.88472306613119,92.41399368684714,-5.69,-4.86,0.72,34.0,3.0,0.0,8.0,4.0,3.0,1.0,0.0,35.61,0.29,
10.93,110.6554723066131,92.3653993686847,-5.96,-3.56,0.41,35.0,3.0,0.0,8.0,4.0,3.0,1.0,0.0,34.63,0.1,
10.954,110.51554723066131,92.27053993686847,-4.69,-4.14,0.11,35.0,3.0,0.0,8.0,4.0,3.0,1.0,0.0,34.34,0.0,
10.979,110.38455472306615,92.30605399368685,-4.03,-4.56,0.4,35.0,3.0,0.0,8.0,4.0,3.0,1.0,0.0,34.24,0.1,
11.003,110.3084554723066,92.25560539936869,-3.5,-2.98,0.6,35.0,3.0,0.0,8.0,4.0,3.0,1.0,0.0,34.24,0.29,
11.028,110.13884554723066,92.20556053993687,-2.92,-1.57,0.31,35.0,3.0,0.0,8.0,5.0,3.0,1.0,0.0,34.43,0.39,
11.053,110.07688455472307,92.10155605399369,-3.17,-1.18,0.77,35.0,3.0,0.0,8.0,5.0,3.0,1.0,0.0,35.12,0.59,
11.076,109.9986884554723,92.10015560539937,-3.32,-1.05,0.35,35.0,3.0,0.0,8.0,5.0,3.0,1.0,0.0,35.32,0.1,
11.101,109.96386884554722,92.09101556053993,-3.47,-1.59,0.17,35.0,3.0,0.0,8.0,5.0,3.0,1.0,0.0,35.51,0.0,
11.125,109.90638688455473,92.04510155605401,-3.13,-0.58,0.22,35.0,3.0,0.0,8.0,5.0,3.0,1.0,0.0,35.61,0.0,
11.15,109.83763868845547,92.08551015560539,-3.24,-0.07,0.11,35.0,3.0,0.0,8.0,5.0,3.0,1.0,0.0,35.61,0.0,
11.174,109.83976386884555,92.06255101556053,-2.78,2.28,0.1,35.0,3.0,0.0,8.0,5.0,3.0,1.0,0.0,35.71,0.0,
11.199,109.86697638688456,92.06925510155605,-2.47,4.33,0.09,35.0,3.0,0.0,8.0,5.0,3.0,1.0,0.0,35.9,0.1,
11.224,109.95969763868845,92.0339255101556,-2.21,3.49,0.08,35.0,3.0,0.0,8.0,5.0,3.0,1.0,0.0,36.1,0.2,
11.248,110.04996976386884,91.99439255101555,-2.12,2.52,-0.21,35.0,3.0,0.0,8.0,5.0,3.0,1.0,0.0,36.79,0.2,
11.273,110.12199697638688,92.08943925510155,-2.21,3.38,-0.06,35.0,3.0,0.0,8.0,5.0,3.0,1.0,0.0,36.89,0.1,
11.296,110.2641996976387,92.11694392551016,-2.67,1.72,-0.16,35.0,3.0,0.0,8.0,5.0,3.0,1.0,0.0,37.18,0.0,
11.321,110.30541996976388,92.16469439255101,-2.55,1.31,-0.21,35.0,3.0,0.0,8.0,5.0,3.0,0.0,0.0,37.38,0.39,
11.345,110.35454199697638,92.2054694392551,-2.61,1.24,-0.27,35.0,3.0,0.0,8.0,5.0,3.0,0.0,0.0,37.57,0.69,
11.37,110.38645419969764,92.24554694392552,-2.71,0.98,-0.44,35.0,3.0,0.0,8.0,5.0,3.0,0.0,0.0,37.87,0.59,
11.395,110.52464541996977,92.22255469439256,-2.54,1.89,-0.08,35.0,3.0,0.0,8.0,5.0,3.0,0.0,0.0,38.06,0.1,
11.419,110.60146454199698,92.23825546943925,-2.29,0.79,-0.39,35.0,3.0,0.0,8.0,5.0,3.0,0.0,0.0,38.36,0.1,
11.444,110.6721464541997,92.23082554694393,-2.75,1.05,-0.17,34.0,3.0,0.0,8.0,5.0,3.0,0.0,0.0,38.65,0.0,
11.468,110.75121464541998,92.23908255469438,-2.59,0.87,0.08,35.0,3.0,0.0,8.0,5.0,3.0,0.0,0.0,39.24,0.0,
11.493,110.858121464542,92.23090825546944,-2.79,-0.07,-0.07,34.0,3.0,0.0,8.0,5.0,3.0,0.0,0.0,39.73,0.0,
11.517,110.9138121464542,92.23009082554695,-2.66,0.67,0.04,37.0,3.0,0.0,8.0,5.0,3.0,0.0,0.0,40.12,0.2,
11.541,110.91938121464543,92.29300908255469,-2.65,0.08,-0.27,35.0,3.0,0.0,8.0,5.0,3.0,0.0,0.0,40.22,0.49,
11.566,110.88393812146454,92.26330090825547,-2.75,-0.32,-0.21,35.0,3.0,0.0,8.0,5.0,3.0,0.0,0.0,40.32,0.69,
11.59,110.93439381214645,92.24233009082553,-2.67,-0.18,-0.19,35.0,3.0,0.0,8.0,5.0,3.0,0.0,0.0,40.32,0.29,
11.615,111.04743938121464,92.24923300908256,-3.1,-1.36,-0.08,34.0,3.0,0.0,8.0,5.0,3.0,0.0,0.0,40.52,0.2,
11.639,111.10374393812145,92.28592330090827,-3.05,-2.08,0.0,35.0,3.0,0.0,8.0,5.0,3.0,0.0,0.0,40.32,0.29,
11.664,111.13637439381213,92.29859233009081,-3.24,-2.9,-0.18,35.0,3.0,0.0,8.0,5.0,3.0,0.0,0.0,40.02,0.39,
11.688,111.12163743938122,92.28185923300909,-3.18,-2.56,0.05,35.0,3.0,0.0,8.0,5.0,3.0,0.0,0.0,39.73,0.59,
11.713,111.04816374393812,92.2801859233009,-3.16,-2.31,0.09,35.0,3.0,0.0,8.0,5.0,3.0,0.0,0.0,39.44,0.0,
11.738,111.01381637439381,92.3070185923301,-3.15,-1.63,0.25,35.0,3.0,0.0,8.0,5.0,3.0,0.0,0.0,39.14,0.1,
11.762,111.06438163743937,92.354701859233,-3.2,-1.54,0.18,35.0,3.0,0.0,8.0,5.0,3.0,0.0,0.0,38.75,0.29,
11.787,111.05143816374392,92.3774701859233,-2.85,-2.15,-0.03,34.0,3.0,0.0,8.0,5.0,3.0,0.0,0.0,38.26,0.2,
11.811,110.9241438163744,92.36174701859233,-2.95,-1.37,-0.07,34.0,3.0,0.0,8.0,5.0,3.0,0.0,0.0,37.96,0.1,
11.836,110.90241438163744,92.42317470185924,-2.94,-1.44,-0.18,35.0,3.0,0.0,8.0,5.0,3.0,0.0,0.0,37.87,0.2,
11.86,110.90924143816375,92.37531747018593,-2.87,-0.27,-0.11,35.0,3.0,0.0,8.0,5.0,3.0,0.0,0.0,37.77,0.39,
11.885,110.99092414381637,92.3705317470186,-3.15,-1.04,-0.2,34.0,3.0,0.0,8.0,5.0,3.0,0.0,0.0,37.77,0.49,
11.91,111.04409241438162,92.37005317470187,-2.99,-0.95,-0.21,34.0,3.0,0.0,8.0,5.0,3.0,0.0,0.0,37.77,0.49,
11.934,111.08540924143817,92.3160053174702,-3.13,-0.46,0.08,34.0,3.0,0.0,8.0,5.0,3.0,0.0,0.0,37.67,0.49,
11.959,111.1525409241438,92.36460053174703,-3.13,-0.98,-0.01,34.0,3.0,0.0,8.0,5.0,3.0,0.0,0.0,37.77,0.29,
11.983,111.07825409241437,92.3964600531747,-2.93,1.21,0.14,34.0,3.0,0.0,8.0,5.0,3.0,0.0,0.0,37.96,0.49,
12.008,111.14282540924144,92.39064600531746,-2.55,0.89,0.18,34.0,3.0,0.0,8.0,5.0,3.0,0.0,0.0,38.36,0.0,
12.032,111.12228254092415,92.40806460053174,-2.5,1.87,-0.04,35.0,3.0,0.0,8.0,5.0,3.0,0.0,0.0,38.85,0.0,
12.056,111.08422825409241,92.40980646005318,-2.26,2.65,-0.16,34.0,3.0,0.0,8.0,5.0,3.0,0.0,0.0,39.34,0.0,
12.081,111.10742282540923,92.40998064600531,-2.5,2.36,0.17,35.0,3.0,0.0,8.0,5.0,3.0,0.0,0.0,40.12,0.39,
12.105,111.19974228254092,92.37399806460054,-2.47,1.46,0.09,34.0,3.0,0.0,8.0,5.0,3.0,0.0,0.0,41.2,0.29,
12.13,111.2809742282541,92.41539980646004,-2.57,-0.02,0.23,34.0,3.0,0.0,8.0,5.0,3.0,0.0,0.0,42.18,0.29,
12.154,111.30709742282541,92.44653998064601,-2.95,-0.37,0.21,34.0,3.0,0.0,8.0,5.0,3.0,0.0,0.0,43.26,0.1,
12.179,111.38170974228254,92.47665399806459,-3.08,-2.53,0.11,32.0,3.0,0.0,8.0,5.0,3.0,0.0,0.0,43.75,0.2,
12.204,111.47017097422825,92.49766539980646,-3.38,-4.02,0.26,34.0,3.0,0.0,8.0,5.0,3.0,0.0,0.0,44.05,0.59,
12.227,111.46101709742281,92.46376653998064,-3.31,-2.77,0.31,34.0,3.0,0.0,8.0,5.0,3.0,0.0,0.0,44.44,0.1,
12.252,111.45110170974229,92.40637665399808,-3.33,-2.02,0.21,34.0,3.0,0.0,8.0,5.0,3.0,0.0,0.0,44.54,0.0,
12.276,111.45911017097421,92.37363766539981,-2.86,0.83,0.26,34.0,3.0,0.0,8.0,5.0,3.0,0.0,0.0,44.24,0.59,
12.301,111.57691101709743,92.40636376653998,-2.43,3.31,0.56,34.0,3.0,0.0,8.0,5.0,3.0,0.0,0.0,44.05,1.08,
12.325,111.61569110170976,92.589636376654,-1.53,5.18,-0.02,34.0,3.0,0.0,8.0,5.0,2.0,0.0,0.0,44.44,0.49,
12.35,111.61956911017099,92.5809636376654,3.08,15.27,-0.5,32.0,3.0,0.0,7.0,4.0,2.0,0.0,0.0,44.83,0.0,
12.375,111.7279569110171,92.66109636376655,8.08,19.64,-0.07,31.0,2.0,0.0,6.0,4.0,1.0,0.0,0.0,45.03,0.29,
12.399,112.11679569110171,92.84910963637667,5.83,16.75,0.21,26.0,2.0,0.0,6.0,3.0,1.0,0.0,0.0,45.03,0.69,
12.423,112.44367956911017,92.96691096363767,8.35,15.12,1.71,25.0,2.0,0.0,5.0,3.0,1.0,0.0,0.0,45.03,1.18,
12.447,112.62936795691103,92.96069109636377,10.95,13.02,-0.55,20.0,1.0,0.0,4.0,3.0,0.0,0.0,0.0,44.83,2.35,
12.472,112.9449367956911,93.18506910963637,13.61,13.01,3.17,14.0,1.0,0.0,3.0,2.0,0.0,0.0,0.0,44.64,15.21,
12.496,113.22849367956911,93.61250691096363,13.45,11.19,4.36,345.0,1.0,0.0,2.0,2.0,0.0,0.0,0.0,44.44,5.98,
12.521,113.6978493679569,93.92525069109635,12.05,6.37,3.4,1077.0,1.0,0.0,2.0,2.0,0.0,0.0,94.37,43.26,2.94,
12.546,113.81678493679568,94.36152506910963,16.18,-1.09,5.47,-33.0,1.0,0.0,1.0,1.0,0.0,0.0,0.0,39.73,3.92,
12.57,113.98167849367957,94.46815250691097,19.02,-18.74,10.27,9.0,1.0,0.0,1.0,1.0,0.0,0.0,0.0,35.51,5.4,
12.594,114.94316784936795,96.2158152506911,26.13,-92.47,21.98,5.0,1.0,0.0,0.0,1.0,0.0,0.0,0.0,28.94,12.65,
12.618,113.28431678493678,100.2605815250691,-37.8,-228.92,10.85,2.0,1.0,0.0,0.0,1.0,0.0,0.0,0.0,20.4,11.77,
12.643,120.03043167849367,96.34505815250691,-93.68,-65.24,119.39,1.0,1.0,0.0,0.0,0.0,0.0,0.0,0.0,13.64,0.0,
12.667,126.39304316784937,100.72350581525069,-105.4,219.15,112.26,0.0,1.0,0.0,0.0,0.0,0.0,0.0,0.0,7.55,25.21,
12.692,131.67330431678494,108.19035058152507,-50.5,57.92,128.2,0.0,1.0,0.0,0.0,0.0,0.0,0.0,0.0,2.55,53.76,
12.717,126.8823304316785,114.1570350581525,-4.75,17.14,59.13,1.0,1.0,0.0,0.0,0.0,0.0,0.0,0.0,0.49,22.76,
12.74,118.21323304316785,120.81070350581524,38.05,-0.8,69.83,1.0,1.0,0.0,0.0,0.0,0.0,0.0,0.0,0.98,6.87,
12.765,109.57932330431679,125.58007035058152,52.27,-23.98,3.91,1.0,1.0,0.0,0.0,0.0,0.0,0.0,0.0,0.69,6.08,
12.789,103.38793233043168,128.97300703505815,77.27,-33.78,-32.87,1.0,1.0,0.0,0.0,0.0,0.0,0.0,0.0,12.07,5.1,
12.814,99.27679323304316,131.36430070350582,101.33,-11.11,-31.66,1.0,1.0,0.0,0.0,0.0,0.0,0.0,0.0,4.02,4.12,
12.837,97.25467932330432,131.21643007035058,114.73,3.44,-68.93,1.0,1.0,0.0,0.0,0.0,0.0,0.0,0.1,1.67,10.69,
12.862,96.76446793233043,129.84264300703506,114.05,18.4,-75.35,0.0,1.0,0.0,0.0,0.0,0.0,0.0,0.2,6.47,7.55,
12.887,97.82244679323304,127.6262643007035,94.73,24.44,-88.77,0.0,1.0,0.0,0.0,0.0,0.0,0.0,0.1,4.81,1.96,
12.91,99.9172446793233,124.16462643007034,79.4,44.87,-94.99,0.0,1.0,0.0,0.0,0.0,0.0,0.0,0.0,3.24,0.49,
12.935,102.38572446793233,120.83046264300704,75.84,30.09,-92.71,0.0,1.0,0.0,0.0,0.0,0.0,0.0,0.0,2.65,1.08,
12.958,104.89157244679323,117.3020462643007,54.97,9.84,-86.26,0.0,1.0,0.0,0.0,0.0,0.0,0.0,0.1,2.35,1.86,
12.983,107.26615724467932,113.52020462643006,44.48,9.36,-70.75,0.0,1.0,0.0,0.0,0.0,0.0,0.0,0.0,3.14,0.98,
13.006,109.85261572446794,109.91102046264301,58.89,7.21,-38.16,0.0,1.0,0.0,0.0,0.0,0.0,0.0,0.0,4.12,0.98,
13.03,113.30626157244679,105.85110204626432,121.47,-6.33,-37.32,0.0,1.0,0.0,0.0,0.0,0.0,0.0,0.0,3.14,0.78,
13.054,113.57062615724467,105.29211020462644,152.29,-59.23,-16.58,0.0,1.0,0.0,0.0,0.0,0.0,0.0,0.0,0.69,0.88,
13.078,114.58706261572446,101.80721102046265,136.18,-48.76,16.74,0.0,1.0,0.0,0.0,0.0,0.0,0.0,0.0,0.0,1.47,
13.103,114.70670626157245,97.03972110204627,95.09,-63.48,34.73,0.0,1.0,0.0,0.0,0.0,0.0,0.0,0.0,0.0,1.28,
13.127,113.47667062615724,92.02697211020464,47.37,-59.9,27.96,0.0,1.0,0.0,0.0,0.0,0.0,0.0,0.0,0.0,0.0,
13.151,118.65466706261573,81.76969721102046,-78.31,43.91,120.09,0.0,1.0,0.0,0.0,0.0,0.0,0.0,0.0,0.0,0.0,
13.175,124.78846670626157,70.28596972110205,-171.11,-163.08,15.44,0.0,1.0,0.0,0.0,0.0,0.0,0.0,0.2,2.06,0.0,
13.2,119.65084667062615,75.9235969721102,-250.14,162.98,73.54,0.0,1.0,0.0,0.0,0.0,1.0,0.0,0.49,12.95,2.75,
13.223,119.87508466706262,71.19535969721102,-250.14,159.37,92.73,4.0,0.0,0.0,0.0,0.0,1.0,0.0,0.69,11.28,0.0,
13.248,125.51350846670626,64.1795359697211,-85.25,133.97,69.75,10.0,1.0,0.0,1.0,0.0,1.0,0.0,0.0,18.44,0.0,
13.273,126.37435084667064,70.2639535969721,-52.32,11.11,-19.55,125.0,1.0,0.0,3.0,0.0,1.0,0.0,0.0,79.76,0.0,
13.297,126.36143508466706,72.7083953596972,-68.62,-39.64,-21.35,633.0,3.0,0.0,5.0,0.0,1.0,0.0,0.0,70.14,0.0,
13.323,123.9391435084667,74.92383953596972,-31.14,-20.87,-3.57,28.0,4.0,0.0,8.0,1.0,2.0,0.0,0.0,73.28,0.0,
13.347,122.15791435084667,77.63838395359697,1.92,12.98,7.54,3300.0,4.0,0.0,8.0,2.0,2.0,0.0,0.0,133.32,0.0,
13.372,121.20579143508466,80.2408383953597,11.81,20.95,14.28,-33.0,4.0,0.0,9.0,3.0,2.0,0.0,0.0,211.21,0.0,
13.396,121.56057914350846,82.70608383953598,4.33,23.85,-2.29,-33.0,3.0,0.0,9.0,4.0,1.0,0.0,0.0,213.86,0.0,
13.421,121.81205791435085,85.02260838395361,-0.24,6.37,4.5,-33.0,4.0,0.0,9.0,5.0,1.0,0.0,0.0,187.86,0.0,
13.446,121.35120579143508,86.84726083839536,-2.16,4.4,6.14,-33.0,4.0,0.0,9.0,5.0,1.0,0.0,0.0,206.99,0.0,
13.47,120.98112057914351,88.57772608383954,2.73,16.63,11.76,-33.0,3.0,0.0,10.0,6.0,1.0,0.0,0.0,219.25,0.0,
13.495,121.94311205791435,90.14577260838395,-1.6,-1.78,16.49,-33.0,3.0,0.0,10.0,8.0,1.0,0.0,0.0,218.96,0.0,
13.519,122.35431120579145,91.1845772608384,-6.02,-27.05,10.04,-33.0,3.0,0.0,10.0,9.0,1.0,0.0,0.0,219.16,0.0,
13.545,121.46843112057914,91.73845772608384,0.66,-37.82,1.3,-33.0,3.0,0.0,10.0,10.0,2.0,0.0,0.0,217.98,0.0,
13.57,119.81384311205791,92.48684577260838,7.59,-16.82,13.68,-33.0,3.0,0.0,9.0,11.0,2.0,0.0,0.0,196.79,0.0,
13.594,119.63038431120579,93.50668457726084,9.96,-14.39,20.95,-33.0,2.0,0.0,9.0,0.0,2.0,0.0,0.0,197.28,0.0,
13.619,119.63003843112058,94.0586684577261,2.68,-27.61,22.37,-33.0,2.0,0.0,8.0,1.0,2.0,0.0,0.0,194.34,0.78,
13.644,119.25200384311205,94.1498668457726,-8.92,-27.95,21.08,-33.0,2.0,0.0,8.0,3.0,2.0,0.0,2.26,190.12,1.28,
13.669,118.35920038431121,94.07798668457725,-12.88,-15.2,17.24,-33.0,2.0,0.0,8.0,3.0,2.0,0.0,7.85,188.94,0.0,
13.693,115.74092003843111,94.12479866845771,-23.9,-20.12,12.15,-33.0,2.0,0.0,9.0,4.0,2.0,1.0,11.58,184.53,0.0,
13.718,115.0740920038431,94.02147986684578,-21.61,-14.75,11.11,-33.0,2.0,0.0,10.0,3.0,2.0,1.0,15.3,172.95,0.0,
13.744,114.18840920038431,94.38014798668459,-16.86,3.65,19.47,-33.0,2.0,0.0,10.0,3.0,3.0,1.0,18.93,164.51,0.0,
13.768,115.45884092003843,93.88501479866846,-20.1,-5.4,16.91,-33.0,3.0,0.0,11.0,2.0,3.0,1.0,25.31,160.79,0.0,
13.794,119.59088409200385,94.96050147986685,-32.53,-43.48,-11.48,-33.0,4.0,0.0,0.0,0.0,3.0,1.0,30.61,153.23,0.0,
13.818,118.51008840920038,94.96005014798668,-23.7,-36.68,6.46,-33.0,5.0,0.0,5.0,0.0,4.0,2.0,36.2,136.95,0.39,
13.844,116.74600884092003,94.55500501479868,-25.92,-13.22,17.89,-33.0,5.0,0.0,8.0,1.0,4.0,2.0,44.05,139.89,2.45,
13.869,115.822600884092,92.66050050147986,-37.3,-4.05,14.71,-33.0,5.0,0.0,9.0,2.0,5.0,2.0,54.25,146.86,1.28,
13.893,114.8302600884092,92.35405005014798,-57.34,2.06,8.57,-33.0,4.0,0.0,8.0,3.0,6.0,3.0,73.77,146.56,0.0,
13.918,114.56002600884092,91.7744050050148,-66.89,-4.73,16.95,-33.0,3.0,0.0,5.0,4.0,7.0,4.0,88.88,138.03,0.0,
13.943,114.5150026008841,91.50044050050148,-78.57,-7.63,35.52,-33.0,2.0,0.0,12.0,4.0,9.0,4.0,108.69,121.35,0.0,
13.968,113.2955002600884,91.19404405005014,-92.44,11.5,42.79,-33.0,0.0,0.0,7.0,5.0,10.0,5.0,130.67,89.57,0.0,
13.993,111.92255002600884,89.95740440500501,-117.87,23.18,50.78,0.0,0.0,0.0,3.0,4.0,11.0,6.0,163.73,69.85,0.2,
14.018,113.65725500260089,93.5957404405005,-152.47,-0.37,73.82,0.0,0.0,0.0,0.0,5.0,11.0,6.0,182.86,51.5,37.28,
14.043,113.66872550026008,93.87857404405005,-197.38,32.72,60.0,0.0,0.0,0.0,0.0,4.0,12.0,6.0,193.36,30.9,31.2,
14.068,113.49887255002601,94.10485740440501,-250.14,38.82,90.51,0.0,0.0,0.0,1.0,4.0,12.0,6.0,193.55,17.66,131.16,
14.093,115.3178872550026,93.67748574044049,-250.14,92.83,189.8,0.0,0.0,0.0,3.0,10.0,11.0,5.0,177.66,11.38,102.61,
14.118,116.42678872550026,88.26174857404405,-250.14,151.95,188.15,0.0,0.0,0.0,3.0,4.0,11.0,2.0,75.64,7.46,104.48,
14.143,122.91867887255002,83.63417485740442,-233.73,149.27,101.43,0.0,0.0,0.0,0.0,1.0,4.0,0.0,15.11,0.0,128.12,
14.168,133.04486788725498,97.24741748574044,-55.21,43.01,204.34,0.0,0.0,0.0,0.0,0.0,4.0,0.0,0.0,0.0,111.74,
14.192,117.1014867887255,109.02174174857404,58.19,-57.54,57.5,0.0,1.0,0.0,0.0,0.0,4.0,0.0,0.0,0.0,45.81,
14.216,107.45214867887255,111.18917417485741,66.66,5.51,47.02,0.0,1.0,0.0,0.0,0.0,4.0,0.0,0.0,0.0,13.64,
14.24,80.16221486788726,130.97191741748574,93.36,-42.49,-27.02,0.0,1.0,0.0,0.0,0.0,0.0,0.0,0.0,17.36,2.55,
14.265,102.12922148678872,144.49719174174857,130.94,-79.65,-67.28,0.0,1.0,0.0,0.0,0.0,0.0,0.0,0.0,9.52,17.17,
14.289,111.53492214867887,151.04271917417486,161.15,-115.62,-56.11,0.0,1.0,0.0,0.0,0.0,0.0,0.0,0.0,41.1,6.97,
14.314,108.2634922148679,146.9092719174175,203.99,-53.92,-68.4,0.0,1.0,0.0,0.0,0.0,0.0,0.0,0.0,48.46,0.0,
14.339,103.85934922148678,136.43392719174176,209.77,16.27,-86.08,0.0,1.0,0.0,0.0,0.0,0.0,0.0,0.0,4.22,0.0,
14.362,105.31793492214868,123.47939271917419,198.07,45.23,-125.23,0.0,1.0,0.0,0.0,0.0,0.0,0.0,0.0,13.44,0.0,
14.387,107.28179349221486,112.86893927191741,196.06,11.53,-125.73,0.0,1.0,0.0,0.0,0.0,0.0,0.0,0.0,19.13,1.28,
14.411,107.76617934922147,103.62689392719174,178.74,38.66,-93.17,0.0,1.0,0.0,0.0,0.0,0.0,0.0,0.0,16.78,0.49,
14.436,107.25661793492215,95.62868939271917,139.97,18.55,-104.45,0.0,1.0,0.0,0.0,0.0,0.0,0.0,0.0,18.15,4.22,
14.46,108.5556617934922,88.86186893927191,106.09,-28.71,-128.44,0.0,1.0,0.0,0.0,0.0,0.0,0.0,0.0,36.69,17.07,
14.485,110.38656617934922,82.5871868939272,101.35,-28.04,-54.5,0.0,1.0,0.0,0.0,0.0,0.0,0.0,0.0,30.61,7.26,
14.509,112.52265661793493,76.95571868939273,37.58,-17.57,-59.99,0.0,1.0,0.0,0.0,0.0,0.0,0.0,0.0,32.37,2.94,
14.533,114.16726566179348,72.11757186893927,3.4,-6.34,11.18,0.0,1.0,0.0,0.0,0.0,0.0,0.0,0.0,19.42,0.0,
14.558,111.00172656617936,65.37875718689392,94.34,51.02,-49.69,0.0,1.0,0.0,0.0,2.0,1.0,0.0,0.1,5.4,0.0,
14.582,112.08017265661793,59.54787571868939,116.74,-26.91,-1.31,8.0,1.0,0.0,3.0,3.0,2.0,0.0,0.0,2.45,0.0,
14.607,107.6160172656618,67.02878757186893,63.33,250.14,111.21,26.0,3.0,0.0,7.0,3.0,3.0,0.0,0.0,9.91,0.0,
14.631,107.8986017265662,68.9288787571869,-18.5,-12.34,-42.79,44.0,4.0,0.0,9.0,4.0,4.0,0.0,0.0,41.89,0.0,
14.656,108.49386017265662,72.69188787571869,3.51,58.98,46.67,42.0,4.0,0.0,9.0,5.0,3.0,0.0,0.0,56.8,0.0,
14.681,111.91938601726565,75.59718878757187,11.35,24.76,19.17,37.0,3.0,0.0,8.0,5.0,4.0,0.0,0.0,52.09,0.0,
14.705,113.72893860172657,78.20971887875719,1.08,2.84,-3.82,37.0,3.0,0.0,8.0,5.0,3.0,0.0,0.0,47.87,0.0,
14.73,113.76589386017265,80.64897188787572,3.84,1.18,-4.5,37.0,4.0,0.0,8.0,5.0,3.0,0.0,0.0,51.01,0.0,
14.753,113.96758938601725,82.80089718878757,-0.23,23.39,0.56,39.0,3.0,0.0,9.0,5.0,3.0,0.0,0.0,52.19,0.0,
14.778,114.59075893860172,84.38408971887876,-5.79,24.74,1.42,40.0,4.0,0.0,9.0,5.0,4.0,0.0,0.0,54.74,0.0,
14.802,116.08407589386017,85.40640897188788,-9.76,5.34,-2.44,42.0,4.0,0.0,9.0,5.0,4.0,0.0,0.0,58.47,0.0,
14.827,116.66540758938602,86.5616408971888,-10.45,-13.35,-5.98,44.0,4.0,0.0,10.0,6.0,4.0,1.0,0.1,59.64,0.0,
14.852,116.3815407589386,87.48716408971887,-5.34,-11.42,-4.1,46.0,4.0,0.0,10.0,6.0,4.0,1.0,0.39,59.15,0.0,
14.877,115.97515407589385,88.4527164089719,0.33,6.86,6.81,46.0,4.0,0.0,11.0,6.0,4.0,0.0,0.69,58.37,0.0,
14.901,116.20451540758938,89.26027164089717,-0.23,1.99,4.85,46.0,4.0,0.0,11.0,6.0,4.0,0.0,1.08,59.15,0.0,
14.925,116.53345154075893,89.82702716408971,-4.5,-1.62,-1.03,46.0,5.0,0.0,11.0,6.0,4.0,1.0,2.26,60.53,0.0,
14.95,116.4313451540759,89.94670271640896,-5.51,-2.47,0.46,48.0,5.0,0.0,11.0,6.0,5.0,1.0,2.94,61.8,0.0,
14.974,116.41213451540759,90.30067027164091,-2.16,5.58,0.95,48.0,5.0,0.0,11.0,6.0,5.0,1.0,3.34,62.0,0.0,
14.999,116.45521345154074,90.6060670271641,0.21,7.41,-0.34,48.0,5.0,0.0,11.0,6.0,5.0,1.0,3.34,63.37,0.0,
15.024,116.82852134515407,91.16760670271641,-1.45,8.34,1.21,48.0,5.0,0.0,11.0,6.0,5.0,1.0,2.65,64.35,0.0,
15.048,117.1358521345154,91.64676067027165,-2.27,-1.54,-0.34,48.0,5.0,0.0,11.0,6.0,5.0,1.0,2.06,65.04,0.0,
15.073,117.36458521345153,91.91967606702717,-4.2,-7.1,0.21,48.0,5.0,0.0,11.0,6.0,5.0,1.0,2.16,64.94,0.0,
15.097,117.36045852134515,92.09096760670272,-3.4,-7.89,-0.54,48.0,5.0,0.0,12.0,6.0,5.0,1.0,2.45,64.06,0.0,
15.122,117.11704585213451,92.13509676067028,-2.75,-2.06,0.08,48.0,5.0,0.0,12.0,6.0,5.0,1.0,2.65,62.78,0.0,
15.147,117.24570458521346,92.24750967606704,-1.31,1.44,0.45,48.0,5.0,0.0,12.0,6.0,5.0,1.0,2.75,62.49,0.0,
15.171,117.45657045852134,92.4747509676067,-2.4,-3.46,-0.5,48.0,5.0,0.0,11.0,6.0,5.0,1.0,2.35,62.39,0.0,
15.196,117.49565704585213,92.55147509676067,-3.86,-5.89,-1.95,48.0,5.0,0.0,11.0,6.0,4.0,1.0,1.57,61.7,0.0,
15.22,117.38256570458522,92.64914750967607,-3.8,-5.33,-0.95,48.0,5.0,0.0,11.0,6.0,4.0,1.0,1.28,60.63,0.0,
15.245,117.22725657045851,92.68591475096761,-4.02,-8.68,-1.47,48.0,5.0,0.0,11.0,6.0,4.0,1.0,0.98,59.25,0.78,
15.269,117.07672565704584,92.72559147509676,-2.5,-1.8,-0.17,48.0,5.0,0.0,11.0,6.0,4.0,1.0,0.69,57.88,0.69,
15.294,117.10667256570459,92.78355914750969,-2.8,-4.2,0.42,48.0,5.0,0.0,11.0,6.0,4.0,1.0,0.39,57.0,0.49,
15.319,117.01966725657047,92.78035591475097,-3.12,-5.45,-0.71,48.0,5.0,0.0,11.0,6.0,4.0,1.0,0.29,56.02,1.18,
15.343,116.97496672565704,92.86103559147512,-3.08,-5.36,-0.11,48.0,4.0,0.0,11.0,6.0,4.0,1.0,0.0,55.13,0.69,
15.368,116.78149667256571,92.97710355914751,-5.1,-11.67,-0.79,48.0,4.0,0.0,11.0,6.0,5.0,1.0,0.0,53.76,0.39,
15.393,116.64514966725656,92.92571035591475,-4.42,-11.01,-0.96,46.0,4.0,0.0,11.0,5.0,5.0,1.0,0.0,51.21,0.2,
15.418,116.50551496672564,92.89357103559146,-3.35,-9.33,-1.22,46.0,4.0,0.0,11.0,5.0,5.0,1.0,0.0,48.56,1.86,
15.442,116.23955149667256,92.80935710355914,-1.8,-2.63,-0.76,44.0,4.0,0.0,10.0,5.0,5.0,1.0,0.0,46.21,2.65,
15.467,116.20395514966725,93.05293571035591,-1.73,-0.82,0.1,44.0,4.0,0.0,10.0,5.0,5.0,1.0,0.0,44.73,2.65,
15.492,115.9843955149667,93.1132935710356,-2.92,-2.19,0.53,44.0,4.0,0.0,10.0,5.0,5.0,1.0,0.0,44.15,1.96,
15.516,116.02543955149667,93.12832935710355,-2.67,0.23,0.01,42.0,4.0,0.0,10.0,5.0,5.0,1.0,0.0,43.95,1.18,
15.541,116.01154395514968,93.12983293571034,-2.85,0.84,-0.36,44.0,4.0,0.0,10.0,5.0,5.0,1.0,0.0,43.75,0.88,
15.565,115.90215439551497,93.12998329357103,-2.56,2.93,-0.44,44.0,4.0,0.0,9.0,5.0,4.0,1.0,0.0,44.15,0.88,
15.59,115.9452154395515,93.0219983293571,-1.52,7.23,0.84,44.0,4.0,0.0,9.0,5.0,4.0,1.0,0.0,45.13,0.0,
15.613,115.87752154395515,93.0921998329357,-2.47,1.05,0.22,44.0,4.0,0.0,9.0,5.0,4.0,0.0,0.0,46.6,0.0,
15.638,116.05975215439551,93.13521998329358,-2.4,0.41,-0.26,46.0,4.0,0.0,9.0,5.0,4.0,1.0,0.0,48.27,0.0,
15.663,116.06897521543954,93.06752199832937,-1.89,1.15,-0.37,44.0,4.0,0.0,9.0,5.0,4.0,1.0,0.0,50.03,0.0,
15.687,116.04289752154396,93.15075219983294,-1.61,3.54,-0.63,39.0,4.0,0.0,10.0,5.0,4.0,1.0,0.0,50.82,0.0,
15.712,116.24728975215439,93.1590752199833,-1.31,5.33,0.09,44.0,4.0,0.0,9.0,5.0,4.0,1.0,0.0,51.89,0.0,
15.736,116.35772897521544,93.17790752199834,-1.94,4.26,-0.5,44.0,4.0,0.0,9.0,5.0,4.0,0.0,0.0,53.17,0.0,
15.761,116.43177289752154,93.33279075219983,-2.82,2.89,-1.4,44.0,4.0,0.0,9.0,5.0,3.0,0.0,0.0,54.25,0.0,
15.785,116.53817728975214,93.33927907521998,-2.01,2.85,-0.56,44.0,4.0,0.0,9.0,5.0,3.0,0.0,0.0,55.82,0.0,
15.809,116.59381772897521,93.366927907522,-1.95,2.74,-0.34,44.0,4.0,0.0,9.0,5.0,3.0,0.0,0.0,57.19,0.0,
15.834,116.77038177289752,93.4146927907522,-2.06,2.05,-0.95,44.0,4.0,0.0,9.0,6.0,3.0,0.0,0.0,57.98,0.0,
15.858,116.86003817728975,93.42846927907522,-2.15,2.6,-0.56,44.0,4.0,0.0,9.0,6.0,3.0,0.0,0.0,58.47,0.0,
15.883,117.01300381772897,93.43884692790752,-2.31,3.41,-0.62,44.0,4.0,0.0,9.0,6.0,3.0,0.0,0.0,59.06,0.0,
15.907,117.1453003817729,93.50288469279076,-2.18,2.05,-1.37,44.0,4.0,0.0,9.0,5.0,2.0,0.0,0.0,59.55,0.0,
15.932,117.20353003817728,93.53628846927909,-2.24,2.7,-1.56,46.0,4.0,0.0,9.0,5.0,2.0,0.0,0.0,59.84,0.0,
15.956,117.30835300381771,93.55762884692791,-1.11,3.1,-2.05,44.0,4.0,0.0,9.0,5.0,2.0,0.0,0.0,59.94,0.0,
15.981,117.42683530038177,93.57776288469279,-1.73,0.61,-1.5,44.0,4.0,0.0,9.0,5.0,2.0,0.0,0.0,59.84,0.98,
16.006,117.60968353003818,93.63377628846928,-2.05,0.33,-0.71,44.0,4.0,0.0,9.0,5.0,2.0,0.0,0.0,59.45,0.49,
16.03,117.85296835300382,93.74737762884692,-2.45,-2.54,-0.47,44.0,4.0,0.0,9.0,5.0,2.0,0.0,0.0,59.06,0.49,
16.055,117.85929683530037,93.7947377628847,-2.18,-3.38,-0.62,44.0,4.0,0.0,9.0,5.0,2.0,0.0,0.0,58.57,0.1,
16.079,117.85992968353003,93.79047377628847,-1.82,-2.11,-0.47,44.0,4.0,0.0,8.0,5.0,2.0,0.0,0.0,57.78,0.0,
16.104,117.715992968353,93.76304737762885,-1.73,-0.86,-1.68,44.0,4.0,0.0,8.0,5.0,2.0,0.0,0.0,57.09,0.39,
16.129,117.6475992968353,93.86830473776288,-2.43,1.66,-1.94,42.0,4.0,0.0,8.0,5.0,2.0,0.0,0.0,56.02,0.78,
16.152,117.73075992968351,93.88783047377629,-3.53,-1.26,-1.21,42.0,4.0,0.0,8.0,5.0,2.0,0.0,0.0,55.43,0.78,
16.177,117.87407599296834,93.80878304737763,-3.0,1.3,-0.62,44.0,4.0,0.0,8.0,5.0,2.0,0.0,0.0,55.03,0.0,
16.201,117.92440759929684,93.83687830473777,-2.52,2.03,-0.53,44.0,4.0,0.0,8.0,5.0,2.0,0.0,0.0,55.03,0.0,
16.226,117.88444075992967,93.83968783047378,-2.69,1.47,-2.31,42.0,4.0,0.0,8.0,5.0,2.0,0.0,0.0,55.23,1.28,
16.25,117.97044407599297,93.90296878304738,-1.9,2.18,-1.08,42.0,4.0,0.0,8.0,5.0,2.0,0.0,0.0,55.52,0.0,
16.275,118.1680444075993,93.91829687830474,-2.21,0.12,-0.51,42.0,4.0,0.0,8.0,5.0,2.0,0.0,0.0,56.31,0.0,
16.3,118.29580444075992,93.97382968783049,-2.6,-0.68,-0.69,42.0,4.0,0.0,8.0,5.0,2.0,0.0,0.0,57.19,0.0,
16.324,118.34458044407599,94.03338296878306,-2.38,-1.98,-0.73,42.0,4.0,0.0,8.0,5.0,2.0,0.0,0.0,57.78,0.0,
16.349,118.29545804440761,94.11133829687832,-2.15,-1.89,-0.75,44.0,4.0,0.0,8.0,5.0,2.0,0.0,0.0,58.17,0.0,
16.373,118.27254580444075,94.16413382968783,-2.14,0.37,-0.2,42.0,4.0,0.0,8.0,5.0,2.0,0.0,0.0,58.27,0.0,
16.398,118.27025458044407,94.18741338296878,-1.97,0.2,-0.62,42.0,4.0,0.0,8.0,5.0,2.0,0.0,0.0,58.86,0.0,
16.422,118.2970254580444,94.26174133829687,-2.3,-0.51,-0.77,42.0,4.0,0.0,8.0,5.0,1.0,0.0,0.0,59.25,0.0,
16.447,118.34470254580444,94.3231741338297,-2.43,-1.31,-0.67,42.0,4.0,0.0,8.0,5.0,1.0,0.0,0.0,59.55,0.1,
16.472,118.35847025458044,94.32931741338297,-3.02,-2.56,-0.9,44.0,4.0,0.0,8.0,5.0,1.0,0.0,0.0,59.55,0.39,
16.496,118.28784702545803,94.3389317413383,-2.46,-0.49,-0.15,42.0,4.0,0.0,8.0,5.0,1.0,0.0,0.0,59.74,0.1,
16.521,118.3167847025458,94.35789317413384,-2.29,-0.63,-0.08,42.0,4.0,0.0,8.0,5.0,1.0,0.0,0.0,59.94,0.0,
16.545,118.27467847025457,94.36878931741339,-2.39,-1.21,-0.86,42.0,4.0,0.0,8.0,5.0,1.0,0.0,0.0,60.23,0.0,
16.569,118.31546784702546,94.41487893174134,-3.14,-1.49,-0.11,42.0,4.0,0.0,8.0,5.0,1.0,0.0,0.0,60.43,0.0,
16.593,118.30154678470254,94.46448789317412,-3.23,-1.09,-0.18,44.0,4.0,0.0,8.0,5.0,1.0,0.0,0.0,60.63,0.0,
16.618,118.34515467847025,94.52344878931741,-3.05,-1.31,0.08,42.0,4.0,0.0,8.0,5.0,1.0,0.0,0.0,60.53,0.0,
16.643,118.41251546784703,94.53834487893175,-2.92,-1.8,0.0,42.0,4.0,0.0,8.0,5.0,1.0,0.0,0.0,60.82,0.0,
16.667,118.3832515467847,94.54883448789317,-2.81,-0.83,-0.18,42.0,4.0,0.0,8.0,5.0,1.0,0.0,0.0,60.72,0.0,
16.692,118.37132515467847,94.57688344878932,-2.89,-2.28,-0.38,42.0,4.0,0.0,8.0,5.0,1.0,0.0,0.0,60.63,0.0,
16.716,118.29813251546786,94.56168834487893,-3.35,-2.31,-0.4,40.0,4.0,0.0,8.0,5.0,1.0,0.0,0.0,60.53,0.0,
16.741,118.33581325154678,94.50616883448788,-2.93,-0.84,0.1,44.0,4.0,0.0,8.0,5.0,1.0,0.0,0.0,60.23,0.2,
16.765,118.39358132515468,94.52761688344879,-2.89,-1.19,0.05,42.0,4.0,0.0,8.0,5.0,1.0,0.0,0.0,60.14,0.49,
16.79,118.37235813251547,94.52976168834488,-2.77,-0.95,-0.36,42.0,4.0,0.0,8.0,4.0,1.0,0.0,0.0,59.64,0.39,
16.815,118.37923581325154,94.57497616883448,-2.53,-1.02,-0.05,42.0,4.0,0.0,8.0,4.0,1.0,0.0,0.0,59.15,0.69,
16.839,118.33492358132516,94.65149761688345,-2.95,-2.27,-0.52,40.0,4.0,0.0,8.0,4.0,1.0,0.0,0.0,58.57,0.59,
16.864,118.40249235813252,94.56014976168834,-3.14,-1.98,0.18,42.0,4.0,0.0,8.0,4.0,1.0,0.0,0.0,57.78,0.29,
16.888,118.44524923581325,94.52401497616883,-3.4,-0.66,0.88,42.0,4.0,0.0,8.0,4.0,1.0,0.0,0.0,57.29,0.29,
16.913,118.43152492358132,94.50240149761687,-2.75,-1.13,-0.23,40.0,4.0,0.0,8.0,4.0,1.0,0.0,0.0,56.8,1.08,
16.937,118.41215249235813,94.4822401497617,-2.72,-1.26,-0.19,42.0,4.0,0.0,8.0,4.0,1.0,0.0,0.0,56.31,0.59,
16.962,118.32921524923582,94.48922401497616,-2.79,-1.54,-0.47,42.0,4.0,0.0,8.0,4.0,1.0,0.0,0.0,55.62,0.59,
16.987,118.34792152492358,94.54392240149761,-2.46,-1.3,-0.4,40.0,4.0,0.0,8.0,4.0,1.0,0.0,0.0,55.03,0.59,
17.011,118.31379215249235,94.54039224014977,-3.21,-1.9,-0.23,40.0,4.0,0.0,8.0,4.0,1.0,0.0,0.0,54.35,0.88,
17.036,118.26537921524924,94.50403922401497,-3.26,-1.99,-0.04,40.0,4.0,0.0,8.0,4.0,1.0,0.0,0.0,54.05,0.0,
17.06,118.20653792152493,94.52740392240149,-2.86,-1.61,-0.11,40.0,4.0,0.0,8.0,4.0,1.0,0.0,0.0,53.76,0.59,
17.085,118.17365379215249,94.49374039224014,-2.68,-1.77,-0.25,40.0,4.0,0.0,8.0,4.0,1.0,0.0,0.0,53.37,0.88,
17.11,118.18836537921524,94.53537403922402,-2.88,-2.5,0.0,40.0,4.0,0.0,8.0,4.0,1.0,0.0,0.0,52.78,1.08,
17.133,118.17183653792154,94.5665374039224,-3.13,-2.85,-0.35,40.0,4.0,0.0,7.0,4.0,1.0,0.0,0.0,52.19,0.49,
17.158,118.17918365379217,94.55165374039224,-3.0,-2.36,0.05,39.0,4.0,0.0,7.0,4.0,1.0,0.0,0.0,51.8,0.29,
17.182,118.09891836537922,94.59516537403923,-3.04,-2.08,0.05,40.0,4.0,0.0,8.0,4.0,1.0,0.0,0.0,51.4,0.1,
17.207,118.15389183653791,94.63551653740393,-2.93,-2.4,-0.32,39.0,4.0,0.0,7.0,4.0,1.0,0.0,0.0,51.01,0.2,
17.231,118.20438918365379,94.6215516537404,-3.18,-2.17,0.18,39.0,4.0,0.0,7.0,4.0,1.0,0.0,0.0,50.82,0.2,
17.256,118.10143891836537,94.62015516537404,-3.18,-1.42,0.36,39.0,4.0,0.0,7.0,4.0,1.0,0.0,0.0,50.62,0.0,
17.281,118.09114389183654,94.65601551653741,-3.14,-1.7,0.01,40.0,4.0,0.0,7.0,4.0,1.0,0.0,0.0,50.62,0.29,
17.305,118.06311438918365,94.64160155165374,-3.37,-2.69,-0.27,39.0,4.0,0.0,7.0,4.0,1.0,0.0,0.0,50.62,0.59,
17.33,118.01531143891836,94.64016015516538,-2.92,-1.58,-0.3,39.0,4.0,0.0,7.0,4.0,1.0,0.0,0.0,50.42,0.88,
17.354,118.06453114389183,94.64901601551654,-2.54,-1.52,-0.12,39.0,4.0,0.0,7.0,4.0,1.0,0.0,0.0,50.33,0.59,
17.379,118.01545311438919,94.66790160155165,-2.7,-2.26,-0.27,39.0,4.0,0.0,7.0,4.0,1.0,0.0,0.0,50.23,0.59,
17.403,118.00154531143892,94.69679016015516,-2.7,-1.22,-0.02,39.0,3.0,0.0,7.0,4.0,1.0,0.0,0.0,50.23,0.78,
17.428,118.00015453114389,94.69967901601552,-2.86,-1.42,0.08,37.0,3.0,0.0,7.0,4.0,1.0,0.0,0.0,50.13,0.59,
17.453,117.99101545311439,94.71796790160155,-2.66,-1.59,0.0,39.0,3.0,0.0,7.0,4.0,1.0,0.0,0.0,49.64,0.29,
17.477,117.92710154531143,94.65679679016016,-2.77,-1.27,-0.33,39.0,3.0,0.0,7.0,4.0,1.0,0.0,0.0,49.25,0.39,
17.502,117.94771015453114,94.67767967901602,-2.98,-1.28,-0.09,39.0,3.0,0.0,7.0,4.0,1.0,0.0,0.0,49.15,0.39,
17.526,118.03977101545311,94.72476796790161,-2.88,-1.68,0.14,37.0,3.0,0.0,7.0,4.0,1.0,0.0,0.0,49.05,0.29,
17.55,118.03997710154532,94.71147679679015,-3.05,-2.08,-0.18,37.0,3.0,0.0,7.0,4.0,1.0,0.0,0.0,48.85,0.39,
17.574,117.98599771015454,94.72814767967901,-3.08,-2.99,-0.12,37.0,3.0,0.0,7.0,4.0,1.0,0.0,0.0,48.76,0.39,
17.599,117.96259977101545,94.68481476796791,-3.01,-1.59,0.12,37.0,3.0,0.0,7.0,4.0,1.0,0.0,0.0,48.56,0.49,
17.624,117.95125997710154,94.69848147679679,-3.02,-2.25,0.19,39.0,3.0,0.0,7.0,4.0,1.0,0.0,0.0,48.56,0.49,
17.648,117.93212599771016,94.69984814767969,-3.11,-2.66,-0.15,37.0,3.0,0.0,7.0,4.0,1.0,0.0,0.0,48.46,0.69,
17.673,117.93921259977101,94.76298481476796,-2.92,-3.59,-0.42,37.0,3.0,0.0,7.0,4.0,1.0,0.0,0.0,48.27,0.69,
17.697,117.87692125997711,94.76929848147678,-3.14,-3.11,0.36,37.0,3.0,0.0,7.0,4.0,1.0,0.0,0.0,47.87,0.69,
17.722,117.8076921259977,94.73392984814768,-3.09,-3.13,-0.07,37.0,3.0,0.0,7.0,4.0,1.0,0.0,0.0,47.58,0.49,
17.746,117.75576921259977,94.69439298481477,-2.9,-3.76,-0.39,37.0,3.0,0.0,7.0,4.0,1.0,0.0,0.0,47.09,0.39,
17.771,117.62457692125997,94.70843929848147,-2.73,-3.53,-0.38,35.0,3.0,0.0,7.0,4.0,1.0,0.0,0.0,46.5,0.1,
17.796,117.49445769212599,94.58384392984814,-2.56,-4.76,-1.3,37.0,3.0,0.0,6.0,4.0,1.0,0.0,0.0,45.81,0.29,
17.82,117.4454457692126,94.64338439298481,-2.67,-4.23,-0.2,35.0,3.0,0.0,6.0,3.0,1.0,0.0,0.0,44.73,0.88,
17.845,117.30554457692126,94.59533843929847,-2.34,-3.08,-0.28,34.0,3.0,0.0,6.0,3.0,1.0,0.0,0.0,43.95,1.28,
17.869,117.19255445769213,94.59053384392985,-1.53,-1.66,0.08,35.0,3.0,0.0,6.0,3.0,1.0,0.0,0.0,43.16,0.98,
17.894,117.28025544576921,94.60805338439299,-0.39,-1.7,-0.63,34.0,3.0,0.0,6.0,3.0,1.0,0.0,0.0,42.38,0.69,
17.918,117.22602554457693,94.6188053384393,1.01,-1.29,-1.24,32.0,2.0,0.0,5.0,3.0,1.0,0.0,0.0,41.2,1.37,
17.942,117.23860255445769,94.72788053384392,1.5,0.22,-0.85,31.0,2.0,0.0,5.0,3.0,1.0,0.0,0.0,39.83,2.26,
17.967,117.25786025544578,94.84678805338439,0.22,0.17,-0.27,30.0,2.0,0.0,5.0,3.0,1.0,0.0,0.0,38.55,2.65,
17.991,117.28678602554459,94.89467880533844,-2.46,-0.76,-0.79,30.0,2.0,0.0,5.0,3.0,1.0,0.0,0.0,37.57,2.65,
18.016,117.29867860255445,94.94446788053384,-3.31,-0.28,0.08,30.0,2.0,0.0,5.0,3.0,1.0,0.0,0.0,36.98,1.67,
18.039,117.29086786025545,94.94944678805338,-3.89,-0.71,0.23,30.0,2.0,0.0,5.0,3.0,1.0,0.0,0.0,36.98,0.49,
18.064,117.41608678602556,94.88694467880534,-3.47,-0.48,0.22,30.0,2.0,0.0,5.0,3.0,1.0,0.0,0.0,37.28,0.0,
18.088,117.41960867860254,94.91669446788053,-4.16,-2.14,0.47,30.0,2.0,0.0,5.0,3.0,1.0,0.0,0.0,37.67,0.0,
18.113,117.45596086786026,94.93766944678805,-3.61,-2.47,0.46,30.0,2.0,0.0,5.0,3.0,1.0,0.0,0.0,37.96,0.0,
18.138,117.39659608678602,94.99376694467881,-3.23,-2.53,-0.07,30.0,2.0,0.0,5.0,3.0,1.0,0.0,0.0,38.16,0.0,
18.161,117.41765960867859,94.98137669446788,-3.11,-1.46,0.0,30.0,2.0,0.0,5.0,3.0,1.0,0.0,0.0,38.06,0.1,
18.186,117.38376596086785,94.99813766944679,-3.53,-1.69,0.4,32.0,2.0,0.0,5.0,3.0,1.0,0.0,0.0,38.06,0.2,
18.21,117.37137659608679,94.99981376694467,-3.34,-2.54,-0.02,30.0,2.0,0.0,5.0,3.0,1.0,0.0,0.0,37.87,0.29,
18.235,117.34313765960869,95.01798137669446,-3.13,-2.56,-0.3,30.0,2.0,0.0,5.0,3.0,1.0,0.0,0.0,37.67,0.29,
18.259,117.27731376596086,95.01979813766944,-2.88,-2.13,-0.34,30.0,2.0,0.0,5.0,3.0,1.0,0.0,0.0,37.28,0.59,
18.284,117.27973137659609,95.03797981376694,-2.49,-1.66,-0.51,30.0,2.0,0.0,5.0,3.0,1.0,0.0,0.0,36.79,0.78,
18.309,117.23497313765961,95.0577979813767,-1.97,-1.34,-0.43,30.0,2.0,0.0,5.0,3.0,1.0,0.0,0.0,36.3,0.88,
18.332,117.22149731376597,95.06877979813767,-1.49,-2.4,-0.63,28.0,2.0,0.0,5.0,3.0,1.0,0.0,0.0,35.81,0.98,
18.357,117.21114973137658,95.11487797981377,-0.86,-2.76,-0.96,27.0,2.0,0.0,5.0,3.0,1.0,0.0,0.0,35.12,1.08,
18.381,117.12011497313766,95.12848779798138,-0.9,-2.16,-0.37,28.0,2.0,0.0,4.0,2.0,1.0,0.0,0.0,34.24,1.28,
18.406,117.00301149731376,95.17484877979814,-1.31,-2.71,-0.33,26.0,2.0,0.0,4.0,2.0,1.0,0.0,0.0,33.26,0.78,
18.43,116.99130114973137,95.2334848779798,-3.08,-2.58,0.03,23.0,2.0,0.0,4.0,2.0,1.0,0.0,0.0,32.47,0.69,
18.455,117.03513011497314,95.26634848779797,-3.01,-2.77,-0.11,25.0,2.0,0.0,4.0,2.0,1.0,0.0,0.0,31.98,0.39,
18.48,116.93151301149732,95.2606348487798,-3.07,-3.31,-0.33,22.0,2.0,0.0,4.0,2.0,1.0,0.0,0.0,31.69,0.2,
18.503,116.93915130114972,95.30506348487799,-2.79,-1.71,0.27,26.0,2.0,0.0,4.0,2.0,1.0,0.0,0.0,31.39,0.49,
18.528,116.97591513011498,95.27350634848779,-3.88,-1.63,0.53,25.0,2.0,0.0,4.0,2.0,1.0,0.0,0.0,31.29,0.29,
18.552,116.9165915130115,95.29735063484877,-5.02,-3.05,0.7,26.0,2.0,0.0,4.0,2.0,1.0,0.0,0.0,31.49,0.0,
18.577,116.92865915130116,95.26373506348489,-5.04,-4.17,0.66,26.0,2.0,0.0,4.0,2.0,1.0,0.0,0.0,31.59,0.0,
18.601,116.82186591513012,95.1973735063485,-4.4,-4.59,0.37,26.0,2.0,0.0,4.0,2.0,1.0,0.0,0.0,31.78,0.1,
18.625,116.721186591513,95.08273735063486,-3.44,-3.24,0.25,27.0,2.0,0.0,4.0,2.0,1.0,0.0,0.0,31.98,0.1,
18.65,116.6931186591513,95.01727373506348,-3.2,-2.96,-0.21,26.0,2.0,0.0,4.0,2.0,1.0,0.0,0.0,31.98,0.39,
18.674,116.63631186591513,95.01072737350634,-4.37,-1.44,0.26,27.0,2.0,0.0,4.0,2.0,1.0,0.0,0.0,31.78,0.59,
18.699,116.65763118659152,95.01007273735064,-4.13,-1.41,0.26,27.0,2.0,0.0,5.0,2.0,1.0,0.0,0.0,31.98,0.2,
18.723,116.69576311865914,95.01900727373507,-3.77,-2.32,0.01,28.0,2.0,0.0,5.0,2.0,1.0,0.0,0.0,32.18,0.2,
18.747,116.68157631186592,94.96590072737351,-3.23,-2.14,-0.31,27.0,2.0,0.0,5.0,2.0,1.0,0.0,0.0,32.27,0.1,
18.771,116.70715763118659,94.97859007273735,-3.04,-0.24,0.0,28.0,2.0,0.0,5.0,2.0,1.0,0.0,0.0,32.27,0.0,
18.796,116.70971576311865,94.98885900727373,-2.7,-0.55,-0.09,27.0,2.0,0.0,5.0,2.0,1.0,0.0,0.0,32.37,0.0,
18.821,116.61997157631185,95.12488590072738,-3.78,-1.0,-0.15,28.0,2.0,0.0,5.0,3.0,1.0,0.0,0.0,32.27,0.1,
18.845,116.60199715763117,95.10248859007274,-3.62,-0.01,-0.24,28.0,2.0,0.0,5.0,3.0,1.0,0.0,0.0,32.47,0.1,
18.87,116.68119971576311,95.10924885900728,-3.11,-0.3,-0.18,32.0,2.0,0.0,5.0,3.0,1.0,0.0,0.0,33.26,0.0,
18.893,116.82411997157631,95.16392488590073,-2.69,-0.12,-0.33,28.0,2.0,0.0,5.0,3.0,1.0,0.0,0.0,33.84,0.0,
18.918,116.91041199715764,95.16039248859008,-2.11,-0.05,-0.53,27.0,2.0,0.0,5.0,3.0,1.0,0.0,0.0,34.34,0.0,
18.942,116.89204119971576,95.16003924885901,-2.01,-1.11,-0.53,28.0,2.0,0.0,5.0,3.0,1.0,0.0,0.0,34.63,0.49,
18.967,116.79120411997158,95.1150039248859,-1.58,-1.63,-0.69,28.0,2.0,0.0,5.0,3.0,1.0,0.0,0.0,34.73,0.49,
18.992,116.77212041199716,95.13750039248859,-0.63,0.32,-0.13,28.0,2.0,0.0,5.0,3.0,1.0,0.0,0.0,34.63,0.59,
19.016,116.77921204119971,95.13075003924887,-0.49,1.11,0.15,28.0,2.0,0.0,4.0,3.0,1.0,0.0,0.0,34.53,0.59,
19.04,116.85192120411998,95.16607500392489,-0.18,1.42,-0.17,27.0,2.0,0.0,4.0,2.0,1.0,0.0,0.0,34.83,0.39,
19.064,116.832192120412,95.28660750039248,-0.39,2.5,0.5,27.0,2.0,0.0,4.0,2.0,1.0,0.0,0.0,35.32,0.59,
19.089,117.0372192120412,95.37066075003925,-0.4,2.5,-0.15,27.0,2.0,0.0,4.0,2.0,1.0,0.0,0.0,35.9,347.27,
19.113,117.01272192120413,95.56806607500393,-0.44,4.36,-0.79,26.0,2.0,0.0,4.0,2.0,1.0,0.0,0.0,36.69,0.0,
19.138,117.13627219212042,95.62380660750038,-0.69,5.24,0.11,27.0,2.0,0.0,4.0,2.0,0.0,0.0,0.0,37.77,0.0,
19.162,117.27462721921205,95.71938066075005,-0.83,3.97,-0.26,27.0,2.0,0.0,4.0,2.0,0.0,0.0,0.0,38.75,0.0,
19.186,117.4774627219212,95.737938066075,-1.11,2.89,-0.34,27.0,2.0,0.0,4.0,2.0,0.0,0.0,0.0,39.53,0.2,
19.211,117.68674627219211,95.5327938066075,-1.37,2.25,-0.18,26.0,2.0,0.0,4.0,2.0,0.0,0.0,0.0,40.12,0.1,
19.235,117.71667462721922,95.54827938066074,-2.27,2.5,0.04,26.0,2.0,0.0,4.0,2.0,0.0,0.0,0.0,40.32,0.49,
19.259,117.71066746272191,95.57682793806607,-2.73,1.82,0.06,26.0,2.0,0.0,4.0,2.0,0.0,0.0,0.0,40.52,0.0,
19.283,117.97106674627219,95.74168279380662,-2.53,0.5,1.86,27.0,2.0,0.0,4.0,2.0,0.0,0.0,0.0,40.81,0.2,
19.308,117.92510667462722,95.78516827938067,-2.15,0.97,-0.56,26.0,2.0,0.0,4.0,2.0,0.0,0.0,0.0,40.61,0.49,
19.333,118.07351066746273,95.82551682793806,-2.41,-0.07,-0.06,28.0,2.0,0.0,4.0,2.0,0.0,0.0,0.0,40.61,0.69,
19.356,118.11535106674627,95.8205516827938,-2.66,-0.91,-0.24,26.0,2.0,0.0,4.0,2.0,0.0,0.0,0.0,40.42,0.49,
19.381,118.17353510667463,95.83805516827938,-2.16,-2.05,-0.13,28.0,2.0,0.0,4.0,2.0,0.0,0.0,0.0,40.42,0.39,
19.405,118.17935351066747,95.90280551682794,-2.08,-3.35,-0.25,26.0,2.0,0.0,4.0,2.0,0.0,0.0,0.0,40.42,0.2,
19.43,118.08093535106673,95.9452805516828,-2.83,-4.17,-0.66,26.0,2.0,0.0,4.0,2.0,0.0,0.0,0.0,40.52,0.49,
19.454,118.09809353510666,95.98552805516827,-3.57,-3.22,0.79,26.0,2.0,0.0,4.0,2.0,0.0,0.0,0.0,40.81,0.0,
19.479,118.00080935351066,95.98955280551681,-3.37,-1.4,0.08,26.0,2.0,0.0,4.0,2.0,0.0,0.0,0.0,41.1,0.0,
19.504,117.99108093535106,95.99895528055168,-3.18,0.84,0.47,26.0,2.0,0.0,4.0,2.0,0.0,0.0,0.0,41.4,0.0,
19.527,118.0441080935351,96.07189552805517,-3.38,0.36,0.3,26.0,2.0,0.0,4.0,2.0,0.0,0.0,0.0,41.69,0.0,
19.552,118.13041080935352,96.0791895528055,-4.01,-2.96,-0.05,26.0,2.0,0.0,4.0,2.0,0.0,0.0,0.0,41.89,0.0,
19.576,117.85104108093535,96.05291895528055,-4.16,-4.89,0.23,27.0,2.0,0.0,4.0,2.0,0.0,0.0,0.0,42.18,0.0,
19.601,117.68810410809354,96.00529189552806,-4.0,-8.05,-1.36,27.0,2.0,0.0,4.0,2.0,1.0,0.0,0.0,42.48,0.0,
19.624,117.59981041080935,96.05452918955281,-4.6,-5.66,0.63,27.0,2.0,0.0,4.0,2.0,1.0,0.0,0.0,42.67,0.29,
19.649,117.52798104108093,95.99645291895527,-4.78,-3.4,1.33,27.0,2.0,0.0,5.0,2.0,1.0,0.0,0.0,42.87,0.29,
19.674,117.5207981041081,95.92764529189553,-4.21,-1.87,0.84,28.0,2.0,0.0,5.0,2.0,1.0,0.0,0.0,43.46,0.0,
19.698,117.61907981041081,95.89376452918955,-3.87,-1.64,0.77,27.0,2.0,0.0,5.0,2.0,1.0,0.0,0.0,43.75,0.0,
19.723,117.67390798104108,95.81837645291895,-3.45,-2.77,0.33,28.0,2.0,0.0,5.0,2.0,1.0,0.0,0.0,43.85,0.0,
19.746,117.65239079810411,95.79283764529191,-2.98,-3.28,0.21,28.0,2.0,0.0,5.0,2.0,1.0,0.0,0.0,43.85,0.2,
19.771,117.55123907981041,95.72728376452919,-3.13,-0.11,0.53,28.0,2.0,0.0,5.0,2.0,1.0,0.0,0.0,43.75,0.59,
19.795,117.55912390798105,95.72072837645291,-3.08,1.33,0.86,28.0,2.0,0.0,5.0,2.0,1.0,0.0,0.0,43.85,0.29,
19.82,117.5689123907981,95.66607283764529,-2.95,0.45,0.4,28.0,2.0,0.0,5.0,2.0,1.0,0.0,0.0,44.15,0.2,
19.844,117.57889123907981,95.68760728376452,-2.66,1.26,-0.32,28.0,2.0,0.0,5.0,2.0,1.0,0.0,0.0,44.24,0.0,
19.868,117.69688912390797,95.68976072837644,-2.56,0.85,-0.02,28.0,2.0,0.0,5.0,2.0,1.0,0.0,0.0,44.15,0.0,
19.893,117.57368891239079,95.66297607283764,-1.91,1.31,-0.5,28.0,2.0,0.0,5.0,2.0,1.0,0.0,0.0,44.05,0.1,
19.917,117.63336889123909,95.63329760728375,-0.6,2.07,-0.42,28.0,2.0,0.0,5.0,2.0,1.0,0.0,0.0,44.24,0.0,
19.942,117.67533688912391,95.79232976072836,-3.51,1.33,0.51,28.0,2.0,0.0,5.0,2.0,1.0,0.0,0.0,44.93,0.29,
19.965,117.7155336889124,95.77223297607283,-4.3,0.41,0.2,28.0,2.0,0.0,5.0,2.0,1.0,0.0,0.0,45.71,0.2,
19.99,117.80955336889123,95.76122329760729,-4.09,0.09,0.21,30.0,2.0,0.0,5.0,3.0,1.0,0.0,0.0,47.09,0.0,
20.015,117.90895533688912,95.81412232976072,-3.89,-0.73,0.27,30.0,3.0,0.0,5.0,3.0,1.0,0.0,0.0,47.97,0.0,
20.038,117.87389553368892,95.81041223297606,-3.89,1.3,0.66,31.0,2.0,0.0,5.0,3.0,1.0,0.0,0.0,48.76,0.0,
20.063,118.03238955336889,95.8370412232976,-3.47,0.25,-0.16,31.0,3.0,0.0,5.0,3.0,1.0,0.0,0.0,49.74,0.0,
20.087,118.09323895533687,95.80370412232976,-4.05,2.32,0.0,30.0,3.0,0.0,5.0,3.0,1.0,0.0,0.0,50.42,0.0,
20.112,118.32432389553368,95.71937041223296,-3.33,3.09,0.37,32.0,3.0,0.0,5.0,3.0,1.0,0.0,0.0,51.01,0.0,
20.135,118.33843238955336,95.7019370412233,-3.27,2.25,0.1,34.0,3.0,0.0,6.0,3.0,1.0,0.0,0.0,51.8,0.0,
20.16,118.39384323895534,95.71819370412233,-2.31,2.71,-0.66,32.0,3.0,0.0,6.0,3.0,1.0,0.0,0.0,52.09,0.0,
20.185,118.43538432389553,95.72881937041224,-2.87,3.24,-0.1,32.0,3.0,0.0,6.0,3.0,1.0,0.0,0.0,52.29,0.0,
20.209,118.38553843238955,95.70288193704123,-3.36,2.98,-0.15,32.0,3.0,0.0,6.0,3.0,1.0,0.0,0.0,52.19,0.0,
20.233,118.50655384323895,95.68228819370412,-2.82,2.74,0.17,32.0,3.0,0.0,6.0,3.0,1.0,0.0,0.0,52.19,0.0,
20.257,118.6626553843239,95.72522881937041,-2.73,0.75,-0.89,32.0,3.0,0.0,6.0,3.0,1.0,0.0,0.0,52.09,0.29,
20.282,118.76826553843239,95.79252288193703,-5.11,-0.24,-0.65,32.0,3.0,0.0,6.0,3.0,1.0,0.0,0.0,51.6,0.2,
20.306,118.89582655384324,95.7542522881937,-5.21,-1.42,0.42,34.0,3.0,0.0,6.0,3.0,1.0,0.0,0.0,51.01,0.0,
20.331,118.76458265538432,95.70542522881938,-4.5,-2.18,-0.24,32.0,3.0,0.0,6.0,3.0,1.0,0.0,0.0,51.11,0.0,
20.356,118.67945826553843,95.60154252288194,-3.83,-2.99,-0.15,34.0,3.0,0.0,6.0,3.0,1.0,0.0,0.0,51.6,0.0,
20.379,118.85994582655384,95.65415425228818,-3.56,-2.27,0.27,35.0,3.0,0.0,6.0,3.0,1.0,0.0,0.0,53.17,0.0,
20.404,118.80599458265539,95.64141542522883,-3.78,-1.86,0.01,35.0,3.0,0.0,6.0,3.0,1.0,0.0,0.0,53.86,0.1,
20.428,118.77359945826554,95.66714154252288,-5.06,-0.31,0.76,35.0,3.0,0.0,6.0,3.0,1.0,0.0,0.0,54.45,0.49,
20.453,118.83335994582656,95.64271415425229,-5.22,-1.4,0.79,35.0,3.0,0.0,7.0,3.0,1.0,0.0,0.0,55.33,0.39,
20.477,118.82133599458265,95.52327141542523,-4.63,0.69,0.42,35.0,3.0,0.0,7.0,3.0,1.0,0.0,0.0,56.02,0.0,
20.502,118.76613359945826,95.52932714154252,-4.37,1.5,0.61,37.0,3.0,0.0,7.0,3.0,1.0,0.0,0.0,56.51,0.0,
20.527,118.76061335994582,95.44893271415425,-4.05,0.05,-1.54,37.0,3.0,0.0,7.0,3.0,1.0,0.0,0.0,57.0,0.1,
20.551,118.77806133599458,95.41389327141542,-3.89,-0.66,-0.49,37.0,3.0,0.0,7.0,3.0,1.0,0.0,0.0,56.6,0.0,
20.576,118.81580613359945,95.38338932714154,-4.09,0.61,0.19,37.0,3.0,0.0,7.0,3.0,1.0,0.0,0.0,55.82,0.0,
20.599,118.98158061335995,95.43433893271416,-3.6,0.39,0.69,39.0,3.0,0.0,7.0,3.0,1.0,0.0,0.0,54.84,0.1,
20.624,118.96215806133598,95.50243389327142,-4.25,-2.44,0.51,37.0,3.0,0.0,7.0,3.0,1.0,0.0,0.0,53.86,0.78,
20.648,118.9692158061336,95.47324338932714,-3.72,-2.83,0.15,37.0,3.0,0.0,7.0,3.0,1.0,0.0,0.0,52.78,0.78,
20.673,118.87992158061336,95.43432433893273,-4.37,-3.44,0.42,37.0,3.0,0.0,7.0,3.0,1.0,0.0,0.0,52.09,0.59,
20.698,118.78099215806134,95.45743243389327,-4.63,-1.12,0.78,35.0,3.0,0.0,7.0,3.0,1.0,0.0,0.0,50.91,0.29,
20.722,118.86109921580614,95.46874324338933,-4.08,-1.08,0.61,37.0,3.0,0.0,7.0,3.0,1.0,0.0,0.0,49.93,0.39,
20.747,118.92310992158062,95.36187432433893,-4.03,-2.79,0.47,37.0,3.0,0.0,7.0,3.0,1.0,0.0,0.0,49.25,0.69,
20.771,118.94731099215807,95.33318743243389,-3.73,-2.17,0.43,37.0,3.0,0.0,7.0,3.0,1.0,0.0,0.0,48.07,0.69,
20.796,118.8507310992158,95.23131874324339,-4.26,-3.37,0.03,37.0,3.0,0.0,7.0,3.0,2.0,0.0,0.0,47.87,0.49,
20.819,118.85007310992158,95.12213187432434,-3.71,-0.83,0.27,37.0,3.0,0.0,7.0,3.0,2.0,0.0,0.0,47.87,0.39,
20.844,118.86800731099216,95.18321318743244,-3.13,1.1,0.69,39.0,3.0,0.0,7.0,3.0,2.0,0.0,0.0,47.97,0.29,
20.869,118.90580073109922,95.11732131874325,-2.78,0.55,0.2,39.0,3.0,0.0,7.0,3.0,2.0,0.0,0.0,47.97,0.1,
20.893,118.91858007310992,95.09273213187433,-3.25,-0.73,0.31,39.0,3.0,0.0,7.0,3.0,2.0,0.0,0.0,48.36,0.0,
20.918,119.03685800731098,95.06327321318743,-3.65,-1.16,0.08,39.0,3.0,0.0,8.0,3.0,2.0,0.0,0.0,49.05,0.0,
20.942,119.0666858007311,95.06032732131874,-4.49,-0.75,0.18,39.0,3.0,0.0,8.0,3.0,2.0,0.0,0.0,49.44,0.1,
20.967,118.9706685800731,95.01503273213187,-3.86,-0.99,0.49,39.0,3.0,0.0,8.0,3.0,2.0,0.0,0.0,49.74,0.2,
20.992,119.03306685800732,95.05550327321319,-3.86,-1.12,0.02,39.0,3.0,0.0,8.0,3.0,2.0,0.0,0.0,50.23,0.0,
21.016,119.04830668580072,94.95155032732131,-6.19,-2.52,0.62,39.0,3.0,0.0,8.0,3.0,2.0,0.0,0.0,50.72,0.0,
21.04,118.96883066858007,94.90515503273214,-6.37,-0.57,0.87,40.0,3.0,0.0,8.0,3.0,2.0,0.0,0.0,51.7,0.0,
21.064,119.059883066858,94.82851550327321,-5.76,-1.53,0.05,42.0,4.0,0.0,8.0,3.0,2.0,0.0,0.0,52.78,0.0,
21.089,119.0959883066858,94.74885155032732,-5.33,0.78,0.29,40.0,4.0,0.0,8.0,4.0,2.0,0.0,0.0,53.76,0.0,
21.113,119.18059883066857,94.71388515503273,-5.53,0.47,0.1,42.0,4.0,0.0,8.0,4.0,2.0,0.0,0.0,55.13,0.0,
21.138,119.30605988306685,94.79138851550326,-5.15,0.42,0.59,44.0,4.0,0.0,9.0,4.0,2.0,0.0,0.0,56.51,0.0,
21.163,119.32760598830669,94.79013885155032,-4.83,-1.46,-0.69,44.0,4.0,0.0,9.0,4.0,2.0,0.0,0.0,58.37,0.0,
21.187,119.27576059883067,94.67301388515503,-4.11,-1.05,-0.68,44.0,4.0,0.0,9.0,4.0,2.0,0.0,0.0,59.25,0.0,
21.212,119.31557605988306,94.60730138851551,-4.24,-1.63,-1.27,44.0,4.0,0.0,9.0,4.0,2.0,0.0,0.0,59.94,0.0,
21.236,119.2655576059883,94.54673013885156,-4.26,0.2,-0.67,44.0,4.0,0.0,9.0,4.0,2.0,0.0,0.0,60.33,0.0,
21.26,119.24255576059883,94.53167301388515,-3.5,-0.53,-0.68,42.0,4.0,0.0,9.0,4.0,2.0,0.0,0.0,60.43,0.0,
21.284,119.32125557605988,94.53916730138853,-2.49,1.15,-0.95,46.0,4.0,0.0,9.0,4.0,2.0,0.0,0.0,60.53,0.1,
21.309,119.419125557606,94.44991673013885,-2.35,0.82,-0.85,44.0,4.0,0.0,9.0,4.0,2.0,0.0,0.0,60.72,0.1,
21.334,119.3659125557606,94.51299167301389,-2.88,0.01,-1.2,46.0,4.0,0.0,9.0,4.0,2.0,0.0,0.0,60.63,0.0,
21.358,119.46859125557607,94.5102991673014,-2.25,-1.26,-1.12,44.0,4.0,0.0,9.0,4.0,2.0,0.0,0.0,59.94,0.0,
21.383,119.4878591255576,94.62702991673014,-1.39,-2.29,-1.02,44.0,4.0,0.0,9.0,4.0,2.0,0.0,0.0,59.15,0.29,
21.407,119.43578591255577,94.67470299167302,-0.81,-1.64,-1.13,44.0,4.0,0.0,9.0,4.0,2.0,0.0,0.0,58.27,0.88,
21.432,119.38557859125557,94.74247029916731,-1.23,-0.31,-0.61,44.0,4.0,0.0,9.0,4.0,2.0,0.0,0.0,57.49,1.08,
21.456,119.47955785912555,94.75824702991673,-1.08,-0.48,-0.71,44.0,4.0,0.0,8.0,4.0,2.0,0.0,0.0,57.09,0.78,
21.481,119.47095578591255,94.82282470299167,-0.93,-0.76,-0.43,42.0,4.0,0.0,8.0,4.0,2.0,0.0,0.0,57.0,0.59,
21.506,119.38909557859125,94.84728247029916,-0.56,-1.89,-1.41,39.0,4.0,0.0,8.0,3.0,2.0,0.0,0.0,56.31,0.1,
21.53,119.38090955785911,94.86772824702993,0.39,1.5,-1.69,42.0,4.0,0.0,8.0,3.0,2.0,0.0,0.0,55.33,0.2,
21.555,119.37109095578592,95.211772824703,-1.53,0.82,-0.46,40.0,3.0,0.0,8.0,3.0,2.0,0.0,0.0,53.96,0.78,
21.579,119.37910909557858,95.21017728247028,-3.72,-4.72,-0.89,40.0,4.0,0.0,8.0,3.0,2.0,0.0,0.0,52.68,0.78,
21.604,119.31691090955786,95.13801772824704,-3.82,-7.37,-0.4,40.0,4.0,0.0,8.0,3.0,2.0,0.0,0.0,52.29,0.59,
21.628,119.1936910909558,95.09480177282471,-3.46,-5.28,-0.58,40.0,4.0,0.0,8.0,3.0,2.0,0.0,0.0,52.29,0.59,
21.653,118.91136910909557,95.09948017728247,-3.25,-1.69,0.77,40.0,4.0,0.0,8.0,3.0,2.0,0.0,0.0,51.89,0.49,
21.678,118.94613691090956,95.01894801772825,-2.99,0.65,0.55,40.0,4.0,0.0,8.0,3.0,2.0,0.0,0.0,51.5,0.49,
21.701,119.04861369109096,95.08289480177282,-3.65,-2.8,-0.11,40.0,4.0,0.0,8.0,3.0,2.0,0.0,0.0,51.8,0.29,
21.726,119.2028613691091,95.03528948017728,-4.6,-3.88,0.42,40.0,4.0,0.0,8.0,3.0,2.0,0.0,0.0,51.99,0.78,
21.75,119.2452861369109,95.00352894801773,-4.44,-3.0,1.07,40.0,4.0,0.0,8.0,3.0,2.0,0.0,0.0,52.19,0.98,
21.775,119.05152861369109,95.00935289480176,-3.85,-0.37,1.33,42.0,4.0,0.0,8.0,3.0,2.0,0.0,0.0,52.48,0.78,
21.799,119.0501528613691,95.06393528948018,-3.18,-1.11,0.1,42.0,4.0,0.0,8.0,3.0,2.0,0.0,0.0,52.78,0.39,
21.824,119.2480152861369,95.07839352894803,-2.82,-1.4,0.37,40.0,4.0,0.0,8.0,3.0,2.0,0.0,0.0,53.46,0.0,
21.849,119.20480152861369,95.14283935289481,-3.37,-4.38,-0.25,42.0,4.0,0.0,8.0,3.0,2.0,0.0,0.0,54.05,0.0,
21.873,119.12848015286139,95.12228393528949,-4.18,-4.69,0.06,42.0,4.0,0.0,8.0,3.0,2.0,0.0,0.0,54.74,0.0,
21.898,119.09384801528614,95.11122839352895,-4.34,-5.45,0.82,42.0,4.0,0.0,8.0,3.0,2.0,0.0,0.0,55.43,0.0,
21.922,119.00038480152861,95.0381228393529,-3.85,-4.24,0.35,42.0,4.0,0.0,8.0,3.0,2.0,0.0,0.0,56.02,0.0,
21.947,118.89203848015286,95.00381228393529,-3.29,-5.34,-0.11,42.0,4.0,0.0,8.0,3.0,2.0,0.0,0.0,56.6,0.2,
21.971,118.68320384801528,94.96438122839352,-3.47,-3.56,-0.1,42.0,4.0,0.0,8.0,3.0,2.0,0.0,0.0,56.8,0.29,
21.996,118.56332038480151,94.94243812283935,-3.66,-1.77,0.2,42.0,4.0,0.0,8.0,3.0,2.0,0.0,0.0,56.9,0.2,
22.02,118.58733203848016,94.93124381228395,-4.04,-0.98,0.65,42.0,4.0,0.0,8.0,4.0,2.0,0.0,0.0,56.8,0.29,
22.044,118.51773320384802,94.8851243812284,-3.97,-2.2,0.44,44.0,4.0,0.0,8.0,4.0,2.0,0.0,0.0,56.8,0.39,
22.069,118.54677332038479,94.79951243812285,-3.15,-2.5,0.05,42.0,4.0,0.0,8.0,4.0,2.0,0.0,0.0,56.7,0.59,
22.093,118.44167733203848,94.78195124381229,-2.47,-0.77,-0.09,42.0,4.0,0.0,8.0,3.0,2.0,0.0,0.0,56.41,0.78,
22.118,118.39516773320385,94.81619512438122,-1.87,0.81,0.05,42.0,4.0,0.0,8.0,3.0,2.0,0.0,0.0,55.62,0.29,
22.142,118.50751677332038,94.81061951243812,-1.56,-0.66,-0.47,42.0,4.0,0.0,8.0,3.0,2.0,0.0,0.0,55.13,0.49,
22.167,118.54575167733202,94.8820619512438,-2.84,-2.37,-0.35,42.0,4.0,0.0,8.0,3.0,2.0,0.0,0.0,54.45,0.39,
22.192,118.5765751677332,94.85320619512437,-2.63,-2.92,-0.43,42.0,4.0,0.0,8.0,3.0,1.0,0.0,0.0,53.86,0.0,
22.216,118.57965751677331,94.85032061951243,-2.28,-1.98,-0.05,40.0,4.0,0.0,8.0,3.0,1.0,0.0,0.0,53.27,0.0,
22.241,118.54396575167733,94.80503206195124,-1.92,-1.02,-0.05,40.0,3.0,0.0,8.0,3.0,1.0,0.0,0.0,52.09,0.39,
22.265,118.56739657516772,94.78250320619513,-1.4,1.25,0.02,40.0,3.0,0.0,8.0,3.0,1.0,0.0,0.0,51.11,0.78,
22.29,118.46173965751677,94.80725032061952,-0.09,-1.12,-1.26,42.0,3.0,0.0,7.0,3.0,1.0,0.0,0.0,50.03,0.98,
22.313,118.41517396575168,94.82772503206195,1.27,-0.02,-0.84,37.0,3.0,0.0,7.0,3.0,1.0,0.0,0.0,49.05,0.98,
22.338,118.23051739657517,94.88377250320619,1.66,1.36,-0.9,35.0,3.0,0.0,7.0,3.0,1.0,0.0,0.0,47.97,1.08,
22.363,118.19405173965751,95.02437725032061,0.46,5.07,-1.02,35.0,3.0,0.0,6.0,3.0,1.0,0.0,0.0,46.7,0.98,
22.387,118.38840517396575,95.14643772503206,-0.02,4.99,-1.02,37.0,3.0,0.0,6.0,3.0,1.0,0.0,0.0,45.91,1.37,
22.412,118.49784051739658,95.3296437725032,-3.72,2.48,-0.95,35.0,3.0,0.0,6.0,3.0,1.0,0.0,0.0,45.71,0.98,
22.435,118.60778405173967,95.34796437725032,-3.18,2.47,-0.69,35.0,3.0,0.0,7.0,3.0,1.0,0.0,0.0,46.21,0.1,
22.46,118.69077840517396,95.33179643772503,-2.84,4.85,0.11,35.0,3.0,0.0,7.0,3.0,1.0,0.0,0.0,47.48,0.1,
22.484,118.8790778405174,95.3211796437725,-2.26,4.79,-0.33,35.0,3.0,0.0,7.0,3.0,1.0,0.0,0.0,48.66,0.0,
