time,pitch,roll,gyrx,gyry,gyrz,f1,f2,f3,f4,f5,f6,f7,g1,g2,g3
0.389,39.82,41.21,-0.46,-2.01,1.2,5.0,0.0,0.0,1.0,0.0,0.0,0.0,0.0,0.78,0.29,
0.412,45.733000000000004,47.21300000000001,-0.65,-2.22,-0.24,5.0,0.0,0.0,1.0,0.0,0.0,0.0,0.0,0.39,0.49,
0.436,51.463300000000004,53.0693,-1.23,-1.08,0.32,5.0,0.0,0.0,1.0,0.0,0.0,0.0,0.0,0.49,0.49,
0.46,56.302330000000005,58.13693000000001,-1.69,-0.85,1.7,5.0,0.0,0.0,1.0,0.0,0.0,0.0,0.0,0.78,0.69,
0.484,60.395233,62.207693,-2.09,-2.0,1.56,5.0,0.0,0.0,1.0,0.0,0.0,0.0,0.0,0.98,0.49,
0.507,63.9095233,65.6747693,-2.32,-2.52,-0.3,5.0,0.0,0.0,1.0,0.0,0.0,0.0,0.0,1.86,0.49,
0.532,66.94295233,68.80247693000001,-1.92,-1.3,-0.79,5.0,0.0,0.0,1.0,0.0,0.0,0.0,0.0,0.98,0.39,
0.556,69.541295233,71.455247693,-2.05,-0.96,0.69,5.0,0.0,0.0,1.0,0.0,0.0,0.0,0.0,1.28,0.39,
0.58,71.7181295233,73.6195247693,-2.71,-0.85,1.59,5.0,0.0,0.0,1.0,0.0,0.0,0.0,0.0,1.28,0.69,
0.604,73.56481295233,75.41095247693,-2.82,-0.36,1.95,5.0,0.0,0.0,1.0,0.0,0.0,0.0,0.0,1.47,0.69,
0.627,75.036481295233,76.931095247693,-2.98,-0.48,1.27,5.0,0.0,0.0,1.0,0.0,0.0,0.0,0.0,1.08,0.69,
0.652,76.2456481295233,78.1991095247693,-3.27,-0.37,-0.18,5.0,0.0,0.0,1.0,0.0,0.0,0.0,0.0,1.28,0.69,
0.675,77.46456481295233,79.46891095247693,-4.13,0.79,-0.01,5.0,0.0,0.0,1.0,0.0,0.0,0.0,0.0,1.37,0.69,
0.699,78.42345648129523,80.58589109524769,-4.02,0.44,1.99,5.0,0.0,0.0,1.0,0.0,0.0,0.0,0.0,1.47,0.78,
0.723,79.05934564812952,81.41758910952478,-3.86,-0.05,0.38,5.0,0.0,0.0,1.0,0.0,0.0,0.0,0.0,1.67,0.69,
0.747,79.68993456481296,82.20275891095248,-3.87,-0.49,-0.45,5.0,0.0,0.0,1.0,0.0,0.0,0.0,0.0,1.86,0.78,
0.771,80.27499345648131,83.09127589109524,-3.35,-0.31,0.44,5.0,0.0,0.0,1.0,0.0,0.0,0.0,0.0,1.67,0.69,
0.795,80.78349934564812,83.66612758910952,-2.85,-0.24,1.02,5.0,0.0,0.0,1.0,0.0,0.0,0.0,0.0,1.57,0.78,
0.819,81.16734993456481,84.02061275891096,-2.73,-1.23,0.83,5.0,0.0,0.0,1.0,0.0,0.0,0.0,0.0,1.37,0.78,
0.843,81.52073499345649,84.3980612758911,-3.53,-1.11,-0.34,5.0,0.0,0.0,1.0,0.0,0.0,0.0,0.0,1.08,0.88,
0.867,81.92507349934564,84.84980612758912,-3.11,-0.7,-0.75,5.0,0.0,0.0,1.0,0.0,0.0,0.0,0.0,1.57,0.88,
0.89,82.30750734993455,85.27298061275891,-2.83,-1.08,0.98,5.0,0.0,0.0,1.0,0.0,0.0,0.0,0.0,1.47,0.78,
0.915,82.48075073499345,85.45929806127589,-2.73,-1.76,1.34,5.0,0.0,0.0,1.0,0.0,0.0,0.0,0.0,1.28,0.78,
0.939,82.63307507349936,85.5949298061276,-2.71,-1.58,0.52,5.0,0.0,0.0,1.0,0.0,0.0,0.0,0.0,1.57,0.78,
0.962,82.79230750734995,85.68049298061275,-2.71,-1.34,-0.48,5.0,0.0,0.0,1.0,0.0,0.0,0.0,0.0,1.67,0.88,
0.987,83.051230750735,85.79704929806127,-2.56,-1.46,0.15,5.0,0.0,0.0,1.0,0.0,0.0,0.0,0.0,1.57,0.98,
1.01,83.22112307507349,85.92570492980613,-3.39,-0.94,1.5,5.0,0.0,0.0,1.0,0.0,0.0,0.0,0.0,1.47,0.98,
1.034,83.30111230750735,86.0105704929806,-3.92,0.01,1.77,5.0,0.0,0.0,1.0,0.0,0.0,0.0,0.0,1.77,0.98,
1.058,83.37211123075073,85.98305704929807,-3.21,-0.23,1.4,5.0,0.0,0.0,1.0,0.0,0.0,0.0,0.0,1.77,0.69,
1.082,83.51421112307509,85.8993057049298,-3.69,0.18,-0.02,5.0,0.0,0.0,1.0,0.0,0.0,0.0,0.0,1.57,0.88,
1.105,83.58242111230751,85.89093057049298,-4.25,0.12,0.15,5.0,0.0,0.0,1.0,0.0,0.0,0.0,0.0,1.86,0.98,
1.13,83.68824211123075,85.9620930570493,-5.1,-0.11,2.11,5.0,0.0,0.0,1.0,0.0,0.0,0.0,0.0,2.35,0.98,
1.154,83.69882421112307,85.91520930570493,-4.86,-0.5,1.89,5.0,0.0,0.0,1.0,0.0,0.0,0.0,0.0,2.26,0.39,
1.177,83.76288242111231,85.8385209305705,-4.76,0.13,-0.31,5.0,0.0,0.0,1.0,0.0,0.0,0.0,0.0,2.26,0.49,
1.202,83.79628824211123,85.91185209305705,-5.18,0.76,-0.3,5.0,0.0,0.0,1.0,0.0,0.0,0.0,0.0,5.1,0.59,
1.225,83.88062882421113,85.96418520930571,-5.24,0.02,0.44,5.0,0.0,0.0,1.0,0.0,0.0,0.0,0.0,5.69,0.29,
1.249,83.97006288242112,86.00541852093058,-4.81,-0.33,1.13,5.0,0.0,0.0,1.0,0.0,0.0,0.0,0.0,6.18,0.2,
1.273,83.99700628824212,86.01854185209305,-5.56,-0.82,1.5,5.0,0.0,0.0,1.0,0.0,0.0,0.0,0.0,6.38,0.39,
1.297,84.02670062882422,86.1008541852093,-5.2,-0.96,1.24,5.0,0.0,0.0,1.0,0.0,0.0,0.0,0.0,6.47,0.59,
1.32,83.95767006288243,86.11808541852093,-4.06,-1.31,-0.27,5.0,0.0,0.0,1.0,0.0,0.0,0.0,0.0,6.47,0.39,
1.345,84.07676700628825,86.20980854185208,-3.63,-1.61,-0.73,5.0,0.0,0.0,1.0,0.0,0.0,0.0,0.0,6.38,0.49,
1.369,84.20567670062883,86.29098085418521,-4.34,-1.09,1.42,5.0,0.0,0.0,1.0,0.0,0.0,0.0,0.0,6.67,0.39,
1.392,84.24556767006288,86.19109808541853,-4.25,-1.39,1.42,5.0,0.0,0.0,1.0,0.0,0.0,0.0,0.0,6.77,0.59,
1.417,84.33955676700629,86.12710980854186,-3.21,-1.01,0.07,5.0,0.0,0.0,1.0,0.0,0.0,0.0,0.0,6.38,0.59,
1.44,84.39395567670064,86.1477109808542,-3.45,-0.22,-0.36,5.0,0.0,0.0,1.0,0.0,0.0,0.0,0.0,5.79,0.69,
1.464,84.27339556767006,86.16777109808541,-3.9,-0.64,0.11,5.0,0.0,0.0,1.0,0.0,0.0,0.0,0.0,4.71,0.69,
1.488,84.19833955676701,86.30477710980854,-3.21,-1.53,-0.59,5.0,0.0,0.0,1.0,0.0,0.0,0.0,0.0,4.81,0.69,
1.512,84.1998339556767,86.48047771098086,-2.05,-1.58,-0.73,5.0,0.0,0.0,1.0,0.0,0.0,0.0,0.0,4.91,0.69,
1.537,84.19098339556767,86.6060477710981,-1.42,-1.24,-1.01,5.0,0.0,0.0,1.0,0.0,0.0,0.0,0.0,4.91,0.78,
1.56,84.20809833955677,86.76260477710981,-1.37,-1.73,-0.16,5.0,0.0,0.0,1.0,0.0,0.0,0.0,0.0,4.81,0.88,
1.585,84.18280983395569,86.71526047771098,-1.14,-1.95,0.63,5.0,0.0,0.0,1.0,0.0,0.0,0.0,0.0,4.61,0.78,
1.608,84.22528098339556,86.65652604777111,-0.32,-2.1,-0.31,5.0,0.0,0.0,1.0,0.0,0.0,0.0,0.0,4.91,0.78,
1.632,84.31052809833955,86.65965260477711,0.27,-1.58,-0.4,5.0,0.0,0.0,1.0,0.0,0.0,0.0,0.0,4.71,0.78,
1.656,84.40905280983397,86.59696526047772,-0.47,-0.95,1.08,5.0,0.0,0.0,1.0,0.0,0.0,0.0,0.0,4.61,0.78,
1.68,84.39190528098341,86.50969652604778,-1.79,-0.4,2.61,5.0,0.0,0.0,1.0,0.0,0.0,0.0,0.0,4.71,0.88,
1.703,84.35419052809833,86.32096965260477,-1.99,-1.1,1.71,5.0,0.0,0.0,1.0,0.0,0.0,0.0,0.0,4.22,0.88,
1.728,84.39541905280984,86.20309696526047,-2.22,-0.77,0.52,5.0,0.0,0.0,1.0,0.0,0.0,0.0,0.0,4.41,0.88,
1.752,84.372541905281,86.14630969652605,-2.34,-0.43,0.47,5.0,0.0,0.0,1.0,0.0,0.0,0.0,0.0,5.49,0.98,
1.775,84.2982541905281,86.0776309696526,-2.4,-0.79,0.6,5.0,0.0,0.0,1.0,0.0,0.0,0.0,0.0,5.3,0.88,
1.8,84.2098254190528,85.98076309696526,-2.78,-1.64,-0.22,5.0,0.0,0.0,1.0,0.0,0.0,0.0,0.0,5.1,0.59,
1.823,84.18298254190529,86.01607630969652,-3.64,-1.22,0.05,5.0,0.0,0.0,1.0,0.0,0.0,0.0,0.0,5.4,0.78,
1.847,84.18929825419053,86.05560763096966,-3.66,-0.79,0.31,5.0,0.0,0.0,1.0,0.0,0.0,0.0,0.0,4.41,0.98,
1.871,84.17192982541906,86.11356076309697,-3.85,-1.44,-0.65,5.0,0.0,0.0,1.0,0.0,0.0,0.0,0.0,4.02,0.88,
1.895,84.1971929825419,86.24535607630969,-3.92,-1.56,-0.73,5.0,0.0,0.0,1.0,0.0,0.0,0.0,0.0,3.83,0.78,
1.92,84.2447192982542,86.46553560763095,-3.75,-1.04,0.8,5.0,0.0,0.0,1.0,0.0,0.0,0.0,0.0,3.63,0.88,
1.943,84.20447192982542,86.56855356076309,-2.73,-1.3,1.2,5.0,0.0,0.0,1.0,0.0,0.0,0.0,0.0,4.61,0.49,
1.967,84.14644719298254,86.5518553560763,-2.31,-1.43,-0.3,5.0,0.0,0.0,1.0,0.0,0.0,0.0,0.0,4.22,0.29,
1.991,84.18564471929825,86.57718553560763,-3.21,-1.37,0.66,5.0,0.0,0.0,1.0,0.0,0.0,0.0,0.0,4.61,0.59,
2.015,84.16256447192983,86.48071855356076,-3.37,-1.77,1.42,5.0,0.0,0.0,1.0,0.0,0.0,0.0,0.0,4.61,0.39,
2.038,84.23225644719298,86.23707185535608,-3.67,-1.56,0.21,5.0,0.0,0.0,1.0,0.0,0.0,0.0,0.0,5.0,0.49,
2.063,84.2302256447193,86.0957071855356,-4.05,-1.68,-1.01,5.0,0.0,0.0,1.0,0.0,0.0,0.0,0.0,5.1,0.39,
2.086,84.25702256447192,86.09957071855355,-4.56,-1.76,-1.5,5.0,0.0,0.0,1.0,0.0,0.0,0.0,0.0,5.1,0.49,
2.11,84.3587022564472,86.22595707185535,-3.65,-0.64,-0.48,5.0,0.0,0.0,1.0,0.0,0.0,0.0,0.0,4.81,0.39,
2.135,84.37787022564471,86.28359570718554,-3.53,-0.91,0.27,5.0,0.0,0.0,1.0,0.0,0.0,0.0,0.0,4.91,0.39,
2.158,84.27178702256447,86.28035957071856,-3.7,-1.08,-0.02,5.0,0.0,0.0,1.0,0.0,0.0,0.0,0.0,4.91,0.59,
2.183,84.27917870225644,86.35203595707186,-3.24,-1.06,-1.13,5.0,0.0,0.0,1.0,0.0,0.0,0.0,0.0,4.81,0.69,
2.206,84.37891787022565,86.5932035957072,-3.15,-0.12,0.34,5.0,0.0,0.0,1.0,0.0,0.0,0.0,0.0,4.61,0.69,
2.23,84.34389178702257,86.73432035957072,-3.17,-0.39,2.96,5.0,0.0,0.0,1.0,0.0,0.0,0.0,0.0,4.71,0.39,
2.254,84.19638917870228,86.59543203595706,-2.11,-1.21,0.53,5.0,0.0,0.0,1.0,0.0,0.0,0.0,0.0,4.81,0.49,
2.278,84.31663891787024,86.6625432035957,-1.47,-0.61,-1.24,5.0,0.0,0.0,1.0,0.0,0.0,0.0,0.0,4.71,0.69,
2.302,84.47266389178702,86.76825432035957,-1.91,0.22,2.47,5.0,0.0,0.0,1.0,0.0,0.0,0.0,0.0,4.61,0.88,
2.326,84.3982663891787,86.60782543203597,-2.97,-0.5,3.27,5.0,0.0,0.0,1.0,0.0,0.0,0.0,0.0,4.41,0.78,
2.35,84.30082663891787,86.4567825432036,-2.98,-0.77,1.98,5.0,0.0,0.0,1.0,0.0,0.0,0.0,0.0,4.81,0.78,
2.374,84.34508266389177,86.35167825432036,-2.12,-1.43,0.05,5.0,0.0,0.0,1.0,0.0,0.0,0.0,0.0,4.91,0.78,
2.398,84.42150826638918,86.13416782543203,-2.24,-1.6,-1.53,5.0,0.0,0.0,1.0,0.0,0.0,0.0,0.0,3.83,0.88,
2.421,84.57315082663892,86.1664167825432,-3.5,-0.83,-1.03,5.0,0.0,0.0,1.0,0.0,0.0,0.0,0.0,2.94,0.78,
2.446,84.82231508266389,86.25964167825433,-4.62,0.57,1.79,5.0,0.0,0.0,1.0,0.0,0.0,0.0,0.0,3.63,0.98,
2.469,84.82923150826639,86.25096416782543,-4.66,0.63,2.85,5.0,0.0,0.0,1.0,0.0,0.0,0.0,0.0,3.83,0.78,
2.493,84.72192315082663,86.11509641678254,-4.31,0.64,-0.21,5.0,0.0,0.0,1.0,0.0,0.0,0.0,0.0,4.32,0.78,
2.516,84.69319231508267,86.19150964167825,-4.37,0.82,-1.61,5.0,0.0,0.0,1.0,0.0,0.0,0.0,0.0,4.41,0.69,
2.541,84.60031923150827,86.37915096416783,-4.3,0.27,-0.02,5.0,0.0,0.0,1.0,0.0,0.0,0.0,0.0,4.71,0.88,
2.565,84.43803192315083,86.47891509641677,-3.79,-1.03,1.12,5.0,0.0,0.0,1.0,0.0,0.0,0.0,0.0,4.22,0.98,
2.588,84.31380319231509,86.40789150964169,-3.32,-1.82,0.1,5.0,0.0,0.0,1.0,0.0,0.0,0.0,0.0,4.51,1.08,
2.613,84.33738031923151,86.44578915096417,-3.27,-1.72,-1.02,5.0,0.0,0.0,1.0,0.0,0.0,0.0,0.0,4.61,0.88,
2.636,84.47473803192315,86.45857891509641,-3.09,-1.51,0.59,5.0,0.0,0.0,1.0,0.0,0.0,0.0,0.0,4.71,0.69,
2.661,84.43447380319232,86.39685789150964,-3.14,-1.2,2.47,5.0,0.0,0.0,1.0,0.0,0.0,0.0,0.0,4.51,0.78,
2.684,84.37644738031923,86.21968578915096,-3.89,-2.68,1.18,5.0,0.0,0.0,1.0,0.0,0.0,0.0,0.0,4.22,0.88,
2.708,84.33464473803193,86.12996857891511,-2.82,-3.1,-1.59,5.0,0.0,0.0,1.0,0.0,0.0,0.0,0.0,4.71,0.98,
2.733,84.5014644738032,86.16599685789151,-1.89,-1.84,-3.02,5.0,0.0,0.0,1.0,0.0,0.0,0.0,0.0,4.61,0.98,
2.756,84.69814644738032,86.28659968578916,-2.31,0.34,-0.35,5.0,0.0,0.0,1.0,0.0,0.0,0.0,0.0,5.1,0.69,
2.78,84.69981464473804,86.28965996857892,-3.66,-0.01,0.76,5.0,0.0,0.0,1.0,0.0,0.0,0.0,0.0,5.3,0.39,
2.804,84.6369814644738,86.31696599685789,-3.7,-0.12,0.89,5.0,0.0,0.0,1.0,0.0,0.0,0.0,0.0,5.3,0.49,
2.828,84.64869814644739,86.35569659968579,-3.08,-0.1,1.17,5.0,0.0,0.0,1.0,0.0,0.0,0.0,0.0,5.1,0.39,
2.851,84.56886981464474,86.31456965996858,-3.04,-0.28,0.56,5.0,0.0,0.0,1.0,0.0,0.0,0.0,0.0,4.61,0.49,
2.876,84.50688698146448,86.34645696599686,-3.01,-0.89,0.97,5.0,0.0,0.0,1.0,0.0,0.0,0.0,0.0,4.71,0.59,
2.899,84.45568869814646,86.29564569659969,-3.15,-1.84,1.16,5.0,0.0,0.0,1.0,0.0,0.0,0.0,0.0,4.81,0.39,
2.923,84.36056886981464,86.16456456965997,-2.97,-1.94,-0.6,5.0,0.0,0.0,1.0,0.0,0.0,0.0,0.0,4.81,0.49,
2.948,84.37805688698145,86.16945645696599,-2.89,-1.76,-2.51,5.0,0.0,0.0,1.0,0.0,0.0,0.0,0.0,4.91,0.49,
2.971,84.50580568869815,86.38594564569661,-3.27,-1.1,-0.92,5.0,0.0,0.0,1.0,0.0,0.0,0.0,0.0,4.91,0.39,
2.996,84.62658056886981,86.51559456456967,-3.52,-0.79,1.95,5.0,0.0,0.0,1.0,0.0,0.0,0.0,0.0,5.0,0.59,
3.019,84.55765805688698,86.44755945645697,-3.34,-1.08,2.46,5.0,0.0,0.0,1.0,0.0,0.0,0.0,0.0,4.61,0.69,
3.043,84.5507658056887,86.3867559456457,-2.72,-1.4,-0.91,5.0,0.0,0.0,1.0,0.0,0.0,0.0,0.0,4.51,0.78,
3.067,84.71207658056888,86.58767559456457,-2.11,-0.66,-1.6,5.0,0.0,0.0,1.0,0.0,0.0,0.0,0.0,4.41,0.69,
3.091,84.77320765805689,86.79676755945644,-2.44,-0.26,1.98,5.0,0.0,0.0,1.0,0.0,0.0,0.0,0.0,4.51,0.69,
3.116,84.63532076580569,86.79067675594564,-2.53,-1.4,2.23,5.0,0.0,0.0,1.0,0.0,0.0,0.0,0.0,4.81,0.69,
3.139,84.61253207658056,86.83506767559457,-0.7,-1.86,0.17,5.0,0.0,0.0,1.0,0.0,0.0,0.0,0.0,5.2,0.69,
3.163,84.71825320765807,86.87550676755944,-0.65,-1.34,0.79,5.0,0.0,0.0,1.0,0.0,0.0,0.0,0.0,5.2,0.98,
3.187,84.72882532076581,86.68155067675595,-1.16,-1.6,1.07,5.0,0.0,0.0,1.0,0.0,0.0,0.0,0.0,5.2,0.78,
3.211,84.74788253207659,86.5631550676756,-2.24,-1.65,0.51,5.0,0.0,0.0,1.0,0.0,0.0,0.0,0.0,5.3,0.69,
3.234,84.91178825320767,86.49731550676755,-2.78,-1.65,0.64,5.0,0.0,0.0,1.0,0.0,0.0,0.0,0.0,5.2,0.78,
3.259,85.04517882532076,86.46373155067674,-3.24,-0.18,1.63,5.0,0.0,0.0,1.0,0.0,0.0,0.0,0.0,5.3,0.88,
3.282,85.01351788253207,86.32537315506768,-3.52,0.31,1.11,5.0,0.0,0.0,1.0,0.0,0.0,0.0,0.0,5.1,0.98,
3.306,84.9653517882532,86.19453731550678,-3.41,-0.63,-0.64,5.0,0.0,0.0,1.0,0.0,0.0,0.0,0.0,5.2,0.88,
3.331,84.95153517882531,86.20845373155068,-4.19,-0.67,-0.66,5.0,0.0,0.0,1.0,0.0,0.0,0.0,0.0,4.41,0.78,
3.354,84.91415351788253,86.18284537315508,-4.73,-0.4,0.21,5.0,0.0,0.0,1.0,0.0,0.0,0.0,0.0,3.24,0.69,
3.378,84.81141535178824,86.1982845373155,-4.92,-0.58,0.1,5.0,0.0,0.0,1.0,0.0,0.0,0.0,0.0,2.84,0.59,
3.402,84.71114153517883,86.35282845373155,-4.33,-1.81,-0.76,5.0,0.0,0.0,1.0,0.0,0.0,0.0,0.0,2.65,0.88,
3.426,84.68311415351789,86.50328284537315,-3.92,-1.83,-0.72,5.0,0.0,0.0,1.0,0.0,0.0,0.0,0.0,2.75,0.88,
3.45,84.6353114153518,86.55432828453732,-3.27,-1.68,-0.18,5.0,0.0,0.0,1.0,0.0,0.0,0.0,0.0,4.32,0.98,
3.474,84.71153114153518,86.66743282845374,-2.92,-1.74,-0.7,5.0,0.0,0.0,1.0,0.0,0.0,0.0,0.0,4.51,0.88,
3.497,84.82715311415353,86.81374328284538,-2.95,-0.58,1.61,5.0,0.0,0.0,1.0,0.0,0.0,0.0,0.0,4.51,0.88,
3.522,84.85671531141534,86.82837432828454,-2.33,-0.31,2.76,5.0,0.0,0.0,1.0,0.0,0.0,0.0,0.0,4.41,0.88,
3.546,84.85067153114153,86.73983743282845,-1.95,-0.27,1.32,5.0,0.0,0.0,1.0,0.0,0.0,0.0,0.0,4.81,0.2,
3.569,84.84106715311415,86.63198374328286,-2.21,-0.66,1.24,5.0,0.0,0.0,1.0,0.0,0.0,0.0,0.0,4.51,0.29,
3.594,84.74110671531142,86.60319837432829,-3.1,-1.52,0.9,5.0,0.0,0.0,1.0,0.0,0.0,0.0,0.0,3.63,0.29,
3.617,84.71311067153113,86.61831983743284,-2.76,-2.31,0.45,5.0,0.0,0.0,1.0,0.0,0.0,0.0,0.0,3.92,0.39,
3.641,84.72831106715311,86.55683198374328,-2.01,-1.59,-0.54,5.0,0.0,0.0,1.0,0.0,0.0,0.0,0.0,4.02,0.59,
3.665,84.77483110671531,86.47868319837434,-1.84,-1.59,-1.35,5.0,0.0,0.0,1.0,0.0,0.0,0.0,0.0,4.12,0.59,
3.689,84.92348311067153,86.56086831983743,-2.73,-1.1,-0.18,5.0,0.0,0.0,1.0,0.0,0.0,0.0,0.0,3.53,0.39,
3.714,85.01034831106715,86.66808683198376,-3.24,-0.35,2.59,5.0,0.0,0.0,1.0,0.0,0.0,0.0,0.0,3.83,0.49,
3.737,84.9290348311067,86.56180868319836,-2.47,-0.34,2.03,5.0,0.0,0.0,1.0,0.0,0.0,0.0,0.0,3.73,0.59,
3.761,84.84890348311067,86.47018086831983,-2.4,-1.28,0.45,5.0,0.0,0.0,1.0,0.0,0.0,0.0,0.0,3.92,0.59,
3.785,84.89489034831108,86.57801808683199,-3.19,-0.53,0.9,5.0,0.0,0.0,1.0,0.0,0.0,0.0,0.0,4.12,0.59,
3.809,84.8094890348311,86.7238018086832,-2.31,-0.9,1.8,5.0,0.0,0.0,1.0,0.0,0.0,0.0,0.0,4.22,0.59,
3.832,84.70194890348311,86.60338018086833,-1.82,-1.73,0.58,5.0,0.0,0.0,1.0,0.0,0.0,0.0,0.0,4.12,0.59,
3.857,84.7361948903483,86.51033801808684,-2.15,-1.66,-0.51,5.0,0.0,0.0,1.0,0.0,0.0,0.0,0.0,3.92,0.59,
3.88,84.88361948903484,86.51903380180867,-3.2,-0.8,0.8,5.0,0.0,0.0,1.0,0.0,0.0,0.0,0.0,3.53,0.88,
3.905,84.88936194890348,86.62790338018087,-2.84,-0.84,2.08,5.0,0.0,0.0,1.0,0.0,0.0,0.0,0.0,3.14,0.78,
3.929,84.91693619489034,86.58479033801808,-1.72,-1.27,1.27,5.0,0.0,0.0,1.0,0.0,0.0,0.0,0.0,3.73,0.88,
3.952,84.96469361948903,86.4724790338018,-2.52,-1.37,0.37,5.0,0.0,0.0,1.0,0.0,0.0,0.0,0.0,3.63,0.78,
3.977,84.9424693619489,86.51524790338017,-3.17,-0.88,-0.36,5.0,0.0,0.0,1.0,0.0,0.0,0.0,0.0,3.73,0.78,
4.0,84.94924693619488,86.67252479033802,-3.31,-1.19,-0.41,5.0,0.0,0.0,1.0,0.0,0.0,0.0,0.0,3.43,0.78,
4.024,84.87792469361949,86.78725247903381,-2.95,-1.4,0.1,5.0,0.0,0.0,1.0,0.0,0.0,0.0,0.0,3.34,0.78,
4.048,84.90679246936195,86.82572524790339,-3.05,-1.64,-0.05,5.0,0.0,0.0,1.0,0.0,0.0,0.0,0.0,3.43,0.88,
4.072,84.9366792469362,87.03657252479033,-2.66,-1.15,-0.03,5.0,0.0,0.0,1.0,0.0,0.0,0.0,0.0,3.53,0.88,
4.097,84.93966792469362,87.15665725247904,-1.51,-1.56,0.35,5.0,0.0,0.0,1.0,0.0,0.0,0.0,0.0,3.43,0.88,
4.12,84.92196679246936,87.1236657252479,-1.44,-1.62,1.02,5.0,0.0,0.0,1.0,0.0,0.0,0.0,0.0,3.34,0.78,
4.144,84.92919667924694,87.03036657252478,-2.59,-1.55,1.43,5.0,0.0,0.0,1.0,0.0,0.0,0.0,0.0,3.43,0.88,
4.168,84.89391966792469,86.91303665725249,-2.63,-1.69,0.67,5.0,0.0,0.0,1.0,0.0,0.0,0.0,0.0,3.24,0.98,
4.192,84.89939196679248,86.69430366572524,-1.54,-2.25,-0.97,5.0,0.0,0.0,1.0,0.0,0.0,0.0,0.0,2.84,0.88,
4.215,85.04393919667925,86.61843036657253,-2.16,-1.31,-2.0,5.0,0.0,0.0,1.0,0.0,0.0,0.0,0.0,2.75,0.69,
4.24,85.13039391966792,86.65584303665725,-3.99,-0.34,-0.02,5.0,0.0,0.0,1.0,0.0,0.0,0.0,0.0,2.84,0.78,
4.263,85.17503939196679,86.62358430366574,-4.5,0.11,-0.06,5.0,0.0,0.0,1.0,0.0,0.0,0.0,0.0,2.75,0.88,
4.287,85.25150393919668,86.80935843036657,-3.9,0.79,0.95,5.0,0.0,0.0,1.0,0.0,0.0,0.0,0.0,2.75,0.98,
4.312,85.20515039391967,86.83693584303666,-4.1,0.52,1.54,5.0,0.0,0.0,1.0,0.0,0.0,0.0,0.0,2.65,0.98,
4.335,84.99351503939197,86.91169358430368,-3.79,-0.34,-0.27,5.0,0.0,0.0,1.0,0.0,0.0,0.0,0.0,2.94,0.29,
4.359,84.92735150393919,87.04516935843037,-2.4,-1.24,-1.3,5.0,0.0,0.0,1.0,0.0,0.0,0.0,0.0,2.94,0.39,
4.383,84.99273515039391,87.12151693584303,-2.16,-1.24,-0.21,5.0,0.0,0.0,1.0,0.0,0.0,0.0,0.0,2.75,0.39,
4.407,85.02627351503939,87.1021516935843,-2.56,-1.11,1.24,5.0,0.0,0.0,1.0,0.0,0.0,0.0,0.0,2.84,0.29,
4.431,85.02962735150393,87.07321516935843,-2.92,-1.42,1.37,5.0,0.0,0.0,1.0,0.0,0.0,0.0,0.0,3.14,0.39,
4.455,85.02996273515039,87.09732151693584,-2.79,-0.64,2.25,5.0,0.0,0.0,1.0,0.0,0.0,0.0,0.0,3.43,0.49,
4.478,84.95799627351504,87.03673215169358,-2.04,-0.92,1.14,5.0,0.0,0.0,1.0,0.0,0.0,0.0,0.0,3.43,0.69,
4.503,84.8877996273515,86.93167321516937,-2.41,-1.3,0.36,5.0,0.0,0.0,1.0,0.0,0.0,0.0,0.0,3.83,0.69,
4.527,84.78177996273514,86.93016732151695,-2.63,-1.05,0.82,5.0,0.0,0.0,1.0,0.0,0.0,0.0,0.0,3.73,0.69,
4.55,84.72617799627352,86.99301673215169,-2.45,-1.51,0.83,5.0,0.0,0.0,1.0,0.0,0.0,0.0,0.0,3.73,0.59,
4.575,84.67561779962736,86.91830167321515,-2.25,-2.57,0.17,5.0,0.0,0.0,1.0,0.0,0.0,0.0,0.0,3.53,0.39,
4.598,84.63456177996274,86.86583016732152,-2.94,-2.33,-0.77,5.0,0.0,0.0,1.0,0.0,0.0,0.0,0.0,3.53,0.69,
4.622,84.62145617799628,86.91458301673217,-4.5,-1.18,-1.1,5.0,0.0,0.0,1.0,0.0,0.0,0.0,0.0,3.92,0.78,
4.646,84.62914561779962,87.0364583016732,-2.98,-1.66,0.98,5.0,0.0,0.0,1.0,0.0,0.0,0.0,0.0,4.12,0.69,
4.67,84.59391456177997,87.05764583016732,-2.25,-2.51,1.26,5.0,0.0,0.0,1.0,0.0,0.0,0.0,0.0,4.02,0.59,
4.694,84.581391456178,86.96976458301673,-1.84,-1.92,0.04,5.0,0.0,0.0,1.0,0.0,0.0,0.0,0.0,4.51,0.78,
4.718,84.5171391456178,86.86197645830167,-0.97,-2.81,-2.21,5.0,0.0,0.0,1.0,0.0,0.0,0.0,0.0,4.61,0.69,
4.742,84.67271391456178,86.77019764583017,-0.76,-3.52,-3.84,5.0,0.0,0.0,1.0,0.0,0.0,0.0,0.0,4.51,0.69,
4.766,84.77827139145619,86.69801976458302,-2.69,-2.98,-2.85,5.0,0.0,0.0,1.0,0.0,0.0,0.0,0.0,4.51,0.69,
4.79,84.86082713914563,86.5918019764583,-3.78,-2.09,-2.79,5.0,0.0,0.0,1.0,0.0,0.0,0.0,0.0,3.92,0.78,
4.813,84.91408271391455,86.50918019764583,-3.73,-1.46,-3.76,5.0,0.0,0.0,1.0,0.0,0.0,0.0,0.0,3.83,0.88,
4.838,84.92840827139146,86.4199180197646,-3.8,-1.12,-4.04,5.0,0.0,0.0,1.0,0.0,0.0,0.0,0.0,3.92,0.69,
4.861,84.83084082713914,86.23999180197646,-5.33,-1.54,-5.06,5.0,0.0,0.0,1.0,0.0,0.0,0.0,0.0,4.12,0.78,
4.886,84.81208408271392,86.14999918019764,-7.0,-2.29,-5.87,5.0,0.0,0.0,1.0,0.0,0.0,0.0,0.0,4.12,0.88,
4.91,84.87320840827138,86.13199991801976,-7.6,-2.61,-4.92,5.0,0.0,0.0,1.0,0.0,0.0,0.0,0.0,4.32,0.98,
4.934,84.89732084082715,86.09419999180199,-8.25,-2.24,-4.77,5.0,0.0,0.0,1.0,0.0,0.0,0.0,0.0,4.02,0.69,
4.958,84.92673208408273,86.1804199991802,-8.5,-1.38,-4.66,5.0,0.0,0.0,1.0,0.0,0.0,0.0,0.0,3.83,0.78,
4.981,84.89367320840827,86.25204199991802,-8.1,-0.84,-4.09,5.0,0.0,0.0,1.0,0.0,0.0,0.0,0.0,3.63,0.88,
5.006,84.84536732084084,86.3132041999918,-7.56,-0.93,-4.86,5.0,0.0,0.0,1.0,0.0,0.0,0.0,0.0,3.83,1.08,
5.029,84.65153673208408,86.27432041999919,-6.91,-1.31,-6.27,5.0,0.0,0.0,1.0,0.0,0.0,0.0,0.0,3.83,0.98,
5.054,84.45215367320841,86.29743204199991,-6.36,-1.67,-6.63,5.0,0.0,0.0,1.0,0.0,0.0,0.0,0.0,4.02,0.98,
5.078,84.26121536732084,86.3627432042,-6.74,-3.39,-6.28,5.0,0.0,0.0,1.0,0.0,0.0,0.0,0.0,4.12,0.59,
5.102,84.0801215367321,86.59427432042001,-6.29,-4.31,-5.94,5.0,0.0,0.0,1.0,0.0,0.0,0.0,0.0,4.71,0.49,
5.126,83.86401215367322,86.806427432042,-5.18,-4.56,-5.21,5.0,0.0,0.0,1.0,0.0,0.0,0.0,0.0,4.71,0.29,
5.149,83.59940121536731,86.66564274320422,-3.45,-5.35,-9.62,5.0,0.0,0.0,1.0,0.0,0.0,0.0,0.0,4.51,0.29,
5.174,83.69894012153672,86.61556427432042,-3.56,-5.37,-11.88,5.0,0.0,0.0,1.0,0.0,0.0,0.0,0.0,4.61,0.39,
5.197,83.88889401215367,86.57455642743204,-5.09,-4.09,-8.94,5.0,0.0,0.0,1.0,0.0,0.0,0.0,0.0,4.41,0.29,
5.222,84.00688940121536,86.4714556427432,-6.64,-3.36,-4.78,5.0,0.0,0.0,1.0,0.0,0.0,0.0,0.0,4.22,0.49,
5.245,84.01868894012154,86.02914556427433,-7.69,-4.56,-3.3,5.0,0.0,0.0,1.0,0.0,0.0,0.0,0.0,4.22,0.49,
5.27,83.87586889401216,85.49891455642744,-8.05,-5.35,-4.82,5.0,0.0,0.0,1.0,0.0,0.0,0.0,0.0,4.22,0.39,
5.294,83.60058688940121,84.75289145564274,-6.95,-6.71,-11.13,5.0,0.0,0.0,1.0,0.0,0.0,0.0,0.0,4.32,0.59,
5.318,83.81605868894012,84.56128914556429,-5.36,-5.18,-17.98,5.0,0.0,0.0,1.0,0.0,0.0,0.0,0.0,4.32,0.98,
5.342,84.17060586889401,84.84812891455643,-5.56,-3.9,-12.77,5.0,0.0,0.0,1.0,0.0,0.0,0.0,0.0,4.81,0.98,
5.366,84.35006058688941,84.85881289145564,-8.56,-3.44,-7.6,5.0,0.0,0.0,1.0,0.0,0.0,0.0,0.0,1.96,0.69,
5.39,84.28700605868895,84.80588128914556,-8.89,-2.34,-7.69,5.0,0.0,0.0,1.0,0.0,0.0,0.0,0.0,1.37,0.78,
5.413,84.3887006058689,84.66558812891455,-6.8,-1.54,-12.1,5.0,0.0,0.0,1.0,0.0,0.0,0.0,0.0,0.59,0.49,
5.438,84.5698700605869,84.89455881289145,-4.86,-0.82,-14.03,5.0,0.0,0.0,1.0,0.0,0.0,0.0,0.0,0.69,0.0,
5.462,83.90398700605868,85.52045588128915,-10.82,7.66,-14.84,5.0,0.0,0.0,0.0,0.0,0.0,0.0,0.0,3.14,0.0,
5.486,84.04439870060588,86.38404558812893,-5.89,0.75,-3.31,5.0,0.0,0.0,0.0,0.0,0.0,0.0,0.0,3.14,0.1,
5.51,84.04943987006058,85.9214045588129,-9.28,-2.79,4.08,4.0,0.0,0.0,0.0,0.0,0.0,0.0,0.0,5.1,0.0,
5.533,83.68094398700606,84.8401404558813,-7.35,-1.44,-5.23,5.0,0.0,0.0,0.0,0.0,0.0,0.0,0.1,6.18,0.29,
5.558,83.2840943987006,84.81301404558813,-6.9,-2.04,-10.16,5.0,0.0,0.0,0.0,0.0,0.0,0.0,0.2,6.38,0.0,
5.581,83.13640943987006,84.9093014045588,-10.18,0.47,-7.81,5.0,0.0,0.0,0.0,0.0,0.0,0.0,0.1,6.67,0.0,
5.606,83.47264094398702,84.60393014045587,-10.31,5.37,-7.6,5.0,0.0,0.0,0.0,0.0,0.0,0.0,0.1,6.77,0.1,
5.629,84.08226409439871,84.4923930140456,-8.95,2.1,-4.02,5.0,0.0,0.0,0.0,0.0,0.0,0.0,0.2,6.57,0.1,
5.654,84.45822640943987,84.33723930140455,-8.97,-0.18,3.33,5.0,0.0,0.0,0.0,0.0,0.0,0.0,0.1,5.98,0.0,
5.678,84.504822640944,83.98872393014047,-10.57,-1.08,-1.22,5.0,0.0,0.0,0.0,0.0,0.0,0.0,0.1,6.47,0.1,
5.701,84.0414822640944,83.73787239301404,-12.78,2.82,-7.69,5.0,0.0,0.0,1.0,0.0,0.0,0.0,0.1,7.95,0.0,
5.726,83.63514822640944,83.60478723930142,-23.68,9.37,-11.15,5.0,0.0,0.0,1.0,0.0,0.0,0.0,0.1,8.24,0.0,
5.749,83.46851482264094,83.14147872393015,-30.43,10.62,-12.77,5.0,0.0,0.0,2.0,0.0,0.0,0.0,0.0,8.34,0.0,
5.774,83.34385148226409,81.92514787239301,-19.39,6.15,-22.11,5.0,0.0,0.0,2.0,0.0,0.0,0.0,0.0,7.95,0.0,
5.798,83.59238514822641,80.8675147872393,-12.76,7.32,-26.94,5.0,0.0,0.0,2.0,0.0,0.0,0.0,0.0,4.41,0.78,
5.822,84.36423851482265,81.07675147872392,-9.34,4.06,-22.75,5.0,0.0,0.0,2.0,0.0,0.0,0.0,0.0,2.55,21.88,
5.847,85.30542385148226,81.95267514787238,-11.15,2.89,-11.25,5.0,0.0,0.0,3.0,0.0,0.0,0.0,0.0,6.18,26.88,
5.871,86.16454238514822,82.61626751478724,-17.7,5.29,-1.5,4.0,0.0,0.0,3.0,0.0,0.0,1.0,0.0,8.93,8.04,
5.895,86.52945423851482,82.44862675147874,-22.92,6.05,5.19,4.0,0.0,0.0,4.0,0.0,0.0,1.0,0.0,10.1,0.0,
5.919,86.34094542385148,81.44186267514787,-20.85,3.63,2.41,4.0,0.0,0.0,4.0,0.0,0.0,1.0,0.0,8.93,0.0,
5.943,86.04309454238515,80.33318626751478,-13.25,0.52,-3.96,4.0,0.0,0.0,5.0,0.0,0.0,1.0,0.0,9.52,0.0,
5.967,86.34630945423852,79.88031862675147,-7.02,-1.02,-4.63,4.0,0.0,0.0,5.0,0.0,0.0,1.0,0.0,8.04,3.14,
5.991,86.90763094542385,79.77203186267515,-3.22,-0.9,2.4,4.0,0.0,0.0,5.0,0.0,0.0,1.0,0.0,7.95,0.88,
6.016,87.28776309454238,79.46420318626753,1.85,-2.89,7.08,5.0,0.0,0.0,5.0,0.0,0.0,1.0,0.0,8.14,0.0,
6.039,87.48777630945423,79.39742031862676,5.44,-6.92,11.02,5.0,0.0,0.0,5.0,0.0,1.0,1.0,0.0,8.83,0.0,
6.064,87.45377763094542,79.47174203186269,6.53,-11.02,9.48,6.0,0.0,0.0,5.0,0.0,1.0,1.0,0.0,10.69,0.0,
6.087,87.10837776309454,79.64117420318627,4.13,-13.03,7.64,7.0,0.0,0.0,5.0,0.0,1.0,1.0,0.0,12.16,0.0,
6.112,86.62383777630944,79.73011742031862,-1.25,-9.64,6.02,8.0,0.0,0.0,6.0,0.0,1.0,1.0,0.0,12.56,0.2,
6.135,85.88238377763093,79.59501174203186,-1.85,-8.68,-0.47,8.0,0.0,0.0,6.0,0.0,1.0,1.0,0.0,12.95,0.88,
6.16,85.7182383777631,79.63550117420318,-2.5,-5.39,-0.55,8.0,0.0,0.0,5.0,0.0,1.0,1.0,0.0,12.46,0.0,
6.183,85.7378238377763,79.66655011742031,-3.2,-5.02,2.73,9.0,0.0,0.0,5.0,0.0,1.0,1.0,0.0,13.24,0.0,
6.208,85.60478238377763,79.56165501174203,-0.92,-5.56,1.18,9.0,0.0,0.0,5.0,0.0,1.0,1.0,0.0,13.83,0.0,
6.233,85.51947823837776,79.74916550117419,-1.24,-4.82,1.63,10.0,0.0,0.0,5.0,0.0,1.0,1.0,0.0,14.13,0.0,
6.256,85.12394782383778,79.84891655011741,-2.71,-0.63,3.64,10.0,0.0,0.0,5.0,0.0,1.0,1.0,0.0,14.03,0.0,
6.281,84.94039478238378,79.78689165501174,-2.19,0.6,1.01,10.0,0.0,0.0,5.0,0.0,1.0,1.0,0.0,14.13,0.0,
6.304,84.94003947823838,79.80768916550119,-3.13,0.92,1.97,10.0,0.0,0.0,5.0,0.0,1.0,1.0,0.0,14.62,0.0,
6.329,85.04800394782384,79.77376891655011,-4.53,1.08,3.44,10.0,0.0,0.0,6.0,0.0,1.0,1.0,0.0,15.21,0.0,
6.352,85.04980039478238,79.70737689165502,-4.61,-0.55,2.35,11.0,0.0,0.0,6.0,0.0,1.0,1.0,0.0,15.3,0.0,
6.377,85.04998003947824,79.6197376891655,-4.76,-1.39,1.37,11.0,0.0,0.0,6.0,0.0,1.0,1.0,0.0,15.21,0.0,
6.402,85.09499800394782,79.61097376891655,-5.45,-2.96,0.75,11.0,0.0,0.0,6.0,0.0,1.0,1.0,0.0,14.32,0.2,
6.425,85.12649980039478,79.52009737689167,-5.06,-4.01,0.18,11.0,0.0,0.0,6.0,0.0,1.0,1.0,0.0,14.52,0.0,
6.45,84.93164998003948,79.37600973768917,-4.44,-4.58,-1.44,11.0,0.0,0.0,6.0,0.0,1.0,1.0,0.0,14.42,0.29,
6.474,84.87616499800396,79.41560097376893,-4.28,-3.82,-1.76,11.0,0.0,0.0,6.0,0.0,1.0,1.0,0.0,14.13,1.08,
6.498,84.9156164998004,79.4735600973769,-4.12,-3.18,0.21,12.0,0.0,0.0,6.0,0.0,1.0,1.0,0.0,13.24,0.1,
6.522,84.89256164998004,79.4253560097377,-4.25,-2.95,-1.29,12.0,0.0,0.0,6.0,0.0,1.0,1.0,0.0,12.95,0.59,
6.547,84.89925616499801,79.39353560097378,-3.09,-2.44,-0.53,12.0,0.0,0.0,6.0,0.0,1.0,1.0,0.0,14.72,0.59,
6.571,84.8279256164998,79.37235356009738,-2.75,-1.48,0.2,12.0,0.0,0.0,6.0,0.0,1.0,1.0,0.0,16.58,0.78,
6.595,84.75779256164998,79.36123535600974,-2.36,-0.22,0.66,12.0,0.0,0.0,6.0,0.0,1.0,1.0,0.0,16.58,0.69,
6.62,84.76877925616499,79.29712353560097,-2.56,-0.27,0.09,12.0,0.0,0.0,6.0,0.0,1.0,1.0,0.0,16.48,0.1,
6.643,84.8598779256165,79.3537123535601,-2.31,-0.48,-0.05,12.0,0.0,0.0,6.0,0.0,1.0,1.0,0.0,16.38,0.0,
6.668,84.88698779256164,79.39537123535601,-2.54,-0.74,0.34,12.0,0.0,0.0,6.0,0.0,1.0,1.0,0.0,16.48,0.2,
6.692,84.85369877925616,79.36353712353561,-2.25,-0.6,-0.31,12.0,0.0,0.0,6.0,0.0,1.0,1.0,0.0,16.28,0.2,
6.716,84.84136987792563,79.45935371235356,-2.15,-0.89,-0.87,12.0,0.0,0.0,6.0,0.0,1.0,1.0,0.0,16.28,1.37,
6.74,84.84913698779256,79.48693537123535,-2.26,0.11,0.08,12.0,0.0,0.0,6.0,0.0,1.0,1.0,0.0,16.38,0.0,
6.765,84.93091369877925,79.48969353712353,-2.89,-0.21,0.45,12.0,0.0,0.0,6.0,0.0,1.0,1.0,0.0,16.48,0.1,
6.789,84.93009136987794,79.51696935371235,-2.69,-0.76,0.12,12.0,0.0,0.0,6.0,0.0,1.0,1.0,0.0,16.28,0.39,
6.813,84.95700913698779,79.55569693537123,-3.53,-0.95,0.55,12.0,0.0,0.0,6.0,0.0,1.0,1.0,0.0,16.19,0.1,
6.837,84.9057009136988,79.59556969353713,-3.65,-0.82,0.98,12.0,0.0,0.0,6.0,0.0,1.0,1.0,0.0,16.78,0.29,
6.861,84.86457009136987,79.58155696935371,-3.99,-1.5,0.63,12.0,0.0,0.0,6.0,0.0,1.0,1.0,0.0,16.78,1.37,
6.886,84.87845700913698,79.56215569693536,-3.95,-1.97,0.31,12.0,0.0,0.0,6.0,0.0,1.0,1.0,0.0,16.68,1.18,
6.909,84.88884570091369,79.59621556969354,-4.22,-2.76,0.33,12.0,0.0,0.0,6.0,0.0,1.0,1.0,0.0,16.78,0.98,
6.934,84.86288457009137,79.51862155696936,-4.4,-1.97,0.73,12.0,0.0,0.0,7.0,0.0,1.0,1.0,0.0,16.68,0.78,
6.959,84.78828845700914,79.47486215569693,-4.15,-0.87,0.56,0.0,0.0,0.0,7.0,0.0,1.0,1.0,0.0,16.68,0.29,
6.982,84.81682884570091,79.44348621556969,-3.68,-0.28,0.13,0.0,0.0,0.0,7.0,0.0,1.0,1.0,0.0,16.58,0.88,
7.007,84.8376828845701,79.40434862155698,-3.4,-0.81,-0.4,0.0,0.0,0.0,7.0,0.0,1.0,1.0,0.0,16.38,0.39,
7.03,84.85776828845701,79.3914348621557,-3.2,-1.4,-0.66,0.0,0.0,0.0,7.0,0.0,1.0,1.0,0.0,16.58,0.69,
7.055,84.8507768288457,79.38114348621556,-3.26,-1.15,0.08,0.0,0.0,0.0,7.0,0.0,1.0,1.0,95.84,16.38,0.49,
7.079,84.89507768288458,79.37111434862156,-3.18,-0.82,-0.21,0.0,0.0,0.0,7.0,0.0,1.0,1.0,0.0,16.09,2.55,
7.103,84.82750776828846,79.42411143486217,-3.4,0.27,0.38,0.0,0.0,0.0,7.0,0.0,1.0,1.0,0.0,16.19,2.26,
7.128,84.83875077682885,79.42041114348622,-3.18,1.12,0.04,0.0,0.0,0.0,7.0,0.0,1.0,1.0,0.0,15.99,0.0,
7.151,84.83087507768288,79.39304111434863,-2.83,0.72,-0.74,12.0,0.0,0.0,7.0,0.0,1.0,1.0,0.0,16.48,0.78,
7.176,84.93808750776829,79.39030411143487,-2.93,0.25,-0.64,0.0,0.0,0.0,7.0,0.0,1.0,1.0,0.0,16.48,0.1,
7.199,84.96680875077682,79.3990304111435,-2.79,-0.36,-0.39,0.0,0.0,0.0,7.0,0.0,1.0,1.0,0.0,17.27,0.0,
7.224,84.98768087507769,79.38190304111434,-3.34,-0.3,0.1,0.0,0.0,0.0,7.0,0.0,1.0,1.0,0.0,17.46,0.0,
7.247,85.07976808750777,79.37119030411144,-3.63,-0.79,0.39,0.0,0.0,0.0,7.0,0.0,1.0,1.0,0.0,17.46,0.49,
7.272,85.08897680875077,79.31611903041114,-2.99,-1.62,-0.38,0.0,0.0,0.0,7.0,0.0,1.0,1.0,0.0,17.46,0.88,
7.297,85.15289768087509,79.40061190304111,-3.15,-1.4,-0.3,0.0,0.0,0.0,7.0,0.0,1.0,1.0,0.0,17.46,0.39,
7.32,85.08728976808752,79.33706119030411,-2.67,-1.29,-0.21,0.0,0.0,0.0,7.0,0.0,1.0,1.0,0.0,17.66,0.0,
7.345,85.07172897680876,79.4297061190304,-2.76,-0.99,-0.04,0.0,0.0,0.0,7.0,0.0,1.0,1.0,0.0,17.27,0.2,
7.368,85.10617289768088,79.47497061190305,-4.1,-0.81,1.98,12.0,0.0,0.0,7.0,0.0,1.0,1.0,0.0,17.36,0.59,
7.393,85.1276172897681,79.43449706119031,-3.74,-0.83,1.61,12.0,0.0,0.0,7.0,0.0,1.0,1.0,0.0,17.27,0.78,
7.417,85.15676172897682,79.43944970611902,-4.05,-0.67,2.14,12.0,0.0,0.0,7.0,0.0,1.0,1.0,0.0,17.27,0.29,
7.441,85.10567617289769,79.2869449706119,-3.64,-0.09,1.98,0.0,0.0,0.0,7.0,0.0,1.0,1.0,0.0,17.56,0.0,
7.465,85.18156761728977,79.28069449706119,-4.16,-0.22,1.75,0.0,0.0,0.0,7.0,0.0,1.0,1.0,0.0,17.66,0.29,
7.489,85.23415676172897,79.27106944970612,-3.69,-1.51,1.39,0.0,0.0,0.0,7.0,0.0,2.0,1.0,0.0,17.76,0.59,
7.514,85.20341567617291,79.28810694497062,-3.58,-1.9,0.89,0.0,0.0,0.0,7.0,0.0,2.0,1.0,0.0,17.56,1.08,
7.537,85.1013415676173,79.29881069449706,-3.31,-2.05,0.7,0.0,0.0,0.0,7.0,0.0,2.0,1.0,0.0,17.46,0.69,
7.562,85.08213415676173,79.35388106944971,-3.17,-2.52,0.17,1.0,0.0,0.0,7.0,0.0,2.0,1.0,0.0,17.07,0.2,
7.586,85.10721341567617,79.28738810694497,-3.37,-2.09,0.39,1.0,0.0,0.0,7.0,0.0,2.0,1.0,0.0,16.87,0.49,
7.61,85.07372134156762,79.2897388106945,-3.51,-2.34,0.4,1.0,0.0,0.0,7.0,0.0,2.0,1.0,0.0,16.68,0.88,
7.634,85.02537213415675,79.22697388106945,-3.24,-2.52,0.92,1.0,0.0,0.0,7.0,0.0,1.0,1.0,0.0,16.48,1.08,
7.658,85.00253721341568,79.21169738810694,-3.2,-2.49,0.37,1.0,0.0,0.0,7.0,0.0,1.0,1.0,0.0,16.38,1.08,
7.683,84.99125372134156,79.21016973881069,-3.05,-2.7,0.5,1.0,0.0,0.0,7.0,0.0,1.0,1.0,0.0,16.09,0.0,
7.706,84.92712537213416,79.18301697388108,-3.29,-2.15,0.0,1.0,0.0,0.0,7.0,0.0,1.0,1.0,0.0,15.89,0.98,
7.731,84.85771253721342,79.0813016973881,-3.04,-2.35,-0.2,1.0,0.0,0.0,7.0,0.0,1.0,1.0,0.0,15.6,0.88,
7.754,84.81477125372135,79.08013016973881,-3.26,-2.12,-0.59,0.0,0.0,0.0,7.0,0.0,1.0,1.0,0.0,15.7,0.49,
7.779,84.82847712537213,79.12501301697388,-3.37,-1.65,-0.23,1.0,0.0,0.0,7.0,0.0,1.0,1.0,0.0,15.5,0.2,
7.803,84.78484771253721,79.16550130169739,-3.19,-1.21,0.05,0.0,0.0,0.0,7.0,0.0,1.0,1.0,0.0,15.5,0.49,
7.827,84.77148477125371,79.15155013016975,-2.89,-0.91,-0.08,12.0,0.0,0.0,7.0,0.0,1.0,1.0,0.0,15.5,0.59,
7.852,84.81514847712536,79.21315501301697,-2.95,-0.73,0.31,0.0,0.0,0.0,7.0,0.0,1.0,1.0,0.0,15.11,0.59,
7.876,84.83751484771254,79.1833155013017,-2.63,-0.5,-0.24,12.0,0.0,0.0,7.0,0.0,1.0,1.0,0.0,15.21,0.29,
7.9,84.83975148477126,79.18933155013016,-2.31,-0.35,-0.18,12.0,0.0,0.0,7.0,0.0,1.0,1.0,0.0,15.21,0.59,
7.924,84.87597514847712,79.21693315501301,-2.28,-0.77,-0.08,12.0,0.0,0.0,7.0,0.0,1.0,1.0,0.0,15.11,0.49,
7.949,84.9605975148477,79.3186933155013,-2.31,-1.44,0.98,12.0,0.0,0.0,7.0,0.0,1.0,1.0,0.0,15.11,1.08,
7.972,84.96905975148476,79.31086933155014,-2.63,-1.09,0.52,12.0,0.0,0.0,7.0,0.0,1.0,1.0,0.0,14.72,1.08,
7.997,84.96990597514848,79.31008693315502,-2.47,-0.62,-0.34,12.0,0.0,0.0,7.0,0.0,1.0,1.0,0.0,14.81,0.78,
8.022,84.96999059751485,79.24700869331551,-2.76,-0.96,0.95,11.0,0.0,0.0,7.0,0.0,1.0,1.0,0.0,14.81,0.78,
8.045,84.96999905975149,79.28570086933155,-2.53,-0.87,0.18,11.0,0.0,0.0,6.0,0.0,1.0,1.0,0.0,14.72,0.59,
8.07,84.90699990597516,79.28057008693315,-2.76,-1.11,0.44,11.0,0.0,0.0,6.0,0.0,1.0,1.0,0.0,14.42,0.49,
8.093,84.88269999059752,79.24405700869332,-2.72,-1.12,0.59,11.0,0.0,0.0,6.0,0.0,1.0,1.0,0.0,13.93,1.67,
8.118,84.87126999905976,79.21340570086933,-2.61,-1.23,0.22,11.0,0.0,0.0,6.0,0.0,1.0,1.0,0.0,13.83,0.29,
8.142,84.86112699990596,79.20134057008693,-2.86,-1.09,-0.15,11.0,0.0,0.0,6.0,0.0,1.0,1.0,0.0,13.83,0.39,
8.166,84.8511126999906,79.2271340570087,-2.83,-1.13,-0.36,11.0,0.0,0.0,6.0,0.0,1.0,1.0,0.0,14.03,0.88,
8.19,84.84111126999906,79.22971340570086,-2.93,-1.52,-0.11,11.0,0.0,0.0,6.0,0.0,1.0,1.0,0.0,14.42,0.39,
8.215,84.8311111269999,79.26597134057009,-3.4,-1.63,-0.26,11.0,0.0,0.0,6.0,0.0,1.0,1.0,0.0,14.52,0.2,
8.24,84.8931111127,79.28759713405701,-3.2,-1.45,-0.22,11.0,0.0,0.0,6.0,0.0,1.0,1.0,0.0,14.32,0.1,
8.263,84.88131111127,79.3347597134057,-3.11,-1.48,0.13,11.0,0.0,0.0,6.0,0.0,1.0,1.0,0.0,14.52,0.49,
8.288,84.880131111127,79.33047597134058,-3.3,-1.11,0.27,11.0,0.0,0.0,6.0,0.0,1.0,1.0,0.0,14.72,0.59,
8.312,84.8980131111127,79.27604759713407,-2.95,-1.08,-0.1,11.0,0.0,0.0,6.0,0.0,1.0,1.0,0.0,14.81,0.78,
8.336,84.95380131111126,79.29760475971341,-2.76,-1.46,-0.39,11.0,0.0,0.0,6.0,0.0,1.0,1.0,0.0,14.62,0.59,
8.36,84.99538013111112,79.34476047597133,-3.11,-1.38,-0.24,11.0,0.0,0.0,6.0,0.0,1.0,1.0,0.0,14.22,0.39,
8.385,84.9815380131111,79.37647604759712,-3.66,-1.07,0.42,11.0,0.0,0.0,7.0,0.0,1.0,1.0,0.0,14.22,0.29,
8.409,84.9981538013111,79.37064760475971,-4.02,-1.27,0.28,11.0,0.0,0.0,6.0,0.0,1.0,1.0,0.0,14.13,0.49,
8.433,85.00881538013111,79.37006476047597,-4.14,-1.58,0.5,11.0,0.0,0.0,7.0,0.0,1.0,1.0,0.0,14.32,0.78,
8.458,84.9468815380131,79.38800647604761,-4.05,-1.3,-0.06,11.0,0.0,0.0,7.0,0.0,1.0,1.0,0.0,14.42,1.28,
8.481,84.9676881538013,79.38980064760477,-4.02,-1.38,0.55,11.0,0.0,0.0,7.0,0.0,1.0,1.0,0.0,14.32,0.59,
8.506,84.96976881538012,79.43498006476047,-3.65,-1.31,0.54,11.0,0.0,0.0,7.0,0.0,1.0,1.0,0.0,14.22,0.49,
8.529,84.96097688153802,79.42149800647606,-2.88,-1.53,-0.38,11.0,0.0,0.0,7.0,0.0,1.0,1.0,0.0,14.13,0.49,
8.554,84.9510976881538,79.41114980064759,-2.6,-1.48,-0.73,11.0,0.0,0.0,7.0,0.0,1.0,1.0,0.0,14.32,0.29,
8.579,84.97710976881538,79.42811498006476,-2.31,-1.02,0.1,11.0,0.0,0.0,7.0,0.0,1.0,1.0,0.0,13.93,0.1,
8.603,84.91671097688153,79.42081149800649,-2.11,-0.21,0.25,11.0,0.0,0.0,7.0,0.0,1.0,1.0,0.0,13.73,0.39,
8.627,84.97367109768815,79.43808114980064,-2.21,0.18,0.91,11.0,0.0,0.0,7.0,0.0,1.0,1.0,0.0,13.64,0.88,
8.651,84.94336710976881,79.43980811498005,-1.96,0.21,0.77,11.0,0.0,0.0,7.0,0.0,1.0,1.0,0.0,13.64,0.49,
8.675,85.02133671097688,79.520980811498,-2.18,0.53,0.99,11.0,0.0,0.0,6.0,0.0,1.0,1.0,0.0,13.15,0.29,
8.699,85.04713367109768,79.5200980811498,-2.28,0.17,0.99,11.0,0.0,0.0,6.0,0.0,1.0,1.0,0.0,12.65,0.0,
8.723,85.07671336710978,79.56500980811498,-2.48,0.05,0.86,11.0,0.0,0.0,6.0,0.0,1.0,1.0,0.0,13.54,0.39,
8.748,85.06167133671097,79.5515009808115,-2.79,-0.27,0.73,11.0,0.0,0.0,6.0,0.0,1.0,1.0,0.0,13.73,0.39,
8.771,85.0421671336711,79.56815009808115,-3.31,-0.33,0.49,11.0,0.0,0.0,6.0,0.0,1.0,1.0,0.0,13.54,0.69,
8.796,85.01321671336711,79.56981500980811,-3.49,-1.07,0.47,11.0,0.0,0.0,6.0,0.0,1.0,1.0,0.0,13.44,0.59,
8.82,85.09132167133671,79.56998150098082,-3.65,-1.6,0.41,11.0,0.0,0.0,6.0,0.0,1.0,1.0,0.0,13.73,0.29,
8.844,85.17113216713368,79.55199815009809,-3.91,-1.6,0.71,11.0,0.0,0.0,7.0,0.0,1.0,1.0,0.0,13.15,0.39,
8.868,85.20611321671336,79.54119981500982,-4.07,-1.67,0.44,11.0,0.0,0.0,7.0,0.0,1.0,1.0,0.0,12.85,0.69,
8.893,85.15561132167134,79.58511998150098,-4.06,-1.98,0.63,11.0,0.0,0.0,7.0,0.0,1.0,1.0,0.0,13.15,0.78,
8.916,85.15056113216714,79.5895119981501,-4.2,-1.68,0.33,11.0,0.0,0.0,7.0,0.0,1.0,1.0,0.0,13.54,0.78,
8.941,85.19505611321672,79.535951199815,-4.29,-2.27,0.74,11.0,0.0,0.0,7.0,0.0,1.0,1.0,0.0,13.44,0.98,
8.965,85.15450561132168,79.5305951199815,-4.69,-2.24,1.77,12.0,0.0,0.0,7.0,0.0,1.0,1.0,0.0,13.24,0.78,
8.989,85.12345056113217,79.53005951199815,-4.9,-1.84,1.74,12.0,0.0,0.0,7.0,0.0,1.0,1.0,0.0,12.56,0.69,
9.014,85.10234505611322,79.51200595119982,-4.69,-2.15,0.97,12.0,0.0,0.0,7.0,0.0,1.0,1.0,0.0,12.36,0.88,
9.037,85.09123450561133,79.49220059511998,-4.26,-2.27,0.24,12.0,0.0,0.0,7.0,0.0,1.0,1.0,0.0,12.46,0.0,
9.062,85.04512345056114,79.346220059512,-4.34,-1.98,1.08,12.0,0.0,0.0,7.0,0.0,1.0,1.0,0.0,13.34,0.29,
9.086,85.03151234505611,79.2956220059512,-3.82,-1.31,0.24,12.0,0.0,0.0,7.0,0.0,1.0,1.0,0.0,13.24,0.29,
9.11,85.03915123450561,79.27256220059512,-3.21,-0.87,0.61,12.0,0.0,0.0,7.0,0.0,1.0,1.0,0.0,13.34,0.69,
9.135,85.02191512345055,79.2342562200595,-3.14,-0.89,0.45,12.0,0.0,0.0,7.0,0.0,1.0,1.0,0.0,12.56,1.67,
9.159,84.95719151234505,79.29342562200596,-2.71,-0.81,0.6,12.0,0.0,0.0,7.0,0.0,1.0,1.0,0.0,12.56,6.28,
9.183,84.9507191512345,79.24534256220059,-2.76,-0.72,0.0,12.0,0.0,0.0,7.0,0.0,1.0,1.0,0.0,12.65,5.3,
9.207,85.02207191512345,79.24053425622006,-3.33,-0.99,0.21,12.0,0.0,0.0,7.0,0.0,1.0,1.0,0.0,12.85,1.57,
9.231,84.97520719151234,79.25805342562201,-3.27,-1.05,0.24,12.0,0.0,0.0,7.0,0.0,1.0,1.0,0.0,12.75,0.59,
9.255,85.01552071915123,79.2418053425622,-3.25,-1.18,0.08,12.0,0.0,0.0,7.0,0.0,1.0,1.0,0.0,13.05,0.69,
9.28,85.00155207191511,79.20418053425622,-3.13,-0.69,0.65,12.0,0.0,0.0,7.0,0.0,1.0,1.0,0.0,12.75,0.59,
9.304,84.99115520719151,79.17341805342562,-3.01,-0.6,0.47,12.0,0.0,0.0,7.0,0.0,1.0,1.0,0.0,11.87,0.39,
9.328,85.03511552071915,79.17034180534256,-2.92,-0.18,0.48,12.0,0.0,0.0,7.0,0.0,1.0,1.0,0.0,11.77,0.69,
9.352,85.04851155207191,79.17903418053427,-2.76,-0.37,0.24,12.0,0.0,0.0,7.0,0.0,1.0,1.0,0.0,12.07,0.98,
9.376,85.0948511552072,79.17990341805344,-2.5,-0.25,0.72,11.0,0.0,0.0,7.0,0.0,1.0,1.0,0.0,11.77,1.08,
9.401,85.06348511552072,79.21599034180534,-2.54,-0.18,0.31,12.0,0.0,0.0,7.0,0.0,1.0,1.0,0.0,11.58,0.49,
9.424,85.03334851155208,79.22859903418053,-2.43,0.11,0.99,11.0,0.0,0.0,7.0,0.0,1.0,1.0,0.0,11.67,0.0,
9.449,85.0753348511552,79.24785990341806,-2.52,0.12,0.56,12.0,0.0,0.0,7.0,0.0,1.0,1.0,0.0,11.87,0.0,
9.473,85.07053348511552,79.2677859903418,-2.72,0.47,0.79,11.0,0.0,0.0,7.0,0.0,1.0,1.0,0.0,11.77,0.0,
9.497,85.12405334851155,79.26977859903418,-2.69,0.34,0.34,11.0,0.0,0.0,7.0,0.0,1.0,1.0,0.0,11.97,0.39,
9.521,85.15640533485116,79.27897785990342,-2.72,-0.23,0.62,11.0,0.0,0.0,7.0,0.0,1.0,1.0,0.0,12.26,0.2,
9.545,85.24064053348512,79.29789778599034,-2.97,-0.18,0.27,12.0,0.0,0.0,7.0,0.0,1.0,1.0,0.0,12.56,0.0,
9.57,85.25806405334852,79.27278977859903,-2.85,-0.24,0.14,11.0,0.0,0.0,7.0,0.0,1.0,1.0,0.0,12.75,0.69,
9.593,85.28680640533486,79.3242789778599,-2.77,-0.44,0.21,11.0,0.0,0.0,7.0,0.0,1.0,1.0,0.0,12.75,2.65,
9.618,85.36168064053349,79.33842789778599,-2.48,-0.39,0.45,11.0,0.0,0.0,7.0,0.0,1.0,1.0,0.0,12.36,1.77,
9.643,85.33316806405334,79.3668427897786,-2.73,-0.59,0.48,11.0,0.0,0.0,7.0,0.0,1.0,1.0,0.0,12.26,0.78,
9.666,85.26731680640535,79.36968427897787,-2.49,-0.34,0.39,11.0,0.0,0.0,7.0,0.0,1.0,1.0,0.0,11.97,0.59,
9.691,85.33273168064055,79.41496842789779,-2.73,-0.27,0.21,11.0,0.0,0.0,7.0,0.0,1.0,1.0,0.0,11.97,0.78,
9.714,85.35727316806405,79.38349684278977,-2.97,-0.53,0.02,11.0,0.0,0.0,7.0,0.0,1.0,1.0,0.0,11.97,0.78,
9.739,85.4137273168064,79.37134968427898,-3.16,-0.89,0.47,11.0,0.0,0.0,7.0,0.0,1.0,1.0,0.0,11.87,0.88,
9.763,85.50037273168064,79.3611349684279,-2.77,-1.21,-0.08,11.0,0.0,0.0,7.0,0.0,1.0,1.0,0.0,11.97,1.47,
9.787,85.48203727316806,79.3601134968428,-3.12,-0.14,-0.21,11.0,0.0,0.0,7.0,0.0,1.0,1.0,0.0,12.16,0.0,
9.811,85.4442037273168,79.42301134968429,-2.89,-0.2,0.5,11.0,0.0,0.0,7.0,0.0,1.0,1.0,0.0,12.75,0.1,
9.836,85.56642037273168,79.46530113496843,-3.05,-0.15,0.27,11.0,0.0,0.0,7.0,0.0,1.0,1.0,0.0,12.85,0.69,
9.86,85.59664203727316,79.50553011349686,-2.79,-0.27,0.73,11.0,0.0,0.0,7.0,0.0,1.0,1.0,0.0,12.95,0.69,
9.884,85.58166420372731,79.5095530113497,-3.04,0.12,1.15,11.0,0.0,0.0,7.0,0.0,1.0,1.0,0.0,13.24,0.49,
9.909,85.51716642037273,79.44695530113496,-2.73,0.15,0.43,11.0,0.0,0.0,7.0,0.0,1.0,1.0,0.0,13.24,0.49,
9.932,85.63671664203729,79.4316955301135,-2.89,-0.11,-0.05,11.0,0.0,0.0,7.0,0.0,1.0,1.0,0.0,13.54,0.78,
9.957,85.73867166420372,79.47516955301136,-3.42,-0.53,-0.05,11.0,0.0,0.0,7.0,0.0,1.0,1.0,0.0,13.05,0.0,
9.981,85.77586716642037,79.50651695530115,-3.56,-1.73,0.24,11.0,0.0,0.0,7.0,0.0,1.0,1.0,0.0,11.67,0.0,
10.005,85.81558671664203,79.51865169553011,-3.74,-2.5,0.15,11.0,0.0,0.0,7.0,0.0,1.0,1.0,0.0,11.48,0.1,
10.03,85.73855867166421,79.51086516955303,-3.85,-3.05,-0.24,11.0,0.0,0.0,7.0,0.0,1.0,1.0,0.0,11.58,0.39,
10.054,85.67685586716642,79.5010865169553,-4.06,-2.7,-0.44,12.0,0.0,0.0,7.0,0.0,1.0,1.0,0.0,11.58,0.59,
10.078,85.72468558671665,79.41010865169554,-4.43,-2.62,-0.49,12.0,0.0,0.0,7.0,0.0,1.0,1.0,0.0,11.38,0.2,
10.102,85.72046855867166,79.39201086516957,-3.72,-2.11,-0.19,12.0,0.0,0.0,7.0,0.0,1.0,1.0,0.0,11.28,0.39,
10.127,85.66604685586717,79.36320108651697,-3.5,-1.6,0.2,12.0,0.0,0.0,7.0,0.0,1.0,1.0,0.0,11.48,0.49,
10.151,85.64260468558672,79.3333201086517,-3.22,-0.95,0.37,12.0,0.0,0.0,8.0,0.0,1.0,1.0,0.0,11.18,0.69,
10.175,85.63126046855866,79.28533201086518,-3.03,-1.18,0.15,12.0,0.0,0.0,8.0,0.0,1.0,1.0,0.0,11.58,0.98,
10.2,85.66612604685588,79.32553320108653,-3.04,-0.77,-0.24,12.0,0.0,0.0,8.0,0.0,1.0,1.0,0.0,11.97,0.59,
10.224,85.6786126046856,79.32055332010864,-2.92,-0.53,0.47,12.0,0.0,0.0,8.0,0.0,1.0,1.0,0.0,12.65,0.39,
10.249,85.59886126046857,79.26605533201086,-3.01,-0.32,0.12,12.0,0.0,0.0,8.0,0.0,1.0,1.0,0.0,12.75,0.39,
10.272,85.59088612604685,79.28760553320109,-2.94,-0.17,0.3,12.0,0.0,0.0,8.0,0.0,1.0,1.0,0.0,12.36,0.49,
10.297,85.63508861260469,79.2807605533201,-3.04,0.04,0.98,12.0,0.0,0.0,8.0,0.0,1.0,1.0,0.0,12.36,1.08,
10.321,85.62150886126048,79.28007605533202,-2.95,0.15,0.49,0.0,0.0,0.0,8.0,0.0,1.0,1.0,0.0,12.85,0.69,
10.345,85.66515088612606,79.2890076055332,-3.12,0.2,0.8,12.0,0.0,0.0,8.0,0.0,1.0,1.0,0.0,13.34,0.1,
10.37,85.72351508861261,79.29890076055332,-3.26,-0.5,0.25,0.0,0.0,0.0,8.0,0.0,1.0,1.0,0.0,14.13,0.0,
10.393,85.79235150886126,79.27289007605533,-3.18,-0.57,0.71,0.0,0.0,0.0,8.0,0.0,1.0,1.0,0.0,14.03,0.1,
10.418,85.83523515088612,79.27928900760554,-3.21,-1.0,0.37,0.0,0.0,0.0,8.0,0.0,1.0,1.0,0.0,13.54,0.0,
10.442,85.86652351508862,79.27092890076055,-3.39,-1.5,0.21,0.0,0.0,0.0,8.0,0.0,1.0,1.0,0.0,13.34,0.0,
10.466,85.86965235150886,79.31509289007604,-3.31,-1.82,-0.02,0.0,0.0,0.0,8.0,0.0,1.0,1.0,0.0,13.64,0.1,
10.49,85.85196523515089,79.31050928900761,-3.41,-1.52,-0.02,0.0,0.0,0.0,8.0,0.0,1.0,1.0,0.0,13.73,0.59,
10.515,85.8051965235151,79.31905092890075,-3.1,-1.25,0.35,0.0,0.0,0.0,8.0,0.0,1.0,1.0,0.0,13.73,1.08,
10.539,85.78251965235151,79.35590509289008,-3.26,-0.86,0.53,0.0,0.0,0.0,8.0,0.0,1.0,1.0,0.0,13.73,0.49,
10.563,85.75325196523515,79.44059050928902,-3.47,-0.63,0.65,0.0,0.0,0.0,8.0,0.0,1.0,1.0,0.0,13.73,0.49,
10.588,85.78632519652352,79.4850590509289,-3.31,-0.65,0.28,0.0,0.0,0.0,8.0,0.0,1.0,1.0,0.0,13.64,0.59,
10.611,85.72663251965234,79.49850590509288,-3.46,-0.9,0.43,0.0,0.0,0.0,8.0,0.0,1.0,1.0,0.0,13.24,0.49,
10.636,85.73866325196524,79.5088505905093,-3.58,-1.14,0.18,0.0,0.0,0.0,8.0,0.0,1.0,1.0,0.0,12.85,0.39,
10.659,85.73986632519652,79.35688505905094,-3.63,-1.73,0.12,0.0,0.0,0.0,8.0,0.0,1.0,1.0,0.0,13.05,0.88,
10.684,85.71298663251964,79.35068850590508,-3.82,-1.8,-0.42,0.0,0.0,0.0,8.0,0.0,1.0,1.0,0.0,13.15,0.78,
10.708,85.71029866325196,79.34106885059052,-3.6,-2.05,-0.84,0.0,0.0,0.0,8.0,0.0,1.0,1.0,0.0,13.24,0.1,
10.732,85.74602986632519,79.32210688505904,-3.53,-2.47,-0.86,0.0,0.0,0.0,8.0,0.0,1.0,1.0,0.0,13.24,0.0,
10.757,85.78560298663253,79.41021068850591,-3.1,-2.38,-0.37,0.0,0.0,0.0,8.0,0.0,1.0,1.0,0.0,12.56,0.78,
10.781,85.69056029866326,79.41002106885058,-2.59,-1.39,-0.4,0.0,0.0,0.0,8.0,0.0,1.0,1.0,0.0,12.75,1.08,
10.806,85.67205602986633,79.36500210688506,-2.74,-0.6,0.15,0.0,0.0,0.0,8.0,0.0,1.0,1.0,0.0,12.95,0.2,
10.829,85.74220560298663,79.38750021068851,-2.61,-0.4,0.55,0.0,0.0,0.0,8.0,0.0,1.0,1.0,0.0,12.46,0.49,
10.854,85.82122056029866,79.40775002106885,-2.66,-0.12,0.7,12.0,0.0,0.0,8.0,0.0,1.0,1.0,0.0,10.69,0.59,
10.878,85.91012205602986,79.4457750021069,-3.01,-0.28,0.02,12.0,0.0,0.0,8.0,0.0,1.0,1.0,0.0,10.69,0.29,
10.902,85.92801220560298,79.4765775002107,-2.89,-0.89,0.2,12.0,0.0,0.0,8.0,0.0,1.0,1.0,0.0,10.79,0.39,
10.927,85.92080122056029,79.45265775002107,-2.86,-1.36,-0.11,12.0,0.0,0.0,8.0,0.0,1.0,1.0,0.0,10.69,0.49,
10.951,85.88408012205603,79.4682657750021,-2.64,-1.29,0.07,12.0,0.0,0.0,8.0,0.0,1.0,1.0,0.0,10.69,0.78,
10.975,85.8534080122056,79.4698265775002,-2.79,-1.0,0.25,12.0,0.0,0.0,8.0,0.0,1.0,1.0,0.0,10.59,0.78,
10.999,85.84134080122055,79.53298265775003,-2.92,-0.94,-0.17,12.0,0.0,0.0,8.0,0.0,1.0,1.0,0.0,10.3,0.78,
11.024,85.86713408012206,79.521298265775,-3.01,-1.08,-0.66,12.0,0.0,0.0,8.0,0.0,1.0,1.0,0.0,10.3,0.59,
11.048,85.8697134080122,79.5561298265775,-3.08,-1.44,-0.18,12.0,0.0,0.0,8.0,0.0,1.0,1.0,0.0,10.3,0.49,
11.073,85.88797134080122,79.55961298265775,-3.24,-1.27,0.05,12.0,0.0,0.0,8.0,0.0,1.0,1.0,0.0,10.2,0.69,
11.097,85.89879713408013,79.55096129826578,-3.34,-1.46,0.11,12.0,0.0,0.0,8.0,0.0,1.0,1.0,0.0,10.1,0.88,
11.121,85.86387971340801,79.54109612982658,-3.23,-1.4,0.14,12.0,0.0,0.0,8.0,0.0,1.0,1.0,0.0,10.5,1.08,
11.146,85.8603879713408,79.46810961298266,-2.66,-1.67,-0.01,12.0,0.0,0.0,8.0,0.0,1.0,1.0,0.0,10.1,0.98,
11.169,85.86003879713408,79.46981096129826,-3.13,-1.37,-0.01,12.0,0.0,0.0,8.0,0.0,1.0,1.0,0.0,10.89,0.59,
11.194,85.8510038797134,79.45198109612983,-3.12,-1.42,0.3,12.0,0.0,0.0,8.0,0.0,1.0,1.0,0.0,10.99,0.49,
11.218,85.85910038797134,79.477198109613,-3.34,-1.1,0.23,0.0,0.0,0.0,8.0,0.0,1.0,1.0,0.0,11.09,0.0,
11.243,85.86891003879714,79.4617198109613,-3.51,-1.38,-0.05,12.0,0.0,0.0,8.0,0.0,1.0,1.0,0.0,10.79,0.1,
11.267,85.89689100387972,79.45117198109614,-3.2,-1.5,0.15,12.0,0.0,0.0,8.0,0.0,1.0,1.0,0.0,10.5,0.39,
11.291,85.92668910038797,79.46811719810961,-3.24,-1.42,0.18,12.0,0.0,0.0,8.0,0.0,1.0,1.0,0.0,10.4,0.69,
11.316,85.95666891003879,79.45181171981096,-3.03,-1.17,-0.26,12.0,0.0,0.0,8.0,0.0,1.0,1.0,0.0,10.4,0.69,
11.34,85.93266689100388,79.44118117198109,-2.98,-1.37,0.34,12.0,0.0,0.0,8.0,0.0,1.0,1.0,0.0,10.5,0.0,
11.364,85.91226668910039,79.3861181171981,-3.07,-0.69,-0.18,12.0,0.0,0.0,8.0,0.0,1.0,1.0,0.0,10.59,0.0,
11.388,85.91922666891004,79.42561181171982,-3.25,-1.35,-0.76,12.0,0.0,0.0,8.0,0.0,1.0,1.0,0.0,12.07,0.0,
11.413,85.90192266689101,79.41156118117198,-3.69,-1.99,-0.02,11.0,0.0,0.0,8.0,0.0,1.0,1.0,0.0,11.87,0.59,
11.438,85.9091922666891,79.3741561181172,-3.62,-2.95,-1.05,11.0,0.0,0.0,8.0,0.0,1.0,1.0,0.0,11.77,0.98,
11.461,85.91891922666892,79.37041561181172,-3.76,-4.6,-2.5,12.0,0.0,0.0,8.0,0.0,1.0,1.0,0.0,11.38,1.18,
11.486,85.86589192266689,79.27104156118118,-3.66,-5.82,-3.89,12.0,0.0,0.0,8.0,0.0,1.0,1.0,0.0,11.58,0.78,
11.51,85.6625891922667,79.26110415611812,-3.05,-6.19,-4.57,12.0,0.0,0.0,8.0,0.0,1.0,1.0,0.0,11.87,0.49,
11.535,85.51625891922667,79.25111041561182,-3.08,-4.97,-5.11,0.0,0.0,0.0,7.0,0.0,1.0,1.0,0.0,12.26,0.59,
11.559,85.41162589192268,79.22311104156118,-2.47,-3.85,-5.19,0.0,0.0,0.0,7.0,0.0,1.0,1.0,0.0,12.36,0.2,
11.583,85.36516258919227,79.22031110415612,-1.76,-4.02,-5.25,0.0,0.0,0.0,7.0,0.0,1.0,1.0,0.0,12.65,0.0,
11.608,85.32451625891922,79.31003111041561,-1.72,-4.4,-3.97,0.0,0.0,0.0,7.0,0.0,1.0,1.0,0.0,12.75,0.0,
11.632,85.33845162589193,79.31900311104155,-2.18,-5.05,-3.47,0.0,0.0,0.0,6.0,0.0,1.0,1.0,0.0,12.85,0.0,
11.656,85.2678451625892,79.37390031110415,-2.26,-5.4,-2.11,0.0,0.0,0.0,6.0,0.0,1.0,1.0,0.0,12.85,0.29,
11.68,85.22478451625892,79.3793900311104,-2.84,-4.64,-1.23,0.0,0.0,0.0,6.0,0.0,1.0,1.0,0.0,12.07,0.1,
11.705,85.17547845162589,79.44293900311105,-3.44,-4.15,-0.05,0.0,0.0,0.0,6.0,0.0,1.0,1.0,0.0,11.58,0.1,
11.728,85.08954784516258,79.4582939003111,-3.28,-3.18,0.3,0.0,0.0,0.0,5.0,0.0,1.0,1.0,0.0,11.58,0.29,
11.753,85.08095478451627,79.4148293900311,-2.52,-2.89,0.18,0.0,0.0,0.0,5.0,0.0,1.0,1.0,0.0,11.58,0.88,
11.778,85.02609547845162,79.3834829390031,-1.99,-1.97,1.11,12.0,0.0,0.0,5.0,0.0,1.0,1.0,0.0,11.48,0.78,
11.801,84.94860954784517,79.39834829390031,-1.43,-0.63,2.28,0.0,0.0,0.0,5.0,0.0,1.0,1.0,0.0,11.28,0.69,
11.826,84.8148609547845,79.43583482939002,-1.67,1.37,2.55,0.0,0.0,0.0,5.0,0.0,1.0,1.0,0.0,11.58,0.0,
11.85,84.83748609547845,79.466583482939,-2.16,2.76,3.46,0.0,0.0,0.0,5.0,0.0,1.0,1.0,0.0,11.58,0.0,
11.874,84.93874860954784,79.53265834829391,-3.4,2.43,1.35,1.0,0.0,0.0,5.0,0.0,1.0,1.0,0.0,11.97,0.0,
11.898,85.0928748609548,79.5572658348294,-4.51,0.68,1.31,1.0,0.0,0.0,6.0,0.0,1.0,1.0,0.0,12.26,0.59,
11.922,85.18028748609548,79.51472658348295,-5.22,-0.42,1.6,1.0,0.0,0.0,6.0,0.0,1.0,1.0,0.0,12.65,0.78,
11.947,85.16202874860956,79.44747265834829,-5.52,-1.55,1.75,2.0,0.0,0.0,6.0,0.0,1.0,1.0,0.0,13.15,0.0,
11.97,85.16020287486096,79.24274726583482,-4.53,-0.19,2.12,2.0,0.0,0.0,6.0,0.0,1.0,1.0,0.0,13.64,0.0,
11.995,85.1600202874861,79.24027472658348,-3.31,0.85,1.69,3.0,0.0,0.0,6.0,0.0,1.0,1.0,0.0,14.03,0.2,
12.019,85.16000202874861,79.18602747265837,-3.15,0.86,0.08,3.0,0.0,0.0,6.0,0.0,2.0,1.0,0.0,14.62,0.39,
12.043,85.17800020287487,79.14460274726584,-1.27,1.95,1.08,4.0,0.0,0.0,6.0,0.0,1.0,1.0,0.0,15.6,0.0,
12.067,85.10780002028748,79.32046027472659,-0.39,5.5,0.88,4.0,0.0,0.0,6.0,0.0,2.0,2.0,0.0,16.38,0.0,
12.091,85.16378000202876,79.37404602747264,-1.19,8.0,-0.2,4.0,0.0,0.0,6.0,0.0,2.0,2.0,0.0,17.76,0.0,
12.115,85.23237800020287,79.35240460274726,-1.27,8.63,-1.54,3.0,0.0,0.0,6.0,0.0,2.0,2.0,0.0,19.52,1.08,
12.139,85.50023780002029,79.35924046027473,-1.02,6.2,-3.36,4.0,0.0,0.0,6.0,0.0,2.0,2.0,0.0,21.88,0.88,
12.164,85.87802378000202,79.51292404602746,-2.37,3.11,-3.65,5.0,0.0,0.0,6.0,0.0,2.0,2.0,0.0,24.13,0.59,
12.188,86.35680237800021,79.67229240460274,-4.37,-2.48,-3.69,6.0,0.0,0.0,6.0,0.0,2.0,2.0,0.0,25.41,0.59,
12.212,86.57568023780001,79.76022924046026,-5.19,-5.23,-1.05,8.0,0.0,0.0,6.0,0.0,2.0,2.0,0.0,26.68,0.98,
12.236,86.42656802378,79.70602292404602,-4.89,-5.43,-3.69,10.0,0.0,0.0,6.0,0.0,2.0,2.0,0.0,28.25,1.57,
12.261,86.582656802378,79.88060229240462,-6.36,-6.14,-1.56,11.0,0.0,0.0,7.0,0.0,2.0,2.0,0.0,29.04,2.06,
12.285,86.5532656802378,79.75406022924045,-7.52,-5.14,-0.73,14.0,0.0,0.0,7.0,0.0,2.0,2.0,0.0,30.02,2.35,
12.31,86.40632656802379,79.63340602292405,-6.9,-3.82,2.01,14.0,0.0,0.0,7.0,0.0,2.0,2.0,0.0,31.29,2.35,
12.334,86.29263265680238,79.5043406022924,-7.1,-1.84,-0.68,16.0,0.0,0.0,8.0,0.0,2.0,2.0,0.0,32.86,3.73,
12.358,86.32626326568024,79.45543406022925,-6.5,-1.58,-1.6,19.0,0.0,0.0,8.0,0.0,2.0,3.0,0.0,34.73,5.69,
12.383,86.41962632656802,79.40554340602293,-5.72,-2.43,-0.79,20.0,0.0,0.0,8.0,0.0,2.0,3.0,0.0,34.34,7.85,
12.407,86.3659626326568,79.1755543406023,-7.52,-6.62,-0.85,24.0,0.0,0.0,8.0,0.0,2.0,3.0,0.0,35.61,7.95,
12.431,86.18959626326567,79.15255543406025,-6.14,-7.48,1.2,26.0,0.0,0.0,9.0,0.0,2.0,3.0,0.0,38.26,1.96,
12.455,85.92895962632657,79.13225554340602,-4.03,-5.21,3.84,27.0,0.0,0.0,10.0,0.0,2.0,3.0,0.0,39.53,0.0,
12.48,85.72289596263266,78.9502255543406,-2.79,-2.63,2.02,28.0,0.0,0.0,10.0,0.0,2.0,3.0,0.0,40.52,0.0,
12.505,85.71128959626326,78.90502255543406,-0.95,-1.88,2.47,30.0,0.0,0.0,10.0,0.0,2.0,3.0,0.0,41.01,0.0,
12.529,85.62012895962633,78.94550225554342,-0.42,-1.57,3.87,30.0,0.0,0.0,10.0,0.0,2.0,3.0,0.0,41.4,1.37,
12.553,85.57501289596263,78.94955022555435,-0.65,-1.14,4.44,30.0,0.0,0.0,10.0,0.0,2.0,3.0,0.0,40.91,3.83,
12.577,85.41750128959627,79.13895502255544,-3.15,2.54,4.75,28.0,0.0,0.0,10.0,0.0,2.0,2.0,0.0,40.02,4.61,
12.602,85.34775012895963,78.86089550225554,-7.9,6.59,11.26,34.0,0.0,0.0,10.0,0.0,2.0,2.0,0.0,39.53,1.96,
12.626,85.43977501289596,78.69808955022556,-7.84,3.73,5.92,30.0,0.0,0.0,10.0,0.0,2.0,2.0,0.0,39.14,0.0,
12.65,85.55697750128958,78.61880895502254,-7.89,2.05,2.65,30.0,0.0,0.0,10.0,0.0,3.0,2.0,0.0,38.46,0.0,
12.675,85.67669775012895,78.47588089550224,-6.69,0.12,3.45,31.0,0.0,0.0,11.0,0.0,3.0,2.0,0.0,38.16,0.0,
12.699,85.63466977501288,78.38958808955023,-6.88,-0.44,3.49,31.0,0.0,0.0,11.0,0.0,3.0,2.0,0.0,36.98,0.0,
12.724,85.6124669775013,78.42595880895503,-7.18,-0.25,3.28,32.0,0.0,0.0,11.0,0.0,3.0,3.0,0.0,37.08,0.0,
12.747,85.79024669775012,78.3575958808955,-6.28,-0.31,5.03,32.0,0.0,0.0,11.0,0.0,4.0,3.0,0.0,37.47,0.0,
12.772,85.76302466977502,78.27875958808954,-5.41,-0.41,4.15,32.0,0.0,0.0,11.0,0.0,4.0,3.0,0.49,37.57,0.0,
12.796,85.67030246697749,78.34287595880895,-4.79,0.91,5.79,34.0,0.0,0.0,11.0,0.0,4.0,3.0,0.98,37.96,0.0,
12.821,85.66103024669775,78.3402875958809,-5.88,1.92,5.92,34.0,0.0,0.0,11.0,0.0,4.0,3.0,1.47,38.26,0.0,
12.845,85.74110302466977,78.5110287595881,-4.22,1.5,7.2,34.0,0.0,0.0,12.0,0.0,4.0,3.0,1.96,39.14,0.0,
12.869,85.87511030246698,78.44710287595882,-3.9,1.83,5.31,34.0,0.0,0.0,12.0,0.0,5.0,4.0,2.35,40.52,0.0,
12.894,85.95151103024669,78.40471028759589,-3.13,-0.06,3.31,35.0,0.0,0.0,12.0,0.0,5.0,4.0,2.75,41.79,0.0,
12.918,85.94115110302467,78.35547102875958,-4.33,-0.33,3.58,35.0,0.0,0.0,12.0,0.0,5.0,4.0,2.94,42.48,0.0,
12.942,85.96711511030247,78.35054710287596,-5.79,0.5,3.21,35.0,0.0,0.0,12.0,0.0,5.0,4.0,3.43,44.05,0.0,
12.966,86.01471151103024,78.23305471028759,-3.15,-0.27,4.43,35.0,0.0,0.0,12.0,0.0,5.0,4.0,3.92,45.71,2.65,
12.991,85.93847115110303,78.14030547102875,-5.14,-0.98,3.92,35.0,0.0,0.0,12.0,0.0,6.0,4.0,4.22,45.03,0.2,
13.016,85.9578471151103,78.05903054710288,-4.97,-0.69,5.06,34.0,0.0,0.0,0.0,0.0,6.0,5.0,4.71,44.93,0.0,
13.039,86.02278471151104,78.05990305471029,-5.27,-1.89,6.84,37.0,0.0,0.0,0.0,0.0,6.0,5.0,5.1,45.32,0.0,
13.064,86.11927847115109,78.07799030547103,-4.43,-3.02,5.95,39.0,0.0,0.0,0.0,0.0,6.0,5.0,5.4,45.81,0.0,
13.088,86.13792784711511,77.9357990305471,-4.53,-2.08,3.45,35.0,0.0,0.0,0.0,0.0,7.0,6.0,5.69,46.01,0.0,
13.113,86.1577927847115,77.79557990305472,-4.34,-1.97,2.33,35.0,0.0,0.0,0.0,0.0,7.0,6.0,5.98,44.54,0.0,
13.136,86.13277927847115,77.77255799030547,-3.89,-2.37,0.95,35.0,0.0,0.0,0.0,0.0,7.0,6.0,6.28,43.75,1.86,
13.161,86.1032779278471,77.76125579903055,-4.76,-2.84,1.37,35.0,0.0,0.0,0.0,0.0,7.0,6.0,6.38,43.75,0.0,
13.186,86.01032779278472,77.72412557990306,-3.66,-2.65,1.37,35.0,0.0,0.0,0.0,0.0,7.0,6.0,6.47,43.36,3.24,
13.209,85.94703277927847,77.7114125579903,-3.76,-1.88,1.27,35.0,0.0,0.0,0.0,0.0,7.0,6.0,6.67,43.26,0.0,
13.234,85.76070327792785,77.63814125579903,-3.47,-1.78,1.16,35.0,0.0,0.0,1.0,0.0,7.0,6.0,6.77,43.16,0.0,
13.258,85.76907032779278,77.6848141255799,-3.19,-2.02,0.56,37.0,0.0,0.0,1.0,0.0,7.0,6.0,6.97,42.87,0.78,
13.283,85.76990703277927,77.59048141255799,-2.7,-2.64,0.91,35.0,0.0,0.0,1.0,0.0,7.0,6.0,6.87,45.03,0.0,
13.306,85.76099070327794,77.61704814125581,-1.52,-2.37,0.57,37.0,0.0,0.0,0.0,0.0,7.0,6.0,6.77,44.93,0.0,
13.331,85.62509907032779,77.68270481412559,-2.35,-2.37,1.26,37.0,0.0,0.0,0.0,0.0,7.0,6.0,6.67,44.83,0.0,
13.356,85.59350990703278,77.65327048141256,-3.58,-1.73,0.41,37.0,0.0,0.0,0.0,0.0,7.0,6.0,6.38,44.54,0.0,
13.379,85.58135099070329,77.70432704814125,-3.01,-1.5,0.76,37.0,0.0,0.0,0.0,0.0,7.0,6.0,6.28,44.24,1.47,
13.404,85.59813509907032,77.73643270481412,-2.83,-1.39,1.44,35.0,0.0,0.0,0.0,0.0,7.0,6.0,6.18,44.24,2.84,
13.428,85.64481350990704,77.75764327048142,-2.5,-0.94,1.18,35.0,0.0,0.0,0.0,0.0,7.0,6.0,6.28,44.64,1.86,
13.453,85.6044813509907,77.75076432704815,-2.5,-2.0,1.51,35.0,0.0,0.0,0.0,0.0,7.0,6.0,6.28,44.83,0.88,
13.476,85.58244813509907,77.7140764327048,-3.47,-2.23,1.1,37.0,0.0,0.0,0.0,0.0,7.0,6.0,6.28,45.13,0.0,
13.501,85.57124481350989,77.66540764327048,-2.92,-2.27,0.48,37.0,0.0,0.0,0.0,0.0,7.0,6.0,6.47,45.22,0.0,
13.526,85.56112448135099,77.67854076432705,-2.5,-2.21,0.7,35.0,0.0,0.0,0.0,0.0,7.0,6.0,6.47,44.73,0.0,
13.549,85.4251124481351,77.7158540764327,-2.73,-2.01,0.44,37.0,0.0,0.0,0.0,0.0,6.0,6.0,6.18,44.24,8.04,
13.574,85.37551124481352,77.71958540764328,-3.57,-1.71,-0.51,35.0,0.0,0.0,12.0,0.0,6.0,6.0,6.18,43.95,0.0,
13.598,85.34355112448137,77.67495854076434,-2.82,-1.52,-0.18,35.0,0.0,0.0,0.0,0.0,6.0,6.0,6.08,42.58,3.73,
13.623,85.31335511244815,77.72449585407644,-2.51,-1.58,-0.11,35.0,0.0,0.0,0.0,0.0,6.0,6.0,5.98,40.81,0.0,
13.647,85.18433551124483,77.73844958540764,-2.5,-0.75,-0.52,35.0,0.0,0.0,0.0,0.0,6.0,6.0,5.89,41.69,0.0,
13.671,85.1894335511245,77.76684495854076,-2.41,0.23,-0.97,37.0,0.0,0.0,0.0,0.0,6.0,6.0,5.79,41.59,1.47,
13.696,85.19894335511245,77.81468449585407,-2.49,0.21,-0.75,35.0,0.0,0.0,0.0,0.0,6.0,6.0,5.98,42.38,2.16,
13.72,85.21789433551125,77.75646844958541,-2.81,-0.47,-0.52,37.0,0.0,0.0,0.0,0.0,6.0,6.0,6.18,41.89,0.0,
13.745,85.26478943355112,77.74164684495854,-2.5,0.36,-0.99,39.0,0.0,0.0,0.0,0.0,6.0,6.0,6.38,42.28,1.67,
13.768,85.34147894335511,77.74016468449585,-1.92,0.58,-0.78,37.0,0.0,0.0,1.0,0.0,6.0,6.0,6.47,42.97,0.0,
13.793,85.3491478943355,77.8300164684496,-2.3,0.49,-0.12,37.0,0.0,0.0,12.0,0.0,6.0,6.0,6.57,43.85,1.47,
13.817,85.45791478943354,77.85700164684496,-2.36,0.63,-0.21,37.0,0.0,0.0,-33.0,0.0,6.0,6.0,6.67,44.73,0.0,
13.842,85.45979147894336,77.8867001646845,-1.51,1.37,-0.95,37.0,0.0,0.0,-33.0,0.0,6.0,5.0,6.77,45.52,0.0,
13.867,85.52297914789433,77.95267001646845,-1.82,0.95,-1.24,39.0,0.0,0.0,-33.0,0.0,6.0,5.0,6.67,46.3,4.81,
13.89,85.57429791478944,77.99526700164685,-1.79,0.37,-0.73,39.0,0.0,0.0,-33.0,0.0,6.0,5.0,6.67,48.36,0.0,
13.915,85.62442979147893,77.99052670016468,-3.12,-0.29,-0.92,35.0,0.0,0.0,-33.0,0.0,6.0,5.0,6.67,46.6,0.0,
13.939,85.65644297914788,77.95405267001647,-3.73,-0.48,-1.02,39.0,0.0,0.0,-33.0,0.0,6.0,5.0,6.87,47.58,0.0,
13.964,85.7496442979148,77.89640526700164,-3.39,-0.86,-1.24,39.0,0.0,0.0,-33.0,0.0,6.0,5.0,7.16,47.97,0.0,
13.988,85.74096442979148,77.90864052670017,-4.02,-0.1,-1.31,39.0,0.0,0.0,-33.0,0.0,6.0,5.0,7.46,48.27,0.0,
14.013,85.77609644297914,77.90086405267003,-4.05,-0.16,-1.15,39.0,0.0,0.0,-33.0,0.0,6.0,5.0,7.75,49.15,2.35,
14.038,85.82460964429791,77.864086405267,-3.25,-0.58,-0.73,40.0,0.0,0.0,-33.0,0.0,6.0,5.0,8.04,49.93,0.0,
14.063,85.82946096442979,77.8604086405267,-2.66,-0.5,-0.98,39.0,0.0,0.0,-33.0,0.0,6.0,5.0,8.04,51.01,0.0,
14.088,85.90194609644298,77.87804086405266,-2.94,-0.79,-0.56,40.0,0.0,0.0,-33.0,0.0,6.0,5.0,8.14,51.6,0.2,
14.112,85.8551946096443,77.94280408640526,-2.73,-1.42,-0.19,40.0,0.0,0.0,-33.0,0.0,6.0,5.0,8.04,51.5,0.0,
14.137,85.79651946096445,78.00328040864053,-2.84,-0.79,-0.4,40.0,0.0,0.0,-33.0,0.0,6.0,5.0,8.04,51.31,0.0,
14.161,85.83565194609645,77.97332804086406,-2.82,-0.47,-0.37,40.0,0.0,0.0,-33.0,0.0,6.0,5.0,8.04,51.31,0.0,
14.186,85.95656519460965,77.99733280408641,-2.44,-0.19,-0.61,40.0,0.0,0.0,-33.0,0.0,6.0,5.0,7.95,51.7,0.0,
14.211,85.98665651946095,77.95473328040865,-2.33,-0.66,-1.11,40.0,0.0,0.0,-33.0,0.0,6.0,5.0,8.14,51.99,0.0,
14.235,85.9716656519461,77.87847332804088,-1.57,-0.5,-2.77,40.0,0.0,0.0,-33.0,0.0,5.0,5.0,8.04,52.19,1.28,
14.26,86.12316656519461,77.86184733280409,0.69,-0.76,-4.85,40.0,0.0,0.0,-33.0,0.0,5.0,4.0,7.65,52.19,0.98,
14.284,86.21031665651945,77.94118473328041,0.85,-0.51,-3.78,40.0,0.0,0.0,-33.0,0.0,5.0,4.0,6.87,52.68,0.0,
14.309,86.21003166565194,78.02111847332804,-0.66,-1.23,-1.8,42.0,0.0,0.0,-33.0,0.0,5.0,4.0,6.18,53.56,0.0,
14.333,86.24600316656519,78.0921118473328,-1.34,-1.44,-0.98,40.0,0.0,0.0,-33.0,0.0,5.0,4.0,5.69,53.86,0.0,
14.358,86.28560031665651,78.11721118473329,-0.29,-1.8,-1.3,40.0,0.0,0.0,-33.0,0.0,4.0,4.0,4.91,53.17,0.0,
14.383,86.35256003166566,78.20072111847333,0.08,-2.38,-1.85,40.0,0.0,0.0,-33.0,0.0,4.0,4.0,4.51,53.27,2.35,
14.407,86.30525600316656,78.32607211184734,0.07,-1.56,-1.15,40.0,0.0,0.0,-33.0,0.0,4.0,4.0,4.02,51.89,0.39,
14.432,86.25552560031666,78.35660721118474,-0.34,-1.27,-0.89,39.0,0.0,0.0,-33.0,0.0,4.0,3.0,3.63,50.72,0.0,
14.456,86.21455256003166,78.35966072111847,1.12,-1.39,-1.8,39.0,0.0,0.0,12.0,0.0,4.0,3.0,3.34,49.83,0.0,
14.48,86.35445525600316,78.34196607211184,1.6,-2.87,-5.07,39.0,0.0,0.0,11.0,0.0,3.0,3.0,3.04,49.05,0.69,
14.504,86.35044552560032,78.47519660721117,2.18,-0.53,-1.53,39.0,0.0,0.0,11.0,0.0,3.0,3.0,2.16,49.15,0.59,
14.529,86.42204455256004,78.74051966072112,1.05,-0.88,-0.12,37.0,0.0,0.0,11.0,0.0,3.0,3.0,1.47,49.15,1.18,
14.554,86.37520445525601,78.74905196607212,-2.9,-1.17,0.0,37.0,0.0,0.0,11.0,0.0,3.0,3.0,1.08,48.76,2.26,
14.578,86.3795204455256,78.75890519660722,-3.08,-1.76,0.08,37.0,0.0,0.0,11.0,0.0,3.0,3.0,0.98,48.17,0.88,
14.602,86.43395204455257,78.87689051966072,-3.43,-2.52,0.74,35.0,0.0,0.0,11.0,0.0,3.0,3.0,0.98,47.68,4.02,
14.626,86.46639520445527,78.87968905196607,-4.02,-3.66,1.1,35.0,0.0,0.0,10.0,0.0,3.0,3.0,0.98,46.89,0.0,
14.651,86.45163952044553,78.8619689051966,-4.02,-4.75,1.11,32.0,0.0,0.0,10.0,0.0,3.0,3.0,0.88,45.42,1.77,
14.675,86.34216395204456,78.89619689051966,-3.65,-4.69,0.45,35.0,0.0,0.0,10.0,0.0,3.0,3.0,0.88,43.56,0.49,
14.7,86.23221639520446,78.87261968905197,-2.8,-3.66,-0.31,34.0,0.0,0.0,10.0,0.0,3.0,3.0,0.78,40.52,0.98,
14.724,86.12222163952043,78.8522619689052,-2.56,-2.76,-1.1,34.0,0.0,0.0,10.0,0.0,3.0,2.0,0.78,38.55,5.0,
14.748,86.09322216395205,78.86822619689052,-1.5,-2.0,0.01,34.0,0.0,0.0,10.0,0.0,3.0,2.0,0.69,37.67,1.08,
14.773,85.9643222163952,78.85182261968906,-0.44,-1.24,-0.86,32.0,0.0,0.0,9.0,0.0,3.0,2.0,0.39,36.59,3.14,
14.797,85.92443222163952,79.01218226196892,1.37,-0.56,-1.16,31.0,0.0,0.0,9.0,0.0,3.0,2.0,0.0,36.3,5.1,
14.822,85.96544322216396,79.23521822619689,-0.28,-0.27,-0.63,31.0,0.0,0.0,9.0,0.0,3.0,2.0,0.0,37.67,2.84,
14.845,85.94254432221639,79.2755218226197,-2.93,0.22,-0.47,31.0,0.0,0.0,9.0,0.0,3.0,2.0,0.0,37.87,0.98,
14.87,85.98525443222162,79.37855218226197,-3.88,0.41,-0.52,31.0,0.0,0.0,9.0,0.0,3.0,2.0,0.0,38.46,0.59,
14.895,86.08852544322215,79.3978552182262,-3.29,-0.08,-0.5,31.0,0.0,0.0,9.0,0.0,3.0,2.0,0.0,38.85,1.37,
14.919,86.06285254432223,79.37278552182262,-3.6,-0.57,-0.13,31.0,0.0,0.0,9.0,0.0,3.0,2.0,0.0,39.04,0.59,
14.943,86.06928525443222,79.36127855218227,-4.25,-0.25,0.22,32.0,0.0,0.0,9.0,0.0,3.0,2.0,0.0,39.14,2.35,
14.967,86.13292852544322,79.31512785521824,-5.22,-0.02,0.98,32.0,0.0,0.0,10.0,0.0,3.0,2.0,0.0,39.83,0.0,
14.992,86.14829285254433,79.22951278552182,-5.34,-0.67,1.41,32.0,0.0,0.0,10.0,0.0,3.0,2.0,0.2,40.02,0.0,
15.016,86.18582928525443,79.17595127855218,-5.0,-0.98,1.42,32.0,0.0,0.0,10.0,0.0,3.0,2.0,0.69,40.42,1.37,
15.041,86.26158292852544,79.11659512785522,-4.15,-1.64,1.17,32.0,0.0,0.0,10.0,0.0,3.0,2.0,1.08,40.32,2.94,
15.065,86.19715829285254,79.15565951278552,-4.22,-1.88,1.14,31.0,0.0,0.0,10.0,0.0,3.0,2.0,1.28,39.93,0.0,
15.089,86.19971582928525,79.14156595127855,-4.39,-1.44,0.34,32.0,0.0,0.0,10.0,0.0,3.0,2.0,1.28,39.83,0.0,
15.114,86.17297158292853,79.14015659512785,-3.27,-0.59,-0.32,30.0,0.0,0.0,10.0,0.0,3.0,3.0,1.47,39.73,0.0,
15.138,86.21529715829286,79.14001565951278,-2.93,-0.62,-0.57,32.0,0.0,0.0,10.0,0.0,3.0,3.0,1.57,39.63,0.0,
15.163,86.21052971582928,79.14000156595128,-3.5,-1.39,0.14,32.0,0.0,0.0,10.0,0.0,3.0,3.0,1.67,40.12,2.45,
15.187,86.21905297158293,79.14900015659514,-3.95,-1.44,0.27,32.0,0.0,0.0,10.0,0.0,3.0,3.0,1.77,41.1,0.39,
15.211,86.1839052971583,79.12290001565952,-3.71,-1.36,-0.01,32.0,0.0,0.0,10.0,0.0,3.0,3.0,1.77,41.4,0.0,
15.236,86.19839052971582,79.08429000156595,-3.15,-0.5,-0.3,34.0,0.0,0.0,10.0,0.0,3.0,3.0,1.96,41.4,0.59,
15.26,86.24483905297159,79.0624290001566,-3.05,-0.77,0.28,34.0,0.0,0.0,11.0,0.0,3.0,3.0,1.96,41.4,0.0,
15.285,86.27648390529716,79.06024290001567,-3.84,-1.29,0.34,34.0,0.0,0.0,10.0,0.0,3.0,3.0,2.06,41.99,0.1,
15.309,86.20764839052971,79.03302429000158,-4.21,-1.19,0.38,34.0,0.0,0.0,10.0,0.0,3.0,3.0,2.16,42.28,0.0,
15.333,86.16476483905296,78.95830242900016,-4.07,0.14,0.13,34.0,0.0,0.0,10.0,0.0,3.0,3.0,2.26,42.77,0.0,
15.357,86.1694764839053,78.91483024290002,-3.78,0.47,0.32,35.0,0.0,0.0,11.0,0.0,3.0,3.0,2.55,43.85,1.18,
15.382,86.27794764839052,78.87448302429,-3.89,-0.21,0.5,35.0,0.0,0.0,11.0,0.0,3.0,3.0,2.65,44.64,0.0,
15.407,86.28879476483905,78.924448302429,-4.35,-1.21,0.99,35.0,0.0,0.0,11.0,0.0,3.0,3.0,2.94,45.42,0.0,
15.43,86.2358794764839,78.8754448302429,-4.44,-0.72,0.52,35.0,0.0,0.0,11.0,0.0,3.0,3.0,3.14,46.11,0.0,
15.455,86.1855879476484,78.79854448302429,-3.3,-0.28,-0.47,35.0,0.0,0.0,11.0,0.0,3.0,3.0,3.34,46.5,0.0,
15.479,86.24355879476484,78.88085444830243,-3.18,-0.49,-0.26,35.0,0.0,0.0,11.0,0.0,3.0,3.0,3.43,47.19,0.0,
15.504,86.30335587947648,78.87108544483024,-4.08,-0.89,-0.01,37.0,0.0,0.0,11.0,0.0,3.0,3.0,3.73,48.07,0.0,
15.528,86.38133558794765,78.82510854448303,-3.35,-0.32,-1.11,37.0,0.0,0.0,11.0,0.0,3.0,3.0,3.92,49.05,1.47,
15.553,86.40713355879477,78.8025108544483,-1.72,0.05,-1.56,37.0,0.0,0.0,11.0,0.0,3.0,3.0,4.12,50.13,0.29,
15.578,86.41871335587948,78.80925108544483,-2.08,-0.27,-1.48,39.0,0.0,0.0,11.0,0.0,3.0,3.0,4.41,51.5,0.0,
15.601,86.45587133558794,78.83692510854448,-2.41,-0.47,-0.98,40.0,0.0,0.0,-33.0,0.0,3.0,3.0,4.71,53.27,0.0,
15.627,86.5045871335588,78.89369251085445,-1.89,-1.05,0.0,39.0,0.0,0.0,-33.0,0.0,3.0,3.0,5.1,56.51,0.0,
15.651,86.50045871335588,78.96236925108545,-1.94,-1.65,0.67,39.0,0.0,0.0,-33.0,0.0,3.0,3.0,5.89,57.78,0.0,
15.676,86.4820458713356,79.00523692510855,-3.44,-2.62,1.09,39.0,0.0,0.0,-33.0,0.0,3.0,3.0,6.08,60.72,0.0,
15.7,86.46220458713356,79.00052369251087,-3.98,-3.44,0.85,39.0,0.0,0.0,-33.0,0.0,3.0,3.0,6.38,62.2,1.28,
15.725,86.41522045871336,79.07205236925108,-3.99,-4.19,1.93,37.0,0.0,0.0,-33.0,0.0,3.0,3.0,6.28,63.18,1.47,
15.75,86.38352204587135,79.16920523692512,-5.66,-4.84,5.57,35.0,0.0,0.0,-33.0,0.0,3.0,3.0,5.89,64.55,2.55,
15.774,86.26335220458714,79.14292052369251,-7.6,-8.31,7.02,32.0,0.0,0.0,-33.0,0.0,3.0,3.0,5.69,66.02,0.0,
15.799,86.10733522045872,78.73529205236925,-4.31,-15.15,21.66,27.0,0.0,0.0,-33.0,0.0,2.0,3.0,5.59,66.71,0.0,
15.823,85.04773352204589,79.58552920523692,-6.62,-22.42,18.44,18.0,0.0,0.0,9.0,0.0,2.0,3.0,5.0,65.92,0.0,
15.848,83.47477335220458,77.5645529205237,-30.35,6.99,-0.16,5.0,0.0,0.0,7.0,0.0,1.0,3.0,3.73,62.2,0.88,
15.872,83.11947733522047,77.56045529205237,-38.33,10.76,-19.8,7.0,0.0,0.0,3.0,0.0,1.0,2.0,1.77,51.6,1.28,
15.896,84.28094773352204,78.44204552920525,-36.37,43.02,-40.48,4.0,0.0,0.0,1.0,0.0,0.0,2.0,0.0,34.34,84.56,
15.921,86.2060947733522,79.18720455292052,-25.76,47.79,-0.89,4.0,0.0,0.0,0.0,0.0,0.0,0.0,0.0,17.85,369.35,
15.945,85.72360947733523,82.35772045529204,-25.76,-23.34,-21.82,4.0,0.0,0.0,0.0,0.0,0.0,0.0,1.08,7.75,217.88,
15.969,84.23536094773351,87.2827720455292,-2.5,-47.47,32.72,5.0,0.0,0.0,0.0,0.0,0.0,0.0,0.2,4.71,66.12,
15.993,81.67453609477336,93.53527720455293,11.21,-68.11,66.72,5.0,0.0,0.0,0.0,0.0,0.0,0.0,0.0,0.0,26.78,
16.017,79.07845360947734,99.36252772045529,26.11,-76.02,85.11,5.0,0.0,0.0,0.0,0.0,0.0,0.0,0.0,0.0,31.69,
16.041,75.84884536094773,100.37725277204552,33.85,-61.93,76.0,5.0,0.0,0.0,0.0,0.0,0.0,0.0,0.0,0.0,39.83,
16.066,75.24688453609478,101.21672527720455,49.5,-50.53,65.66,4.0,0.0,0.0,0.0,0.0,0.0,0.0,0.2,0.29,29.04,
16.09,73.63868845360946,98.29467252772045,73.07,-30.62,6.74,4.0,0.0,0.0,0.0,0.0,0.0,0.0,0.1,10.01,26.59,
16.114,72.10986884536094,96.92246725277205,95.16,-19.35,-15.92,4.0,0.0,0.0,0.0,0.0,0.0,0.0,0.1,10.1,55.43,
16.139,74.92698688453609,100.4932467252772,98.81,-23.43,36.68,4.0,0.0,0.0,0.0,0.0,0.0,0.0,0.2,10.1,20.21,
16.162,79.92469868845362,101.59732467252772,77.96,15.49,22.35,4.0,0.0,0.0,0.0,0.0,0.0,0.0,0.1,10.01,11.18,
16.187,87.84946986884536,106.57673246725277,74.6,-97.0,118.76,4.0,0.0,0.0,0.0,0.0,0.0,0.0,0.0,7.95,10.01,
16.211,85.66294698688453,103.56467324672528,78.5,-58.21,-28.59,4.0,0.0,0.0,0.0,0.0,0.0,0.0,0.2,5.3,5.89,
16.235,83.83329469868845,95.77546732467252,58.14,-25.32,-37.29,4.0,0.0,0.0,0.0,0.0,0.0,0.0,0.2,5.49,4.61,
16.26,79.24932946986884,86.64454673246725,61.14,-11.5,-50.11,4.0,0.0,0.0,0.0,0.0,0.0,0.0,0.29,5.3,20.31,
16.283,82.61593294698689,90.94245467324673,30.14,11.74,58.28,4.0,0.0,0.0,0.0,0.0,0.0,0.0,0.29,6.08,6.47,
16.308,83.07859329469868,88.84324546732466,12.75,69.83,9.75,4.0,0.0,0.0,0.0,0.0,0.0,0.0,0.39,7.46,2.65,
16.331,81.69385932946987,83.21532454673246,-17.29,7.35,64.17,3.0,0.0,0.0,0.0,0.0,0.0,0.0,0.59,7.75,1.67,
16.356,81.78038593294698,76.85653245467326,-34.12,32.16,-48.08,2.0,0.0,0.0,0.0,0.0,0.0,0.0,0.69,7.55,0.0,
16.379,79.4040385932947,81.44965324546732,-31.6,62.89,-48.27,1.0,0.0,0.0,0.0,0.0,0.0,0.0,0.69,5.3,0.0,
16.404,80.31840385932946,83.51096532454673,-79.77,58.8,4.28,0.0,0.0,0.0,0.0,0.0,0.0,0.0,0.78,0.0,0.0,
16.428,81.23784038593294,83.48309653245468,-112.61,103.73,-7.37,1.0,0.0,0.0,0.0,0.0,0.0,0.0,1.18,2.84,0.0,
16.451,82.25678403859331,82.40930965324547,-88.21,89.89,-28.71,3.0,0.0,0.0,0.0,0.0,0.0,0.0,1.77,5.98,0.0,
16.476,83.72667840385934,82.33793096532455,-69.73,59.34,-31.16,6.0,0.0,0.0,0.0,0.0,0.0,0.0,1.77,5.98,0.0,
16.499,84.27866784038594,81.66479309653246,-65.82,39.95,-29.65,9.0,0.0,0.0,0.0,0.0,0.0,0.0,1.37,12.95,0.0,
16.524,86.5838667840386,82.23647930965323,-79.38,14.66,-26.6,12.0,0.0,0.0,2.0,0.0,0.0,0.0,0.98,21.78,0.0,
16.548,86.81438667840386,82.26664793096532,-62.47,-7.9,-12.78,15.0,0.0,0.0,6.0,0.0,0.0,0.0,0.1,31.39,0.0,
16.573,86.36943866784038,81.51366479309654,-48.73,-9.55,-7.67,30.0,0.0,0.0,9.0,0.0,2.0,2.0,0.0,73.67,0.0,
16.598,85.34394386678404,80.94336647930966,-38.29,-4.11,-5.49,39.0,0.0,0.0,12.0,0.0,4.0,3.0,0.0,151.07,0.0,
16.622,85.5833943866784,80.41833664793096,-35.72,-6.73,-8.37,44.0,0.0,0.0,5.0,0.0,8.0,4.0,1.08,161.28,0.0,
16.647,86.56133943866784,80.07783366479309,-36.12,-23.45,-2.23,48.0,1.0,0.0,44.0,0.0,10.0,5.0,1.86,160.88,0.0,
16.671,86.95613394386677,79.8547833664793,-33.47,-37.56,1.29,50.0,1.0,0.0,-33.0,0.0,0.0,6.0,3.73,159.61,0.0,
16.696,86.39261339438667,79.18447833664793,-27.5,-31.29,-2.47,55.0,2.0,0.0,-33.0,0.0,4.0,7.0,9.32,158.24,0.0,
16.72,85.35526133943866,78.61344783366478,-23.48,-23.21,-4.11,58.0,2.0,0.0,-33.0,0.0,8.0,8.0,13.64,157.35,0.0,
16.746,84.99052613394386,78.19634478336648,-18.95,-21.61,-6.6,58.0,2.0,0.0,-33.0,0.0,11.0,8.0,17.46,155.68,0.0,
16.771,84.77405261339439,77.67763447833666,-13.8,-21.73,-4.67,58.0,2.0,0.0,-33.0,0.0,12.0,8.0,23.45,155.88,0.0,
16.795,84.35640526133945,77.42776344783367,-11.82,-20.28,-3.44,60.0,3.0,0.0,-33.0,0.0,13.0,8.0,36.49,156.57,0.0,
16.821,83.71164052613393,77.12377634478337,-10.1,-16.03,-4.53,60.0,3.0,0.0,-33.0,0.0,14.0,8.0,43.85,156.37,0.0,
16.845,83.21516405261339,76.85037763447832,-5.7,-9.01,-4.21,60.0,3.0,0.0,-33.0,0.0,14.0,8.0,50.03,155.29,0.0,
16.87,83.21951640526133,76.62503776344784,-0.34,-3.0,0.94,63.0,3.0,0.0,-33.0,0.0,12.0,7.0,54.45,154.7,0.0,
16.896,82.99495164052614,76.47650377634477,0.54,-2.54,2.87,60.0,3.0,0.0,-33.0,0.0,11.0,7.0,54.54,155.0,0.0,
16.92,82.82849516405263,76.20065037763447,2.73,-2.42,0.19,60.0,3.0,0.0,-33.0,0.0,9.0,6.0,48.95,154.8,0.0,
16.945,83.54984951640526,76.39806503776344,0.69,1.94,4.89,63.0,3.0,0.0,-33.0,0.0,8.0,5.0,44.34,154.02,0.0,
16.968,82.89298495164053,76.50780650377634,2.92,7.58,6.84,63.0,3.0,0.0,-33.0,0.0,6.0,5.0,39.34,153.13,0.0,
16.993,82.80929849516404,76.62678065037763,-0.99,4.67,3.94,63.0,3.0,0.0,-33.0,0.0,6.0,5.0,31.39,153.92,0.0,
17.017,82.9989298495164,76.68367806503777,1.4,1.0,5.58,63.0,3.0,0.0,-33.0,0.0,6.0,5.0,25.51,154.41,0.0,
17.042,82.95489298495164,76.74336780650378,0.73,-2.47,6.79,63.0,3.0,0.0,-33.0,0.0,5.0,5.0,22.66,154.02,0.0,
17.067,82.81548929849515,76.93833678065037,-1.26,-5.98,6.5,63.0,3.0,0.0,-33.0,0.0,4.0,4.0,17.46,154.02,1.28,
17.091,82.51354892984952,77.01183367806503,-4.95,-0.69,5.4,63.0,3.0,0.0,-33.0,0.0,5.0,4.0,14.42,154.31,1.18,
17.116,82.52835489298495,77.01018336780652,-5.73,-3.31,3.57,63.0,2.0,0.0,-33.0,0.0,5.0,5.0,12.56,154.31,0.69,
17.14,82.54783548929849,76.93801833678066,-4.98,-7.13,4.67,63.0,2.0,0.0,-33.0,0.0,5.0,5.0,12.75,154.12,0.0,
17.165,82.44178354892986,76.86780183367807,-4.46,-8.34,5.16,63.0,3.0,0.0,-33.0,0.0,5.0,5.0,13.73,153.92,0.0,
17.189,82.18817835489298,76.96878018336781,-7.18,-7.18,4.4,63.0,3.0,0.0,-33.0,0.0,5.0,5.0,14.42,153.92,0.0,
17.215,81.8388178354893,76.87987801833678,-10.85,-4.15,2.53,63.0,3.0,0.0,-33.0,0.0,5.0,5.0,15.21,153.92,0.1,
17.24,81.74988178354893,76.87098780183368,-16.01,-2.79,0.6,63.0,3.0,0.0,-33.0,0.0,6.0,6.0,16.58,154.21,0.0,
17.264,81.8579881783549,76.69909878018338,-16.36,-5.14,2.04,63.0,3.0,0.0,-33.0,0.0,8.0,6.0,18.84,154.7,0.0,
17.289,81.6977988178355,76.45690987801834,-15.86,-6.14,5.82,66.0,3.0,0.0,-33.0,0.0,8.0,6.0,21.48,154.9,0.0,
17.313,81.42077988178356,76.27069098780183,-17.69,-5.56,6.36,66.0,3.0,0.0,-33.0,0.0,9.0,7.0,25.41,155.29,0.0,
17.339,81.50107798817837,75.55906909878018,-19.34,2.86,16.59,66.0,3.0,0.0,-33.0,0.0,10.0,7.0,28.94,155.19,0.0,
17.363,81.39210779881785,75.48790690987802,-19.49,-5.31,18.19,63.0,2.0,0.0,-33.0,0.0,10.0,8.0,33.75,155.29,0.0,
17.388,81.48921077988179,75.4807906909878,-21.98,-18.82,19.05,63.0,2.0,0.0,-33.0,0.0,10.0,8.0,40.22,155.68,0.0,
17.414,80.78792107798817,76.38007906909878,-31.22,-11.69,29.22,58.0,1.0,0.0,-33.0,0.0,11.0,9.0,54.54,156.08,0.0,
17.438,79.52079210779881,76.22700790690988,-42.33,-21.39,17.2,50.0,0.0,0.0,-33.0,0.0,11.0,9.0,66.41,155.98,0.0,
17.464,76.33407921077989,79.55070079069098,-61.64,58.47,24.66,35.0,0.0,0.0,-33.0,0.0,11.0,10.0,78.28,155.19,0.0,
17.488,76.55540792107799,78.7850700790691,-57.66,12.22,-9.92,11.0,0.0,0.0,-33.0,0.0,12.0,10.0,91.43,154.61,0.0,
17.514,77.1805407921078,77.73650700790691,-72.47,5.66,-10.53,7.0,0.0,0.0,-33.0,0.0,13.0,11.0,103.0,152.84,3.73,
17.539,80.42905407921079,74.5806507007907,-65.94,22.32,-35.71,3.0,0.0,0.0,-33.0,0.0,14.0,11.0,109.58,147.64,38.16,
17.564,80.82590540792108,73.34706507007907,-76.16,10.47,-11.65,1.0,0.0,0.0,11.0,0.0,14.0,11.0,103.1,146.76,124.1,
17.59,81.64859054079211,72.52170650700792,-84.07,16.46,-12.03,0.0,0.0,0.0,11.0,0.0,15.0,11.0,87.01,143.13,219.06,
17.614,82.71185905407921,71.8631706507008,-91.11,15.63,-0.91,0.0,0.0,0.0,11.0,0.0,15.0,11.0,64.75,142.05,207.09,
17.64,83.65518590540792,70.18631706507009,-100.95,17.34,-1.28,0.0,0.0,0.0,10.0,0.0,15.0,10.0,29.04,139.99,152.15,
17.665,84.58651859054079,68.407631706507,-102.76,17.78,-0.63,0.0,0.0,0.0,9.0,0.0,14.0,8.0,13.34,136.16,132.04,
17.69,85.50765185905408,66.9877631706507,-105.59,11.97,4.08,1.0,0.0,0.0,7.0,0.0,11.0,6.0,6.28,138.03,115.66,
17.715,86.45476518590542,65.52277631706507,-96.77,17.54,4.83,2.0,0.0,0.0,5.0,0.0,1.0,4.0,2.55,138.81,148.43,
17.739,86.99047651859054,65.27727763170651,-78.76,39.6,32.68,2.0,0.0,0.0,3.0,0.0,7.0,2.0,0.59,135.48,67.0,
17.764,86.64804765185905,65.47772776317065,-66.77,47.57,47.24,3.0,0.0,0.0,3.0,0.0,3.0,1.0,0.2,132.14,26.49,
17.788,84.19280476518591,64.11177277631707,-20.89,13.37,46.85,3.0,0.0,0.0,3.0,0.0,0.0,0.0,0.0,131.16,26.78,
17.813,83.1552804765186,64.7941772776317,39.56,-6.37,14.85,3.0,0.0,0.0,3.0,0.0,0.0,0.0,0.0,128.71,16.97,
17.837,82.43052804765185,66.55441772776317,65.31,-16.18,3.08,3.0,0.0,0.0,3.0,0.0,0.0,0.0,0.0,127.63,13.24,
17.861,80.65705280476519,68.17944177277631,89.16,-29.56,-11.15,4.0,0.0,0.0,3.0,0.0,0.0,0.0,0.0,123.41,24.92,
17.886,79.17470528047653,70.51094417727762,94.65,-24.73,-7.14,4.0,0.0,0.0,3.0,0.0,0.0,0.0,0.0,115.17,27.96,
17.91,77.82947052804766,72.12109441772776,95.21,-20.11,1.79,4.0,0.0,0.0,2.0,0.0,0.0,0.0,0.0,109.09,10.3,
17.934,76.65094705280475,73.13710944177276,111.27,-33.38,15.27,4.0,0.0,0.0,2.0,0.0,0.0,0.0,0.0,109.38,12.36,
17.958,75.42609470528049,73.85971094417728,103.85,-41.11,23.21,4.0,0.0,0.0,2.0,0.0,0.0,0.0,0.0,117.03,0.0,
17.983,74.24160947052805,73.12197109441773,103.52,-29.6,9.56,4.0,0.0,0.0,2.0,0.0,0.0,0.0,0.0,116.15,0.39,
18.007,73.2231609470528,72.22919710944177,100.31,-21.08,-9.67,4.0,0.0,0.0,2.0,0.0,0.0,0.0,0.0,118.8,1.18,
18.031,72.1583160947053,71.71691971094418,101.24,-16.85,-19.94,4.0,0.0,0.0,2.0,0.0,0.0,0.0,0.0,118.21,0.0,
18.056,71.23283160947052,70.94569197109442,100.0,-26.6,-25.02,4.0,0.0,0.0,1.0,0.0,0.0,0.0,0.0,116.84,2.16,
18.08,70.78028316094705,70.29256919710944,92.25,-32.29,-28.76,4.0,0.0,0.0,1.0,0.0,0.0,0.0,0.0,115.46,4.22,
18.104,70.8160283160947,69.66925691971093,80.04,-29.56,-29.11,4.0,0.0,0.0,1.0,0.0,0.0,0.0,0.0,113.4,1.18,
18.128,71.07160283160947,69.9489256919711,71.88,-27.96,-15.26,4.0,0.0,0.0,1.0,0.0,0.0,0.0,0.0,112.23,5.2,
18.153,71.63716028316095,69.93189256919712,63.9,-36.49,-8.18,4.0,0.0,0.0,1.0,0.0,0.0,0.0,0.0,113.99,6.08,
18.178,72.5667160283161,69.59718925691972,50.82,-29.98,-11.1,4.0,0.0,0.0,1.0,0.0,0.0,0.0,0.0,115.76,1.96,
18.202,73.82967160283161,68.51071892569198,35.75,-1.48,-26.48,3.0,0.0,0.0,1.0,0.0,0.0,0.0,0.0,115.66,1.18,
18.227,75.22496716028316,67.1330718925692,30.84,26.26,-39.8,3.0,0.0,0.0,1.0,0.0,0.0,0.0,0.0,114.88,2.16,
18.25,76.64249671602832,66.57230718925693,19.26,30.63,-42.69,3.0,0.0,0.0,1.0,0.0,0.0,0.0,0.0,113.8,0.0,
18.275,78.22424967160283,67.1552307189257,7.76,18.57,-22.76,3.0,0.0,0.0,1.0,0.0,0.0,0.0,0.0,113.01,0.0,
18.299,79.47142496716029,67.98752307189257,-9.19,2.97,7.12,3.0,0.0,0.0,1.0,0.0,0.0,0.0,0.0,111.25,0.0,
18.323,80.30714249671604,67.87275230718926,-11.13,13.29,17.48,3.0,0.0,0.0,1.0,0.0,0.0,0.0,0.0,111.44,1.18,
18.348,80.91271424967161,67.92427523071893,-4.82,14.83,16.9,3.0,0.0,0.0,1.0,0.0,0.0,0.0,0.0,109.97,0.0,
18.372,81.08127142496716,68.7484275230719,-5.76,15.44,16.88,3.0,0.0,0.0,1.0,0.0,0.0,0.0,0.0,109.68,0.0,
18.396,80.87312714249671,69.87484275230719,-6.54,20.32,21.34,3.0,0.0,0.0,1.0,0.0,0.0,0.0,0.0,109.38,0.0,
18.42,80.37531271424967,71.07648427523071,0.61,25.56,18.09,3.0,0.0,0.0,1.0,0.0,0.0,0.0,0.0,110.75,2.94,
18.445,79.98353127142497,72.19564842752307,3.7,33.44,9.31,3.0,0.0,0.0,1.0,0.0,0.0,0.0,0.0,109.28,0.0,
18.468,81.9783531271425,75.64656484275231,-8.08,17.6,13.1,3.0,0.0,0.0,0.0,0.0,0.0,0.0,0.0,98.39,0.0,
18.493,82.48383531271425,78.95265648427522,-21.5,10.72,16.73,3.0,0.0,0.0,0.0,0.0,0.0,0.0,0.0,33.65,0.0,
18.516,82.86738353127143,79.75126564842753,-21.86,34.01,-8.47,6.0,0.0,0.0,1.0,0.0,0.0,0.0,0.0,0.0,0.0,
18.541,82.60873835312714,79.75012656484276,-17.22,17.73,-9.72,7.0,0.0,0.0,2.0,0.0,0.0,0.0,0.0,1.67,0.0,
18.566,82.28587383531271,79.40801265648429,-11.1,15.99,-6.93,8.0,0.0,0.0,2.0,0.0,0.0,0.0,0.0,7.95,0.0,
18.589,82.40658738353127,79.59880126564843,-10.25,15.12,-11.5,8.0,0.0,0.0,3.0,0.0,0.0,0.0,0.0,16.38,0.0,
18.614,82.64365873835314,79.85188012656484,-8.24,16.21,-10.01,9.0,0.0,0.0,3.0,0.0,0.0,0.0,0.0,22.46,0.0,
18.638,83.45936587383531,80.16518801265649,-12.09,15.08,-4.93,10.0,0.0,0.0,4.0,0.0,0.0,0.0,0.0,27.57,0.0,
18.663,83.89193658738354,80.05251880126565,-10.26,7.04,2.47,12.0,0.0,0.0,4.0,0.0,1.0,1.0,0.0,75.83,0.0,
18.688,83.69219365873835,80.05025188012657,-8.55,5.6,4.54,4.0,0.0,0.0,5.0,0.0,1.0,1.0,0.0,108.4,0.0,
18.711,83.48321936587382,79.73502518801266,-4.82,5.8,2.89,8.0,0.0,0.0,5.0,0.0,1.0,1.0,0.0,112.13,0.0,
18.736,83.49832193658739,79.75750251880127,-1.25,7.66,0.44,10.0,0.0,0.0,5.0,0.0,1.0,1.0,0.0,110.46,0.0,
18.76,83.62583219365874,79.91275025188014,-0.42,9.06,-0.36,13.0,0.0,0.0,6.0,0.0,1.0,1.0,0.0,109.97,0.0,
18.784,83.91758321936588,80.18927502518802,-2.69,7.48,0.31,14.0,0.0,0.0,6.0,0.0,1.0,2.0,0.0,111.15,0.0,
18.808,84.1537583219366,80.52292750251881,-3.2,11.66,7.57,17.0,0.0,0.0,6.0,0.0,1.0,2.0,0.0,113.11,0.0,
18.833,84.46537583219366,80.42129275025188,-4.65,5.47,2.96,20.0,0.0,0.0,7.0,0.0,1.0,2.0,0.0,114.88,0.0,
18.857,84.57753758321937,80.41112927502519,-2.57,3.7,1.72,22.0,0.0,0.0,8.0,0.0,2.0,2.0,0.0,115.07,0.0,
18.881,84.73275375832193,80.46411292750253,-2.78,4.33,2.11,24.0,0.0,0.0,8.0,0.0,2.0,2.0,0.0,114.48,0.0,
18.906,84.90127537583218,80.73941129275025,-3.06,3.96,2.74,25.0,0.0,0.0,9.0,0.0,2.0,2.0,0.0,113.5,0.0,
18.93,85.02612753758322,80.73094112927504,-3.2,3.12,2.21,26.0,0.0,0.0,9.0,0.0,2.0,2.0,0.0,110.85,0.0,
18.954,85.20061275375832,80.6400941129275,-2.09,1.28,1.76,27.0,0.0,0.0,9.0,0.0,2.0,2.0,0.0,112.03,0.0,
18.978,85.25406127537585,80.68500941129274,-2.73,0.57,1.05,27.0,0.0,0.0,10.0,0.0,2.0,2.0,0.0,111.44,0.0,
19.003,85.32240612753758,80.66250094112927,-2.33,0.6,0.79,28.0,0.0,0.0,10.0,0.0,2.0,2.0,0.0,110.46,0.0,
19.027,85.41924061275377,80.66925009411294,-1.11,0.12,0.36,28.0,0.0,0.0,10.0,0.0,2.0,2.0,0.0,108.6,0.0,
19.051,85.54592406127539,80.7509250094113,-1.06,-0.49,0.08,28.0,0.0,0.0,11.0,0.0,2.0,2.0,0.0,106.93,0.0,
19.076,85.63059240612755,80.84909250094113,-1.31,-1.42,0.45,28.0,0.0,0.0,11.0,0.0,2.0,2.0,0.0,107.22,0.0,
19.1,85.63005924061275,80.86790925009412,-1.24,-2.4,1.04,28.0,0.0,0.0,11.0,0.0,2.0,2.0,0.0,108.11,0.0,
19.125,85.60300592406126,80.93279092500941,-1.66,-1.44,0.55,30.0,0.0,0.0,11.0,0.0,2.0,2.0,0.0,105.56,0.0,
19.149,85.60030059240611,80.96627909250094,-2.17,-1.02,0.02,30.0,0.0,0.0,11.0,0.0,2.0,2.0,0.0,106.73,0.0,
19.174,85.63603005924062,80.9786279092501,-1.72,-1.49,-0.04,30.0,0.0,0.0,11.0,0.0,2.0,2.0,0.0,106.24,0.0,
19.198,85.63060300592406,80.99786279092501,-1.71,-2.62,0.64,30.0,0.0,0.0,11.0,0.0,2.0,2.0,0.0,106.83,0.0,
19.223,85.6210603005924,81.04478627909249,-2.18,-2.65,0.26,30.0,0.0,0.0,11.0,0.0,2.0,2.0,0.0,106.44,0.0,
19.247,85.58410603005925,81.01347862790925,-2.13,-1.11,0.25,30.0,0.0,0.0,11.0,0.0,2.0,2.0,0.0,107.03,0.0,
19.271,85.57141060300592,81.07334786279091,-1.26,-1.32,0.6,28.0,0.0,0.0,11.0,0.0,2.0,2.0,0.0,106.83,0.0,
19.296,85.65114106030059,81.10633478627909,-1.73,-1.25,0.58,28.0,0.0,0.0,11.0,0.0,2.0,2.0,0.0,106.24,0.0,
19.32,85.62311410603006,81.1546334786279,-2.02,-1.52,0.95,28.0,0.0,0.0,10.0,0.0,2.0,2.0,0.0,105.85,0.0,
19.345,85.66531141060301,81.1774633478628,-2.1,-1.65,0.74,28.0,0.0,0.0,10.0,0.0,2.0,2.0,0.0,107.81,0.0,
19.369,85.57953114106029,81.24274633478628,-2.13,-1.59,0.59,28.0,0.0,0.0,10.0,0.0,2.0,2.0,0.0,108.2,0.0,
19.394,85.55295311410603,81.23127463347862,-1.95,-0.98,0.18,27.0,0.0,0.0,10.0,0.0,2.0,2.0,0.0,105.16,0.39,
19.418,85.60429531141061,81.28412746334786,-1.47,-0.8,0.5,27.0,0.0,0.0,10.0,0.0,2.0,2.0,0.0,104.48,0.0,
19.442,85.65442953114105,81.29841274633479,-1.37,-1.17,0.35,27.0,0.0,0.0,10.0,0.0,2.0,2.0,0.0,105.65,0.0,
19.467,85.66844295311411,81.36284127463348,-2.05,-1.37,0.56,26.0,0.0,0.0,10.0,0.0,1.0,2.0,0.0,106.34,0.1,
19.491,85.6338442953114,81.36928412746335,-2.3,-1.39,0.41,26.0,0.0,0.0,10.0,0.0,1.0,1.0,0.0,106.24,0.0,
19.516,85.61238442953115,81.38792841274633,-2.68,-2.02,0.71,26.0,0.0,0.0,9.0,0.0,1.0,1.0,0.0,105.56,0.0,
19.54,85.59223844295312,81.33579284127464,-4.0,-1.46,0.02,26.0,0.0,0.0,9.0,0.0,1.0,1.0,0.0,104.48,0.0,
19.564,85.54522384429532,81.35757928412747,-3.86,-1.73,0.05,26.0,0.0,0.0,10.0,0.0,1.0,2.0,0.0,102.91,0.0,
19.589,85.60352238442954,81.34175792841275,-3.74,-1.85,0.02,26.0,0.0,0.0,10.0,0.0,1.0,2.0,0.0,100.94,0.0,
19.613,85.60035223844295,81.35817579284128,-4.05,-2.05,-0.02,25.0,0.0,0.0,10.0,0.0,2.0,2.0,0.0,102.42,0.0,
19.638,85.5460352238443,81.34181757928413,-3.99,-1.88,0.36,25.0,0.0,0.0,10.0,0.0,2.0,2.0,0.0,105.26,0.0,
19.662,85.57660352238443,81.32218175792842,-4.72,-1.98,0.56,25.0,0.0,0.0,10.0,0.0,2.0,2.0,0.0,105.65,0.0,
19.687,85.55266035223845,81.24821817579284,-4.1,-1.88,0.49,26.0,0.0,0.0,9.0,0.0,2.0,2.0,0.0,105.56,0.0,
19.712,85.50526603522384,80.9978218175793,-3.94,-3.12,0.84,25.0,0.0,0.0,9.0,0.0,2.0,2.0,0.0,104.77,0.0,
19.735,85.58152660352239,81.03578218175794,-4.4,-2.63,1.0,28.0,0.0,0.0,9.0,0.0,2.0,2.0,0.0,103.4,0.0,
19.76,85.80515266035223,80.2565782181758,-3.12,-4.74,2.77,25.0,0.0,0.0,10.0,0.0,2.0,2.0,0.0,103.0,0.0,
19.784,85.76451526603523,80.30465782181759,-5.2,-0.85,-0.02,28.0,0.0,0.0,10.0,0.0,2.0,2.0,0.0,103.3,0.0,
19.809,85.71545152660352,80.36346578218178,-5.46,-0.5,-0.32,26.0,0.0,0.0,9.0,0.0,2.0,2.0,0.0,101.93,0.0,
19.833,85.70154515266036,80.45034657821817,-4.75,-0.83,0.0,26.0,0.0,0.0,10.0,0.0,2.0,2.0,0.0,101.53,0.0,
19.858,85.69115451526604,80.54003465782182,-4.39,-1.76,0.57,26.0,0.0,0.0,10.0,0.0,2.0,2.0,0.0,101.63,0.0,
19.881,85.6631154515266,80.64800346578218,-4.91,-1.56,0.52,26.0,0.0,0.0,10.0,0.0,2.0,2.0,0.0,102.02,0.0,
19.906,85.66931154515267,80.77580034657822,-3.05,0.29,2.51,26.0,0.0,0.0,10.0,0.0,2.0,2.0,0.0,102.22,0.0,
19.931,85.72393115451527,80.92358003465782,-3.69,-1.47,0.21,26.0,0.0,0.0,10.0,0.0,2.0,2.0,0.0,103.89,0.0,
19.955,85.68439311545154,80.97435800346578,-3.21,-1.59,0.38,26.0,0.0,0.0,10.0,0.0,2.0,2.0,0.0,105.46,0.0,
19.98,85.65343931154516,80.94343580034658,-3.21,-2.23,0.53,26.0,0.0,0.0,10.0,0.0,2.0,2.0,0.0,105.85,0.0,
20.004,85.59634393115452,80.91334358003466,-3.6,-1.67,0.15,26.0,0.0,0.0,10.0,0.0,2.0,2.0,0.0,105.16,0.0,
20.029,85.59963439311544,80.92833435800347,-2.85,-1.38,-0.05,26.0,0.0,0.0,10.0,0.0,2.0,2.0,0.0,104.28,0.0,
20.054,85.59996343931154,80.91183343580035,-2.24,-1.82,0.11,26.0,0.0,0.0,10.0,0.0,2.0,2.0,0.0,105.07,0.29,
20.077,85.58199634393115,80.92818334358003,-2.5,-2.21,0.59,25.0,0.0,0.0,10.0,0.0,2.0,2.0,0.0,105.46,0.29,
20.102,85.49919963439312,80.95681833435799,-2.87,-1.63,0.21,25.0,0.0,0.0,10.0,0.0,2.0,2.0,0.0,105.95,0.0,
20.126,85.48191996343931,81.0046818334358,-2.68,-1.32,-0.26,25.0,0.0,0.0,10.0,0.0,2.0,2.0,0.0,105.36,0.39,
20.151,85.48919199634393,81.06346818334357,-2.4,-1.62,0.15,25.0,0.0,0.0,9.0,0.0,2.0,2.0,0.0,104.97,0.2,
20.175,85.4539191996344,81.09634681833435,-2.39,-1.7,0.09,25.0,0.0,0.0,9.0,0.0,2.0,2.0,0.0,105.95,0.0,
20.2,85.43239191996345,81.09063468183345,-1.89,-2.17,0.06,25.0,0.0,0.0,9.0,0.0,2.0,2.0,0.0,107.91,0.0,
20.225,85.40323919199636,81.04506346818334,-1.76,-2.1,0.6,25.0,0.0,0.0,9.0,0.0,2.0,2.0,0.0,107.52,0.1,
20.248,85.37332391919965,81.05850634681835,-2.06,-1.97,0.66,24.0,0.0,0.0,9.0,0.0,2.0,2.0,0.0,106.83,0.39,
20.273,85.36133239191996,81.10485063468182,-2.27,-1.93,0.15,25.0,0.0,0.0,9.0,0.0,2.0,2.0,0.0,107.03,0.88,
20.297,85.306133239192,81.09148506346818,-2.22,-1.95,0.13,24.0,0.0,0.0,8.0,0.0,2.0,2.0,0.0,106.34,0.49,
20.322,85.29161332391921,81.11714850634682,-1.73,-1.79,-0.01,26.0,0.0,0.0,8.0,0.0,2.0,1.0,0.0,102.71,0.29,
20.346,85.24516133239192,81.13771485063468,-2.6,-1.47,-0.08,23.0,0.0,0.0,8.0,0.0,2.0,1.0,0.0,98.59,0.69,
20.37,85.21351613323918,81.11277148506346,-3.08,-1.36,-0.27,24.0,0.0,0.0,8.0,0.0,2.0,2.0,0.0,98.0,1.08,
20.395,85.21935161332392,81.09227714850635,-2.89,-1.38,-0.17,23.0,0.0,0.0,8.0,0.0,2.0,1.0,0.0,97.51,1.08,
20.419,85.2199351613324,81.11722771485064,-2.89,-1.18,-0.18,23.0,0.0,0.0,8.0,0.0,2.0,1.0,0.0,99.57,0.49,
20.444,85.26499351613323,81.14672277148507,-2.67,-1.34,-0.27,23.0,0.0,0.0,8.0,0.0,2.0,1.0,0.0,99.57,0.39,
20.467,85.25149935161333,81.2036722771485,-2.73,-1.2,0.11,23.0,0.0,0.0,8.0,0.0,2.0,1.0,0.0,99.38,0.39,
20.492,85.25914993516135,81.21836722771485,-2.55,-0.88,0.19,23.0,0.0,0.0,8.0,0.0,2.0,1.0,0.0,98.79,0.0,
20.516,85.29591499351613,81.25583672277148,-3.06,-0.34,-0.12,23.0,0.0,0.0,8.0,0.0,2.0,1.0,0.0,98.88,0.0,
20.541,85.31759149935161,81.23258367227714,-3.25,-0.58,0.08,24.0,0.0,0.0,8.0,0.0,2.0,2.0,0.0,98.98,0.0,
20.564,85.32875914993515,81.24825836722772,-3.18,-0.69,0.06,23.0,0.0,0.0,8.0,0.0,2.0,2.0,0.0,99.28,0.0,
20.589,85.38387591499351,81.30382583672278,-3.34,-0.27,-0.15,24.0,0.0,0.0,8.0,0.0,2.0,2.0,0.0,99.38,0.0,
20.614,85.36238759149934,81.31838258367227,-4.07,0.24,-0.06,23.0,0.0,0.0,8.0,0.0,2.0,2.0,0.0,100.06,0.0,
20.638,85.41423875914994,81.28383825836723,-4.59,0.93,-0.3,24.0,0.0,0.0,9.0,0.0,2.0,2.0,0.0,101.14,0.0,
20.662,85.48242387591499,81.25338382583672,-4.57,1.02,-0.37,23.0,0.0,0.0,9.0,0.0,2.0,2.0,0.0,101.53,0.29,
20.686,85.5522423875915,81.22333838258368,-5.27,0.85,-0.34,25.0,0.0,0.0,9.0,0.0,2.0,2.0,0.0,100.94,1.57,
20.711,85.53222423875916,81.17533383825837,-3.78,0.6,-0.42,26.0,0.0,0.0,9.0,0.0,2.0,2.0,0.0,100.65,0.98,
20.736,85.57522242387591,81.11653338382582,-3.14,-0.65,-0.06,25.0,0.0,0.0,9.0,0.0,2.0,2.0,0.0,100.94,0.2,
20.76,85.6065222423876,81.10165333838258,-3.37,-0.89,0.12,25.0,0.0,0.0,9.0,0.0,2.0,2.0,0.0,101.34,0.2,
20.784,85.60965222423877,81.03716533383826,-3.7,-1.06,-0.27,26.0,0.0,0.0,9.0,0.0,2.0,2.0,0.0,103.2,0.39,
20.808,85.62796522242387,81.01271653338384,-2.69,-1.65,-0.19,25.0,0.0,0.0,9.0,0.0,2.0,2.0,0.0,103.59,0.59,
20.833,85.60279652224237,81.06427165333838,-2.66,-2.07,-0.19,25.0,0.0,0.0,9.0,0.0,2.0,2.0,0.0,102.61,0.49,
20.857,85.61827965222425,81.06942716533383,-2.69,-2.46,-0.15,25.0,0.0,0.0,9.0,0.0,2.0,2.0,0.0,102.51,0.0,
20.882,85.60182796522241,81.06094271653339,-2.69,-2.02,0.01,25.0,0.0,0.0,9.0,0.0,2.0,2.0,0.0,99.57,0.1,
20.907,85.57318279652223,81.03309427165334,-2.27,-2.71,-0.02,25.0,0.0,0.0,9.0,0.0,2.0,2.0,0.0,99.47,0.49,
20.93,85.59731827965221,81.04830942716532,-2.1,-4.0,0.62,25.0,0.0,0.0,9.0,0.0,2.0,2.0,0.0,98.98,0.69,
20.955,85.62673182796522,81.08583094271654,-3.02,-5.66,0.84,25.0,0.0,0.0,9.0,0.0,2.0,2.0,0.0,97.81,0.49,
20.979,85.45867318279652,81.08058309427165,-2.52,-4.24,-0.09,25.0,0.0,0.0,8.0,0.0,2.0,2.0,0.0,97.51,0.2,
21.004,85.39686731827965,81.12505830942716,-1.59,-2.67,-0.16,24.0,0.0,0.0,8.0,0.0,2.0,1.0,0.0,97.32,0.29,
21.027,85.38168673182795,81.1295058309427,-0.85,-2.4,-0.05,23.0,0.0,0.0,8.0,0.0,2.0,1.0,0.0,96.73,0.59,
21.052,85.3531686731828,81.15695058309427,-0.76,-2.85,0.51,23.0,0.0,0.0,8.0,0.0,2.0,1.0,0.0,97.61,1.28,
21.076,85.33231686731827,81.23169505830943,-0.94,-3.4,0.55,24.0,0.0,0.0,8.0,0.0,1.0,1.0,0.0,98.1,1.96,
21.101,85.23123168673183,81.31116950583095,-1.4,-2.47,0.22,22.0,0.0,0.0,8.0,0.0,1.0,1.0,0.0,97.12,1.57,
21.125,85.17612316867319,81.3911169505831,-1.43,-1.69,0.35,22.0,0.0,0.0,7.0,0.0,1.0,1.0,0.0,96.53,0.98,
21.149,85.20661231686731,81.43511169505831,-1.33,-1.31,0.44,21.0,0.0,0.0,7.0,0.0,1.0,1.0,0.0,97.12,0.78,
21.174,85.17366123168674,81.50251116950584,-2.26,-0.49,0.31,21.0,0.0,0.0,7.0,0.0,1.0,1.0,0.0,97.32,1.57,
21.197,85.16136612316868,81.42825111695059,-2.85,-0.02,0.24,21.0,0.0,0.0,7.0,0.0,1.0,1.0,0.0,97.41,1.77,
21.222,85.15113661231688,81.46582511169507,-2.51,-0.05,0.4,21.0,0.0,0.0,7.0,0.0,1.0,1.0,0.0,97.02,1.37,
21.246,85.14111366123169,81.4875825111695,-2.82,-0.47,0.34,21.0,0.0,0.0,7.0,0.0,1.0,1.0,0.0,97.32,0.69,
21.271,85.16711136612318,81.54375825111694,-3.13,-0.37,-0.12,21.0,0.0,0.0,7.0,0.0,1.0,1.0,0.0,97.22,0.59,
21.295,85.18771113661232,81.59437582511168,-2.59,-0.62,0.34,21.0,0.0,0.0,7.0,0.0,1.0,1.0,0.0,97.12,0.0,
21.319,85.20777111366122,81.68043758251116,-3.21,-0.57,0.37,21.0,0.0,0.0,7.0,0.0,1.0,1.0,0.0,97.12,0.0,
21.344,85.20977711136611,81.66204375825112,-3.6,-0.27,0.13,21.0,0.0,0.0,7.0,0.0,1.0,1.0,0.0,98.0,0.29,
21.367,85.2099777111366,81.58820437582511,-3.31,-0.37,0.31,21.0,0.0,0.0,7.0,0.0,1.0,1.0,0.0,98.49,0.39,
21.392,85.27299777111367,81.51782043758251,-3.04,-0.39,0.25,20.0,0.0,0.0,7.0,0.0,1.0,1.0,0.0,98.59,0.69,
21.416,85.29729977711136,81.51978204375824,-3.05,-0.22,0.03,21.0,0.0,0.0,7.0,0.0,1.0,1.0,0.0,98.59,0.59,
21.441,85.37172997771114,81.51997820437582,-3.14,-0.47,0.27,21.0,0.0,0.0,7.0,0.0,1.0,1.0,0.0,98.49,0.0,
21.465,85.37917299777111,81.5109978204376,-2.79,-0.71,0.33,21.0,0.0,0.0,7.0,0.0,1.0,1.0,0.0,99.38,0.0,
21.489,85.4159172997771,81.53709978204377,-2.92,-1.28,0.02,21.0,0.0,0.0,8.0,0.0,1.0,1.0,0.0,99.28,0.0,
21.514,85.39259172997771,81.59370997820437,-3.09,-1.02,-0.19,21.0,0.0,0.0,7.0,0.0,1.0,1.0,0.0,99.28,0.0,
21.537,85.39025917299777,81.60837099782043,-3.08,-1.15,0.01,21.0,0.0,0.0,7.0,0.0,1.0,1.0,0.0,98.98,0.0,
21.562,85.47102591729978,81.58283709978204,-2.86,-1.38,-0.01,21.0,0.0,0.0,8.0,0.0,1.0,1.0,0.0,98.88,0.0,
21.586,85.48810259172998,81.6072837099782,-3.31,-0.81,0.21,21.0,0.0,0.0,8.0,0.0,1.0,1.0,0.0,98.79,0.0,
21.611,85.489810259173,81.60072837099781,-3.34,-0.69,0.01,21.0,0.0,0.0,8.0,0.0,1.0,1.0,0.0,98.79,0.0,
21.635,85.4629810259173,81.54607283709979,-2.97,-0.99,-0.2,21.0,0.0,0.0,8.0,0.0,1.0,1.0,0.0,98.69,0.0,
21.659,85.45129810259174,81.54060728370999,-2.87,-1.07,-0.32,22.0,0.0,0.0,8.0,0.0,1.0,1.0,0.0,97.22,0.0,
21.684,85.50412981025917,81.540060728371,-3.46,-1.02,0.11,22.0,0.0,0.0,8.0,0.0,1.0,1.0,0.0,95.06,1.57,
21.708,85.50941298102592,81.54000607283712,-4.07,-1.02,-0.23,22.0,0.0,0.0,8.0,0.0,1.0,1.0,0.0,95.65,1.86,
21.732,85.48294129810259,81.5490006072837,-4.08,-0.95,-0.2,22.0,0.0,0.0,8.0,0.0,1.0,1.0,0.0,95.35,1.47,
21.756,85.48929412981026,81.50490006072837,-3.92,-1.38,-0.2,22.0,0.0,0.0,8.0,0.0,1.0,1.0,0.0,94.57,0.69,
21.781,85.54392941298103,81.54549000607284,-3.66,-1.46,0.15,23.0,0.0,0.0,8.0,0.0,1.0,1.0,0.0,94.86,0.88,
21.806,85.50439294129811,81.54954900060727,-4.04,-1.24,-0.18,23.0,0.0,0.0,8.0,0.0,1.0,1.0,0.0,95.16,0.69,
21.829,85.4914392941298,81.47795490006074,-4.23,-1.21,-0.13,23.0,0.0,0.0,8.0,0.0,1.0,1.0,0.0,95.06,0.49,
21.854,85.51714392941298,81.48879549000607,-4.2,-1.56,0.05,23.0,0.0,0.0,8.0,0.0,2.0,1.0,0.0,94.86,0.49,
21.878,85.5287143929413,81.4628795490006,-4.6,-1.48,-0.04,23.0,0.0,0.0,8.0,0.0,2.0,1.0,0.0,94.18,0.29,
21.903,85.56587143929411,81.45128795490007,-4.26,-1.02,0.01,23.0,0.0,0.0,8.0,0.0,2.0,1.0,0.0,94.08,0.1,
21.926,85.57858714392941,81.46812879549002,-4.15,-1.02,0.05,23.0,0.0,0.0,8.0,0.0,2.0,1.0,0.0,93.98,0.0,
21.951,85.56185871439294,81.50581287954901,-3.98,-1.35,-0.12,23.0,0.0,0.0,8.0,0.0,2.0,1.0,0.0,93.78,0.29,
21.976,85.5781858714393,81.4825812879549,-3.63,-1.5,0.56,24.0,0.0,0.0,8.0,0.0,2.0,1.0,0.0,93.39,0.59,
22.0,85.56181858714393,81.4532581287955,-3.65,-1.62,0.28,24.0,0.0,0.0,9.0,0.0,2.0,1.0,0.0,93.19,0.69,
22.024,85.5151818587144,81.44132581287955,-3.78,-1.24,-0.01,24.0,0.0,0.0,9.0,0.0,2.0,1.0,0.0,92.7,0.1,
22.048,85.51951818587145,81.39513258128795,-2.87,-1.37,-0.08,23.0,0.0,0.0,9.0,0.0,2.0,1.0,0.0,93.78,0.0,
22.073,85.54695181858715,81.38151325812879,-2.77,-1.67,-0.07,24.0,0.0,0.0,9.0,0.0,2.0,1.0,0.0,94.76,0.29,
22.097,85.49569518185872,81.37115132581289,-2.77,-1.79,0.14,23.0,0.0,0.0,9.0,0.0,2.0,1.0,0.0,94.86,0.39,
22.121,85.46356951818588,81.43311513258129,-3.27,-2.18,0.21,24.0,0.0,0.0,9.0,0.0,2.0,1.0,0.0,94.47,0.0,
22.146,85.44235695181858,81.42131151325813,-3.65,-1.62,0.06,24.0,0.0,0.0,9.0,0.0,2.0,1.0,0.0,93.88,0.0,
22.17,85.47623569518186,81.38413115132582,-3.3,-1.52,0.07,24.0,0.0,0.0,9.0,0.0,2.0,1.0,0.0,93.78,0.0,
22.194,85.50662356951818,81.35341311513258,-3.26,-1.76,0.23,24.0,0.0,0.0,9.0,0.0,2.0,1.0,0.0,92.9,0.39,
22.218,85.52766235695182,81.37734131151326,-3.01,-1.73,0.17,24.0,0.0,0.0,9.0,0.0,2.0,1.0,0.0,92.31,0.2,
22.243,85.48476623569519,81.33473413115132,-2.91,-1.89,0.62,24.0,0.0,0.0,9.0,0.0,2.0,1.0,0.0,92.51,0.1,
22.266,85.41747662356951,81.30347341311513,-2.83,-2.12,0.6,24.0,0.0,0.0,9.0,0.0,2.0,1.0,0.0,91.33,0.0,
22.291,85.41974766235695,81.2733473413115,-2.2,-2.1,0.14,24.0,0.0,0.0,9.0,0.0,2.0,1.0,0.0,90.35,0.39,
22.316,85.4199747662357,81.30633473413116,-2.07,-1.89,0.08,24.0,0.0,0.0,8.0,0.0,2.0,1.0,0.0,89.37,0.59,
22.34,85.39299747662356,81.36363347341312,-2.54,-1.66,0.11,24.0,0.0,0.0,8.0,0.0,1.0,1.0,0.0,89.17,0.49,
22.364,85.39929974766237,81.38736334734132,-2.69,-1.89,-0.01,24.0,0.0,0.0,8.0,0.0,1.0,1.0,0.0,89.57,0.39,
22.388,85.38192997476624,81.38073633473414,-3.12,-1.55,-0.14,24.0,0.0,0.0,8.0,0.0,1.0,1.0,0.0,89.37,0.49,
22.413,85.36219299747663,81.34407363347341,-3.29,-1.69,-0.12,24.0,0.0,0.0,8.0,0.0,1.0,1.0,0.0,88.49,0.59,
22.437,85.30621929974765,81.30440736334734,-2.95,-1.75,-0.19,23.0,0.0,0.0,8.0,0.0,1.0,1.0,0.0,90.06,0.39,
22.461,85.31862192997477,81.34544073633474,-3.04,-1.78,-0.18,24.0,0.0,0.0,8.0,0.0,1.0,1.0,0.0,89.76,0.0,
22.486,85.29286219299749,81.41254407363348,-3.22,-1.52,0.18,24.0,0.0,0.0,8.0,0.0,1.0,1.0,0.0,89.37,0.0,
22.51,85.29928621929974,81.44625440736336,-3.39,-1.11,-0.28,24.0,0.0,0.0,8.0,0.0,1.0,1.0,0.0,89.76,0.0,
22.535,85.29992862192996,81.40462544073634,-3.08,-1.07,0.02,24.0,0.0,0.0,8.0,0.0,1.0,1.0,0.0,89.66,0.29,
22.559,85.299992862193,81.43646254407363,-2.98,-1.47,0.07,24.0,0.0,0.0,8.0,0.0,1.0,1.0,0.0,89.47,0.0,
22.583,85.2909992862193,81.40364625440736,-3.18,-1.55,-0.25,24.0,0.0,0.0,8.0,0.0,1.0,1.0,0.0,88.39,0.0,
22.607,85.29009992862194,81.40036462544074,-3.31,-1.36,-0.02,24.0,0.0,0.0,8.0,0.0,1.0,1.0,0.0,88.68,0.0,
22.632,85.28100999286221,81.42703646254408,-3.24,-1.34,-0.31,24.0,0.0,0.0,8.0,0.0,1.0,1.0,0.0,88.58,0.29,
22.657,85.29810099928622,81.39370364625441,-3.52,-1.56,-0.08,24.0,0.0,0.0,8.0,0.0,2.0,1.0,0.0,87.51,0.59,
22.68,85.29081009992863,81.34537036462544,-3.66,-1.65,0.12,24.0,0.0,0.0,8.0,0.0,2.0,1.0,0.0,87.41,0.49,
22.705,85.24508100999286,81.32253703646255,-3.5,-1.55,0.18,23.0,0.0,0.0,8.0,0.0,2.0,1.0,0.0,87.21,0.2,
22.729,85.24050810099928,81.31125370364626,-3.59,-1.11,-0.02,25.0,0.0,0.0,8.0,0.0,2.0,1.0,0.0,88.19,0.0,
22.754,85.31205081009992,81.29212537036463,-3.81,-1.03,-0.27,26.0,0.0,0.0,9.0,0.0,2.0,1.0,0.0,88.88,0.29,
22.777,85.30120508100998,81.27221253703647,-3.6,-0.71,-0.11,25.0,0.0,0.0,9.0,0.0,2.0,1.0,0.0,88.98,0.0,
22.802,85.255120508101,81.26122125370364,-3.59,-0.84,0.2,26.0,0.0,0.0,9.0,0.0,2.0,1.0,0.0,89.17,0.0,
22.827,85.2775120508101,81.24212212537036,-3.53,-0.95,0.08,25.0,0.0,0.0,9.0,0.0,2.0,1.0,0.0,89.07,0.0,
22.851,85.27975120508101,81.27621221253703,-3.58,-0.92,0.34,25.0,0.0,0.0,9.0,0.0,2.0,1.0,0.0,88.49,0.2,
22.875,85.27997512050811,81.2706212212537,-3.19,-1.08,0.02,25.0,0.0,0.0,9.0,0.0,2.0,1.0,0.0,88.39,0.0,
22.899,85.24399751205081,81.25206212212537,-3.34,-1.09,-0.18,25.0,0.0,0.0,9.0,0.0,2.0,1.0,0.0,88.58,0.0,
22.924,85.26739975120508,81.21420621221253,-2.71,-1.36,-0.18,25.0,0.0,0.0,9.0,0.0,2.0,1.0,0.0,88.19,0.0,
22.947,85.2697399751205,81.20142062122125,-2.57,-1.59,-0.08,25.0,0.0,0.0,9.0,0.0,2.0,1.0,0.0,88.19,0.0,
22.972,85.29697399751204,81.27214206212213,-3.16,-1.44,-0.08,25.0,0.0,0.0,9.0,0.0,2.0,1.0,0.0,88.19,0.49,
22.996,85.30869739975121,81.25221420621222,-3.31,-1.53,-0.14,25.0,0.0,0.0,9.0,0.0,2.0,1.0,0.0,88.0,0.69,
23.021,85.30086973997511,81.27722142062122,-2.82,-1.29,-0.05,25.0,0.0,0.0,9.0,0.0,2.0,1.0,0.0,88.19,0.69,
23.046,85.30008697399751,81.26172214206213,-2.89,-1.56,-0.22,25.0,0.0,0.0,9.0,0.0,2.0,1.0,0.0,88.19,0.49,
23.069,85.26400869739976,81.2331722142062,-2.37,-1.31,-0.02,25.0,0.0,0.0,9.0,0.0,2.0,1.0,0.0,88.68,0.39,
23.094,85.19740086973998,81.25731722142062,-1.84,-1.63,0.05,25.0,0.0,0.0,9.0,0.0,1.0,1.0,0.0,88.58,0.98,
23.118,85.20874008697399,81.25973172214206,-2.44,-1.36,-0.28,25.0,0.0,0.0,9.0,0.0,1.0,1.0,0.0,88.19,1.37,
23.143,85.25487400869741,81.3229731722142,-2.16,-1.71,-0.08,24.0,0.0,0.0,8.0,0.0,1.0,1.0,0.0,88.68,0.1,
23.168,85.24148740086973,81.32929731722142,-2.96,-1.86,-0.07,25.0,0.0,0.0,8.0,0.0,1.0,1.0,0.0,88.0,0.0,
23.191,85.24914874008698,81.32992973172215,-2.94,-1.46,0.04,25.0,0.0,0.0,8.0,0.0,1.0,1.0,0.0,87.6,0.0,
23.216,85.22291487400871,81.34799297317221,-2.93,-1.66,-0.05,25.0,0.0,0.0,8.0,0.0,1.0,1.0,0.0,88.19,0.0,
23.24,85.19329148740087,81.37679929731722,-3.21,-1.24,-0.31,25.0,0.0,0.0,9.0,0.0,1.0,1.0,0.0,88.0,0.0,
23.265,85.19032914874009,81.39767992973172,-3.1,-1.11,-0.02,25.0,0.0,0.0,8.0,0.0,1.0,1.0,0.0,88.19,0.0,
23.288,85.16303291487401,81.39976799297318,-3.44,-1.12,-0.16,25.0,0.0,0.0,8.0,0.0,1.0,1.0,0.0,88.29,0.0,
23.313,85.17830329148741,81.33697679929732,-3.63,-1.35,0.03,25.0,0.0,0.0,8.0,0.0,1.0,1.0,0.0,87.8,0.0,
23.337,85.16183032914874,81.31269767992973,-3.8,-1.11,-0.09,25.0,0.0,0.0,9.0,0.0,2.0,1.0,0.0,87.9,0.1,
23.362,85.21418303291487,81.33726976799298,-3.31,-1.13,-0.18,25.0,0.0,0.0,9.0,0.0,2.0,1.0,0.0,87.8,0.0,
23.386,85.20141830329149,81.4027269767993,-3.38,-1.55,-0.01,25.0,0.0,0.0,9.0,0.0,2.0,1.0,0.0,87.8,0.0,
23.41,85.18214183032916,81.44527269767994,-3.56,-1.33,-0.08,25.0,0.0,0.0,9.0,0.0,2.0,1.0,0.0,87.8,0.0,
23.435,85.16221418303292,81.449527269768,-3.53,-1.31,-0.08,25.0,0.0,0.0,9.0,0.0,2.0,1.0,0.0,87.7,0.2,
23.459,85.1872214183033,81.4499527269768,-3.13,-1.48,-0.31,24.0,0.0,0.0,9.0,0.0,2.0,1.0,0.0,87.31,0.69,
23.484,85.19872214183033,81.45899527269768,-3.04,-1.85,-0.23,25.0,0.0,0.0,9.0,0.0,2.0,1.0,0.0,87.6,0.49,
23.507,85.11887221418303,81.45089952726977,-3.09,-1.82,-0.37,25.0,0.0,0.0,9.0,0.0,2.0,1.0,0.0,87.6,0.1,
23.532,85.13788722141831,81.40508995272698,-2.89,-1.49,-0.18,25.0,0.0,0.0,9.0,0.0,2.0,1.0,0.0,87.7,0.2,
23.557,85.10378872214183,81.4005089952727,-2.89,-1.7,0.0,28.0,0.0,0.0,9.0,0.0,2.0,1.0,0.0,87.21,0.0,
23.581,85.06437887221418,81.36405089952727,-3.12,-1.41,-0.1,25.0,0.0,0.0,9.0,0.0,2.0,1.0,0.0,87.51,0.0,
23.605,85.07843788722141,81.37840508995274,-2.96,-1.22,0.03,25.0,0.0,0.0,9.0,0.0,2.0,1.0,0.0,87.51,0.0,
23.629,85.09784378872214,81.37984050899527,-2.7,-1.34,0.02,25.0,0.0,0.0,9.0,0.0,2.0,1.0,0.0,87.6,0.49,
23.654,85.11778437887222,81.39798405089954,-2.79,-1.42,0.0,26.0,0.0,0.0,9.0,0.0,2.0,1.0,0.0,87.9,1.08,
23.677,85.11977843788722,81.37279840508995,-3.21,-1.3,0.37,25.0,0.0,0.0,9.0,0.0,2.0,1.0,0.0,87.7,0.2,
23.702,85.11997784378872,81.352279840509,-3.28,-1.36,0.15,25.0,0.0,0.0,9.0,0.0,2.0,1.0,0.0,87.8,0.0,
23.727,85.12899778437887,81.3502279840509,-3.21,-1.24,0.11,25.0,0.0,0.0,9.0,0.0,2.0,1.0,0.0,87.21,0.0,
23.751,85.19289977843789,81.3680227984051,-2.58,-1.78,0.15,25.0,0.0,0.0,9.0,0.0,2.0,1.0,0.0,87.11,0.0,
23.775,85.19928997784379,81.38780227984051,-2.8,-1.71,0.25,25.0,0.0,0.0,9.0,0.0,2.0,1.0,0.0,86.82,0.49,
23.799,85.16392899778438,81.40778022798406,-3.16,-1.42,0.01,25.0,0.0,0.0,9.0,0.0,2.0,1.0,0.0,86.62,0.78,
23.824,85.15139289977844,81.44577802279841,-3.2,-1.35,-0.4,25.0,0.0,0.0,9.0,0.0,2.0,1.0,0.0,86.72,0.59,
23.847,85.15913928997784,81.37757780227984,-2.63,-1.76,-0.11,28.0,0.0,0.0,9.0,0.0,2.0,1.0,0.0,86.62,0.1,
23.872,85.1509139289978,81.37075778022799,-2.67,-1.67,-0.14,26.0,0.0,0.0,9.0,0.0,2.0,1.0,0.0,87.01,0.1,
23.897,85.12309139289978,81.37907577802281,-2.69,-1.33,-0.05,25.0,0.0,0.0,8.0,0.0,2.0,1.0,0.0,87.8,0.59,
23.921,85.10230913928999,81.39790757780229,-2.52,-1.31,-0.21,25.0,0.0,0.0,8.0,0.0,2.0,1.0,0.0,88.09,0.0,
23.946,85.109230913929,81.43579075778024,-2.94,-1.57,-0.15,25.0,0.0,0.0,8.0,0.0,2.0,1.0,0.0,88.78,0.0,
23.969,85.1099230913929,81.39457907577803,-2.6,-1.29,0.02,26.0,0.0,0.0,8.0,0.0,2.0,1.0,0.0,88.58,0.0,
23.994,85.10099230913929,81.42645790757781,-2.66,-1.32,0.05,26.0,0.0,0.0,8.0,0.0,2.0,1.0,0.0,88.58,0.29,
24.018,85.13609923091393,81.44764579075779,-3.06,-1.5,0.02,25.0,0.0,0.0,8.0,0.0,1.0,1.0,0.0,88.78,0.2,
24.043,85.1306099230914,81.48576457907578,-3.17,-1.78,-0.15,25.0,0.0,0.0,8.0,0.0,1.0,1.0,0.0,88.88,0.0,
24.067,85.16606099230914,81.47157645790759,-3.15,-1.23,0.34,26.0,0.0,0.0,8.0,0.0,1.0,1.0,0.0,87.8,0.0,
24.091,85.18760609923092,81.47915764579076,-3.34,-1.39,0.09,26.0,0.0,0.0,8.0,0.0,1.0,1.0,0.0,87.6,0.2,
24.116,85.0997606099231,81.50691576457908,-3.76,-1.55,-0.06,26.0,0.0,0.0,8.0,0.0,2.0,1.0,0.0,87.51,0.39,
24.14,85.10897606099232,81.5186915764579,-3.76,-1.58,0.04,26.0,0.0,0.0,9.0,0.0,2.0,1.0,0.0,87.51,0.59,
24.164,85.09189760609924,81.57386915764579,-3.61,-1.53,-0.34,26.0,0.0,0.0,9.0,0.0,2.0,1.0,0.0,87.01,0.49,
24.188,85.11718976060993,81.52538691576457,-3.41,-1.69,-0.24,26.0,0.0,0.0,9.0,0.0,2.0,1.0,0.0,85.94,0.1,
24.213,85.119718976061,81.46653869157645,-3.31,-1.31,-0.33,26.0,0.0,0.0,9.0,0.0,2.0,1.0,0.0,85.05,0.39,
24.238,85.1289718976061,81.46065386915764,-3.56,-1.63,-0.06,24.0,0.0,0.0,9.0,0.0,2.0,1.0,0.0,84.66,0.49,
24.261,85.09389718976061,81.48706538691576,-3.59,-1.15,0.11,26.0,0.0,0.0,9.0,0.0,2.0,1.0,0.0,85.05,0.78,
24.286,85.05438971897607,81.46270653869156,-2.85,-1.58,0.18,26.0,0.0,0.0,9.0,0.0,2.0,1.0,0.0,85.45,0.78,
24.31,85.0234389718976,81.53227065386916,-3.02,-1.25,-0.04,26.0,0.0,0.0,9.0,0.0,2.0,1.0,0.0,86.13,0.39,
24.335,85.00234389718976,81.44922706538692,-3.45,-1.4,0.02,26.0,0.0,0.0,9.0,0.0,2.0,1.0,0.0,86.52,0.2,
24.358,84.96423438971897,81.4319227065387,-3.11,-1.4,-0.11,26.0,0.0,0.0,9.0,0.0,2.0,1.0,0.0,86.03,0.0,
24.383,85.0324234389719,81.43019227065388,-3.15,-1.59,-0.09,26.0,0.0,0.0,9.0,0.0,2.0,1.0,0.0,85.54,0.0,
24.408,85.07524234389719,81.38501922706538,-3.43,-1.4,-0.12,26.0,0.0,0.0,9.0,0.0,2.0,1.0,0.0,86.43,0.0,
24.432,85.05252423438972,81.38950192270654,-3.77,-1.28,0.18,26.0,0.0,0.0,9.0,0.0,2.0,1.0,0.0,87.01,0.1,
24.456,85.05925242343898,81.34495019227066,-3.69,-1.31,0.06,26.0,0.0,0.0,9.0,0.0,2.0,1.0,0.0,85.64,0.49,
24.48,85.0599252423439,81.35849501922706,-3.49,-1.53,-0.15,26.0,0.0,0.0,9.0,0.0,2.0,1.0,0.0,85.15,0.39,
24.505,85.03299252423439,81.33284950192271,-3.55,-1.53,-0.2,28.0,0.0,0.0,9.0,0.0,2.0,1.0,0.0,85.25,0.2,
24.529,85.02129925242343,81.31228495019226,-3.52,-1.56,0.08,26.0,0.0,0.0,9.0,0.0,2.0,1.0,0.0,85.54,0.1,
24.553,84.98412992524234,81.26522849501923,-3.69,-1.27,0.02,26.0,0.0,0.0,9.0,0.0,2.0,1.0,0.0,85.54,0.0,
24.578,84.98041299252424,81.26952284950193,-3.4,-1.27,-0.06,26.0,0.0,0.0,9.0,0.0,2.0,1.0,0.0,85.45,0.29,
24.602,84.97104129925242,81.26095228495019,-3.04,-1.32,0.05,26.0,0.0,0.0,9.0,0.0,2.0,1.0,0.0,85.84,0.69,
24.627,84.98810412992523,81.26909522849502,-3.05,-0.82,-0.28,26.0,0.0,0.0,9.0,0.0,2.0,1.0,0.0,85.54,0.59,
24.65,84.97181041299253,81.2249095228495,-3.07,-1.34,-0.07,26.0,0.0,0.0,9.0,0.0,2.0,1.0,0.0,84.95,0.29,
24.675,85.00618104129926,81.22949095228495,-3.26,-1.37,-0.26,26.0,0.0,0.0,9.0,0.0,2.0,1.0,0.0,85.84,0.59,
24.699,85.05461810412993,81.22994909522849,-3.07,-1.32,-0.09,26.0,0.0,0.0,9.0,0.0,2.0,1.0,0.0,86.23,0.0,
24.724,85.068461810413,81.29299490952285,-2.64,-1.54,-0.02,26.0,0.0,0.0,9.0,0.0,2.0,1.0,0.0,86.33,0.0,
24.749,85.0248461810413,81.27229949095228,-2.67,-1.63,-0.01,26.0,0.0,0.0,9.0,0.0,2.0,1.0,0.0,86.82,0.0,
24.772,85.06548461810414,81.28822994909522,-3.51,-0.95,0.0,26.0,0.0,0.0,9.0,0.0,2.0,1.0,0.0,86.82,0.29,
24.797,85.13254846181042,81.30782299490953,-3.24,-1.11,-0.22,26.0,0.0,0.0,9.0,0.0,2.0,1.0,0.0,87.01,0.49,
24.821,85.09425484618104,81.28278229949095,-3.34,-1.4,0.24,27.0,0.0,0.0,9.0,0.0,2.0,1.0,0.0,86.92,0.2,
24.846,85.0364254846181,81.30727822994909,-3.48,-1.4,0.11,26.0,0.0,0.0,9.0,0.0,2.0,1.0,0.0,87.01,0.1,
24.869,85.04864254846181,81.34572782299492,-3.64,-1.37,0.01,27.0,0.0,0.0,9.0,0.0,2.0,1.0,0.0,86.82,0.0,
24.894,85.04086425484618,81.35857278229949,-3.36,-1.37,0.21,26.0,0.0,0.0,9.0,0.0,2.0,1.0,0.0,87.6,0.0,
24.919,85.02208642548462,81.35085727822995,-3.13,-1.45,0.22,27.0,0.0,0.0,9.0,0.0,2.0,1.0,0.0,87.11,0.49,
24.942,85.03820864254845,81.350085727823,-3.03,-1.44,-0.14,26.0,0.0,0.0,9.0,0.0,2.0,1.0,0.0,86.33,0.78,
24.967,84.99482086425485,81.2960085727823,-3.21,-0.99,0.14,27.0,0.0,0.0,9.0,0.0,2.0,1.0,0.0,86.62,0.49,
24.991,84.98148208642549,81.24560085727823,-3.21,-0.96,-0.06,27.0,0.0,0.0,9.0,0.0,2.0,1.0,0.0,86.52,0.1,
25.016,85.03414820864255,81.23156008572782,-3.18,-1.22,0.03,27.0,0.0,0.0,9.0,0.0,2.0,1.0,0.0,86.03,0.2,
25.039,85.03941482086425,81.23915600857278,-2.79,-1.27,0.13,27.0,0.0,0.0,9.0,0.0,2.0,1.0,0.0,86.13,0.39,
25.064,85.05794148208642,81.21291560085727,-2.92,-1.3,-0.21,27.0,0.0,0.0,9.0,0.0,2.0,1.0,0.0,86.52,0.0,
25.089,85.01479414820864,81.19229156008572,-3.09,-1.29,-0.18,27.0,0.0,0.0,9.0,0.0,2.0,1.0,0.0,87.01,0.0,
25.113,85.03747941482087,81.19022915600857,-2.93,-1.24,0.04,27.0,0.0,0.0,9.0,0.0,2.0,1.0,0.0,86.82,0.0,
25.137,85.03974794148209,81.21702291560085,-3.05,-1.21,-0.15,27.0,0.0,0.0,9.0,0.0,2.0,1.0,0.0,86.23,0.29,
25.161,85.06697479414821,81.23770229156008,-3.18,-1.11,0.02,27.0,0.0,0.0,9.0,0.0,2.0,1.0,0.0,86.92,0.0,
25.186,85.07869747941483,81.23077022915601,-3.23,-1.18,0.03,27.0,0.0,0.0,9.0,0.0,2.0,1.0,0.0,86.92,0.0,
25.21,85.07986974794149,81.2660770229156,-3.04,-1.34,-0.08,28.0,0.0,0.0,9.0,0.0,2.0,1.0,0.0,87.21,0.0,
25.234,85.06198697479415,81.28760770229155,-2.98,-1.32,0.01,27.0,0.0,0.0,9.0,0.0,2.0,1.0,0.0,87.6,0.2,
25.259,85.06019869747942,81.30776077022915,-3.18,-1.47,0.04,26.0,0.0,0.0,9.0,0.0,2.0,1.0,0.0,86.13,0.59,
25.283,85.06901986974795,81.25577607702292,-3.05,-1.27,-0.23,27.0,0.0,0.0,9.0,0.0,2.0,1.0,0.0,85.15,0.69,
25.308,85.0609019869748,81.24157760770228,-2.92,-1.22,-0.09,27.0,0.0,0.0,9.0,0.0,2.0,1.0,0.0,83.19,0.2,
25.331,85.07809019869748,81.24015776077023,-3.21,-1.58,0.18,27.0,0.0,0.0,9.0,0.0,2.0,1.0,0.0,83.19,0.1,
25.356,85.03480901986975,81.21301577607701,-3.26,-1.47,0.0,27.0,0.0,0.0,9.0,0.0,2.0,1.0,0.0,83.48,0.2,
25.38,84.99448090198698,81.1563015776077,-3.36,-1.28,0.11,27.0,0.0,0.0,9.0,0.0,2.0,1.0,0.0,83.48,0.59,
25.405,85.0174480901987,81.12363015776077,-3.31,-1.18,-0.22,27.0,0.0,0.0,9.0,0.0,2.0,1.0,0.0,83.48,0.78,
25.428,85.03774480901987,81.11136301577608,-3.29,-1.32,-0.24,27.0,0.0,0.0,9.0,0.0,2.0,1.0,0.0,82.89,0.59,
25.453,85.06677448090198,81.1371363015776,-3.34,-1.67,-0.12,27.0,0.0,0.0,9.0,0.0,2.0,1.0,0.0,82.7,0.49,
25.478,85.0876774480902,81.17571363015777,-3.24,-1.4,0.02,27.0,0.0,0.0,9.0,0.0,2.0,1.0,0.0,82.89,0.2,
25.502,85.08076774480902,81.17957136301578,-3.57,-1.36,0.06,27.0,0.0,0.0,9.0,0.0,2.0,1.0,0.0,83.09,0.0,
25.526,85.0890767744809,81.13495713630158,-3.43,-1.05,-0.17,27.0,0.0,0.0,9.0,0.0,2.0,1.0,0.0,82.5,0.0,
25.55,85.0629076774481,81.12149571363017,-3.09,-1.2,-0.17,25.0,0.0,0.0,9.0,0.0,2.0,1.0,0.0,82.6,0.0,
25.575,85.0512907677448,81.15614957136302,-2.93,-1.11,0.16,27.0,0.0,0.0,9.0,0.0,2.0,1.0,0.0,83.19,0.29,
25.6,85.02312907677448,81.1596149571363,-3.17,-1.05,-0.05,30.0,0.0,0.0,9.0,0.0,2.0,1.0,0.0,83.29,0.49,
25.623,85.04731290767745,81.14196149571363,-3.17,-1.16,-0.27,27.0,0.0,0.0,10.0,0.0,2.0,1.0,0.0,83.29,0.39,
25.648,85.04073129076775,81.08619614957135,-2.92,-1.27,-0.07,30.0,0.0,0.0,9.0,0.0,2.0,1.0,0.0,83.29,0.1,
25.672,85.08507312907678,81.08061961495713,-3.13,-1.28,-0.03,27.0,0.0,0.0,10.0,0.0,2.0,1.0,0.0,83.58,0.0,
25.697,85.06250731290768,81.06206196149571,-3.18,-1.1,-0.11,27.0,0.0,0.0,9.0,0.0,2.0,1.0,0.0,83.09,0.29,
25.721,85.06925073129077,81.07820619614957,-3.22,-1.33,-0.18,27.0,0.0,0.0,10.0,0.0,2.0,1.0,0.0,83.19,0.59,
25.746,85.03392507312907,81.08882061961496,-3.34,-1.32,0.01,25.0,0.0,0.0,10.0,0.0,2.0,1.0,0.0,83.58,0.88,
25.769,85.03939250731291,81.1168820619615,-3.24,-1.28,-0.08,28.0,0.0,0.0,10.0,0.0,2.0,1.0,0.0,83.68,0.59,
25.794,85.0219392507313,81.04768820619616,-2.95,-1.17,-0.17,27.0,0.0,0.0,10.0,0.0,2.0,1.0,0.0,83.88,0.49,
25.819,85.00219392507313,81.0767688206196,-2.93,-1.23,0.08,27.0,0.0,0.0,10.0,0.0,2.0,1.0,0.0,84.07,0.29,
25.843,84.98221939250732,81.07967688206196,-3.08,-1.48,0.2,27.0,0.0,0.0,10.0,0.0,2.0,1.0,0.0,84.37,0.0,
25.868,85.00722193925073,81.1069676882062,-3.26,-1.26,-0.11,27.0,0.0,0.0,10.0,0.0,2.0,1.0,0.0,83.68,0.0,
25.892,85.09072219392507,81.09169676882063,-2.96,-1.13,-0.18,27.0,0.0,0.0,10.0,0.0,2.0,1.0,0.0,83.78,0.1,
25.917,85.10807221939251,81.14416967688207,-2.99,-1.18,0.18,27.0,0.0,0.0,10.0,0.0,2.0,1.0,0.0,84.37,0.29,
25.94,85.08280722193925,81.1584169676882,-3.14,-1.31,0.05,27.0,0.0,0.0,10.0,0.0,2.0,1.0,0.0,83.88,0.59,
25.965,85.08928072219393,81.15984169676881,-3.17,-1.31,-0.02,27.0,0.0,0.0,10.0,0.0,2.0,1.0,0.0,83.78,0.2,
25.99,85.0989280722194,81.21398416967688,-3.11,-1.08,-0.02,27.0,0.0,0.0,10.0,0.0,2.0,1.0,0.0,83.88,0.0,
26.014,85.09089280722193,81.21039841696768,-3.16,-1.07,-0.2,28.0,0.0,0.0,10.0,0.0,2.0,1.0,0.0,83.97,0.0,
26.039,85.0540892807222,81.23703984169677,-2.94,-1.33,-0.09,27.0,0.0,0.0,10.0,0.0,2.0,1.0,0.0,83.88,0.2,
26.063,85.06840892807222,81.20370398416968,-2.79,-1.33,-0.2,28.0,0.0,0.0,10.0,0.0,2.0,1.0,0.0,83.97,0.88,
26.088,85.03384089280722,81.19137039841696,-3.16,-1.16,-0.17,27.0,0.0,0.0,10.0,0.0,2.0,1.0,0.0,84.07,0.78,
26.112,85.05738408928072,81.16313703984169,-3.1,-1.22,-0.1,25.0,0.0,0.0,10.0,0.0,2.0,1.0,0.0,83.97,0.49,
26.136,85.05073840892807,81.17831370398417,-3.0,-1.4,0.1,28.0,0.0,0.0,10.0,0.0,2.0,1.0,0.0,83.88,0.49,
26.161,85.0140738408928,81.24283137039842,-2.97,-1.53,0.28,26.0,0.0,0.0,10.0,0.0,2.0,1.0,0.0,84.17,0.29,
26.185,85.03740738408928,81.26728313703984,-3.03,-1.07,-0.1,27.0,0.0,0.0,10.0,0.0,2.0,1.0,0.0,84.66,0.0,
26.21,85.06674073840892,81.28772831370398,-3.23,-1.05,-0.04,27.0,0.0,0.0,10.0,0.0,2.0,1.0,0.0,84.07,0.0,
26.234,85.04267407384089,81.2717728313704,-3.21,-0.85,-0.03,28.0,0.0,0.0,10.0,0.0,2.0,1.0,0.0,83.58,0.0,
26.258,85.0942674073841,81.25217728313704,-2.91,-1.33,0.13,28.0,0.0,0.0,9.0,0.0,2.0,1.0,0.0,84.37,0.49,
26.283,85.13542674073841,81.2412177283137,-2.65,-1.05,-0.16,27.0,0.0,0.0,10.0,0.0,2.0,1.0,0.0,84.37,0.39,
26.307,85.13954267407385,81.26712177283137,-2.55,-0.59,0.02,27.0,0.0,0.0,10.0,0.0,2.0,1.0,0.0,82.99,0.29,
26.332,85.20295426740738,81.33271217728314,-2.58,-1.11,0.32,27.0,0.0,0.0,10.0,0.0,2.0,1.0,0.0,82.99,0.0,
26.356,85.15529542674074,81.39327121772831,-3.16,-1.5,0.12,27.0,0.0,0.0,10.0,0.0,2.0,1.0,0.0,82.89,0.0,
26.38,85.15952954267408,81.39932712177284,-3.62,-1.54,-0.03,27.0,0.0,0.0,10.0,0.0,2.0,1.0,0.0,82.7,0.88,
26.404,85.14195295426741,81.36393271217729,-4.31,-2.02,-0.25,27.0,0.0,0.0,10.0,0.0,2.0,1.0,0.0,82.89,0.69,
26.429,85.13119529542675,81.27939327121773,-4.5,-1.9,-0.47,27.0,0.0,0.0,10.0,0.0,2.0,1.0,0.0,82.4,0.59,
26.454,85.11211952954268,81.24393932712177,-4.44,-1.84,-0.13,28.0,0.0,0.0,10.0,0.0,2.0,1.0,0.0,82.01,0.2,
26.478,85.07421195295427,81.23139393271218,-4.4,-1.81,-0.21,28.0,0.0,0.0,10.0,0.0,2.0,1.0,0.0,82.99,0.49,
26.503,85.03442119529542,81.18513939327123,-4.09,-1.5,-0.49,28.0,0.0,0.0,10.0,0.0,2.0,2.0,0.0,83.09,0.0,
26.527,84.98544211952954,81.17151393932711,-3.83,-0.99,0.01,27.0,0.0,0.0,10.0,0.0,2.0,2.0,0.0,83.29,0.0,
26.551,84.99854421195295,81.12515139393273,-2.89,-1.15,0.28,28.0,0.0,0.0,10.0,0.0,2.0,2.0,0.0,83.88,0.0,
26.575,85.0088544211953,81.12051513939328,-2.53,-1.05,-0.01,28.0,0.0,0.0,10.0,0.0,2.0,2.0,0.0,83.68,0.2,
26.6,85.01888544211953,81.15605151393932,-2.55,-0.55,0.15,28.0,0.0,0.0,10.0,0.0,2.0,1.0,0.0,83.58,0.49,
26.625,85.03788854421195,81.17760515139395,-2.42,-0.61,0.3,27.0,0.0,0.0,10.0,0.0,2.0,1.0,0.0,83.38,0.69,
26.649,85.11178885442119,81.1977605151394,-2.66,-0.98,0.11,27.0,0.0,0.0,10.0,0.0,2.0,1.0,0.0,83.09,0.29,
26.673,85.13717888544213,81.23577605151394,-2.56,-0.92,-0.18,27.0,0.0,0.0,10.0,0.0,2.0,1.0,0.0,82.4,0.29,
26.697,85.12171788854421,81.2305776051514,-2.32,-1.27,-0.34,27.0,0.0,0.0,10.0,0.0,2.0,1.0,0.0,82.5,0.29,
26.722,85.08417178885442,81.26605776051514,-2.56,-1.16,-0.36,27.0,0.0,0.0,10.0,0.0,2.0,1.0,0.0,82.7,0.59,
26.746,85.08941717888544,81.26960577605152,-2.98,-0.98,-0.47,27.0,0.0,0.0,10.0,0.0,2.0,1.0,0.0,82.21,0.78,
26.771,85.08994171788855,81.25196057760515,-2.8,-0.75,-0.58,27.0,0.0,0.0,10.0,0.0,2.0,1.0,0.0,81.82,0.49,
26.796,85.10799417178886,81.27719605776052,-2.22,-0.54,-0.26,27.0,0.0,0.0,9.0,0.0,2.0,1.0,0.0,82.11,0.29,
26.82,85.10979941717889,81.26171960577605,-2.33,-1.14,0.18,27.0,0.0,0.0,9.0,0.0,2.0,1.0,0.0,81.91,0.49,
26.844,85.1549799417179,81.26017196057761,-2.44,-1.08,-0.08,27.0,0.0,0.0,9.0,0.0,2.0,1.0,0.0,82.7,0.0,
26.868,85.1954979941718,81.28701719605776,-2.27,-1.03,-0.11,27.0,0.0,0.0,9.0,0.0,2.0,1.0,0.0,82.01,0.0,
26.893,85.17254979941718,81.28070171960577,-2.35,-1.24,-0.02,27.0,0.0,0.0,9.0,0.0,2.0,1.0,0.0,79.85,0.0,
26.917,85.2062549799417,81.33407017196058,-2.7,-1.23,-0.07,27.0,0.0,0.0,9.0,0.0,2.0,1.0,0.0,77.79,0.29,
26.941,85.20062549799418,81.40240701719605,-2.68,-1.77,0.05,26.0,0.0,0.0,9.0,0.0,2.0,1.0,0.0,76.32,0.59,
26.966,85.18206254979943,81.34624070171961,-2.46,-1.77,-0.18,27.0,0.0,0.0,9.0,0.0,2.0,1.0,0.0,76.81,0.29,
26.99,85.18020625497995,81.33162407017196,-2.18,-1.79,-0.06,27.0,0.0,0.0,9.0,0.0,2.0,1.0,0.0,77.89,0.0,
27.015,85.162020625498,81.3661624070172,-2.67,-1.72,-0.27,26.0,0.0,0.0,9.0,0.0,1.0,1.0,0.0,77.5,0.0,
27.038,85.1152020625498,81.36061624070172,-2.91,-1.86,0.05,26.0,0.0,0.0,9.0,0.0,1.0,1.0,0.0,78.38,0.1,
27.063,85.17352020625498,81.39606162407017,-2.47,-1.95,0.32,26.0,0.0,0.0,9.0,0.0,1.0,1.0,0.0,80.34,0.49,
27.087,85.1703520206255,81.39060616240702,-2.73,-1.64,0.31,27.0,0.0,0.0,9.0,0.0,1.0,1.0,0.0,81.13,0.39,
27.112,85.21503520206255,81.4080606162407,-2.6,-1.54,0.03,27.0,0.0,0.0,9.0,0.0,1.0,1.0,0.0,82.11,0.0,
27.136,85.19250352020626,81.40980606162407,-2.4,-1.64,0.39,26.0,0.0,0.0,9.0,0.0,1.0,1.0,0.0,82.01,0.1,
27.16,85.18125035202063,81.44598060616241,-2.3,-1.29,0.48,26.0,0.0,0.0,9.0,0.0,1.0,1.0,0.0,82.4,0.39,
27.185,85.18012503520207,81.52159806061624,-2.12,-1.4,0.09,26.0,0.0,0.0,9.0,0.0,1.0,1.0,0.0,82.5,1.28,
27.208,85.14401250352022,81.55615980606163,-2.09,-1.73,0.27,26.0,0.0,0.0,9.0,0.0,1.0,1.0,0.0,82.01,1.08,
27.233,85.14040125035203,81.56861598060615,-2.49,-1.47,-0.05,26.0,0.0,0.0,8.0,0.0,1.0,1.0,0.0,82.11,0.59,
27.257,85.14904012503521,81.53386159806062,-2.19,-1.54,-0.22,27.0,0.0,0.0,8.0,0.0,1.0,1.0,0.0,82.01,0.49,
27.282,85.14990401250353,81.51238615980607,-1.88,-1.77,-0.25,26.0,0.0,0.0,8.0,0.0,1.0,1.0,0.0,82.01,0.49,
27.305,85.09599040125036,81.51023861598061,-1.69,-1.63,-0.14,26.0,0.0,0.0,8.0,0.0,1.0,1.0,0.0,82.11,0.29,
27.33,85.09059904012504,81.55502386159807,-1.85,-1.21,-0.32,26.0,0.0,0.0,8.0,0.0,1.0,1.0,0.0,81.82,0.2,
27.355,85.0450599040125,81.54150238615982,-1.75,-0.92,-0.08,26.0,0.0,0.0,8.0,0.0,1.0,1.0,0.0,81.52,0.29,
27.379,85.03150599040126,81.60315023861598,-1.73,-0.87,-0.01,26.0,0.0,0.0,8.0,0.0,1.0,1.0,0.0,81.62,0.39,
27.404,85.03915059904013,81.6633150238616,-1.63,-1.05,0.11,26.0,0.0,0.0,8.0,0.0,1.0,1.0,0.0,81.82,0.78,
27.427,85.02191505990402,81.68733150238616,-2.01,-1.11,0.08,25.0,0.0,0.0,8.0,0.0,1.0,1.0,0.0,82.01,1.08,
27.452,85.0291915059904,81.73473315023861,-1.0,-1.42,0.36,25.0,0.0,0.0,7.0,0.0,1.0,1.0,0.0,82.4,0.59,
27.476,85.05691915059904,81.81147331502385,-1.21,-1.5,0.2,26.0,0.0,0.0,7.0,0.0,1.0,1.0,0.0,82.21,0.69,
27.501,85.0686919150599,81.8551473315024,-1.63,-1.59,-0.35,25.0,0.0,0.0,7.0,0.0,1.0,1.0,0.0,82.21,1.08,
27.525,85.12386919150599,81.91351473315025,-2.27,-2.27,-0.4,25.0,0.0,0.0,7.0,0.0,1.0,1.0,0.0,82.11,1.67,
27.549,85.1113869191506,81.90135147331503,-2.0,-2.5,-0.53,25.0,0.0,0.0,7.0,0.0,1.0,1.0,0.0,81.62,1.77,
27.574,85.11913869191507,81.89113514733151,-1.21,-3.02,-0.39,25.0,0.0,0.0,7.0,0.0,1.0,1.0,0.0,80.93,1.37,
27.598,85.1109138691915,81.95311351473315,-1.96,-3.11,-0.66,23.0,0.0,0.0,7.0,0.0,1.0,1.0,0.0,80.93,1.86,
27.622,85.09209138691915,81.9953113514733,-2.97,-2.16,-0.63,25.0,0.0,0.0,7.0,0.0,1.0,1.0,0.0,84.07,0.98,
27.646,85.09920913869192,81.99953113514732,-3.78,-1.82,-0.77,25.0,0.0,0.0,7.0,0.0,1.0,1.0,0.0,83.88,0.0,
27.671,85.1269209138692,81.97295311351473,-3.85,-2.02,0.12,25.0,0.0,0.0,7.0,0.0,1.0,1.0,0.0,83.48,0.0,
27.696,85.08469209138693,81.97929531135148,-4.15,-1.41,0.24,25.0,0.0,0.0,7.0,0.0,1.0,1.0,0.0,81.52,0.0,
27.719,85.0354692091387,81.92592953113515,-4.09,-0.69,0.39,25.0,0.0,0.0,7.0,0.0,1.0,1.0,0.0,81.23,0.1,
27.744,84.99454692091386,81.86659295311352,-4.11,-0.51,0.32,28.0,0.0,0.0,7.0,0.0,1.0,1.0,0.0,81.52,0.49,
27.768,85.0714546920914,81.91465929531137,-3.71,-1.06,0.53,25.0,0.0,0.0,7.0,0.0,1.0,1.0,0.0,82.01,0.39,
27.793,85.08814546920914,81.97346592953114,-4.54,-0.5,0.44,25.0,0.0,0.0,7.0,0.0,1.0,1.0,0.0,82.11,0.2,
27.816,85.07181454692092,82.01534659295311,-5.06,-0.22,0.31,26.0,0.0,0.0,7.0,0.0,1.0,1.0,0.0,82.01,0.1,
27.841,85.03418145469209,82.0195346592953,-5.74,-0.06,0.18,26.0,0.0,0.0,7.0,0.0,1.0,1.0,0.0,82.5,0.1,
27.866,85.04841814546921,81.94795346592953,-5.71,-0.52,0.36,26.0,0.0,0.0,7.0,0.0,1.0,1.0,0.0,82.99,0.39,
27.889,85.05884181454692,81.85979534659295,-4.2,-0.95,0.51,26.0,0.0,0.0,8.0,0.0,1.0,1.0,0.0,83.19,0.0,
27.914,85.1048841814547,81.82397953465929,-4.25,-0.6,0.25,26.0,0.0,0.0,8.0,0.0,1.0,1.0,0.0,82.21,0.0,
27.938,85.09148841814547,81.79339795346593,-4.18,-0.45,-0.02,26.0,0.0,0.0,8.0,0.0,1.0,1.0,0.0,82.5,0.0,
27.963,85.10814884181455,81.7273397953466,-4.1,-0.63,0.28,26.0,0.0,0.0,8.0,0.0,1.0,1.0,0.0,81.91,0.0,
27.986,85.10081488418146,81.70273397953466,-4.27,-0.69,0.06,26.0,0.0,0.0,8.0,0.0,1.0,1.0,0.0,81.52,0.0,
28.011,85.08208148841814,81.62827339795348,-3.43,-1.15,0.24,26.0,0.0,0.0,8.0,0.0,1.0,1.0,0.0,82.11,0.0,
28.036,85.08920814884182,81.60282733979534,-3.02,-1.35,0.05,27.0,0.0,0.0,8.0,0.0,1.0,1.0,0.0,81.91,0.0,
28.059,85.08092081488418,81.61828273397954,-2.89,-1.19,0.11,26.0,0.0,0.0,8.0,0.0,1.0,1.0,0.0,82.6,0.29,
28.084,85.09809208148842,81.60182827339796,-2.99,-1.1,-0.1,27.0,0.0,0.0,8.0,0.0,1.0,1.0,0.0,82.8,0.39,
28.108,85.11780920814884,81.6271828273398,-2.69,-1.62,0.03,26.0,0.0,0.0,8.0,0.0,1.0,1.0,0.0,82.99,0.2,
28.133,85.14678092081489,81.61171828273397,-2.79,-1.52,0.02,26.0,0.0,0.0,8.0,0.0,1.0,1.0,0.0,83.19,0.0,
28.156,85.12267809208149,81.6011718282734,-3.4,-1.34,0.03,26.0,0.0,0.0,8.0,0.0,1.0,1.0,0.0,83.29,0.0,
28.181,85.13826780920814,81.57311718282733,-3.29,-1.4,-0.26,26.0,0.0,0.0,8.0,0.0,1.0,1.0,0.0,82.8,0.2,
28.206,85.14882678092081,81.58831171828274,-3.41,-1.36,-0.05,26.0,0.0,0.0,8.0,0.0,1.0,1.0,0.0,82.99,0.59,
28.23,85.16788267809208,81.58983117182828,-3.66,-1.6,0.07,26.0,0.0,0.0,8.0,0.0,1.0,1.0,0.0,82.89,0.39,
28.254,85.16078826780921,81.61698311718284,-4.1,-1.6,0.09,26.0,0.0,0.0,8.0,0.0,1.0,1.0,0.0,82.8,0.2,
28.278,85.18707882678092,81.61069831171828,-3.95,-1.31,-0.18,26.0,0.0,0.0,8.0,0.0,1.0,1.0,0.0,82.01,0.1,
28.303,85.15370788267809,81.58306983117183,-4.0,-1.44,-0.01,26.0,0.0,0.0,9.0,0.0,1.0,1.0,0.0,83.29,0.88,
28.327,85.15037078826781,81.5893069831172,-4.95,-1.16,-0.24,26.0,0.0,0.0,9.0,0.0,1.0,1.0,0.0,82.7,0.88,
28.351,85.11403707882678,81.57193069831172,-4.94,-1.14,-0.14,27.0,0.0,0.0,9.0,0.0,1.0,1.0,0.0,82.4,0.88,
28.376,85.11940370788268,81.52519306983116,-5.02,-0.98,0.07,27.0,0.0,0.0,9.0,0.0,1.0,1.0,0.0,81.82,0.2,
