time,pitch,roll,gyrx,gyry,gyrz,f1,f2,f3,f4,f5,f6,f7,g1,g2,g3
0.384,26.66,69.77,-9.15,-5.34,-1.66,0.0,0.0,6.0,0.0,1.0,0.0,0.0,0.1,0.0,0.0,
0.408,30.44,80.318,-3.11,7.37,-3.78,0.0,0.0,6.0,0.0,1.0,0.0,0.0,0.1,0.0,0.0,
0.432,34.445,90.2018,-1.4,2.46,-1.61,0.0,0.0,6.0,0.0,1.0,0.0,0.0,0.2,0.0,0.0,
0.455,38.1395,98.71418,-1.35,-3.89,-2.02,0.0,0.0,6.0,0.0,1.0,0.0,0.0,0.1,0.0,0.0,
0.479,40.884949999999996,105.964418,-3.89,-3.4,1.51,0.0,0.0,6.0,0.0,1.0,0.0,0.0,0.1,0.0,0.0,
0.502,43.220495,112.03544179999999,-2.69,0.41,-1.14,0.0,0.0,6.0,0.0,1.0,0.0,0.0,0.0,0.0,0.0,
0.526,45.1370495,117.36754418,-2.69,4.53,0.79,0.0,0.0,6.0,0.0,1.0,0.0,0.0,0.0,0.0,0.0,
0.549,46.64270495,121.86975441800001,-2.01,-0.17,2.39,0.0,0.0,6.0,0.0,1.0,0.0,0.0,0.0,0.0,0.0,
0.573,48.269270495,125.5329754418,-0.04,1.77,0.85,0.0,0.0,6.0,0.0,1.0,0.0,0.0,0.1,0.0,0.0,
0.596,49.565927049500004,128.83329754417997,0.68,4.26,1.66,0.0,0.0,6.0,0.0,1.0,0.0,0.0,0.1,0.0,0.0,
0.62,50.712592704950005,131.50332975441802,-1.21,-4.16,0.82,0.0,0.0,6.0,0.0,1.0,0.0,0.0,92.9,0.0,0.0,
0.645,51.349259270495004,133.5163329754418,-3.92,-3.39,2.28,0.0,0.0,6.0,0.0,1.0,0.0,0.0,0.1,0.0,0.0,
0.668,51.8359259270495,135.20263329754417,-0.6,4.79,-1.09,0.0,0.0,6.0,0.0,1.0,0.0,0.0,0.0,0.0,0.0,
0.692,52.766592592704946,136.7032633297544,-1.69,-0.31,-1.18,0.0,0.0,6.0,0.0,1.0,0.0,0.0,0.1,0.0,0.0,
0.715,53.291659259270496,137.73532633297543,-6.28,-4.53,0.59,0.0,0.0,6.0,0.0,1.0,0.0,0.0,0.1,0.0,0.0,
0.739,53.61416592592705,138.63053263329755,-3.95,3.08,-0.21,0.0,0.0,6.0,0.0,1.0,0.0,0.0,0.1,0.0,0.0,
0.762,53.91641659259271,139.70105326332975,-2.89,9.21,-2.5,0.0,0.0,6.0,0.0,1.0,0.0,0.0,0.1,0.0,0.0,
0.787,54.54964165925927,141.01410532633298,-2.52,3.46,-2.66,0.0,0.0,6.0,0.0,1.0,0.0,0.0,0.1,0.0,0.0,
0.811,54.54096416592593,142.0994105326333,-7.83,-3.86,0.74,0.0,0.0,6.0,0.0,1.0,0.0,0.0,0.2,0.0,0.0,
0.834,54.468096416592594,142.90994105326334,-8.12,-4.81,-1.99,0.0,0.0,6.0,0.0,1.0,0.0,0.0,0.1,0.0,0.0,
0.858,54.63180964165926,143.71099410532634,-3.11,-2.58,-3.75,0.0,0.0,6.0,0.0,1.0,0.0,0.0,0.1,0.0,0.0,
0.881,55.035180964165924,143.8990994105326,-3.46,-1.93,-2.88,0.0,0.0,6.0,0.0,1.0,0.0,0.0,0.1,0.0,0.0,
0.906,55.66051809641659,144.21490994105326,-6.96,1.44,-0.5,0.0,0.0,6.0,0.0,1.0,0.0,0.0,0.2,0.0,0.0,
0.929,55.76805180964166,144.69649099410532,-5.22,1.44,-1.05,0.0,0.0,5.0,0.0,1.0,0.0,0.0,0.2,0.0,0.0,
0.953,55.78780518096416,145.17664909941053,-3.71,-3.19,0.63,0.0,0.0,5.0,0.0,1.0,0.0,0.0,0.1,0.0,0.0,
0.976,55.92478051809641,145.44966490994105,-2.6,-3.25,-0.42,0.0,0.0,5.0,0.0,1.0,0.0,0.0,0.2,0.0,0.0,
1.0,56.56847805180964,145.2699664909941,-0.19,1.52,-1.07,0.0,0.0,5.0,0.0,1.0,0.0,0.0,0.2,0.0,0.0,
1.024,57.208847805180966,145.2609966490994,-3.0,4.54,-0.29,0.0,0.0,5.0,0.0,1.0,0.0,0.0,0.2,0.0,0.0,
1.048,57.1558847805181,145.56609966490993,-8.18,-4.58,1.02,0.0,0.0,5.0,0.0,1.0,0.0,0.0,0.2,0.0,0.0,
1.072,56.71858847805181,145.695609966491,-5.05,-2.6,-0.9,0.0,0.0,6.0,0.0,1.0,0.0,0.0,0.2,0.0,0.0,
1.095,56.854858847805176,146.01456099664912,1.02,2.54,-2.47,0.0,0.0,5.0,0.0,1.0,0.0,0.0,0.2,0.0,0.0,
1.119,57.10248588478052,146.1724560996649,0.76,-2.28,-0.67,0.0,0.0,5.0,0.0,1.0,0.0,0.0,0.2,0.0,0.0,
1.142,57.08224858847805,145.9812456099665,-4.39,-7.68,3.17,0.0,0.0,5.0,0.0,1.0,0.0,0.0,0.1,0.0,0.0,
1.166,56.90022485884781,145.72812456099663,-4.98,1.13,1.71,0.0,0.0,5.0,0.0,1.0,0.0,0.0,0.1,0.0,0.0,
1.189,56.387022485884785,145.84681245609968,-4.82,4.96,-0.11,0.0,0.0,5.0,0.0,1.0,0.0,0.0,0.1,0.0,0.0,
1.214,56.23670224858848,146.16468124560996,-3.04,0.41,-2.79,0.0,0.0,5.0,0.0,1.0,0.0,0.0,0.2,0.0,0.0,
1.238,55.97867022485885,146.322468124561,-3.5,-3.56,-2.1,0.0,0.0,5.0,0.0,1.0,0.0,0.0,0.2,0.0,0.0,
1.261,56.15086702248589,146.1312468124561,-2.06,-0.03,-2.03,0.0,0.0,5.0,0.0,1.0,0.0,0.0,0.2,0.0,0.0,
1.285,56.906086702248594,145.9681246812456,-0.66,9.06,1.24,0.0,0.0,5.0,0.0,1.0,0.0,0.0,0.29,0.0,0.0,
1.308,57.00860867022486,146.08681246812458,-4.92,-0.22,3.24,0.0,0.0,5.0,0.0,1.0,0.0,0.0,0.29,0.0,0.0,
1.332,56.541860867022486,145.9996812468125,-10.4,-13.18,1.63,0.0,0.0,5.0,0.0,1.0,0.0,0.0,0.2,0.0,0.0,
1.356,56.40518608670225,145.59496812468126,-3.97,-0.08,-5.24,0.0,0.0,5.0,0.0,1.0,0.0,0.0,0.29,0.0,0.0,
1.38,57.174518608670226,145.48249681246813,0.6,8.05,-5.44,0.0,0.0,5.0,0.0,1.0,0.0,0.0,0.2,0.0,0.0,
1.403,57.746451860867026,145.71424968124683,-5.05,-3.15,-1.69,0.0,0.0,5.0,0.0,1.0,0.0,0.0,0.2,0.0,0.0,
1.427,57.452645186086706,145.8544249681247,-11.2,-11.27,0.63,0.0,0.0,5.0,0.0,1.0,0.0,0.0,0.2,0.0,0.0,
1.452,56.93726451860867,145.9224424968125,-4.18,1.67,-2.47,0.0,0.0,5.0,0.0,1.0,0.0,0.0,0.2,0.0,0.0,
1.475,57.20072645186087,146.12724424968124,-1.79,2.74,-2.79,0.0,0.0,5.0,0.0,1.0,0.0,0.0,0.29,0.0,0.0,
1.499,57.452072645186085,145.94072442496812,-3.48,-1.47,-0.21,0.0,0.0,5.0,0.0,1.0,0.0,0.0,0.2,0.0,0.0,
1.522,57.315207264518605,145.60707244249681,-8.24,-6.94,1.56,0.0,0.0,5.0,0.0,1.0,0.0,0.0,0.29,0.0,0.0,
1.546,56.977520726451864,144.79070724424966,-9.98,-0.87,2.15,0.0,0.0,5.0,0.0,1.0,0.0,0.0,0.1,0.0,0.0,
1.569,57.70875207264519,143.16107072442495,-17.23,-6.86,1.34,0.0,0.0,5.0,0.0,1.0,0.0,0.0,0.1,0.0,0.0,
1.594,58.627875207264516,139.80310707244251,-56.07,-17.99,2.51,0.0,0.0,5.0,0.0,1.0,0.0,0.0,0.1,0.0,0.0,
1.617,58.42278752072645,135.49831070724426,-90.86,-12.79,-0.79,0.0,0.0,6.0,0.0,1.0,0.0,0.0,0.0,0.0,0.0,
1.641,56.92627875207264,130.8378310707244,-119.85,-30.88,-12.5,0.0,0.0,5.0,0.0,1.0,0.0,0.0,0.0,0.98,0.0,
1.666,54.76962787520727,123.41478310707244,-135.33,-63.7,-40.55,0.0,0.0,5.0,0.0,1.0,0.0,0.0,0.0,1.18,0.0,
1.69,51.961962787520726,114.55447831070724,-130.52,-50.83,-88.63,0.0,0.0,5.0,0.0,1.0,0.0,0.0,0.0,0.69,0.0,
1.714,49.75519627875207,107.44044783107074,-104.7,-23.11,-133.46,0.0,0.0,5.0,0.0,1.0,0.0,0.0,0.0,0.49,0.0,
1.738,47.75251962787521,103.44404478310707,-96.86,-30.31,-163.61,0.0,0.0,6.0,0.0,1.0,0.0,0.0,0.0,1.37,0.0,
1.762,46.43625196278752,102.74740447831071,-97.79,-12.18,-157.17,0.0,0.0,5.0,0.0,0.0,0.0,0.0,0.0,1.96,0.0,
1.786,44.99062519627876,101.24674044783106,-104.65,-17.15,-152.05,0.0,0.0,5.0,0.0,0.0,0.0,0.0,0.0,1.37,0.0,
1.811,42.46106251962788,102.0326740447831,-102.88,-26.15,-146.69,0.0,0.0,5.0,0.0,0.0,0.0,0.0,0.0,1.08,0.0,
1.835,40.01210625196279,105.46826740447831,-77.39,-16.53,-152.1,0.0,0.0,4.0,0.0,0.0,0.0,0.0,0.0,0.98,0.0,
1.859,39.78521062519628,109.60082674044783,-60.85,-31.01,-156.8,0.0,0.0,3.0,0.0,0.0,0.0,0.0,0.1,0.98,0.0,
1.883,41.679521062519626,112.77708267404478,-73.4,-34.37,-135.69,0.0,0.0,3.0,0.0,0.0,0.0,0.0,0.29,0.98,0.0,
1.907,43.50695210625196,113.49070826740447,-65.69,-45.44,-120.0,0.0,0.0,2.0,0.0,0.0,0.0,0.0,0.49,0.88,0.0,
1.931,44.4726952106252,114.14707082674045,-65.94,-56.96,-131.25,0.0,0.0,2.0,0.0,0.0,0.0,0.0,0.59,0.88,0.0,
1.955,45.07326952106252,114.77070708267405,-86.74,-67.41,-127.85,0.0,0.0,1.0,0.0,0.0,0.0,0.0,0.78,0.69,0.0,
1.98,46.492326952106254,115.56207070826741,-66.76,-24.92,-112.6,0.0,0.0,1.0,0.0,0.0,0.0,0.0,0.88,0.0,0.0,
2.003,47.11123269521063,115.81220707082674,-42.02,-35.99,-89.66,0.0,0.0,1.0,0.0,0.0,0.0,0.0,1.08,0.1,0.0,
2.027,47.11012326952106,113.93822070708268,-36.06,-36.01,-77.77,0.0,0.0,1.0,0.0,0.0,0.0,0.0,1.08,0.1,0.0,
2.052,50.8450123269521,112.61682207070827,-9.37,28.63,51.31,0.0,0.0,3.0,0.0,1.0,0.0,0.0,1.57,0.2,0.0,
2.075,50.948501232695214,119.52268220707083,250.13,204.11,178.73,0.0,0.0,2.0,1.0,0.0,0.0,0.0,3.34,0.29,0.0,
2.1,48.240850123269524,121.3832682207071,-107.27,-250.13,-107.54,0.0,0.0,2.0,1.0,0.0,0.0,0.0,2.94,3.63,0.0,
2.124,46.107085012326955,106.0533268220707,0.42,250.14,34.26,0.0,0.0,2.0,1.0,0.0,0.0,0.0,3.83,5.0,0.0,
2.148,48.0897085012327,103.71933268220705,-51.96,250.14,7.24,0.0,0.0,2.0,1.0,0.0,0.0,0.0,3.83,6.47,0.0,
2.171,42.01497085012327,90.1119332682207,33.46,-12.07,-14.28,0.0,0.0,2.0,1.0,0.0,0.0,0.0,2.45,2.84,0.0,
2.196,50.83049708501233,84.12519332682206,-6.74,-56.75,5.15,0.0,0.0,2.0,1.0,0.0,0.0,0.0,2.45,1.77,0.0,
2.22,51.64904970850124,78.64851933268221,-16.42,-107.03,33.54,0.0,0.0,3.0,0.0,0.0,0.0,0.0,2.94,0.0,0.0,
2.243,50.66890497085013,82.42985193326822,-30.69,-10.65,15.97,0.0,0.0,3.0,0.0,0.0,0.0,0.0,3.92,0.88,0.0,
2.268,49.43689049708501,81.24198519332681,-19.56,38.27,5.49,0.0,0.0,3.0,0.0,0.0,0.0,0.0,4.12,0.29,0.0,
2.291,50.3666890497085,81.06919851933267,-19.56,125.12,-7.95,0.0,0.0,3.0,0.0,0.0,0.0,0.0,4.02,0.59,0.0,
2.315,50.864668904970856,80.28691985193328,-32.53,13.56,16.47,0.0,0.0,3.0,0.0,0.0,0.0,0.0,4.12,0.0,0.0,
2.339,50.15846689049709,77.69769198519333,-5.57,-23.05,7.69,0.0,0.0,3.0,0.0,0.0,0.0,0.0,4.41,0.0,0.0,
2.363,49.86284668904971,77.77176919851934,11.32,-4.03,2.21,0.0,0.0,3.0,0.0,0.0,0.0,0.0,4.41,0.0,-2180.37,
2.387,49.500284668904975,78.29217691985193,10.02,8.7,0.31,0.0,0.0,4.0,0.0,0.0,0.0,0.0,4.22,0.0,0.0,
2.411,49.626028466890496,78.7132176919852,5.05,10.39,1.3,0.0,0.0,4.0,0.0,0.0,0.0,0.0,3.92,0.0,0.0,
2.435,49.791602846689045,79.17832176919852,1.61,9.47,2.43,0.0,0.0,3.0,0.0,0.0,0.0,0.0,3.63,0.29,0.0,
2.458,50.321160284668906,80.83583217691984,-12.27,15.27,20.89,0.0,0.0,3.0,0.0,0.0,0.0,0.0,3.43,0.0,0.0,
2.482,50.12211602846689,80.02958321769198,-13.38,12.26,12.82,0.0,0.0,2.0,0.0,0.0,0.0,0.0,3.34,0.0,0.0,
2.506,49.76021160284669,80.2459583217692,-0.34,11.69,5.02,0.0,0.0,2.0,0.0,0.0,0.0,0.0,2.94,1.77,0.0,
2.53,50.07502116028467,80.14159583217692,-4.34,25.05,6.65,0.0,0.0,2.0,0.0,0.0,0.0,0.0,2.55,0.59,0.0,
2.553,50.21450211602847,79.30315958321769,5.82,11.65,6.76,0.0,0.0,2.0,0.0,0.0,0.0,0.0,2.06,0.0,0.0,
2.577,50.156450211602845,79.30031595832178,4.53,-4.17,6.74,0.0,0.0,2.0,0.0,0.0,0.0,0.0,1.57,0.88,0.0,
2.6,50.05164502116028,79.07503159583217,16.13,-4.47,-2.01,0.0,0.0,2.0,0.0,0.0,0.0,0.0,1.37,5.3,0.0,
2.624,50.82416450211602,80.41150315958322,31.17,-1.32,-7.78,0.0,0.0,1.0,0.0,0.0,0.0,0.0,1.18,4.32,0.0,
2.648,52.017416450211606,82.51615031595833,11.23,-8.65,4.49,0.0,0.0,1.0,0.0,0.0,0.0,0.0,0.78,0.0,0.0,
2.671,52.52374164502116,83.97761503159583,-47.35,10.88,34.44,0.0,0.0,1.0,0.0,0.0,0.0,0.0,0.78,1.18,0.0,
2.695,51.09837416450211,82.9087615031596,-31.91,12.94,21.89,0.0,0.0,1.0,0.0,0.0,0.0,0.0,1.18,4.41,0.0,
2.718,50.67683741645021,82.84687615031596,-4.45,13.5,7.05,0.0,0.0,1.0,0.0,0.0,0.0,0.0,1.37,3.73,0.0,
2.742,50.75168374164502,82.74168761503161,-3.06,3.27,0.21,0.0,0.0,1.0,0.0,0.0,0.0,0.0,1.37,2.75,0.0,
2.765,51.0201683741645,82.02016876150316,10.92,-0.87,-2.98,0.0,0.0,0.0,0.0,0.0,0.0,0.0,1.37,2.84,0.0,
2.789,50.29101683741645,81.9750168761503,26.48,-21.28,-11.92,0.0,0.0,0.0,0.0,0.0,0.0,0.0,1.08,0.78,0.0,
2.812,50.056101683741645,82.10550168761503,24.78,-16.14,-13.88,0.0,0.0,0.0,0.0,0.0,0.0,0.0,0.88,4.41,0.0,
2.836,50.059610168374164,83.06355016876151,9.02,-10.85,9.34,0.0,0.0,0.0,0.0,0.0,0.0,0.0,0.88,4.02,0.0,
2.86,50.21296101683742,82.85335501687615,10.27,-15.24,16.65,0.0,0.0,0.0,0.0,0.0,0.0,0.0,0.88,2.16,0.0,
2.883,50.129296101683735,82.92233550168763,24.9,-3.5,14.72,0.0,0.0,0.0,0.0,0.0,0.0,0.0,0.98,4.91,0.0,
2.907,50.28292961016837,83.70323355016876,41.34,5.95,20.56,0.0,0.0,0.0,0.0,0.0,0.0,0.0,0.98,5.59,0.0,
2.93,50.62229296101684,85.97732335501688,32.97,8.22,15.96,0.0,0.0,0.0,0.0,0.0,0.0,0.0,0.88,4.02,0.0,
2.954,50.17022929610168,87.64473233550169,18.86,4.05,24.56,0.0,0.0,0.0,0.0,0.0,0.0,0.0,0.88,20.99,0.0,
2.977,50.17002292961017,89.47647323355017,5.59,7.53,8.19,0.0,0.0,0.0,0.0,0.0,0.0,0.0,0.78,12.07,0.0,
3.001,51.83500229296102,93.47564732335502,-53.04,24.44,6.82,0.0,0.0,0.0,0.0,0.0,0.0,0.0,0.88,3.34,0.0,
3.024,50.8405002292961,94.0195647323355,-98.56,-54.04,-12.79,0.0,0.0,0.0,0.0,0.0,0.0,0.0,0.88,17.85,0.0,
3.048,49.814050022929614,91.82395647323355,-64.11,-76.31,-66.77,0.0,0.0,0.0,0.0,0.0,0.0,0.0,1.37,12.75,0.0,
3.073,51.09740500229296,87.35639564732335,-44.71,48.18,-12.65,0.0,0.0,1.0,0.0,0.0,0.0,0.0,1.57,9.42,0.0,
3.096,50.01974050022929,83.24663956473235,14.89,-23.11,-2.26,0.0,0.0,1.0,0.0,0.0,0.0,0.0,2.06,27.08,0.0,
3.12,49.218974050022936,85.17566395647323,24.27,-31.86,-18.22,0.0,0.0,1.0,0.0,0.0,0.0,0.0,2.16,0.0,0.0,
3.144,49.14789740500229,86.24156639564733,-8.52,-44.82,-7.2,0.0,0.0,1.0,1.0,0.0,0.0,0.0,2.16,0.39,0.0,
3.168,48.90678974050023,85.48415663956474,-10.85,-29.69,2.11,0.0,0.0,1.0,1.0,0.0,0.0,0.0,2.16,2.26,0.0,
3.192,47.94667897405003,85.33641566395647,-8.99,-37.87,-2.72,0.0,0.0,2.0,1.0,0.0,0.0,0.0,2.16,2.16,0.0,
3.216,47.265667897404995,84.72764156639565,-6.68,-16.8,1.31,0.0,0.0,1.0,1.0,1.0,0.0,0.0,1.86,1.47,0.0,
3.239,47.251566789740494,84.84676415663955,3.79,-17.62,1.53,0.0,0.0,1.0,1.0,0.0,0.0,0.0,1.67,0.98,0.0,
3.263,47.05215667897406,84.37267641566395,3.54,-21.08,-5.63,0.0,0.0,1.0,1.0,0.0,0.0,0.0,1.37,0.0,0.0,
3.288,47.257215667897405,83.9742676415664,-7.05,4.71,-0.87,0.0,0.0,1.0,1.0,0.0,0.0,0.0,1.67,0.0,0.0,
3.311,46.890721566789736,83.36742676415663,-20.61,15.21,2.6,0.0,0.0,1.0,1.0,0.0,0.0,0.0,2.45,2.16,0.0,
3.335,44.85607215667898,84.65674267641566,-7.71,-22.9,-12.37,0.0,0.0,2.0,2.0,0.0,0.0,0.0,4.02,4.81,0.0,
3.359,45.507607215667896,90.52767426764157,8.69,-2.18,-18.82,0.0,0.0,2.0,2.0,0.0,0.0,1.0,5.69,3.92,0.0,
3.383,46.02276072156679,90.34076742676416,-2.55,16.33,0.15,0.0,0.0,2.0,3.0,0.0,0.0,1.0,6.87,5.79,0.0,
3.407,45.858276072156684,90.57407674267641,0.57,-2.51,-10.79,0.0,0.0,2.0,3.0,0.0,0.0,1.0,8.53,8.14,0.0,
3.431,46.57982760721567,90.76840767426765,-17.2,39.97,-21.96,0.0,0.0,2.0,3.0,0.0,0.0,2.0,9.42,2.84,0.0,
3.456,46.71498276072156,90.87784076742676,-12.18,16.18,-21.65,0.0,0.0,2.0,4.0,0.0,0.0,2.0,10.2,3.73,0.0,
3.479,46.044498276072154,89.18778407674269,-9.64,29.68,-31.3,0.0,0.0,3.0,5.0,1.0,0.0,4.0,11.58,3.92,0.0,
3.504,46.157449827607216,88.73077840767428,-0.38,18.28,-27.3,0.0,0.0,4.0,5.0,2.0,0.0,5.0,13.34,8.34,0.0,
3.527,46.807744982760724,87.56007784076743,-10.58,9.18,-5.63,0.0,0.0,6.0,6.0,2.0,0.0,6.0,14.81,1.86,0.0,
3.552,47.83577449827607,86.31800778407676,-8.31,11.0,-6.89,0.0,0.0,6.0,6.0,2.0,0.0,7.0,15.79,0.0,0.0,
3.575,47.4975774498276,85.16780077840768,-7.81,5.85,-4.05,0.0,0.0,7.0,6.0,2.0,0.0,7.0,17.46,0.0,0.0,
3.6,48.33675774498276,83.77478007784077,-9.69,36.94,5.3,0.0,0.0,7.0,6.0,2.0,0.0,7.0,17.76,1.47,0.0,
3.623,48.06067577449828,83.48247800778408,-0.98,8.86,1.85,0.0,0.0,7.0,6.0,2.0,0.0,7.0,17.17,2.35,0.0,
3.647,47.934067577449824,83.05724780077841,0.09,-2.89,-0.73,0.0,0.0,7.0,6.0,2.0,0.0,7.0,16.09,0.0,0.0,
3.672,47.966406757744984,82.46572478007785,-3.55,-3.02,-1.27,0.0,0.0,7.0,6.0,2.0,0.0,7.0,15.3,0.0,0.0,
3.695,48.068640675774496,81.62357247800779,-1.15,1.21,-2.16,0.0,0.0,7.0,6.0,2.0,0.0,7.0,14.72,0.0,0.0,
3.72,48.060864067577455,81.17935724780077,-4.09,-3.02,-2.8,0.0,0.0,7.0,6.0,1.0,0.0,7.0,14.22,0.0,0.0,
3.743,47.817086406757745,80.8019357247801,-0.21,-10.76,-1.3,0.0,0.0,6.0,5.0,1.0,0.0,7.0,13.83,0.0,0.0,
3.768,47.729708640675774,80.719193572478,-1.58,-4.27,1.31,0.0,0.0,7.0,5.0,1.0,0.0,7.0,13.24,0.0,0.0,
3.791,47.98197086406757,80.4769193572478,-3.28,0.27,0.33,0.0,0.0,7.0,5.0,1.0,0.0,7.0,12.65,0.0,0.0,
3.815,47.845197086406756,80.04769193572477,-5.41,-8.63,1.99,0.0,0.0,7.0,4.0,1.0,0.0,7.0,12.16,1.47,0.0,
3.84,47.64251970864067,79.95976919357247,-3.02,-7.31,2.28,0.0,0.0,7.0,4.0,1.0,0.0,7.0,11.67,10.59,0.0,
3.863,47.90125197086407,80.08597691935725,-5.5,2.67,-0.1,0.0,0.0,7.0,4.0,1.0,0.0,7.0,11.09,1.77,0.0,
3.887,47.756125197086405,80.26959769193573,-12.14,-4.89,3.36,0.0,0.0,7.0,3.0,1.0,0.0,7.0,10.59,2.94,0.0,
3.911,47.04861251970864,80.00895976919357,-11.12,-16.13,6.92,0.0,0.0,6.0,3.0,1.0,0.0,7.0,10.4,13.54,0.0,
3.936,47.706861251970864,79.98289597691935,-6.46,54.18,4.18,0.0,0.0,6.0,2.0,1.0,0.0,6.0,10.01,5.79,0.0,
3.959,48.80768612519709,79.70128959769194,-5.32,50.34,10.56,0.0,0.0,4.0,1.0,0.0,0.0,5.0,9.42,2.55,0.0,
3.983,50.150768612519705,79.7541289597692,-0.07,34.78,27.43,0.0,0.0,1.0,0.0,0.0,0.0,4.0,8.24,0.49,0.0,
4.007,49.898076861251965,80.71341289597692,18.65,1.44,5.16,0.0,0.0,1.0,0.0,0.0,0.0,3.0,6.87,0.0,0.0,
4.03,50.0528076861252,81.1693412895977,-20.09,39.72,71.64,0.0,0.0,1.0,0.0,0.0,0.0,1.0,5.4,1.86,0.0,
4.054,51.05828076861252,81.87193412895978,-24.95,12.88,106.25,0.0,0.0,1.0,0.0,0.0,0.0,1.0,3.83,5.89,0.0,
4.078,50.48382807686125,82.57219341289598,-75.28,-50.16,143.27,0.0,0.0,1.0,0.0,0.0,0.0,1.0,3.24,2.65,0.0,
4.102,48.14938280768612,84.14521934128959,-107.53,-31.27,124.76,0.0,0.0,1.0,0.0,0.0,0.0,1.0,2.94,5.3,0.0,
4.125,49.085938280768616,82.48452193412895,-139.77,75.72,137.83,0.0,0.0,1.0,0.0,0.0,0.0,0.0,2.94,1.47,0.0,
4.15,48.162593828076865,80.29345219341289,-95.14,-79.7,110.72,0.0,0.0,1.0,0.0,0.0,0.0,1.0,3.14,4.32,0.0,
4.173,48.55625938280769,80.68634521934129,-108.87,-7.25,105.68,0.0,0.0,1.0,0.0,0.0,0.0,1.0,3.14,5.2,0.0,
4.198,50.14362593828077,78.83563452193413,-112.37,74.8,105.91,0.0,0.0,1.0,0.0,0.0,0.0,1.0,3.53,3.53,0.0,
4.221,48.78136259382808,76.22956345219342,-88.09,-2.7,105.0,0.0,0.0,1.0,0.0,0.0,0.0,1.0,3.83,6.28,0.0,
4.245,46.998136259382804,73.98895634521934,-60.95,-54.89,96.86,0.0,0.0,1.0,0.0,0.0,0.0,1.0,3.83,4.51,0.0,
4.27,46.82881362593828,74.40389563452194,-17.53,-26.04,48.56,0.0,0.0,1.0,0.0,0.0,0.0,0.0,3.43,1.28,0.0,
4.293,48.152881362593824,76.3893895634522,25.27,52.19,-3.29,0.0,0.0,1.0,0.0,0.0,0.0,0.0,3.04,0.0,0.0,
4.317,49.34728813625938,73.96893895634521,49.91,13.03,-54.06,0.0,0.0,1.0,0.0,0.0,0.0,0.0,1.57,6.97,0.0,
4.34,49.853728813625935,72.79089389563453,93.94,-65.26,-101.3,0.0,0.0,0.0,0.0,0.0,0.0,0.0,1.18,0.0,0.0,
4.364,51.24537288136259,74.49108938956346,103.94,104.29,-119.41,0.0,0.0,0.0,0.0,0.0,0.0,0.0,1.08,1.86,0.0,
4.388,53.44553728813626,76.00210893895634,107.0,44.56,-151.52,0.0,0.0,0.0,0.0,0.0,0.0,0.0,0.98,1.86,0.0,
4.412,52.873553728813626,80.50021089389564,119.84,-48.49,-130.87,0.0,0.0,0.0,0.0,0.0,0.0,0.0,1.08,0.0,0.0,
4.436,51.65535537288136,83.38902108938956,99.74,-32.22,-127.02,0.0,0.0,0.0,0.0,0.0,0.0,0.0,0.98,0.0,0.0,
4.46,51.11953553728814,87.64690210893896,67.99,27.71,-77.11,0.0,0.0,0.0,0.0,0.0,0.0,0.0,0.98,0.0,0.0,
4.484,50.83195355372881,92.00569021089389,42.08,24.6,-95.56,0.0,0.0,0.0,0.0,0.0,0.0,0.0,1.18,0.0,0.0,
4.508,51.001195355372886,95.2315690210894,-7.72,5.71,-70.41,0.0,0.0,0.0,0.0,0.0,0.0,0.0,1.37,0.0,0.0,
4.532,50.856119535537296,94.45615690210894,-19.71,-58.48,-20.77,0.0,0.0,0.0,0.0,0.0,0.0,0.0,1.47,0.0,0.0,
4.555,49.09561195355373,92.2186156902109,4.2,-4.97,-9.6,0.0,0.0,0.0,0.0,0.0,0.0,0.0,1.18,0.0,0.0,
4.579,50.719561195355375,90.76186156902108,-4.15,23.18,4.95,0.0,0.0,0.0,0.0,0.0,0.0,0.0,1.28,0.0,0.0,
4.602,51.403956119535536,89.55418615690212,-5.2,-33.11,-32.36,0.0,0.0,0.0,0.0,0.0,0.0,0.0,1.37,0.0,0.0,
4.626,50.779395611953554,90.3064186156902,-12.21,-25.5,-55.63,0.0,0.0,0.0,0.0,0.0,0.0,0.0,1.37,0.0,0.0,
4.651,53.11093956119535,92.82064186156902,-40.81,-7.97,-45.76,0.0,0.0,0.0,1.0,0.0,0.0,0.0,1.37,0.0,0.0,
4.674,52.50709395611953,87.9870641861569,22.66,-18.56,-59.77,0.0,0.0,1.0,1.0,1.0,0.0,0.0,1.77,0.0,0.0,
4.699,52.34770939561195,86.74770641861569,3.69,5.66,-2.4,0.0,0.0,2.0,1.0,1.0,0.0,0.0,3.92,8.53,0.0,
4.722,51.14377093956119,87.15477064186157,-14.54,-67.5,-24.22,0.0,0.0,3.0,1.0,2.0,0.0,1.0,5.2,14.81,0.0,
4.747,49.49337709395613,86.35847706418616,-0.89,-71.37,-42.23,0.0,0.0,4.0,0.0,3.0,1.0,2.0,6.77,5.1,0.0,
4.771,49.967337709395615,87.03484770641862,-41.25,53.73,-2.13,0.0,0.0,3.0,0.0,3.0,1.0,2.0,6.77,5.0,0.0,
4.795,49.483733770939565,89.26248477064188,41.11,52.6,-1.25,0.0,0.0,1.0,0.0,2.0,1.0,1.0,4.81,0.0,0.0,
4.818,47.46437337709396,88.5852484770642,63.56,109.73,30.69,0.0,0.0,1.0,0.0,1.0,1.0,0.0,1.96,0.0,0.0,
4.843,44.96743733770939,93.02652484770641,81.45,62.07,11.86,0.0,0.0,0.0,0.0,0.0,1.0,0.0,0.29,0.0,0.0,
4.867,51.88174373377093,92.81365248477064,1.22,-130.98,-35.93,0.0,0.0,0.0,0.0,1.0,1.0,0.0,0.49,0.0,0.0,
4.89,49.9271743733771,97.85936524847706,48.93,-104.08,-30.11,0.0,0.0,0.0,0.0,0.0,1.0,0.0,1.37,0.0,0.0,
4.915,49.398717437337716,100.5239365248477,-22.86,44.31,-2.51,0.0,0.0,0.0,0.0,0.0,1.0,0.0,1.37,6.38,0.0,
4.938,51.15487174373377,102.13139365248477,34.05,165.84,27.46,0.0,0.0,0.0,0.0,0.0,1.0,0.0,1.37,8.44,0.0,
4.962,53.39148717437338,101.98613936524848,-21.4,66.61,21.72,0.0,0.0,0.0,0.0,0.0,1.0,0.0,1.77,1.08,0.0,
4.986,52.22914871743734,101.01761393652485,-43.15,-118.97,-22.78,0.0,0.0,0.0,0.0,0.0,1.0,0.0,1.96,0.0,0.0,
5.01,51.66291487174374,98.2117613936525,-58.0,-98.81,-20.98,0.0,0.0,0.0,0.0,0.0,1.0,0.0,2.45,0.0,0.0,
5.035,49.59929148717437,89.33617613936525,-57.01,1.44,8.22,0.0,0.0,0.0,0.0,1.0,1.0,0.0,2.65,0.2,0.0,
5.058,50.83292914871743,89.80761761393651,45.55,62.76,-31.3,0.0,0.0,0.0,0.0,0.0,1.0,0.0,3.24,8.73,0.0,
5.082,50.551292914871745,88.81976176139365,20.4,27.77,9.94,0.0,0.0,0.0,0.0,0.0,1.0,0.0,2.75,6.97,0.0,
5.105,51.153129291487176,89.03597617613937,-3.85,4.65,8.54,0.0,0.0,0.0,0.0,0.0,1.0,0.0,2.84,5.98,0.0,
5.129,51.01531292914871,88.21159761761395,-7.62,-7.0,-5.12,0.0,0.0,0.0,0.0,0.0,1.0,0.0,2.65,5.1,0.0,
5.152,50.87553129291487,87.12115976176139,-15.68,-16.82,4.32,0.0,0.0,0.0,0.0,0.0,1.0,0.0,2.55,2.65,0.0,
5.177,50.51055312929149,86.49911597617614,-6.58,-9.84,-9.23,0.0,0.0,0.0,0.0,0.0,1.0,0.0,2.75,2.84,0.0,
5.2,49.781055312929155,85.85191159761762,-8.66,-20.4,-6.43,0.0,0.0,0.0,0.0,0.0,1.0,0.0,2.94,0.0,0.0,
5.224,49.294105531292914,84.49119115976177,-1.38,-10.62,-0.6,0.0,0.0,0.0,0.0,0.0,1.0,0.0,3.04,0.2,0.0,
5.248,49.461410553129284,84.46311911597617,2.92,-10.85,-0.8,0.0,0.0,0.0,0.0,0.0,1.0,0.0,3.34,2.06,0.0,
5.271,49.15414105531293,84.28031191159762,-3.98,-21.66,0.25,0.0,0.0,0.0,0.0,0.0,1.0,0.0,3.14,1.96,0.0,
5.295,48.691414105531294,83.55103119115977,-2.85,-11.53,-4.47,0.0,0.0,0.0,1.0,1.0,1.0,0.0,3.04,1.67,0.0,
5.319,48.53714141055313,83.55010311911597,0.44,-5.47,-8.41,0.0,0.0,0.0,1.0,1.0,1.0,0.0,2.84,1.37,0.0,
5.343,48.51271414105531,83.2980103119116,-1.91,-7.93,-6.52,0.0,0.0,0.0,1.0,0.0,1.0,0.0,3.04,0.69,0.0,
5.366,48.35727141410554,83.07480103119116,-6.25,-8.88,-0.01,0.0,0.0,0.0,1.0,0.0,1.0,0.0,3.14,1.77,0.0,
5.39,48.07172714141055,82.98948010311912,-6.71,-12.18,-2.64,0.0,0.0,0.0,1.0,0.0,1.0,0.0,3.14,1.57,0.0,
5.413,47.87217271414106,82.6029480103119,-4.31,-3.15,-3.37,0.0,0.0,0.0,1.0,0.0,1.0,0.0,3.24,2.45,0.0,
5.438,47.74421727141411,82.6452948010312,-3.21,-2.07,-4.69,0.0,0.0,0.0,1.0,0.0,1.0,0.0,3.24,2.65,0.0,
5.462,47.49742172714141,82.35252948010312,-4.44,-5.19,-2.82,0.0,0.0,0.0,1.0,1.0,1.0,0.0,3.43,2.45,0.0,
5.485,47.25674217271414,82.16125294801031,-0.67,-2.29,-4.12,0.0,0.0,0.0,1.0,1.0,1.0,0.0,3.73,1.77,0.0,
5.509,47.11567421727141,82.06112529480103,-5.4,-0.82,-3.66,0.0,0.0,0.0,1.0,1.0,1.0,0.0,3.92,1.57,0.0,
5.532,46.993567421727136,81.7721125294801,-8.06,0.17,1.49,0.0,0.0,0.0,1.0,1.0,1.0,0.0,4.12,0.0,0.0,
5.556,47.10735674217271,81.23021125294801,-6.44,6.29,3.02,0.0,0.0,0.0,1.0,2.0,1.0,0.0,4.32,0.69,0.0,
5.579,47.091735674217276,81.08602112529479,-3.27,-1.44,2.5,0.0,0.0,0.0,1.0,2.0,1.0,0.0,4.22,1.77,0.0,
5.604,47.07217356742173,81.06260211252949,-4.21,-0.69,2.83,0.0,0.0,0.0,1.0,2.0,1.0,0.0,4.12,5.69,0.0,
5.627,47.151217356742166,81.01526021125295,-3.45,1.2,1.94,0.0,0.0,0.0,1.0,2.0,1.0,0.0,4.22,10.4,0.0,
5.651,47.25812173567422,81.1725260211253,-2.37,-1.85,1.25,0.0,0.0,0.0,1.0,2.0,1.0,0.0,4.22,10.01,0.0,
5.675,47.06181217356742,81.10725260211252,-4.26,-9.01,1.97,0.0,0.0,0.0,1.0,1.0,1.0,0.0,4.12,4.51,0.0,
5.698,47.06918121735674,81.20872526021125,0.95,0.63,-0.02,0.0,0.0,0.0,1.0,1.0,1.0,0.0,3.83,9.42,0.0,
5.722,46.97991812173568,81.31787252602112,-4.08,0.44,2.28,0.0,0.0,0.0,1.0,1.0,1.0,0.0,3.63,17.95,0.0,
5.745,46.76399181217357,81.29278725260211,-3.4,-0.42,1.99,0.0,0.0,0.0,1.0,1.0,1.0,0.0,3.43,16.97,0.0,
5.77,46.72439918121736,81.50627872526022,-0.27,-1.59,-2.4,0.0,0.0,0.0,1.0,1.0,1.0,0.0,3.34,1.08,0.0,
5.793,46.85543991812173,81.57262787252601,-0.12,3.68,-0.35,0.0,0.0,0.0,1.0,0.0,1.0,0.0,3.24,2.75,0.0,
5.817,47.21054399181217,81.85826278725261,3.85,1.89,-0.44,0.0,0.0,0.0,1.0,0.0,1.0,0.0,3.24,4.41,0.0,
5.84,47.147054399181215,81.94082627872527,-3.49,0.73,-0.08,0.0,0.0,0.0,1.0,0.0,1.0,0.0,3.04,5.1,0.0,
5.864,46.88870543991812,81.89508262787254,-2.19,-0.48,-0.79,0.0,0.0,0.0,1.0,0.0,1.0,0.0,3.04,6.57,0.0,
5.888,46.89887054399181,81.89950826278726,-1.74,-0.21,-3.43,0.0,0.0,0.0,1.0,0.0,1.0,0.0,3.04,12.95,0.0,
5.911,46.95388705439918,81.99895082627873,-3.66,-4.61,-1.83,0.0,0.0,0.0,1.0,0.0,1.0,0.0,3.04,10.69,0.0,
5.936,46.99538870543992,81.63989508262787,-6.25,-2.98,-1.24,0.0,0.0,0.0,1.0,0.0,1.0,0.0,3.24,3.73,0.0,
5.959,46.88253887054399,81.5949895082628,-4.05,-4.28,-0.18,0.0,0.0,0.0,0.0,0.0,1.0,0.0,3.34,2.75,0.0,
5.983,46.86225388705439,81.50949895082628,-3.05,-6.99,-0.38,0.0,0.0,0.0,0.0,1.0,1.0,0.0,3.34,3.43,0.0,
6.006,46.90522538870544,81.49194989508263,-0.84,-5.45,-0.43,0.0,0.0,0.0,0.0,1.0,1.0,0.0,3.43,7.36,0.0,
6.03,46.81052253887054,81.50819498950827,-3.21,-4.98,-0.18,0.0,0.0,0.0,0.0,1.0,1.0,0.0,3.53,6.08,0.0,
6.054,46.81005225388706,81.43781949895083,-4.05,-1.64,-0.28,0.0,0.0,0.0,0.0,1.0,1.0,0.0,3.73,1.08,0.0,
6.078,46.8190052253887,81.43978194989509,-5.12,-0.21,-1.15,0.0,0.0,0.0,0.0,1.0,1.0,0.0,4.02,0.78,0.0,
6.102,46.792900522538865,81.38597819498952,-5.63,5.27,-0.14,0.0,0.0,0.0,0.0,1.0,1.0,0.0,4.22,0.78,0.0,
6.125,46.78129005225389,81.32659781949896,-4.53,4.26,-0.35,0.0,0.0,0.0,0.0,1.0,1.0,0.0,4.41,0.78,0.0,
6.15,46.92412900522539,81.1856597819499,-4.35,4.09,0.23,0.0,0.0,0.0,0.0,1.0,1.0,0.0,4.41,0.78,0.0,
6.173,47.01941290052254,81.21656597819499,-5.08,1.18,-0.84,0.0,0.0,0.0,0.0,1.0,1.0,0.0,4.51,0.88,0.0,
6.197,47.03794129005225,81.1926565978195,-5.22,0.96,-0.87,0.0,0.0,0.0,0.0,1.0,1.0,0.0,4.61,0.88,0.0,
6.22,47.05779412900523,81.27126565978195,-5.47,1.66,0.03,0.0,0.0,0.0,1.0,1.0,1.0,0.0,4.71,0.78,0.0,
6.244,47.068779412900525,81.27912656597819,-4.96,0.22,0.72,0.0,0.0,0.0,1.0,2.0,1.0,0.0,4.91,0.78,0.0,
6.267,47.168877941290056,81.32491265659782,-3.6,1.18,-0.04,0.0,0.0,0.0,1.0,2.0,1.0,0.0,4.91,0.78,0.0,
6.291,47.331887794129,81.17649126565978,-3.93,4.34,0.66,0.0,0.0,0.0,1.0,1.0,1.0,0.0,4.71,0.59,0.0,
6.316,47.4291887794129,81.00864912656597,-4.57,3.84,0.26,0.0,0.0,0.0,1.0,1.0,1.0,0.0,4.61,0.59,0.0,
6.339,47.555918877941295,80.9738649126566,-2.33,1.01,-0.29,0.0,0.0,0.0,1.0,1.0,1.0,0.0,4.41,0.59,0.0,
6.363,47.532591887794126,80.95238649126566,-2.1,-3.08,-0.67,0.0,0.0,0.0,1.0,1.0,1.0,0.0,4.32,0.59,0.0,
6.386,47.42225918877941,81.04023864912656,0.21,-9.53,-1.98,0.0,0.0,0.0,1.0,2.0,1.0,0.0,4.32,0.59,0.0,
6.41,47.51922591887794,81.16602386491266,-0.05,-2.7,-3.03,0.0,0.0,0.0,1.0,2.0,1.0,0.0,4.32,0.69,0.0,
6.434,47.44792259188779,81.21460238649126,-3.19,-8.45,-0.83,0.0,0.0,0.0,0.0,2.0,1.0,0.0,4.22,0.69,0.0,
6.458,47.413792259188774,81.15646023864913,0.88,-8.85,-1.09,0.0,0.0,0.0,0.0,1.0,1.0,0.0,4.02,0.59,0.0,
6.481,47.32037922591888,81.29464602386491,0.29,-11.25,0.27,0.0,0.0,0.0,0.0,1.0,1.0,0.0,3.92,0.69,0.0,
6.505,47.02303792259189,81.1374646023865,-1.65,-21.79,0.53,0.0,0.0,0.0,0.0,1.0,1.0,0.0,3.73,0.59,0.0,
6.53,46.61530379225919,81.12174646023865,5.52,-16.65,-1.59,0.0,0.0,0.0,0.0,1.0,1.0,0.0,3.53,0.59,0.0,
6.553,46.619530379225914,81.13817464602386,5.27,-6.39,3.16,0.0,0.0,0.0,0.0,1.0,1.0,0.0,3.14,0.29,0.0,
6.577,46.77295303792259,81.20281746460239,3.12,-4.56,5.0,0.0,0.0,0.0,0.0,1.0,1.0,0.0,2.75,3.83,0.0,
6.599,46.45529530379226,81.50628174646025,-4.29,-23.83,5.24,0.0,0.0,0.0,0.0,1.0,1.0,0.0,2.45,11.97,0.0,
6.624,45.68552953037923,81.20362817464601,-4.15,-22.78,5.84,0.0,0.0,0.0,0.0,1.0,1.0,0.0,2.35,12.26,0.0,
6.647,45.37455295303793,81.7043628174646,5.59,-2.27,5.15,0.0,0.0,0.0,0.0,0.0,1.0,0.0,2.06,3.83,0.0,
6.671,45.478455295303796,82.26743628174646,2.4,3.31,0.53,0.0,0.0,0.0,0.0,0.0,1.0,0.0,1.96,5.98,0.0,
6.693,45.33584552953038,82.65674362817465,-6.85,-2.39,-1.14,0.0,0.0,0.0,0.0,0.0,1.0,0.0,1.96,5.89,0.0,
6.717,45.26758455295304,82.38967436281746,-5.8,5.15,-0.64,0.0,0.0,0.0,0.0,0.0,1.0,0.0,1.96,5.49,0.0,
6.74,45.494758455295305,82.31796743628175,-2.54,21.87,3.88,0.0,0.0,0.0,0.0,0.0,1.0,0.0,1.96,8.83,0.0,
6.764,46.111475845529526,82.54479674362818,-6.98,31.41,7.92,0.0,0.0,0.0,0.0,0.0,1.0,0.0,1.96,7.06,0.0,
6.788,46.54214758455296,82.40547967436281,-12.55,45.67,10.82,0.0,0.0,0.0,0.0,0.0,1.0,0.0,1.96,4.41,0.0,
6.811,46.9002147584553,82.22954796743628,-1.8,37.28,2.48,0.0,0.0,0.0,0.0,0.0,1.0,0.0,1.96,3.14,0.0,
6.835,48.06102147584553,83.56195479674362,-12.24,60.13,1.4,0.0,0.0,0.0,0.0,0.0,1.0,0.0,2.06,3.34,0.0,
6.858,48.61810214758455,81.83219547967435,-26.99,43.82,8.35,0.0,0.0,0.0,0.0,1.0,1.0,0.0,2.35,3.92,0.0,
6.883,49.843810214758456,83.11721954796745,-24.14,74.43,-1.85,0.0,0.0,0.0,0.0,1.0,1.0,0.0,3.34,2.65,0.0,
6.906,50.65038102147585,82.13872195479674,-24.56,9.78,1.39,0.0,0.0,0.0,0.0,1.0,1.0,0.0,4.41,3.63,0.0,
6.93,50.506038102147585,81.98687219547966,-10.89,-5.76,-1.35,0.0,0.0,0.0,0.0,1.0,1.0,0.0,5.69,1.67,0.0,
6.953,51.09460381021476,81.77368721954797,-15.47,26.98,6.39,0.0,0.0,0.0,1.0,2.0,1.0,0.0,6.38,5.4,0.0,
6.978,52.00846038102148,80.6633687219548,-0.29,38.41,7.88,0.0,0.0,0.0,1.0,2.0,1.0,0.0,6.97,5.4,0.0,
7.002,52.84684603810215,81.42533687219549,17.25,5.97,-14.24,0.0,0.0,0.0,1.0,2.0,1.0,0.0,7.85,3.04,0.0,
7.025,53.10168460381021,81.70853368721956,-2.07,-0.51,-2.15,0.0,0.0,0.0,1.0,2.0,1.0,0.0,8.24,0.78,0.0,
7.049,53.21716846038102,81.41285336872195,1.58,-25.14,3.87,0.0,0.0,0.0,0.0,2.0,1.0,0.0,8.53,0.29,0.0,
7.073,53.3187168460381,81.2392853368722,-1.92,-37.16,2.52,0.0,0.0,0.0,1.0,2.0,1.0,0.0,8.24,0.0,0.0,
7.097,53.04087168460381,81.22192853368722,0.08,-31.63,-0.01,0.0,0.0,0.0,1.0,2.0,1.0,0.0,8.24,0.0,0.0,
7.12,52.878087168460375,80.89619285336872,3.77,-15.94,1.7,0.0,0.0,0.0,1.0,2.0,1.0,0.0,8.63,0.0,0.0,
7.144,52.53780871684604,81.10661928533686,10.19,-36.82,1.79,0.0,0.0,0.0,0.0,2.0,1.0,0.0,8.73,0.0,0.0,
7.169,52.0897808716846,81.33466192853369,14.47,-27.6,4.49,0.0,0.0,0.0,0.0,1.0,1.0,0.0,7.95,0.0,0.0,
7.192,51.55897808716846,81.39346619285337,13.49,-27.58,8.88,0.0,0.0,0.0,0.0,1.0,1.0,0.0,6.87,0.0,0.0,
7.216,50.99289780871685,82.11034661928534,12.89,-30.82,2.11,0.0,0.0,0.0,0.0,0.0,1.0,0.0,5.59,0.0,0.0,
7.239,50.54928978087169,83.19903466192854,7.7,-38.7,-11.52,0.0,0.0,0.0,0.0,1.0,1.0,0.0,5.4,6.28,0.0,
7.263,50.02792897808717,83.06490346619286,2.16,-44.37,-11.74,0.0,0.0,0.0,0.0,2.0,1.0,0.0,5.79,7.26,0.0,
7.287,49.26479289780872,83.57349034661928,8.08,-44.09,-8.47,0.0,0.0,1.0,0.0,3.0,1.0,0.0,7.16,1.08,0.0,
7.311,48.64847928978087,84.32634903466192,14.53,-28.21,-5.85,0.0,0.0,1.0,0.0,3.0,1.0,0.0,8.14,0.0,0.0,
7.335,47.974847928978086,84.2846349034662,13.63,-25.71,-5.85,0.0,0.0,1.0,0.0,3.0,1.0,0.0,8.04,5.1,0.0,
7.359,47.34048479289781,84.25346349034662,9.93,-28.41,-3.58,0.0,0.0,1.0,0.0,3.0,1.0,0.0,7.95,8.14,0.0,
7.383,46.800048479289785,84.44834634903465,16.3,-30.63,-4.18,0.0,0.0,1.0,0.0,3.0,1.0,0.0,8.04,6.47,0.0,
7.407,45.99000484792898,84.16183463490346,13.69,-30.76,6.18,0.0,0.0,0.0,0.0,2.0,1.0,0.0,7.75,5.59,0.0,
7.431,45.55800048479289,85.24018346349034,11.24,-25.34,8.79,0.0,0.0,0.0,0.0,2.0,1.0,0.0,6.97,5.1,0.0,
7.454,45.0108000484793,85.95101834634904,0.89,-27.52,3.69,0.0,0.0,0.0,0.0,2.0,1.0,0.0,6.47,4.91,0.0,
7.479,44.533080004847925,85.70710183463491,-4.91,-19.38,-1.79,0.0,0.0,0.0,0.0,2.0,1.0,0.0,6.57,4.61,0.0,
7.502,43.82830800048479,86.1327101834635,-3.85,-13.65,5.02,0.0,0.0,0.0,1.0,3.0,1.0,0.0,7.46,4.71,0.0,
7.526,43.12783080004848,86.49927101834636,-1.84,-17.85,3.86,0.0,0.0,0.0,1.0,2.0,1.0,0.0,7.85,4.71,0.0,
7.549,42.69778308000485,86.33792710183464,-8.52,0.96,3.21,0.0,0.0,0.0,1.0,2.0,1.0,0.0,8.14,4.81,0.0,
7.574,42.11477830800048,86.49279271018347,-8.11,-8.95,3.92,0.0,0.0,0.0,2.0,2.0,1.0,0.0,8.24,5.2,0.0,
7.598,41.58847783080005,86.15727927101835,-8.24,0.4,-2.08,0.0,0.0,0.0,2.0,2.0,1.0,0.0,8.34,5.4,0.0,
7.621,41.51784778308001,85.86272792710183,-6.69,3.67,-1.19,0.0,0.0,1.0,2.0,3.0,1.0,0.0,9.03,5.1,0.0,
7.645,41.222784778308,86.21127279271018,-4.92,-1.45,-2.7,0.0,0.0,1.0,3.0,3.0,1.0,0.0,9.91,4.71,0.0,
7.668,41.1482784778308,86.66012727927102,-10.99,1.61,-1.54,0.0,0.0,1.0,3.0,3.0,1.0,0.0,10.89,4.41,0.0,
7.693,41.230827847783075,86.3180127279271,-4.02,8.6,-2.64,0.0,0.0,2.0,4.0,4.0,1.0,0.0,12.16,4.51,0.0,
7.716,41.2120827847783,86.39180127279272,-5.3,-1.1,-0.88,0.0,0.0,2.0,4.0,4.0,1.0,0.0,13.34,1.67,0.0,
7.74,41.22820827847783,86.36318012727928,-7.56,-2.16,0.69,0.0,0.0,2.0,4.0,4.0,1.0,0.0,14.22,0.0,0.0,
7.764,41.103820827847784,86.06331801272793,-5.0,-6.15,-0.33,0.0,0.0,2.0,4.0,4.0,1.0,0.0,14.62,0.0,0.0,
7.788,41.037382082784774,85.90733180127279,-2.6,-5.67,0.23,0.0,0.0,3.0,4.0,4.0,1.0,0.0,15.3,0.0,0.0,
7.813,40.949738208278475,85.79273318012727,-1.7,-8.84,0.95,0.0,0.0,2.0,4.0,4.0,1.0,0.0,15.3,0.0,0.0,
7.836,40.86897382082785,85.61927331801272,-2.19,-10.21,2.12,0.0,0.0,2.0,4.0,4.0,1.0,0.0,15.01,0.0,0.0,
7.86,40.752897382082786,85.56592733180128,-2.81,-13.96,3.19,0.0,0.0,2.0,3.0,4.0,1.0,0.0,15.01,0.0,0.0,
7.884,40.37228973820827,85.42559273318012,-3.82,-16.11,3.31,0.0,0.0,2.0,3.0,4.0,1.0,0.0,14.52,0.0,0.0,
7.908,39.92022897382082,85.411559273318,-0.76,-12.29,1.3,0.0,0.0,2.0,3.0,3.0,1.0,0.0,14.32,0.0,0.0,
7.931,39.758022897382084,85.5001559273318,1.47,-0.81,-0.43,0.0,0.0,2.0,3.0,3.0,1.0,0.0,14.22,547.2,0.0,
7.956,39.84080228973821,85.73401559273319,0.27,0.42,-0.88,0.0,0.0,2.0,3.0,3.0,1.0,0.0,14.42,0.0,0.0,
7.98,39.90308022897382,85.77540155927332,-6.08,-3.23,-0.42,0.0,0.0,3.0,3.0,4.0,1.0,0.0,14.72,0.0,0.0,
8.004,39.684308022897376,85.67154015592732,-7.98,-4.37,-0.55,0.0,0.0,3.0,3.0,3.0,1.0,0.0,15.7,0.0,0.0,
8.028,39.40143080228974,85.45415401559275,-7.02,-3.85,-0.85,0.0,0.0,3.0,4.0,4.0,1.0,0.0,16.48,0.0,0.0,
8.052,39.25614308022897,85.22541540155927,-1.6,0.66,-3.39,0.0,0.0,3.0,4.0,4.0,1.0,1.0,17.46,0.0,0.0,
8.076,39.412614308022896,85.26554154015592,1.18,5.95,-2.92,0.0,0.0,4.0,4.0,4.0,0.0,1.0,18.54,0.29,0.0,
8.1,39.59926143080229,85.37755415401558,-4.22,-2.94,-0.62,0.0,0.0,4.0,4.0,4.0,0.0,1.0,19.13,0.0,0.0,
8.124,39.608926143080225,85.29875541540157,-5.47,-2.47,-0.85,0.0,0.0,4.0,4.0,4.0,0.0,1.0,19.42,0.0,0.0,
8.148,39.60989261430802,85.20987554154016,-3.47,0.95,-1.63,0.0,0.0,4.0,4.0,4.0,0.0,1.0,19.42,0.1,0.0,
8.172,39.447989261430806,85.11998755415402,-1.92,-0.69,-1.29,0.0,0.0,4.0,4.0,4.0,0.0,1.0,19.42,0.59,0.0,
8.197,39.36879892614308,85.10199875541541,-1.46,-0.86,-0.69,0.0,0.0,4.0,4.0,4.0,0.0,1.0,19.52,0.88,0.0,
8.22,39.531879892614306,85.03719987554155,-1.91,-0.19,0.33,0.0,0.0,4.0,4.0,4.0,0.0,1.0,19.23,0.98,0.0,
8.245,39.51218798926143,85.14771998755415,-3.2,-2.34,1.27,0.0,0.0,4.0,4.0,4.0,0.0,1.0,18.64,0.98,0.0,
8.268,39.48321879892614,85.23977199875543,-2.83,-4.08,2.31,0.0,0.0,3.0,4.0,3.0,0.0,1.0,18.15,1.08,0.0,
8.293,39.41732187989261,85.32097719987554,-1.42,-4.45,1.18,0.0,0.0,3.0,4.0,3.0,0.0,1.0,17.66,1.18,0.0,
8.316,39.32973218798926,85.18509771998755,-0.94,-2.0,-0.27,0.0,0.0,3.0,4.0,3.0,0.0,1.0,16.87,1.18,0.0,
8.341,39.27597321879893,85.33350977199875,0.76,0.04,-0.57,0.0,0.0,3.0,4.0,3.0,0.0,1.0,16.58,1.28,0.0,
8.365,39.2795973218799,85.38435097719987,-0.66,-1.01,0.21,0.0,0.0,3.0,4.0,3.0,0.0,1.0,16.38,1.28,0.0,
8.389,39.28895973218798,85.52443509771999,-1.6,-2.63,0.89,0.0,0.0,3.0,4.0,3.0,0.0,1.0,15.99,1.28,0.0,
8.413,39.3168959732188,85.511443509772,-1.38,-1.47,1.18,0.0,0.0,3.0,4.0,3.0,0.0,1.0,15.7,1.18,0.0,
8.437,39.35568959732188,85.5461443509772,-0.97,-1.38,0.71,0.0,0.0,2.0,3.0,3.0,0.0,1.0,15.21,1.08,0.0,
8.461,39.22456895973219,85.65761443509773,-0.43,-2.42,-0.31,0.0,0.0,2.0,3.0,3.0,0.0,1.0,14.72,0.78,0.0,
8.485,39.16645689597322,85.68676144350977,-0.19,-3.57,-0.05,0.0,0.0,2.0,3.0,3.0,0.0,1.0,14.22,0.0,0.0,
8.51,39.187645689597325,85.65367614435098,0.14,-2.8,-0.26,0.0,0.0,2.0,3.0,3.0,0.0,1.0,14.13,0.0,0.0,
8.534,39.14476456895973,85.75836761443509,1.0,-3.85,0.33,0.0,0.0,2.0,3.0,3.0,0.0,1.0,13.93,0.0,0.0,
8.557,39.16747645689597,85.91283676144351,-1.09,-2.77,0.53,0.0,0.0,2.0,3.0,3.0,0.0,1.0,13.73,0.0,0.0,
8.582,39.1337476456896,85.92828367614436,-1.85,-3.12,0.69,0.0,0.0,2.0,3.0,3.0,0.0,1.0,13.64,0.0,0.0,
8.605,39.13037476456896,86.00182836761444,-1.95,-1.81,0.36,0.0,0.0,2.0,3.0,3.0,0.0,1.0,13.44,0.0,0.0,
8.63,39.11203747645689,86.23418283676145,-2.71,-0.66,-0.73,0.0,0.0,2.0,3.0,3.0,0.0,0.0,13.34,0.0,0.0,
8.654,39.00220374764569,86.25741828367615,-2.79,-2.34,-1.24,0.0,0.0,2.0,3.0,3.0,0.0,1.0,13.34,0.0,0.0,
8.678,38.91922037476456,86.22374182836761,-2.02,-0.92,-0.97,0.0,0.0,2.0,3.0,3.0,0.0,1.0,13.54,0.2,0.0,
8.702,38.87492203747645,86.28337418283677,-2.28,-1.84,-0.37,0.0,0.0,2.0,3.0,3.0,0.0,1.0,13.54,0.49,0.0,
8.726,38.81649220374764,86.29833741828368,-3.46,-2.07,-0.27,0.0,0.0,2.0,3.0,3.0,0.0,1.0,13.44,0.69,0.0,
8.751,38.80164922037476,86.29083374182837,-2.3,-1.42,-0.63,0.0,0.0,2.0,3.0,3.0,0.0,1.0,13.54,0.49,0.0,
8.774,38.88116492203748,86.44308337418283,-1.6,0.07,-0.7,0.0,0.0,2.0,3.0,3.0,0.0,1.0,13.54,0.39,0.0,
8.799,38.862116492203754,86.52130833741829,-3.52,-2.27,-0.63,0.0,0.0,2.0,3.0,3.0,0.0,1.0,13.34,0.2,0.0,
8.823,38.851211649220375,86.54713083374182,-3.01,-1.13,-1.07,0.0,0.0,2.0,3.0,3.0,0.0,1.0,13.44,0.0,0.0,
8.847,38.94912116492203,86.63071308337418,-3.24,2.42,-1.6,0.0,0.0,2.0,3.0,3.0,0.0,1.0,13.64,0.0,0.0,
8.871,38.922912116492206,86.63907130833742,-3.65,-0.13,-1.23,0.0,0.0,3.0,3.0,3.0,0.0,1.0,13.73,0.0,0.0,
8.895,38.95629121164922,86.59490713083375,-4.71,-1.27,-1.02,0.0,0.0,3.0,3.0,3.0,0.0,1.0,13.83,0.0,0.0,
8.92,38.977629121164924,86.57249071308337,-4.03,-0.3,-0.84,0.0,0.0,3.0,4.0,3.0,0.0,1.0,14.03,0.0,0.0,
8.943,38.9527629121165,86.49824907130832,-3.92,1.09,-1.04,0.0,0.0,3.0,4.0,3.0,0.0,1.0,14.22,0.0,0.0,
8.968,38.92327629121166,86.44582490713084,-3.81,-1.19,-0.69,0.0,0.0,3.0,4.0,3.0,0.0,1.0,14.52,0.0,0.0,
8.991,38.92032762912117,86.35958249071308,-4.47,-1.6,-0.99,0.0,0.0,3.0,4.0,3.0,0.0,1.0,14.62,0.0,0.0,
9.016,38.938032762912115,86.30595824907131,-4.27,-1.53,-1.11,0.0,0.0,3.0,4.0,3.0,0.0,1.0,14.91,0.0,0.0,
9.04,39.05680327629121,86.25559582490713,-5.1,-2.27,-0.97,0.0,0.0,3.0,4.0,3.0,0.0,1.0,15.11,0.0,0.0,
9.064,39.13168032762912,86.25055958249071,-5.38,-2.7,-0.47,0.0,0.0,3.0,4.0,3.0,0.0,1.0,15.3,0.0,0.0,
9.089,39.13916803276291,86.14205595824906,-4.84,-2.08,-0.11,0.0,0.0,3.0,4.0,3.0,0.0,1.0,15.4,0.0,0.0,
9.112,39.157916803276294,86.07720559582489,-4.64,-3.02,0.06,0.0,0.0,3.0,4.0,3.0,0.0,1.0,15.4,0.0,0.0,
9.137,39.17779168032763,86.07972055958248,-5.37,0.27,-0.49,0.0,0.0,3.0,4.0,3.0,0.0,1.0,15.4,0.0,0.0,
9.16,39.161779168032766,86.05297205595824,-5.69,0.08,-0.15,0.0,0.0,3.0,4.0,3.0,0.0,1.0,15.5,0.0,0.0,
9.185,39.21417791680328,86.02329720559581,-5.66,1.39,-0.47,0.0,0.0,3.0,4.0,3.0,0.0,1.0,15.5,0.0,0.0,
9.208,39.24641779168033,85.92132972055958,-5.8,1.36,-0.99,0.0,0.0,3.0,4.0,3.0,0.0,1.0,15.7,0.0,0.0,
9.233,39.24964177916804,85.80313297205598,-5.84,1.66,-0.69,0.0,0.0,3.0,4.0,3.0,0.0,1.0,15.79,0.0,0.0,
9.256,39.321964177916804,85.7103132972056,-5.01,2.79,-0.38,0.0,0.0,3.0,4.0,3.0,0.0,1.0,15.99,0.0,0.0,
9.281,39.32919641779168,85.71903132972055,-5.76,0.93,-0.37,0.0,0.0,3.0,4.0,3.0,0.0,1.0,16.09,0.0,0.0,
9.305,39.347919641779164,85.61190313297205,-4.75,2.03,-0.7,0.0,0.0,3.0,5.0,3.0,0.0,1.0,16.38,0.0,0.0,
9.329,39.39479196417792,85.4751903132972,-4.88,2.71,-0.55,0.0,0.0,3.0,5.0,3.0,0.0,1.0,16.38,0.0,0.0,
9.353,39.444479196417795,85.41651903132971,-5.56,-1.49,0.11,0.0,0.0,3.0,5.0,3.0,0.0,1.0,16.58,0.0,0.0,
9.377,39.50344791964178,85.36565190313297,-6.43,-0.92,0.27,0.0,0.0,3.0,5.0,3.0,0.0,1.0,16.68,0.0,0.0,
9.401,39.545344791964176,85.31556519031331,-5.12,-1.13,0.21,0.0,0.0,3.0,5.0,3.0,0.0,1.0,16.87,0.0,0.0,
9.425,39.60353447919642,85.31055651903134,-5.44,0.2,0.24,0.0,0.0,3.0,5.0,3.0,0.0,1.0,16.87,0.0,0.0,
9.449,39.600353447919645,85.37305565190313,-5.4,-0.02,-0.1,0.0,0.0,3.0,5.0,3.0,0.0,1.0,16.97,0.0,0.0,
9.474,39.663035344791965,85.29830556519032,-6.76,-1.28,0.2,0.0,0.0,3.0,5.0,3.0,0.0,1.0,17.07,0.0,0.0,
9.497,39.6783035344792,85.23683055651904,-6.37,-0.06,-0.03,0.0,0.0,3.0,5.0,3.0,0.0,1.0,17.07,0.0,0.0,
9.522,39.70683035344793,85.18568305565191,-6.01,-0.47,-0.08,0.0,0.0,3.0,5.0,3.0,0.0,1.0,17.36,0.0,0.0,
9.545,39.5746830353448,84.89256830556519,-6.21,-1.79,-0.15,0.0,0.0,3.0,5.0,3.0,0.0,1.0,17.46,0.0,0.0,
9.57,39.543468303534475,84.7552568305565,-5.5,-1.78,-0.65,0.0,0.0,3.0,5.0,3.0,0.0,1.0,17.66,0.0,0.0,
9.594,39.56734683035344,84.64252568305565,-3.87,-0.73,-0.82,0.0,0.0,3.0,5.0,3.0,0.0,1.0,17.95,0.0,0.0,
9.618,39.59673468303534,84.64025256830557,-4.05,-1.66,-0.79,0.0,0.0,3.0,5.0,3.0,0.0,1.0,18.05,0.0,0.0,
9.643,39.66267346830354,84.62202525683055,-5.7,-1.85,-0.44,0.0,0.0,3.0,5.0,3.0,0.0,2.0,18.05,0.0,0.0,
9.666,39.64226734683035,84.58420252568305,-4.92,-2.11,-0.66,0.0,0.0,3.0,5.0,3.0,0.0,2.0,18.15,0.0,0.0,
9.691,39.60422673468304,84.44542025256831,-2.88,0.04,-1.19,0.0,0.0,4.0,5.0,3.0,0.0,2.0,18.34,0.0,0.0,
9.714,39.6184226734683,84.46754202525682,-1.75,-0.82,-1.4,0.0,0.0,4.0,5.0,3.0,0.0,2.0,18.34,0.0,0.0,
9.739,39.65584226734683,84.41575420252568,-1.49,0.0,-1.6,0.0,0.0,4.0,5.0,3.0,0.0,2.0,18.44,0.0,0.0,
9.763,39.69558422673469,84.45557542025256,-1.53,2.19,-2.08,0.0,0.0,4.0,5.0,3.0,0.0,2.0,18.44,0.0,0.0,
9.787,39.807558422673466,84.50455754202527,-0.4,2.96,-2.0,0.0,0.0,4.0,5.0,3.0,0.0,2.0,18.74,0.0,0.0,
9.811,39.89075584226734,84.44645575420252,-1.8,2.49,-1.79,0.0,0.0,4.0,5.0,3.0,1.0,2.0,18.93,0.0,0.0,
9.835,39.89907558422673,84.41364557542025,-3.44,2.17,-1.22,0.0,0.0,4.0,5.0,3.0,1.0,2.0,19.03,0.0,0.0,
9.86,39.881907558422675,84.43736455754203,-2.83,2.44,-1.5,0.0,0.0,4.0,6.0,3.0,1.0,2.0,19.13,0.0,0.0,
9.883,39.82619075584227,84.3587364557542,-2.13,2.99,-0.83,0.0,0.0,4.0,6.0,3.0,1.0,2.0,19.13,0.0,0.0,
9.908,40.23461907558423,84.56687364557541,-6.69,17.85,2.23,0.0,0.0,3.0,6.0,3.0,0.0,2.0,19.13,0.0,0.0,
9.931,40.51846190755842,84.70468736455754,-5.39,3.44,0.98,0.0,0.0,3.0,6.0,3.0,0.0,2.0,18.64,0.0,0.0,
9.955,40.50184619075584,84.72746873645576,-4.63,2.31,-1.03,0.0,0.0,3.0,6.0,3.0,0.0,2.0,18.05,0.2,0.0,
9.979,40.43718461907558,84.73874687364557,-2.65,1.45,-0.79,0.0,0.0,3.0,6.0,3.0,0.0,2.0,17.95,1.77,0.0,
10.004,40.45771846190756,84.72187468736456,-1.44,1.11,-0.35,0.0,0.0,3.0,6.0,3.0,0.0,2.0,17.95,1.28,0.0,
10.028,40.684771846190756,84.75618746873646,-3.69,9.38,2.18,0.0,0.0,3.0,6.0,3.0,0.0,1.0,17.85,1.28,0.0,
10.052,40.95947718461908,84.61561874687365,-2.51,-1.44,4.21,0.0,0.0,2.0,5.0,3.0,0.0,1.0,17.07,0.59,0.0,
10.076,40.92394771846191,84.57456187468736,-3.79,-3.27,0.92,0.0,0.0,3.0,6.0,3.0,0.0,1.0,16.28,1.96,0.0,
10.1,40.85739477184619,84.39045618746874,0.76,2.61,-0.92,0.0,0.0,3.0,5.0,3.0,0.0,1.0,15.89,4.81,0.0,
10.124,40.85973947718462,84.48004561874687,2.13,-0.02,-0.76,0.0,0.0,3.0,5.0,3.0,0.0,1.0,15.6,3.34,0.0,
10.148,40.93197394771846,84.58800456187468,0.71,-4.67,0.16,0.0,0.0,3.0,5.0,3.0,0.0,1.0,15.5,2.84,0.0,
10.172,40.94819739477185,84.71580045618747,-1.55,-9.2,0.45,0.0,0.0,3.0,5.0,3.0,0.0,1.0,15.3,2.65,0.0,
10.196,40.95881973947719,84.76458004561874,-0.9,-5.22,-0.72,0.0,0.0,3.0,5.0,3.0,0.0,1.0,15.5,2.45,0.0,
10.221,40.97788197394772,84.79645800456187,-0.98,0.2,-0.79,0.0,0.0,3.0,5.0,3.0,0.0,1.0,15.79,2.45,0.0,
10.245,40.94378819739477,84.89864580045618,-0.76,-2.44,-0.4,0.0,0.0,3.0,6.0,3.0,0.0,1.0,16.09,2.35,0.0,
10.269,40.95837881973948,84.98986458004562,-1.17,-0.74,-0.08,0.0,0.0,3.0,6.0,3.0,0.0,1.0,15.99,2.55,0.0,
10.293,41.02283788197395,85.05298645800457,-0.82,-0.19,0.15,0.0,0.0,3.0,5.0,3.0,0.0,1.0,15.89,2.65,0.0,
10.317,41.011283788197396,85.17629864580046,-1.08,-1.07,-0.57,0.0,0.0,3.0,5.0,3.0,0.0,1.0,15.79,2.75,0.0,
10.342,41.010128378819736,85.25162986458005,-2.18,-1.5,0.45,0.0,0.0,3.0,5.0,3.0,0.0,1.0,15.7,2.75,0.0,
10.365,41.01001283788197,85.25916298645801,-2.02,-0.32,0.36,0.0,0.0,3.0,5.0,3.0,0.0,1.0,15.5,2.75,0.0,
10.39,41.0370012837882,85.29591629864579,-1.15,-0.92,-0.02,0.0,0.0,3.0,5.0,3.0,0.0,1.0,15.5,2.94,0.0,
10.415,41.04870012837882,85.3895916298646,-2.46,0.23,0.37,0.0,0.0,3.0,5.0,3.0,0.0,1.0,15.3,3.04,0.0,
10.438,40.977870012837876,85.33595916298646,-2.86,-2.22,0.79,0.0,0.0,3.0,5.0,3.0,0.0,1.0,15.11,3.14,0.0,
10.463,40.96178700128379,85.38459591629865,-2.6,-0.92,0.47,0.0,0.0,3.0,5.0,3.0,0.0,1.0,14.52,3.34,0.0,
10.486,40.96017870012838,85.31745959162987,-2.56,-1.66,0.61,0.0,0.0,3.0,5.0,3.0,0.0,1.0,14.32,3.34,0.0,
10.511,40.86101787001284,85.37374595916299,-3.54,-5.44,1.53,0.0,0.0,2.0,4.0,3.0,0.0,1.0,14.13,3.92,0.0,
10.534,40.97710178700129,85.46937459591629,-4.42,0.45,2.26,0.0,0.0,2.0,4.0,3.0,0.0,1.0,13.73,4.02,0.0,
10.559,40.96171017870013,85.44293745959163,-3.38,-1.81,1.73,0.0,0.0,2.0,4.0,3.0,0.0,0.0,13.15,4.51,0.0,
10.583,40.897171017870015,85.40429374595918,-2.07,-0.98,1.44,0.0,0.0,2.0,3.0,3.0,0.0,0.0,12.65,4.91,0.0,
10.607,40.935717101787,85.37342937459593,-1.98,-0.82,1.21,0.0,0.0,2.0,3.0,2.0,0.0,0.0,11.87,3.53,0.0,
10.631,40.9755717101787,85.5053429374596,-1.84,-1.95,1.05,0.0,0.0,2.0,3.0,2.0,0.0,0.0,11.38,0.0,0.0,
10.655,40.90755717101787,85.58153429374596,-2.58,-1.11,1.07,0.0,0.0,2.0,3.0,2.0,0.0,0.0,10.99,0.0,0.0,
10.679,40.95475571710179,85.68815342937461,-1.85,0.35,2.12,0.0,0.0,1.0,2.0,2.0,0.0,0.0,10.69,2.94,0.0,
10.703,41.067475571710176,85.76181534293745,-1.66,2.33,0.43,0.0,0.0,1.0,2.0,2.0,0.0,0.0,10.3,4.81,0.0,
10.727,41.12374755717102,85.76918153429374,-1.11,6.68,0.73,0.0,0.0,1.0,2.0,2.0,0.0,0.0,10.1,1.57,0.0,
10.752,41.192374755717104,85.80591815342937,-2.85,7.61,2.11,0.0,0.0,1.0,2.0,2.0,0.0,0.0,10.01,0.0,0.0,
10.775,41.22623747557171,85.89059181534294,-1.88,14.27,5.03,0.0,0.0,1.0,2.0,2.0,0.0,0.0,9.71,1.57,0.0,
10.799,41.49062374755717,86.05205918153429,1.53,22.02,5.56,0.0,0.0,0.0,1.0,1.0,0.0,0.0,8.73,0.0,0.0,
10.823,41.78706237475571,86.21220591815343,3.24,14.87,2.08,0.0,0.0,0.0,1.0,1.0,0.0,0.0,7.85,1.67,0.0,
10.847,41.98770623747557,86.65122059181535,2.18,7.33,-5.74,0.0,0.0,0.0,1.0,1.0,0.0,0.0,7.26,0.0,0.0,
10.87,42.35877062374755,86.92012205918154,-3.08,4.95,-7.75,0.0,0.0,1.0,1.0,2.0,0.0,0.0,7.26,0.49,0.0,
10.895,42.95387706237476,86.98301220591814,-5.18,4.66,-5.88,0.0,0.0,1.0,1.0,2.0,0.0,1.0,8.04,0.0,0.0,
10.918,42.98638770623748,87.15130122059182,-4.66,-2.63,-2.28,0.0,0.0,2.0,2.0,2.0,0.0,1.0,8.93,0.0,0.0,
10.943,42.73763877062375,87.18613012205918,-1.9,3.6,2.6,0.0,0.0,2.0,2.0,2.0,0.0,1.0,9.52,0.0,0.0,
10.967,42.63176387706237,86.96461301220592,2.73,10.58,3.56,0.0,0.0,1.0,2.0,2.0,0.0,1.0,9.42,0.0,0.0,
10.991,42.837176387706236,87.1314613012206,3.17,11.9,-1.14,0.0,0.0,1.0,2.0,2.0,0.0,1.0,9.03,0.0,0.0,
11.015,43.26271763877063,87.67014613012206,0.37,3.88,-1.14,0.0,0.0,2.0,2.0,2.0,0.0,1.0,8.63,0.0,0.0,
11.039,43.68327176387706,87.92201461301221,-3.13,-2.31,-2.52,0.0,0.0,2.0,2.0,3.0,0.0,1.0,8.63,0.0,0.0,
11.063,43.69832717638771,87.91120146130122,-4.71,-7.76,0.46,0.0,0.0,2.0,2.0,3.0,0.0,2.0,8.83,0.0,0.0,
11.087,43.59183271763877,87.73912014613013,-3.08,-5.58,0.88,0.0,0.0,3.0,2.0,3.0,0.0,2.0,9.03,0.0,0.0,
11.111,43.64418327176387,87.69491201461302,-3.31,-4.43,-0.1,0.0,0.0,3.0,2.0,3.0,0.0,2.0,8.93,0.0,0.0,
11.136,43.649418327176384,87.7894912014613,-4.11,-4.97,-2.19,0.0,0.0,3.0,2.0,3.0,0.0,2.0,9.03,0.0,0.0,
11.159,43.59594183271764,87.51994912014612,-5.36,-5.98,0.42,0.0,0.0,3.0,2.0,3.0,0.0,2.0,9.42,0.0,0.0,
11.184,43.53659418327176,87.30399491201462,-4.75,-1.23,4.54,0.0,0.0,3.0,2.0,3.0,0.0,2.0,9.81,0.0,0.0,
11.207,43.539659418327176,87.12939949120147,-3.37,-0.92,7.5,0.0,0.0,3.0,3.0,3.0,0.0,2.0,9.81,0.0,0.0,
11.232,43.51296594183272,87.29193994912015,-2.3,-6.71,7.11,0.0,0.0,3.0,3.0,3.0,0.0,1.0,9.42,0.0,0.0,
11.255,43.49229659418327,87.36219399491202,-3.64,-2.05,9.53,0.0,0.0,2.0,2.0,2.0,0.0,1.0,9.03,0.0,0.0,
11.28,43.508229659418326,87.18021939949121,-3.86,0.73,8.16,0.0,0.0,2.0,2.0,2.0,0.0,0.0,8.63,0.0,0.0,
11.303,43.66282296594183,87.64802193994913,-3.82,6.67,11.88,0.0,0.0,2.0,2.0,1.0,0.0,0.0,7.85,0.0,0.0,
11.327,43.85828229659418,87.77580219399492,-7.45,9.64,12.47,0.0,0.0,1.0,2.0,0.0,0.0,0.0,7.26,0.0,0.0,
11.352,44.10282822965942,88.1125802193995,-9.89,10.47,6.77,0.0,0.0,1.0,2.0,0.0,0.0,0.0,6.77,4.81,0.0,
11.375,44.73928282296594,88.78525802193995,-13.69,21.79,11.2,0.0,0.0,1.0,2.0,0.0,0.0,0.0,6.57,5.2,0.0,
11.399,45.261928282296594,88.483525802194,-14.97,18.83,10.22,0.0,0.0,1.0,2.0,0.0,0.0,0.0,6.28,5.98,0.0,
11.423,45.36819282822967,86.6443525802194,-25.15,31.41,-42.83,0.0,0.0,2.0,2.0,0.0,0.0,0.0,5.79,5.69,0.0,
11.447,46.72881928282297,85.58743525802194,-22.71,72.36,-10.76,0.0,0.0,1.0,1.0,0.0,0.0,0.0,4.91,7.26,0.0,
11.471,48.610881928282296,86.3547435258022,-45.17,40.76,8.53,0.0,0.0,1.0,0.0,0.0,0.0,0.0,3.24,7.26,0.0,
11.495,51.706088192828226,87.04347435258022,-59.71,90.63,-28.75,0.0,0.0,1.0,0.0,0.0,0.0,0.0,2.06,8.63,0.0,
11.52,55.516608819282816,88.59734743525802,-66.2,32.15,-88.58,0.0,0.0,1.0,0.0,0.0,0.0,0.0,1.18,10.79,0.0,
11.543,57.91366088192828,92.10973474352579,-175.53,-65.68,-25.2,0.0,0.0,1.0,0.0,1.0,0.0,0.0,1.08,12.16,0.0,
11.568,54.751366088192825,98.76097347435257,-38.78,-250.13,-66.82,0.0,0.0,2.0,0.0,1.0,0.0,0.0,0.98,9.32,0.0,
11.591,51.57313660881928,104.91609734743525,30.18,25.0,-52.47,0.0,0.0,2.0,0.0,1.0,0.0,0.0,0.98,4.51,0.0,
11.616,49.29331366088193,114.02760973474352,48.01,250.14,-44.01,0.0,0.0,2.0,0.0,1.0,0.0,0.0,0.88,0.0,0.0,
11.639,71.9883313660882,124.46976097347434,71.97,250.14,-48.52,0.0,0.0,3.0,0.0,1.0,0.0,0.0,0.78,1.57,0.0,
11.664,69.18183313660882,132.18297609734742,69.25,64.24,10.18,0.0,0.0,2.0,0.0,1.0,0.0,0.0,0.88,1.86,0.0,
11.687,82.82418331366088,140.76629760973475,148.17,-216.31,107.96,0.0,0.0,2.0,0.0,1.0,0.0,0.0,0.88,1.57,0.0,
11.712,73.6584183313661,144.96362976097348,12.24,-210.24,3.96,0.0,0.0,3.0,0.0,1.0,0.0,0.0,0.78,1.57,0.0,
11.736,69.19584183313661,144.74436297609734,-65.83,103.18,181.56,0.0,0.0,3.0,0.0,1.0,0.0,0.0,0.59,1.18,0.0,
11.76,66.74258418331365,145.21743629760977,-69.92,182.39,129.71,0.0,0.0,3.0,0.0,1.0,0.0,0.0,0.39,0.98,0.0,
11.784,62.17725841833136,142.94274362976097,78.89,-23.02,92.47,0.0,0.0,3.0,0.0,1.0,0.0,0.0,0.29,0.78,0.0,
11.808,57.79672584183314,139.07027436297608,96.42,-91.56,120.34,0.0,0.0,3.0,0.0,1.0,0.0,0.0,0.29,0.98,0.0,
11.833,52.633672584183316,135.1640274362976,157.1,-102.4,51.65,0.0,0.0,3.0,0.0,1.0,0.0,0.0,0.1,1.18,0.0,
11.856,52.072367258418325,129.66140274362976,115.53,81.6,65.47,0.0,0.0,4.0,0.0,1.0,0.0,0.0,0.0,1.08,0.0,
11.881,52.07023672584183,122.64914027436298,91.68,6.05,46.95,0.0,0.0,4.0,0.0,1.0,0.0,0.0,0.0,1.18,0.0,
11.905,49.26202367258419,112.26391402743629,103.76,-147.95,37.38,0.0,0.0,4.0,0.0,1.0,0.0,0.0,0.0,1.08,0.0,
11.929,48.207202367258425,102.87339140274364,91.07,-16.83,68.11,0.0,0.0,4.0,0.0,1.0,0.0,0.0,0.0,0.98,0.0,
11.953,49.26272023672584,95.79633914027437,60.83,11.42,69.34,0.0,0.0,4.0,0.0,1.0,0.0,0.0,0.0,0.98,0.0,
11.977,50.19627202367258,86.07063391402744,-57.15,-18.39,-5.8,0.0,0.0,4.0,0.0,2.0,0.0,0.0,0.0,0.88,0.0,
12.001,49.05662720236725,76.61106339140275,-135.86,-75.31,-109.04,0.0,0.0,4.0,0.0,2.0,0.0,0.0,0.0,4.02,0.0,
12.025,47.34966272023672,86.07810633914028,-8.4,-244.27,-250.14,0.0,0.0,4.0,0.0,1.0,0.0,0.0,0.0,2.84,0.0,
12.05,46.512966272023675,84.33381063391403,-250.14,118.5,-121.92,0.0,0.0,2.0,0.0,1.0,0.0,0.0,0.0,6.28,0.0,
12.073,44.52129662720236,84.3843810633914,-118.82,53.95,-132.49,0.0,0.0,0.0,0.0,1.0,0.0,0.0,0.0,10.2,0.0,
12.098,44.14212966272024,82.94043810633914,-64.6,181.19,-97.78,0.0,0.0,0.0,0.0,1.0,0.0,0.0,0.78,0.0,0.0,
12.122,46.68721296627203,83.79504381063391,-67.85,159.24,-51.02,0.0,0.0,0.0,0.0,0.0,0.0,0.0,2.84,0.0,0.0,
12.146,48.939721296627205,80.38850438106338,-36.56,26.52,-33.87,0.0,0.0,0.0,0.0,2.0,0.0,0.0,8.34,0.0,0.0,
12.17,49.14697212966272,80.63285043810633,-18.98,36.31,-13.54,0.0,0.0,0.0,0.0,5.0,0.0,0.0,13.15,0.0,0.0,
12.194,49.23069721296628,81.00828504381063,-17.57,41.33,-19.12,0.0,0.0,1.0,0.0,8.0,0.0,0.0,14.13,0.0,0.0,
12.218,50.193069721296624,81.81982850438105,-15.46,19.45,-11.82,0.0,0.0,1.0,0.0,10.0,0.0,1.0,14.62,0.0,0.0,
12.242,50.307306972129666,82.61198285043811,-6.37,-11.25,-2.21,0.0,0.0,2.0,0.0,11.0,0.0,1.0,15.79,0.0,0.0,
12.267,50.516730697212964,82.84419828504382,2.66,10.08,-2.91,0.0,0.0,2.0,0.0,11.0,0.0,1.0,16.58,0.0,0.0,
12.291,51.47367306972129,84.12741982850439,-16.73,-14.03,4.15,0.0,0.0,3.0,0.0,12.0,0.0,1.0,16.38,1.28,0.0,
12.315,51.155367306972124,84.44474198285045,-11.94,-35.03,2.49,0.0,0.0,3.0,0.0,0.0,0.0,1.0,16.68,2.06,0.0,
12.339,51.375536730697206,85.01647419828504,-20.99,-18.12,10.75,0.0,0.0,4.0,0.0,2.0,0.0,1.0,17.17,0.0,0.0,
12.363,49.66055367306972,83.9756474198285,-110.89,63.44,94.38,0.0,0.0,4.0,0.0,1.0,0.0,1.0,18.84,0.0,0.0,
12.388,54.66405536730697,81.94556474198285,-14.63,-155.38,-22.3,0.0,0.0,4.0,0.0,1.0,0.0,1.0,21.39,0.0,0.0,
12.411,55.146405536730704,83.70455647419828,-34.55,53.84,22.6,0.0,0.0,4.0,0.0,2.0,0.0,2.0,25.21,0.0,0.0,
12.436,53.85364055367307,84.34845564741984,-56.63,-9.65,9.97,0.0,0.0,5.0,0.0,2.0,0.0,2.0,30.61,0.0,0.0,
12.46,52.302364055367306,83.60284556474197,-63.06,-37.02,7.97,0.0,0.0,6.0,0.0,3.0,0.0,3.0,36.3,0.0,0.0,
12.484,50.89623640553673,81.25128455647419,-31.63,-6.51,-17.73,0.0,0.0,6.0,0.0,4.0,0.0,4.0,46.3,0.0,0.0,
12.508,48.98262364055367,80.62912845564742,-35.55,-3.82,-32.83,0.0,0.0,7.0,0.0,4.0,0.0,5.0,54.74,0.0,0.0,
12.532,48.48526236405537,81.08891284556474,-23.19,3.44,-56.71,0.0,0.0,8.0,0.0,3.0,0.0,7.0,65.14,0.0,0.0,
12.557,48.73252623640553,81.89089128455649,-38.85,0.6,-57.11,0.0,0.0,8.0,0.0,2.0,1.0,8.0,77.11,7.16,0.0,
12.58,48.640252623640556,80.78308912845564,-66.62,-15.95,-56.15,0.0,0.0,9.0,0.0,2.0,2.0,10.0,88.78,11.38,0.0,
12.605,48.091025262364056,81.22130891284556,-85.1,-36.45,-75.67,0.0,0.0,9.0,0.0,1.0,3.0,11.0,98.98,10.89,0.0,
12.63,45.98410252623641,79.93313089128456,-116.69,-65.44,-102.31,0.0,0.0,9.0,0.0,12.0,5.0,3.0,111.64,7.06,0.0,
12.655,45.044410252623635,81.01031308912845,-139.5,-80.85,-142.37,0.0,0.0,9.0,0.0,11.0,6.0,8.0,116.05,6.87,0.0,
12.68,42.13344102526237,82.04503130891284,-250.14,-193.62,-199.88,0.0,0.0,10.0,0.0,11.0,8.0,14.0,112.23,7.26,0.0,
12.704,39.36734410252624,81.30250313089128,-250.14,-130.79,-250.14,0.0,0.0,10.0,0.0,1.0,10.0,19.0,93.59,0.0,0.0,
12.729,39.64873441025263,77.38525031308913,-125.26,108.7,-250.14,0.0,0.0,6.0,0.0,10.0,8.0,4.0,50.62,0.0,0.0,
12.753,39.91987344102527,79.06352503130891,-177.55,149.92,-250.14,0.0,0.0,1.0,0.0,6.0,1.0,4.0,18.25,0.0,0.0,
12.778,40.82898734410253,71.6083525031309,-51.82,2.46,-208.34,0.0,0.0,0.0,0.0,2.0,1.0,4.0,6.08,0.0,0.0,
12.803,47.58889873441026,82.99483525031309,83.03,26.57,15.82,0.0,0.0,0.0,0.0,3.0,1.0,4.0,1.67,0.0,0.0,
12.826,65.77888987344102,96.0044835250313,86.34,148.74,89.85,0.0,0.0,0.0,0.0,3.0,1.0,4.0,0.59,16.58,0.0,
12.85,60.7218889873441,107.64644835250314,88.47,25.29,153.31,0.0,0.0,0.0,0.0,2.0,1.0,4.0,0.98,0.0,0.0,
12.874,57.73218889873441,118.5306448352503,91.17,49.21,166.4,0.0,0.0,0.0,0.0,2.0,1.0,4.0,1.77,0.0,0.0,
12.898,49.62121888987344,128.95206448352505,112.24,64.63,176.44,0.0,0.0,1.0,0.0,2.0,1.0,4.0,2.16,0.0,0.0,
12.922,54.14712188898734,133.07220644835252,141.32,22.02,222.71,0.0,0.0,1.0,0.0,2.0,1.0,4.0,1.57,0.0,0.0,
12.946,56.73271218889874,129.86622064483524,140.08,45.76,250.13,0.0,0.0,1.0,0.0,3.0,1.0,4.0,1.18,0.0,0.0,
12.971,53.42727121888988,117.17062206448354,158.22,-34.08,250.13,0.0,0.0,2.0,0.0,3.0,1.0,0.0,0.88,0.0,0.0,
