time,pitch,roll,gyrx,gyry,gyrz,f1,f2,f3,f4,f5,f6,f7,g1,g2,g3
0.367,61.81,10.98,0.0,-2.0,2.0,0,0,0,0,0,0,0,0.10,0.00,0.00,
0.379,69.001,12.158999999999999,0.0,-2.0,0.0,0,0,0,0,0,0,0,0.00,0.10,0.00,
0.393,75.81309999999999,13.3209,0.0,-2.0,-4.0,0,0,0,0,0,0,0,0.00,0.10,0.00,
0.406,81.30031,14.49909,-1.0,-1.0,-7.0,0,0,0,0,0,0,0,0.10,0.10,0.00,
0.42,85.413031,15.435908999999999,0.0,0.0,-6.0,0,0,0,0,0,0,0,0.00,0.00,0.00,
0.434,88.5693031,16.3395909,-1.0,0.0,-4.0,0,0,0,0,0,0,0,0.00,0.00,0.00,
0.447,91.83693031,16.97895909,0.0,-3.0,-1.0,0,0,0,0,0,0,0,0.00,0.10,0.00,
0.46,95.59269303100001,17.186895909,0.0,-2.0,4.0,0,0,0,0,0,0,0,0.00,0.20,0.10,
0.474,98.8482693031,17.477689590900003,0.0,-1.0,3.0,0,0,0,0,0,0,0,0.00,0.20,0.10,
0.487,102.05382693031,17.74076895909,-1.0,-1.0,-2.0,0,0,0,0,0,0,0,0.10,0.20,0.10,
0.5,104.030382693031,18.181076895909,-4.0,0.0,-8.0,0,0,0,0,0,0,0,0.10,0.20,0.00,
0.514,105.2270382693031,18.7111076895909,-4.0,-1.0,-13.0,0,0,0,0,0,0,0,0.10,0.20,0.10,
0.527,106.19270382693031,19.07011076895909,-1.0,-2.0,-7.0,0,0,0,0,0,0,0,0.10,0.10,0.10,
0.54,107.05427038269303,19.21401107689591,1.0,0.0,2.0,0,0,0,0,0,0,0,0.00,0.10,0.10,
0.553,107.62642703826931,19.498401107689592,3.0,0.0,4.0,0,0,0,0,0,0,0,0.00,0.00,0.00,
0.567,108.46664270382693,19.64384011076896,3.0,0.0,3.0,0,0,0,0,0,0,0,0.10,0.10,0.10,
0.58,109.34266427038268,19.640384011076897,1.0,0.0,0.0,0,0,0,0,0,0,0,0.00,0.10,0.10,
0.593,109.76326642703827,19.72103840110769,0.0,0.0,-1.0,0,0,0,0,0,0,0,0.00,0.20,0.10,
0.607,110.12932664270383,19.69310384011077,-3.0,0.0,0.0,0,0,0,0,0,0,0,0.10,0.29,0.00,
0.62,111.02093266427039,19.45631038401108,-6.0,-1.0,1.0,0,0,0,0,0,0,0,0.00,0.29,0.00,
0.633,111.53309326642704,19.324631038401105,-7.0,-1.0,0.0,0,0,0,0,0,0,0,0.00,0.20,0.00,
0.648,111.7193093266427,19.49146310384011,-7.0,-2.0,-5.0,0,0,0,0,0,0,0,0.00,0.20,0.00,
0.661,111.91793093266426,19.58914631038401,-7.0,-2.0,-7.0,0,0,0,0,0,0,0,0.10,0.10,0.00,
0.674,111.92879309326644,19.9049146310384,-7.0,-2.0,-6.0,0,0,0,0,0,0,0,0.10,0.20,0.00,
0.688,111.83087930932663,20.28749146310384,-4.0,-2.0,-4.0,0,0,0,0,0,0,0,0.10,0.20,0.10,
0.701,111.95608793093265,20.55974914631038,-1.0,0.0,0.0,0,0,0,0,0,0,0,0.10,0.10,0.00,
0.714,112.32860879309327,20.640974914631038,0.0,0.0,3.0,0,0,0,0,0,0,0,0.20,0.10,0.10,
0.728,112.77086087930932,20.676097491463103,0.0,0.0,2.0,0,0,0,0,0,0,0,0.10,0.10,0.10,
0.741,113.24708608793092,20.571609749146308,0.0,0.0,0.0,0,0,0,0,0,0,0,0.00,0.20,0.10,
0.754,113.40270860879309,20.57916097491463,-1.0,0.0,-1.0,0,0,0,0,0,0,0,0.00,0.10,0.10,
0.768,113.3192708608793,20.642916097491465,-2.0,0.0,-3.0,0,0,0,0,0,0,0,0.10,0.10,0.10,
0.781,113.72492708608793,20.559291609749145,-4.0,-1.0,-1.0,0,0,0,0,0,0,0,0.10,0.00,0.10,
0.795,114.3234927086088,20.57792916097491,-4.0,-1.0,0.0,0,0,0,0,0,0,0,0.10,0.10,0.00,
0.808,114.80634927086088,20.84079291609749,-4.0,-1.0,-2.0,0,0,0,0,0,0,0,0.00,0.10,0.00,
0.822,115.07063492708609,21.12807929160975,-3.0,0.0,-5.0,0,0,0,0,0,0,0,0.00,0.00,0.00,
0.835,114.36806349270861,21.480807929160974,-2.0,0.0,-9.0,0,0,0,0,0,0,0,0.10,0.00,0.00,
0.848,113.26280634927086,21.633080792916097,0.0,-2.0,-8.0,0,0,0,0,0,0,0,0.00,0.00,0.00,
0.862,112.54928063492709,21.441308079291613,1.0,-3.0,1.0,0,0,0,0,0,0,0,0.00,0.10,0.00,
0.875,112.64892806349272,21.098130807929163,5.0,0.0,10.0,0,0,0,0,0,0,0,0.00,0.20,0.00,
0.888,113.03689280634927,20.901813080792913,4.0,0.0,10.0,0,0,0,0,0,0,0,0.00,0.10,0.00,
0.902,113.29168928063493,20.684181308079292,0.0,-1.0,2.0,0,0,0,0,0,0,0,0.00,0.10,0.00,
0.915,113.6951689280635,20.56341813080793,-4.0,-1.0,-4.0,0,0,0,0,0,0,0,0.00,0.29,0.00,
0.929,114.12251689280635,20.434341813080795,-6.0,-2.0,-6.0,0,0,0,0,0,0,0,0.10,0.29,0.00,
0.943,114.84925168928065,20.24143418130808,-5.0,-1.0,-1.0,0,0,0,0,0,0,0,0.10,0.10,0.00,
0.956,115.20092516892805,19.98814341813081,-4.0,0.0,0.0,0,0,0,0,0,0,0,0.20,0.20,0.10,
0.969,114.6600925168928,19.98981434181308,-3.0,-1.0,-3.0,0,0,0,0,0,0,0,0.10,0.20,0.10,
0.983,113.65200925168928,20.097981434181307,-3.0,-1.0,-6.0,0,0,0,0,0,0,0,0.10,0.20,0.10,
0.997,112.85820092516892,20.21679814341813,-1.0,-2.0,-4.0,0,0,0,0,0,0,0,0.10,0.20,0.10,
1.01,112.7338200925169,20.165679814341814,0.0,0.0,2.0,0,0,0,0,0,0,0,0.10,0.20,0.10,
1.024,113.06338200925168,20.106567981434186,0.0,0.0,7.0,0,0,0,0,0,0,0,0.00,0.20,0.10,
1.037,113.78933820092517,19.94765679814342,-2.0,0.0,6.0,0,0,0,0,0,0,0,0.10,0.20,0.00,
1.05,114.53693382009251,19.796765679814346,-5.0,0.0,0.0,0,0,0,0,0,0,0,0.10,0.20,0.00,
1.063,115.07069338200925,19.808676567981436,-8.0,0.0,-7.0,0,0,0,0,0,0,0,0.10,0.20,0.00,
1.077,115.25006933820092,19.899867656798143,-9.0,-1.0,-10.0,0,0,0,0,0,0,0,0.20,0.29,0.10,
1.09,114.6650069338201,20.223986765679815,-7.0,-1.0,-8.0,0,0,0,0,0,0,0,0.10,0.10,0.00,
1.103,113.499500693382,20.67939867656798,-3.0,0.0,-4.0,0,0,0,0,0,0,0,0.10,0.10,0.10,
1.117,112.6629500693382,21.021939867656798,0.0,-2.0,-1.0,0,0,0,0,0,0,0,0.10,0.00,0.10,
1.131,113.17329500693383,20.93919398676568,2.0,-1.0,1.0,0,0,0,0,0,0,0,0.00,0.10,0.10,
1.144,114.05232950069339,20.81391939867657,2.0,0.0,5.0,0,0,0,0,0,0,0,0.00,0.10,0.00,
1.158,114.69823295006933,20.819391939867657,1.0,2.0,3.0,0,0,0,0,0,0,0,0.00,0.10,0.10,
1.171,114.42982329500694,21.044939193986767,-2.0,1.0,-4.0,0,0,0,0,0,0,0,0.10,0.20,0.10,
1.184,113.73698232950069,21.103493919398677,-5.0,0.0,-8.0,0,0,0,0,0,0,0,0.10,0.10,0.10,
1.198,112.98369823295008,21.307349391939866,-3.0,-1.0,-6.0,0,0,0,0,0,0,0,0.10,0.20,0.10,
1.211,113.04336982329501,21.201734939193987,0.0,-1.0,0.0,0,0,0,0,0,0,0,0.10,0.10,0.10,
1.224,113.4093369823295,21.2451734939194,4.0,-1.0,3.0,0,0,0,0,0,0,0,0.00,0.00,0.10,
1.238,113.67993369823294,21.28551734939194,5.0,-1.0,0.0,0,0,0,0,0,0,0,0.00,0.10,0.00,
1.251,113.7789933698233,21.307551734939192,5.0,0.0,-4.0,0,0,0,0,0,0,0,0.10,0.10,0.10,
1.264,113.27589933698232,21.33675517349392,3.0,1.0,-5.0,0,0,0,0,0,0,0,0.10,0.10,0.00,
1.277,112.35258993369824,21.384675517349393,0.0,0.0,-2.0,0,0,0,0,0,0,0,0.10,0.20,0.00,
1.291,111.98125899336982,21.25446755173494,0.0,-1.0,3.0,0,0,0,0,0,0,0,0.10,0.29,0.10,
1.304,112.12412589933697,20.998446755173497,0.0,0.0,6.0,0,0,0,0,0,0,0,0.10,0.20,0.00,
1.317,113.10141258993369,20.76584467551735,1.0,0.0,4.0,0,0,0,0,0,0,0,0.10,0.20,0.00,
1.331,114.08114125899337,20.661584467551734,0.0,-1.0,-1.0,0,0,0,0,0,0,0,0.10,0.20,0.00,
1.344,114.63811412589934,20.741158446755172,-1.0,-1.0,-9.0,0,0,0,0,0,0,0,0.10,0.20,0.10,
1.357,114.17181141258995,21.010115844675518,-2.0,0.0,-11.0,0,0,0,0,0,0,0,0.10,0.20,0.00,
1.372,112.667181141259,21.21701158446755,0.0,0.0,-9.0,0,0,0,0,0,0,0,0.10,0.10,0.00,
1.385,111.4637181141259,21.156701158446754,2.0,-1.0,-2.0,0,0,0,0,0,0,0,0.10,0.10,0.00,
1.398,111.27137181141259,20.952670115844676,4.0,-1.0,6.0,0,0,0,0,0,0,0,0.10,0.20,0.00,
1.412,112.31413718114126,20.617267011584467,5.0,0.0,12.0,0,0,0,0,0,0,0,0.00,0.20,0.00,
1.425,113.66041371811413,20.394726701158447,2.0,0.0,8.0,0,0,0,0,0,0,0,0.10,0.29,0.00,
1.438,114.4160413718114,20.399472670115845,-2.0,1.0,-3.0,0,0,0,0,0,0,0,0.10,0.29,0.10,
1.452,114.30260413718113,20.588947267011584,-8.0,0.0,-12.0,0,0,0,0,0,0,0,0.10,0.20,0.10,
1.465,113.51726041371812,20.83289472670116,-8.0,-1.0,-14.0,0,0,0,0,0,0,0,0.20,0.20,0.00,
1.478,112.67372604137181,20.96528947267012,-5.0,-2.0,-5.0,0,0,0,0,0,0,0,0.20,0.10,0.00,
1.492,112.15737260413718,21.05052894726701,-1.0,-2.0,3.0,0,0,0,0,0,0,0,0.20,0.10,0.00,
1.506,112.25873726041371,21.014052894726703,1.0,-2.0,4.0,0,0,0,0,0,0,0,0.20,0.10,0.00,
1.519,112.95287372604137,20.88440528947267,1.0,0.0,4.0,0,0,0,0,0,0,0,0.10,0.10,0.10,
1.532,113.23828737260413,20.862440528947268,-1.0,1.0,0.0,0,0,0,0,0,0,0,0.10,0.20,0.10,
1.546,113.0868287372604,20.932244052894728,-5.0,0.0,-3.0,0,0,0,0,0,0,0,0.10,0.29,0.10,
1.559,112.62168287372604,21.074224405289474,-8.0,0.0,-4.0,0,0,0,0,0,0,0,0.10,0.29,0.20,
1.572,112.1971682873726,21.124422440528946,-7.0,0.0,-2.0,0,0,0,0,0,0,0,0.20,0.29,0.10,
1.586,111.99271682873726,20.958442244052893,-4.0,-1.0,0.0,0,0,0,0,0,0,0,0.20,0.20,0.00,
1.599,112.08027168287373,20.95984422440529,-2.0,-2.0,0.0,0,0,0,0,0,0,0,0.20,0.20,0.00,
1.612,112.48502716828737,20.98698442244053,-3.0,-3.0,-5.0,0,0,0,0,0,0,0,0.20,0.29,0.10,
1.627,113.05650271682875,21.07069844224405,-4.0,-2.0,-8.0,0,0,0,0,0,0,0,0.20,0.29,0.10,
1.64,113.20365027168287,21.358069844224406,-5.0,-1.0,-10.0,0,0,0,0,0,0,0,0.29,0.29,0.10,
1.653,113.25436502716829,21.674806984422442,-4.0,0.0,-8.0,0,0,0,0,0,0,0,0.29,0.20,0.10,
1.667,112.94443650271683,22.030480698442243,-3.0,-1.0,-7.0,0,0,0,0,0,0,0,0.20,0.29,0.10,
1.681,112.67944365027168,22.21904806984422,-1.0,-2.0,-5.0,0,0,0,0,0,0,0,0.20,0.29,0.20,
1.694,112.82394436502717,22.42690480698442,0.0,-2.0,-4.0,0,0,0,0,0,0,0,0.20,0.29,0.29,
1.708,113.31539443650271,22.798690480698443,2.0,-2.0,-4.0,0,0,0,0,0,0,0,0.29,0.29,0.29,
1.721,114.47153944365027,23.312869048069846,3.0,-2.0,-7.0,0,0,0,0,0,0,0,0.20,0.29,0.20,
1.734,115.95515394436504,24.111286904806985,3.0,0.0,-16.0,0,0,0,0,0,0,0,0.29,0.39,0.29,
1.747,117.84051539443651,25.1631286904807,4.0,0.0,-29.0,0,0,0,0,0,0,0,0.29,0.39,0.29,
1.761,120.51305153944365,26.15031286904807,4.0,2.0,-46.0,0,0,0,0,0,0,0,0.39,0.29,0.29,
1.774,123.17430515394437,27.626031286904805,5.0,0.0,-70.0,0,0,0,0,0,0,0,0.39,0.39,0.29,
1.788,125.43843051539443,29.528603128690477,9.0,4.0,-94.0,0,0,0,0,0,0,0,0.39,0.39,0.20,
1.802,126.97884305153944,31.815860312869045,18.0,7.0,-124.0,0,0,0,0,0,0,0,0.39,0.39,0.10,
1.815,127.86188430515395,34.114586031286905,29.0,9.0,-147.0,0,0,0,0,0,0,0,0.39,0.29,0.00,
1.828,128.33718843051537,36.32445860312869,38.0,13.0,-164.0,0,0,0,0,0,0,0,0.39,0.49,0.00,
1.842,128.38471884305153,38.57944586031287,42.0,8.0,-179.0,0,0,0,0,0,0,0,0.39,0.69,0.00,
1.856,127.83147188430515,41.36094458603129,46.0,1.0,-190.0,0,0,0,0,0,0,0,0.29,0.98,0.00,
1.869,127.4881471884305,43.75409445860313,54.0,-2.0,-198.0,0,0,0,0,0,0,0,0.20,1.18,0.00,
1.883,126.81481471884305,46.49540944586031,58.0,-14.0,-207.0,0,0,0,0,0,1,0,0.10,1.28,0.00,
1.897,125.4694814718843,50.36054094458603,63.0,-27.0,-203.0,0,0,0,0,0,1,0,0.00,1.47,0.00,
1.91,123.21094814718843,55.4180540944586,72.0,-44.0,-189.0,0,0,0,0,0,1,0,0.00,1.77,0.00,
1.925,119.97909481471885,61.62980540944586,84.0,-56.0,-163.0,0,0,0,1,0,1,0,0.00,1.86,0.00,
1.938,116.02890948147189,67.37198054094459,100.0,-71.0,-132.0,0,0,0,1,0,1,0,0.00,1.86,0.00,
1.952,111.70089094814719,72.97719805409446,124.0,-76.0,-82.0,0,0,0,1,0,1,0,0.00,1.86,0.00,
1.966,107.91108909481471,78.45171980540945,151.0,-76.0,-33.0,0,0,0,1,0,1,0,0.00,1.96,0.00,
1.979,105.26410890948146,82.77917198054095,171.0,-66.0,9.0,0,0,0,1,0,1,0,0.00,2.06,0.00,
1.993,103.59541089094814,85.8849171980541,182.0,-64.0,46.0,0,0,0,1,0,1,0,0.00,1.96,0.00,
2.007,102.42954108909481,87.3654917198054,194.0,-54.0,68.0,0,0,0,1,0,1,0,0.00,1.77,0.00,
2.02,102.13295410890947,87.86454917198054,206.0,-44.0,84.0,0,0,0,1,0,0,0,0.00,1.47,0.00,
2.034,101.80629541089095,87.43745491719805,216.0,-32.0,90.0,0,0,0,0,0,0,0,0.00,0.98,0.00,
2.048,101.5396295410891,85.30674549171981,225.0,-23.0,88.0,0,0,0,0,0,0,0,0.00,0.39,0.00,
2.062,101.42296295410891,82.55567454917198,232.0,-14.0,88.0,0,0,0,0,0,0,0,0.00,0.20,0.00,
2.075,101.93329629541088,78.3745674549172,232.0,-10.0,84.0,0,0,0,0,0,0,0,0.00,0.00,0.00,
2.088,102.92932962954109,74.11345674549172,223.0,-14.0,70.0,0,0,0,0,0,0,0,0.00,0.00,0.00,
2.103,103.97393296295412,69.61034567454917,214.0,-18.0,62.0,0,0,0,0,0,0,0,0.00,0.00,0.00,
2.116,104.7983932962954,65.65003456745491,205.0,-24.0,47.0,0,0,0,0,0,0,0,0.00,0.00,0.00,
2.129,105.07883932962955,62.446003456745494,197.0,-25.0,39.0,0,0,0,0,0,0,0,0.00,0.10,0.00,
2.144,105.34988393296295,60.010600345674554,195.0,-27.0,27.0,0,0,0,0,0,0,0,0.00,0.00,0.00,
2.157,105.6109883932963,57.625060034567454,191.0,-15.0,20.0,0,0,0,0,0,0,0,0.00,0.10,0.00,
2.17,106.29409883932964,55.64050600345674,181.0,-10.0,5.0,0,0,0,0,0,0,0,0.00,0.20,0.00,
2.185,107.84740988393297,53.85805060034567,168.0,-12.0,-2.0,0,0,0,0,0,0,0,0.00,0.29,0.00,
2.198,109.3617409883933,52.37480506003457,142.0,-15.0,-8.0,0,0,0,0,0,0,0,0.00,0.29,0.00,
2.211,110.44917409883932,51.10148050600346,113.0,-21.0,-12.0,0,0,0,0,0,0,0,0.00,0.39,0.00,
2.226,110.97191740988393,49.912148050600344,92.0,-28.0,-26.0,0,0,0,0,0,0,0,0.00,0.39,0.00,
2.239,110.3221917409884,50.045214805060034,85.0,-45.0,-44.0,0,0,0,0,0,1,0,0.00,0.20,0.00,
2.252,111.68821917409885,49.995521480506,-138.0,-250.0,98.0,0,0,0,0,0,0,0,0.00,0.00,0.00,
2.267,109.23282191740988,50.0265521480506,93.0,0.0,32.0,0,0,0,0,0,0,0,0.00,6.18,0.00,
2.28,110.43628219174097,51.37965521480506,49.0,71.0,-141.0,0,0,0,0,0,0,0,1.96,93.39,0.00,
2.294,114.2286282191741,61.4059655214805,68.0,45.0,-64.0,0,0,0,0,0,0,0,1.08,53.76,0.00,
2.308,111.8358628219174,66.01759655214805,64.0,60.0,-11.0,0,0,0,0,0,0,0,0.10,17.56,0.00,
2.321,108.96858628219175,72.68875965521481,51.0,47.0,-3.0,0,0,0,0,0,1,0,0.00,5.79,0.49,
2.335,114.66685862821917,85.64087596552147,7.0,7.0,0.0,0,0,0,0,0,1,0,0.00,0.00,0.98,
2.349,110.40368586282193,90.12208759655215,0.0,4.0,-15.0,0,0,0,0,0,1,0,0.00,0.00,0.88,
2.362,110.01336858628218,95.9342087596552,-13.0,0.0,-33.0,0,0,0,0,0,1,0,0.00,0.00,0.49,
2.375,109.66833685862822,102.02342087596553,-19.0,5.0,-12.0,0,0,0,1,0,1,0,0.00,0.00,0.39,
2.39,108.39183368586282,102.80334208759655,-53.0,-34.0,35.0,0,0,0,1,0,1,0,0.10,0.00,1.18,
2.404,108.28218336858627,98.79533420875966,-47.0,-29.0,27.0,0,0,0,1,0,1,0,0.49,1.67,1.47,
2.417,108.57721833685862,95.65853342087597,-25.0,-19.0,16.0,0,0,0,1,0,1,1,1.96,5.20,1.28,
2.432,109.66872183368586,93.5808533420876,-1.0,3.0,-2.0,0,0,0,1,0,1,1,2.75,10.20,0.78,
2.445,109.77787218336859,93.38208533420875,6.0,10.0,-6.0,0,0,0,1,0,1,1,3.04,14.22,0.39,
2.459,109.33878721833686,93.24520853342088,7.0,14.0,-8.0,0,0,0,1,0,1,1,2.94,15.30,0.39,
2.472,109.51087872183368,92.59252085334208,23.0,18.0,0.0,0,0,0,1,0,1,1,2.75,13.24,0.49,
2.486,109.91508787218336,92.09525208533422,39.0,9.0,6.0,0,0,0,1,0,2,2,2.26,10.01,0.69,
2.5,109.92850878721835,92.50452520853342,49.0,-18.0,19.0,0,0,0,2,0,2,2,1.96,6.38,0.69,
2.513,109.47085087872185,92.59945252085335,50.0,-3.0,35.0,0,0,0,2,0,2,2,1.47,0.29,0.88,
2.527,108.58808508787217,91.41194525208533,55.0,27.0,-11.0,0,0,0,2,0,2,2,0.88,0.00,0.98,
2.541,109.73280850878722,96.43219452520853,43.0,42.0,-21.0,0,0,0,2,0,2,2,0.39,0.00,1.08,
2.554,109.07328085087873,101.07421945252086,-23.0,28.0,11.0,0,0,0,1,0,2,2,0.00,0.00,1.08,
2.569,106.45132808508787,94.20342194525209,-70.0,20.0,6.0,0,0,0,1,0,1,1,0.00,1.47,0.29,
2.582,105.03713280850877,85.6053421945252,-54.0,14.0,43.0,0,0,0,0,0,1,0,0.00,2.06,0.00,
2.595,101.04371328085087,74.06253421945253,-65.0,-4.0,23.0,0,0,0,0,0,0,0,0.00,2.06,0.00,
2.61,95.9913713280851,67.55325342194524,-72.0,-14.0,13.0,0,0,0,0,0,0,0,0.29,1.96,0.00,
2.623,87.26913713280851,64.62532534219451,-87.0,31.0,8.0,0,0,0,0,0,1,0,0.39,1.67,0.00,
2.636,92.57091371328085,74.58353253421944,92.0,-53.0,-58.0,0,0,0,1,0,1,0,0.29,2.84,0.00,
2.651,96.7910913713281,75.52535325342194,-85.0,63.0,145.0,0,0,0,0,0,0,0,0.39,20.11,0.00,
2.664,99.04010913713282,72.1275353253422,-57.0,14.0,-27.0,0,0,0,0,0,0,0,1.28,46.21,0.00,
2.678,99.04901091371327,72.63375353253423,10.0,16.0,-34.0,0,0,0,0,0,0,0,1.28,45.13,0.00,
2.692,99.64390109137132,75.24937535325343,42.0,26.0,-2.0,0,0,0,0,0,0,0,1.47,27.27,0.00,
2.705,101.19739010913713,77.95893753532535,47.0,26.0,-8.0,0,0,0,0,0,0,0,1.47,19.72,0.00,
2.719,102.24373901091371,82.96389375353253,28.0,17.0,8.0,0,0,0,0,0,1,0,1.08,13.15,0.00,
2.733,104.18437390109138,85.54338937535326,6.0,1.0,2.0,0,0,0,0,0,1,0,0.78,9.52,0.00,
2.746,106.88043739010914,87.11533893753533,8.0,-15.0,-2.0,0,0,0,1,0,1,1,0.78,6.67,0.49,
2.759,109.74204373901091,88.71253389375353,1.0,13.0,-2.0,0,0,0,1,0,1,1,0.88,5.49,0.59,
2.774,112.1612043739011,89.88025338937535,-5.0,18.0,-4.0,0,0,0,1,0,1,1,1.08,4.81,0.69,
2.787,113.2221204373901,90.70802533893753,-8.0,21.0,-10.0,0,0,0,1,0,1,1,1.28,4.61,0.69,
2.8,113.46321204373899,91.09680253389375,-7.0,12.0,-10.0,0,0,0,1,0,1,1,1.47,5.00,0.59,
2.814,113.31632120437389,91.28868025338937,-2.0,11.0,-10.0,0,0,0,1,0,1,1,2.06,6.57,0.69,
2.828,113.17563212043738,91.46986802533893,3.0,8.0,-9.0,0,0,0,1,0,1,1,2.45,7.16,0.49,
2.841,113.35056321204374,91.94698680253389,6.0,6.0,-6.0,0,0,0,1,0,1,1,2.65,7.16,0.39,
2.855,113.73705632120438,92.57069868025339,6.0,3.0,-4.0,0,0,0,1,0,1,1,2.84,6.47,0.29,
2.869,114.10870563212045,93.41606986802535,4.0,6.0,-3.0,0,0,0,1,0,1,1,2.84,4.32,0.00,
2.882,114.54187056321204,93.92360698680254,3.0,0.0,1.0,0,0,0,1,0,1,1,2.94,3.34,0.00,
2.895,114.9631870563212,94.14536069868025,2.0,0.0,0.0,0,0,0,1,0,1,1,2.94,2.65,0.00,
2.909,115.50931870563211,94.46453606986802,1.0,4.0,-2.0,0,0,0,1,0,1,1,2.84,2.16,0.00,
2.922,115.8609318705632,94.9374536069868,-1.0,8.0,-3.0,0,0,0,1,0,1,1,2.75,1.77,0.10,
2.935,115.96809318705633,95.18274536069868,-3.0,8.0,-2.0,0,0,0,1,0,1,2,2.45,1.86,0.10,
2.95,115.92480931870563,95.24327453606988,-4.0,7.0,0.0,0,0,0,1,0,1,2,2.16,2.06,0.20,
2.963,115.81248093187055,95.10532745360699,-2.0,6.0,-1.0,0,0,0,1,0,2,2,1.96,2.55,0.39,
2.976,115.69324809318707,95.03753274536069,0.0,1.0,0.0,0,0,0,1,0,2,2,1.86,2.84,0.49,
2.99,115.8163248093187,95.11175327453607,1.0,1.0,0.0,0,0,0,1,0,2,2,1.86,2.94,0.59,
3.003,116.10763248093187,95.0021753274536,0.0,-2.0,0.0,0,0,0,1,0,2,2,1.86,2.45,0.39,
3.016,116.6227632480932,94.76621753274534,1.0,5.0,-5.0,0,0,0,1,0,2,2,1.86,2.06,0.39,
3.03,117.1512763248093,94.97662175327453,0.0,7.0,-8.0,0,0,0,1,0,2,2,1.96,1.57,0.49,
3.043,117.20412763248092,95.53766217532744,-1.0,9.0,-9.0,0,0,0,1,0,2,2,1.96,1.28,0.59,
3.057,116.98441276324809,95.83676621753274,-2.0,10.0,-6.0,0,0,0,2,0,2,3,1.96,1.08,0.69,
3.07,116.8094412763248,95.86667662175327,-2.0,12.0,-6.0,0,0,0,2,0,2,3,1.96,1.28,0.59,
3.084,116.77394412763248,95.71666766217534,0.0,11.0,-4.0,0,0,0,2,0,3,3,1.96,1.47,0.49,
3.098,116.93239441276326,95.69266676621753,2.0,12.0,-5.0,0,0,0,2,0,3,3,2.26,1.67,0.29,
3.111,117.02923944127633,95.86126667662175,1.0,11.0,-6.0,0,0,0,2,0,3,3,2.35,1.67,0.10,
3.125,117.41692394412763,95.95912666766218,1.0,9.0,-9.0,0,0,0,2,0,3,4,2.45,1.67,0.00,
3.138,117.93269239441277,95.69891266676622,3.0,8.0,-9.0,0,0,0,2,0,3,4,2.65,1.47,0.00,
3.151,118.37126923944128,95.66389126667661,3.0,8.0,-12.0,0,0,0,3,0,4,4,2.84,1.37,0.00,
3.166,118.42412692394413,96.02938912666765,2.0,8.0,-15.0,0,0,0,3,0,4,4,3.14,1.28,0.00,
3.179,117.9614126923944,96.07493891266675,2.0,8.0,-16.0,0,0,0,3,0,4,4,3.04,1.08,0.00,
3.192,117.67214126923945,96.40349389126668,1.0,9.0,-8.0,0,0,0,3,0,4,4,3.14,0.88,0.00,
3.206,117.64321412692395,96.60734938912667,2.0,14.0,-8.0,0,0,0,3,0,4,5,3.34,0.69,0.00,
3.22,117.7933214126924,96.83473493891267,3.0,15.0,-5.0,0,0,0,3,0,5,5,3.43,0.69,0.00,
3.233,118.13233214126925,97.04647349389127,4.0,16.0,-5.0,0,0,0,3,0,5,5,3.53,0.59,0.00,
3.247,118.38223321412693,97.29264734938911,3.0,12.0,-6.0,0,0,0,4,0,5,5,3.73,0.29,0.00,
3.261,118.5962233214127,97.3442647349389,3.0,10.0,-9.0,0,0,0,4,0,5,5,3.73,0.00,0.00,
3.274,118.85162233214128,97.21442647349389,3.0,9.0,-5.0,0,0,0,4,0,5,5,3.63,0.00,0.00,
3.288,119.12916223321412,97.34544264734939,1.0,11.0,-8.0,0,0,0,4,0,6,5,3.63,0.00,0.00,
3.302,119.17491622332142,98.08754426473494,1.0,7.0,-3.0,0,0,0,4,0,6,5,3.34,0.00,0.00,
3.315,118.86449162233214,98.6747544264735,0.0,14.0,0.0,0,0,0,4,0,6,6,3.24,0.00,0.00,
3.329,118.99544916223321,98.97647544264736,-2.0,13.0,1.0,0,0,0,4,1,6,6,3.34,0.00,0.00,
3.342,119.44054491622332,98.61964754426472,-1.0,13.0,1.0,0,0,0,4,1,6,6,3.53,0.00,0.00,
3.356,120.26805449162232,98.17896475442646,0.0,11.0,2.0,0,0,0,4,1,6,6,3.73,0.00,0.00,
3.369,120.65680544916223,97.81089647544263,1.0,9.0,-1.0,0,0,0,5,1,7,6,4.12,0.00,0.00,
3.383,120.49768054491622,97.53108964754426,6.0,11.0,-2.0,0,0,0,5,1,7,6,4.02,0.00,0.00,
3.397,120.23876805449162,97.65610896475442,8.0,14.0,-3.0,0,0,0,5,1,7,6,3.92,0.00,0.00,
3.41,120.09587680544917,97.86661089647544,8.0,14.0,-2.0,0,0,0,5,1,7,6,3.63,0.00,0.00,
3.424,120.61258768054492,98.50866108964753,5.0,16.0,-3.0,0,0,0,5,1,7,6,3.53,0.00,0.00,
3.438,121.15925876805449,99.08586610896477,3.0,11.0,-2.0,0,0,0,5,1,7,7,3.14,0.00,0.00,
3.451,121.77192587680545,99.50358661089648,0.0,9.0,-1.0,0,0,0,5,1,8,7,3.04,0.00,0.00,
3.465,122.35519258768053,99.50935866108966,0.0,9.0,-1.0,0,0,0,5,1,8,7,3.04,0.00,0.00,
3.478,122.94451925876805,99.50093586610896,-2.0,9.0,-4.0,0,0,0,5,1,8,7,2.94,0.20,0.00,
3.492,123.2914519258768,99.6530935866109,-5.0,10.0,-3.0,0,0,0,5,1,8,7,2.94,0.29,0.00,
3.506,123.30814519258767,99.7403093586611,-6.0,11.0,-4.0,0,0,0,5,2,8,7,2.84,0.49,0.00,
3.52,122.88681451925878,99.65003093586611,-6.0,10.0,-3.0,0,0,0,5,2,9,7,2.75,0.69,0.00,
3.533,122.54768145192588,99.37100309358661,-4.0,11.0,-3.0,0,0,0,6,2,9,7,2.84,0.88,0.00,
3.548,122.10876814519258,98.93810030935866,-2.0,15.0,-4.0,0,0,0,5,2,9,7,2.84,1.08,0.00,
3.561,121.83987681451926,98.98481003093586,-2.0,16.0,-5.0,0,0,0,6,2,9,7,2.94,0.98,0.00,
3.574,121.72298768145193,99.23248100309358,-3.0,17.0,-6.0,0,0,0,6,2,9,7,3.14,0.98,0.00,
3.589,122.4222987681452,99.97724810030935,-4.0,14.0,-5.0,0,0,0,6,2,9,7,3.34,0.98,0.00,
3.602,122.96022987681452,100.15072481003094,-5.0,13.0,-4.0,0,0,0,6,2,9,7,3.63,0.98,0.00,
3.616,124.11202298768146,99.96107248100309,-7.0,12.0,-4.0,0,0,0,6,2,10,7,3.92,0.98,0.00,
3.63,125.36120229876815,99.7891072481003,-8.0,5.0,-3.0,0,0,0,6,2,10,7,4.71,1.08,0.00,
3.644,125.85512022987682,99.62791072481002,-7.0,-1.0,-3.0,0,0,0,6,2,10,7,5.00,1.08,0.00,
3.657,125.55351202298769,99.260791072481,-4.0,-5.0,-3.0,0,0,0,6,2,10,7,5.30,1.37,0.00,
3.672,124.91135120229877,99.0440791072481,0.0,-4.0,-6.0,0,0,0,6,2,10,7,5.30,1.47,0.00,
3.685,124.14513512022988,98.83340791072482,3.0,-4.0,-5.0,0,0,0,6,2,10,7,5.30,1.37,0.00,
3.699,123.501513512023,98.81234079107249,6.0,-4.0,-5.0,0,0,0,6,2,10,7,5.00,1.08,0.00,
3.713,123.18515135120231,99.16123407910725,8.0,-3.0,-4.0,0,0,0,6,2,10,7,4.71,0.78,0.00,
3.727,123.29751513512022,100.11412340791072,6.0,-3.0,-4.0,0,0,0,6,2,10,7,4.32,0.69,0.00,
3.74,123.72275151351202,101.25341234079107,1.0,-9.0,0.0,0,0,0,6,2,10,7,3.92,0.59,0.00,
3.753,124.32327515135121,102.0423412340791,-3.0,-13.0,1.0,0,0,0,6,2,10,7,3.34,0.59,0.00,
3.768,124.64432751513512,102.1932341234079,-7.0,-18.0,2.0,0,0,0,6,2,10,7,3.24,0.49,0.00,
3.782,124.64043275151352,102.12732341234079,-11.0,-19.0,0.0,0,0,0,6,2,10,7,3.24,0.49,0.00,
3.795,124.52304327515137,101.70673234123407,-13.0,-18.0,0.0,0,0,0,6,2,10,7,3.24,0.49,0.00,
3.81,124.00730432751514,101.09767323412342,-11.0,-17.0,-2.0,0,0,0,6,2,10,7,3.14,0.39,0.00,
3.824,123.06473043275152,100.29876732341233,-7.0,-14.0,0.0,0,0,0,5,2,10,7,3.24,0.49,0.00,
3.837,122.23247304327515,99.80487673234124,-4.0,-11.0,0.0,0,0,0,5,2,10,7,3.43,0.39,0.00,
3.852,121.36624730432752,99.52148767323412,-2.0,-9.0,0.0,0,0,0,5,2,10,7,3.63,0.20,0.00,
3.865,121.21662473043274,99.28614876732341,0.0,-8.0,1.0,0,0,0,5,2,10,7,3.73,0.00,0.00,
3.879,121.51666247304327,99.10061487673234,0.0,-8.0,1.0,0,0,0,5,2,10,7,3.63,0.00,0.00,
3.893,121.94266624730432,99.12706148767323,0.0,-9.0,0.0,0,0,0,5,2,10,7,3.43,0.00,0.00,
3.906,122.28226662473043,99.40870614876732,-2.0,-11.0,0.0,0,0,0,5,2,10,7,3.24,0.00,0.00,
3.92,122.30722666247304,99.85987061487673,-4.0,-10.0,0.0,0,0,0,5,2,10,7,3.14,0.00,0.00,
3.934,122.0757226662473,99.89598706148769,-5.0,-8.0,0.0,0,0,0,5,2,10,7,2.94,0.00,0.00,
3.948,121.86357226662473,99.84559870614878,-7.0,-8.0,0.0,0,0,0,5,2,10,7,2.65,0.00,0.00,
3.961,121.48235722666247,99.75055987061486,-7.0,-10.0,0.0,0,0,0,5,2,10,7,2.55,0.00,0.00,
3.976,120.94023572266624,99.73205598706149,-7.0,-9.0,0.0,0,0,0,5,2,10,7,2.45,0.00,0.00,
3.989,120.49902357226662,99.55020559870614,-8.0,-10.0,1.0,0,0,0,4,2,10,7,2.45,0.00,0.00,
4.002,120.59890235722666,99.20802055987062,-7.0,-10.0,0.0,0,0,0,4,2,9,7,2.35,0.00,0.00,
4.017,121.02289023572266,98.84080205598707,-7.0,-11.0,0.0,0,0,0,4,2,9,7,2.55,0.00,0.00,
4.03,121.23628902357227,98.6060802055987,-6.0,-12.0,-1.0,0,0,0,4,2,9,7,2.55,0.00,0.00,
4.044,121.11362890235722,98.40260802055987,-6.0,-13.0,0.0,0,0,0,4,2,9,7,2.45,0.00,0.00,
4.058,120.45336289023572,98.37326080205598,-4.0,-12.0,0.0,0,0,0,4,2,9,7,2.35,0.00,0.00,
4.072,120.07233628902357,98.2533260802056,-4.0,-10.0,0.0,0,0,0,3,2,9,7,2.06,0.00,0.00,
4.085,119.95323362890235,98.12433260802057,-5.0,-9.0,-1.0,0,0,0,3,2,9,7,1.86,0.00,0.00,
4.1,119.99532336289023,98.04843326080206,-5.0,-9.0,-1.0,0,0,0,3,2,9,7,1.77,0.00,0.00,
4.113,120.05353233628902,98.05884332608021,-6.0,-8.0,-2.0,0,0,0,3,2,8,7,1.77,0.00,0.00,
4.126,120.0233532336289,98.30288433260802,-7.0,-7.0,-2.0,0,0,0,3,2,8,7,1.77,0.10,0.00,
4.141,119.89433532336288,98.3272884332608,-8.0,-7.0,0.0,0,0,0,3,2,8,6,1.67,0.20,0.00,
4.154,119.7734335323363,98.05972884332608,-7.0,-5.0,0.0,0,0,0,3,1,8,6,1.67,0.39,0.00,
4.168,119.24834335323362,97.6099728843326,-6.0,-2.0,-2.0,0,0,0,3,1,8,6,1.77,0.69,0.00,
4.182,118.94383433532336,97.43899728843326,-4.0,-1.0,-2.0,0,0,0,3,1,7,6,1.77,0.69,0.00,
4.195,118.85938343353234,97.37689972884334,-3.0,-1.0,-1.0,0,0,0,3,1,7,6,1.77,0.69,0.00,
4.209,118.86893834335324,97.44268997288432,-2.0,0.0,0.0,0,0,0,3,1,7,6,1.77,0.59,0.00,
4.222,118.80689383433533,97.62026899728843,-3.0,1.0,0.0,0,0,0,3,1,7,6,1.77,0.20,0.00,
4.236,118.87268938343354,97.78202689972883,-6.0,4.0,0.0,0,0,0,3,1,7,6,1.77,0.00,0.00,
4.25,119.02326893834336,97.7892026899729,-8.0,7.0,0.0,0,0,0,3,1,6,6,1.67,0.00,0.00,
4.263,119.27232689383433,97.8349202689973,-9.0,10.0,-1.0,0,0,0,3,1,6,6,1.77,0.00,0.00,
4.277,119.48623268938344,98.02849202689973,-11.0,13.0,0.0,0,0,0,3,1,6,5,1.77,0.20,0.00,
4.291,119.81362326893833,98.15584920268998,-15.0,15.0,0.0,0,0,0,2,1,6,5,1.86,0.78,0.00,
4.304,120.21536232689384,98.06058492026901,-16.0,13.0,6.0,0,0,0,2,1,5,5,1.77,1.47,0.00,
4.319,120.2285362326894,97.3310584920269,-12.0,10.0,6.0,0,0,0,2,1,5,5,1.67,2.45,0.00,
4.332,119.90585362326894,96.70910584920269,-6.0,9.0,2.0,0,0,0,2,0,5,5,1.47,3.63,0.00,
4.345,119.6485853623269,96.40391058492027,-3.0,7.0,1.0,0,0,0,2,0,5,5,1.47,5.59,0.00,
4.359,119.54185853623268,96.27439105849203,-2.0,6.0,1.0,0,0,0,2,0,5,5,1.67,5.79,0.00,
4.373,119.54018585362329,96.37843910584921,-1.0,4.0,2.0,0,0,0,2,0,5,5,1.77,5.30,0.00,
4.386,119.81901858536231,96.62284391058493,-2.0,2.0,2.0,0,0,0,2,0,5,5,1.77,4.71,0.00,
4.4,120.21590185853624,96.85428439105848,-4.0,0.0,3.0,0,0,0,2,0,5,5,1.77,3.83,0.00,
4.414,120.53459018585362,96.88642843910586,-6.0,-1.0,2.0,0,0,0,2,0,5,5,1.67,3.73,0.00,
4.427,120.80945901858536,96.79064284391059,-6.0,-3.0,2.0,0,0,0,2,0,5,4,1.67,3.83,0.00,
4.441,120.92694590185853,96.55606428439107,-5.0,-2.0,1.0,0,0,0,2,0,5,4,1.57,4.22,0.00,
4.455,120.89369459018585,96.3616064284391,-5.0,-4.0,0.0,0,0,0,2,0,5,4,1.47,4.71,0.00,
4.468,120.81836945901858,96.3241606428439,-5.0,-4.0,0.0,0,0,0,2,0,4,4,1.37,5.59,0.00,
4.482,120.76583694590187,96.25741606428439,-4.0,-5.0,0.0,0,0,0,2,0,4,4,1.37,5.89,0.00,
4.496,120.55358369459019,96.23274160642843,-4.0,-6.0,0.0,0,0,0,2,0,4,4,1.28,6.28,0.00,
4.509,120.47835836945902,96.41027416064284,-6.0,-6.0,1.0,0,0,0,2,0,4,4,1.08,6.67,0.00,
4.523,120.34483583694589,96.16702741606429,-6.0,-9.0,2.0,0,0,0,2,0,4,4,1.08,7.95,0.00,
4.537,120.25948358369459,95.85470274160643,-6.0,-9.0,1.0,0,0,0,2,0,4,4,0.78,8.73,0.00,
4.55,120.14294835836947,95.59847027416063,-4.0,-9.0,0.0,0,0,0,2,0,4,4,0.69,9.42,0.00,
4.563,119.95129483583696,95.51884702741606,-3.0,-8.0,0.0,0,0,0,2,0,3,3,0.69,10.01,0.00,
4.578,119.7161294835837,95.57388470274161,-3.0,-8.0,0.0,0,0,0,2,0,3,3,0.69,10.30,0.00,
4.591,119.56661294835837,95.66938847027417,-4.0,-8.0,1.0,0,0,0,2,0,3,3,0.69,10.20,0.00,
4.605,119.60566129483584,95.66993884702742,-4.0,-7.0,2.0,0,0,0,2,0,3,3,0.69,10.30,0.00,
4.619,119.62756612948358,95.48099388470274,-4.0,-6.0,1.0,0,0,0,2,0,3,3,0.59,10.40,0.00,
4.632,119.62975661294836,95.52509938847028,-4.0,-6.0,1.0,0,0,0,2,0,2,2,0.69,10.59,0.00,
4.646,119.40497566129483,95.52950993884703,-2.0,-5.0,2.0,0,0,0,2,0,2,2,0.69,11.09,0.00,
4.66,119.22049756612948,95.5569509938847,-3.0,-4.0,2.0,0,0,0,2,0,2,2,0.69,11.28,0.00,
4.673,119.07604975661296,95.54169509938848,-4.0,-4.0,1.0,0,0,0,1,0,2,2,0.59,11.67,0.00,
4.686,119.41260497566131,95.41416950993886,-6.0,-2.0,3.0,0,0,0,1,0,2,2,0.59,12.07,0.00,
4.701,119.73426049756613,94.91541695099389,-11.0,-5.0,2.0,0,0,0,1,0,1,1,0.49,13.24,0.00,
4.714,119.85642604975662,95.14454169509939,-15.0,-10.0,8.0,0,0,0,1,0,1,1,0.49,14.22,0.00,
4.728,119.82364260497565,94.60045416950994,-14.0,-14.0,7.0,0,0,0,1,0,1,0,0.39,15.70,0.00,
4.742,119.40636426049757,94.02404541695098,-12.0,-15.0,5.0,0,0,0,0,0,1,0,0.20,17.27,0.00,
4.756,118.56363642604975,93.64240454169509,-8.0,-13.0,2.0,0,0,0,0,0,0,0,0.20,21.39,0.00,
4.769,117.86736364260499,93.32524045416952,-4.0,-10.0,0.0,0,0,0,0,0,0,0,0.29,23.05,0.00,
4.783,117.85173636426049,93.27552404541694,-4.0,-8.0,5.0,0,0,0,0,0,0,0,0.29,24.03,0.00,
4.797,117.99417363642605,93.32455240454169,-2.0,-7.0,1.0,0,0,0,0,0,0,0,0.20,24.23,0.00,
4.81,117.9634173636426,93.36545524045417,-2.0,-8.0,0.0,0,0,0,0,0,0,0,0.10,24.03,0.00,
4.824,117.92434173636425,93.44154552404542,-1.0,-10.0,2.0,0,0,0,0,0,0,0,0.20,22.86,0.00,
4.838,117.85743417363642,93.67415455240453,-2.0,-11.0,0.0,0,0,0,0,0,1,0,0.20,22.46,0.00,
4.851,117.58074341736364,93.69741545524045,-2.0,-13.0,0.0,0,0,0,0,0,1,0,0.20,22.37,0.00,
4.866,117.28307434173637,93.69074154552405,-2.0,-16.0,1.0,0,0,0,0,0,0,0,0.29,22.66,0.00,
4.879,117.18130743417363,93.6090741545524,-3.0,-20.0,1.0,0,0,0,0,0,0,0,0.39,24.23,0.00,
4.892,117.18013074341737,93.67290741545526,-2.0,-19.0,2.0,0,0,0,0,0,0,0,0.39,25.11,0.00,
4.907,117.11701307434174,93.82329074154552,-3.0,-20.0,2.0,0,0,0,0,0,0,0,0.39,25.70,0.00,
4.92,116.72370130743418,93.55032907415455,-1.0,-20.0,0.0,0,0,0,0,0,0,0,0.29,26.09,0.00,
4.933,116.27937013074342,93.48703290741545,0.0,-18.0,-1.0,0,0,0,0,0,0,0,0.39,26.19,0.00,
4.947,115.97393701307435,93.55270329074155,0.0,-17.0,-1.0,0,0,0,0,0,0,0,0.29,26.09,0.00,
4.961,115.87139370130743,93.80227032907416,-3.0,-18.0,-1.0,0,0,0,0,0,0,0,0.29,25.90,0.10,
4.975,115.85213937013074,93.99822703290741,-7.0,-20.0,1.0,0,0,0,0,0,0,0,0.29,25.90,0.10,
4.988,115.47221393701308,93.78382270329074,-7.0,-18.0,0.0,0,0,0,0,0,0,0,0.29,27.27,0.10,
5.002,114.87622139370131,93.68138227032907,-6.0,-16.0,-1.0,0,0,0,0,0,0,0,0.20,28.45,0.10,
5.016,114.43862213937014,93.54513822703291,-6.0,-15.0,-1.0,0,0,0,0,0,0,0,0.10,29.43,0.10,
5.029,114.088862213937,93.6125138227033,-9.0,-11.0,0.0,0,0,0,0,0,0,0,0.20,30.21,0.20,
5.044,113.6218862213937,93.50225138227032,-10.0,-9.0,2.0,0,0,0,0,0,0,0,0.20,30.71,0.00,
5.057,113.32318862213938,93.81522513822704,-9.0,-9.0,6.0,0,0,0,0,0,0,0,0.29,32.57,0.00,
5.07,113.08631886221394,93.5135225138227,-5.0,-7.0,0.0,0,0,0,0,0,0,0,0.29,33.35,0.00,
5.085,113.30563188622139,93.65435225138226,-8.0,-7.0,1.0,0,0,0,0,0,0,0,0.39,34.04,0.00,
5.098,113.48056318862214,93.47943522513822,-10.0,-6.0,0.0,0,0,0,0,0,0,0,0.29,34.34,0.00,
5.111,113.07505631886221,93.30894352251383,-10.0,-9.0,0.0,0,0,0,0,0,0,0,0.10,35.22,0.00,
5.125,112.65650563188622,92.98589435225138,-5.0,-6.0,3.0,0,0,0,0,0,0,0,0.10,35.61,0.00,
5.138,112.81265056318861,92.96258943522514,-3.0,-7.0,3.0,0,0,0,0,0,0,0,0.10,35.71,0.00,
5.151,113.31426505631886,93.23925894352251,-7.0,-9.0,4.0,0,0,0,0,0,0,0,0.20,35.51,0.00,
5.165,113.24742650563188,93.47392589435225,-12.0,-11.0,5.0,0,0,0,0,0,0,0,0.10,35.61,0.00,
5.179,112.74574265056319,94.19939258943523,-8.0,-12.0,19.0,0,0,0,0,0,0,0,0.00,37.38,0.00,
5.192,112.52457426505632,94.07393925894354,-10.0,-8.0,29.0,0,0,0,0,0,0,0,0.00,38.55,0.00,
5.206,112.64645742650563,93.07139392589436,-10.0,-7.0,22.0,0,0,0,0,0,0,0,0.00,39.34,0.00,
5.219,112.70364574265055,91.81013939258943,-5.0,-1.0,16.0,0,0,0,0,0,0,0,0.00,39.53,0.00,
5.232,112.21436457426506,90.72101393925894,1.0,1.0,8.0,0,0,0,0,0,0,0,0.00,39.34,0.00,
5.245,112.00343645742652,90.00010139392589,9.0,4.0,1.0,0,0,0,0,0,0,0,0.00,38.36,0.00,
5.259,111.86534364574264,89.70301013939259,15.0,10.0,-1.0,0,0,0,0,0,0,0,0.00,37.47,0.00,
5.272,112.04053436457426,89.82630101393926,17.0,12.0,-4.0,0,0,0,0,0,0,0,0.00,36.40,0.00,
5.285,112.42705343645743,90.10863010139393,17.0,14.0,-4.0,0,0,0,0,0,0,0,0.00,34.92,0.00,
5.299,112.89770534364574,90.5058630101394,17.0,14.0,-6.0,0,0,0,0,0,0,0,0.00,33.35,0.00,
5.312,113.59277053436458,91.66158630101394,8.0,10.0,-10.0,0,0,0,0,0,0,0,0.20,29.82,0.00,
5.325,113.65327705343645,92.5331586301014,0.0,11.0,0.0,0,0,0,0,0,0,0,0.29,27.96,0.00,
5.339,113.60532770534364,93.07931586301015,-2.0,3.0,-2.0,0,0,0,0,0,0,0,0.29,25.80,0.00,
5.352,113.56453277053437,93.10693158630102,-3.0,6.0,1.0,0,0,0,0,0,0,0,0.39,24.03,0.00,
5.365,113.84845327705344,92.86669315863011,-3.0,6.0,1.0,0,0,0,0,0,0,0,0.59,23.15,0.00,
5.378,114.06584532770535,92.67166931586301,-3.0,7.0,-2.0,0,0,0,0,0,0,0,0.69,22.96,0.00,
5.391,113.74558453277054,92.7061669315863,-1.0,7.0,-1.0,0,0,0,0,0,0,0,0.88,22.96,0.00,
5.404,113.51555845327704,92.78161669315864,0.0,9.0,1.0,0,0,0,0,0,0,0,0.98,22.86,0.00,
5.417,113.8075558453277,92.91516166931588,-1.0,8.0,1.0,0,0,0,0,0,0,0,0.98,22.66,0.00,
5.431,114.24175558453277,92.9015161669316,-2.0,6.0,0.0,0,0,0,0,0,0,0,1.08,22.17,0.00,
5.444,114.51917555845327,92.77415161669316,-2.0,5.0,-1.0,0,0,0,0,0,0,0,1.18,21.39,0.00,
5.457,114.47491755584532,92.65341516166932,0.0,5.0,-2.0,0,0,0,0,0,0,0,1.28,20.99,0.00,
5.471,114.35349175558454,92.54234151616693,0.0,4.0,-4.0,0,0,0,0,0,0,0,1.28,20.50,0.00,
5.484,114.29634917555846,92.66623415161669,1.0,4.0,-4.0,0,0,0,0,0,0,0,1.18,20.01,0.00,
5.497,114.33563491755585,92.74162341516168,0.0,2.0,-4.0,0,0,0,0,0,0,0,1.28,19.42,0.20,
5.51,114.33056349175558,92.73116234151618,0.0,2.0,-6.0,0,0,0,0,0,0,0,1.08,18.34,0.29,
5.523,114.52805634917556,92.81111623415161,0.0,0.0,-8.0,0,0,0,0,0,0,0,0.98,17.66,0.39,
5.536,114.93480563491755,93.24211162341517,-1.0,0.0,-7.0,0,0,0,0,0,0,0,0.88,16.97,0.39,
5.55,115.24548056349177,93.40221116234152,-3.0,0.0,-6.0,0,0,0,0,0,0,0,0.88,16.48,0.39,
5.563,115.26754805634917,93.31022111623415,-4.0,-1.0,-8.0,0,0,0,0,0,0,0,0.78,16.28,0.49,
5.576,115.14375480563491,93.24702211162341,-4.0,0.0,-10.0,0,0,0,0,0,0,0,0.78,16.28,0.49,
5.59,114.8703754805635,93.27670221116233,-3.0,0.0,-9.0,0,0,0,0,0,0,0,0.78,17.07,0.49,
5.603,114.58203754805635,93.40567022111624,-2.0,-1.0,-5.0,0,0,0,0,0,0,0,0.78,17.36,0.59,
5.616,114.54420375480565,93.42756702211162,-2.0,1.0,-2.0,0,0,0,0,0,0,0,0.69,17.27,0.59,
5.629,114.61242037548057,93.22275670221117,-2.0,3.0,-3.0,0,0,0,0,0,0,0,0.78,17.17,0.69,
5.643,114.61924203754805,93.27427567022112,-1.0,4.0,-4.0,0,0,0,0,0,0,0,0.78,17.07,0.78,
5.656,114.66492420375481,93.27042756702211,-2.0,3.0,-5.0,0,0,0,0,0,0,0,0.69,16.58,0.78,
5.669,114.78649242037547,93.45904275670222,-2.0,4.0,-3.0,0,0,0,0,0,0,0,0.69,16.28,0.88,
5.683,114.95164924203755,93.38790427567022,-3.0,5.0,-2.0,0,0,0,0,0,0,0,0.69,15.99,1.08,
5.697,115.01316492420375,93.33579042756702,-1.0,5.0,-3.0,0,0,0,0,0,0,0,0.69,15.99,1.08,
5.71,115.01031649242037,93.3125790427567,-2.0,5.0,-4.0,0,0,0,0,0,0,0,0.59,15.79,0.98,
5.724,115.09103164924204,93.33725790427567,-2.0,6.0,-4.0,0,0,0,0,0,0,0,0.69,15.70,1.08,
5.737,115.1531031649242,93.44772579042755,-2.0,5.0,-4.0,0,0,0,0,0,0,0,0.69,15.60,1.08,
5.75,115.21331031649243,93.54877257904276,-2.0,5.0,-3.0,0,0,0,0,0,0,0,0.69,15.50,1.18,
5.765,115.29133103164924,93.50487725790428,-2.0,5.0,-2.0,0,0,0,0,0,0,0,0.69,15.40,0.98,
5.778,115.35313310316492,93.54548772579042,-2.0,5.0,-2.0,0,0,0,0,0,0,0,0.59,15.50,0.98,
5.791,115.43131331031648,93.59454877257903,-2.0,5.0,-2.0,0,0,0,0,0,0,0,0.59,15.50,0.98,
5.805,115.53813133103165,93.53645487725791,-3.0,4.0,-2.0,0,0,0,0,0,0,0,0.69,15.50,0.98,
5.818,115.53981313310317,93.53064548772579,-2.0,4.0,-2.0,0,0,0,0,0,0,0,0.59,15.50,0.88,
5.832,115.58498131331032,93.51206454877259,-2.0,4.0,-1.0,0,0,0,0,0,0,0,0.69,15.50,0.98,
5.846,115.66149813133104,93.49220645487725,-2.0,4.0,-2.0,0,0,0,0,0,0,0,0.59,15.40,0.98,
5.859,115.72314981313312,93.52622064548773,-2.0,4.0,-1.0,0,0,0,0,0,0,0,0.59,15.30,0.88,
5.872,115.79231498131331,93.49362206454876,-2.0,4.0,-2.0,0,0,0,0,0,0,0,0.59,15.21,0.88,
5.885,115.78123149813132,93.53536220645488,-2.0,3.0,-1.0,0,0,0,0,0,0,0,0.69,15.11,0.88,
5.9,115.86112314981312,93.53053622064549,-2.0,3.0,-1.0,0,0,0,0,0,0,0,0.69,14.72,0.88,
5.913,116.0311123149813,93.49405362206454,-2.0,2.0,-1.0,0,0,0,0,0,0,0,0.78,14.42,0.88,
5.926,116.11111123149814,93.49940536220646,-2.0,2.0,-1.0,0,0,0,0,0,0,0,0.69,14.22,0.88,
5.94,116.16411112314981,93.40994053622065,-1.0,2.0,0.0,0,0,0,0,0,0,0,0.69,14.03,0.78,
5.953,116.09741111231499,93.40999405362206,-2.0,1.0,-2.0,0,0,0,0,0,0,0,0.78,13.93,0.88,
5.966,116.1267411112315,93.39199940536221,-2.0,2.0,-1.0,0,0,0,0,0,0,0,0.78,13.34,0.88,
5.981,116.19267411112314,93.40819994053622,-2.0,1.0,-1.0,0,0,0,0,0,0,0,0.78,13.05,0.78,
5.994,116.27126741111232,93.40981999405362,-2.0,1.0,-1.0,0,0,0,0,0,0,0,0.78,12.85,0.88,
6.007,116.25212674111123,93.40098199940536,-1.0,1.0,-1.0,0,0,0,0,0,0,0,0.78,12.75,0.98,
6.022,116.27721267411113,93.40009819994054,0.0,1.0,0.0,0,0,0,0,0,0,0,0.78,12.46,0.98,
6.035,116.1987212674111,93.41800981999405,-1.0,1.0,0.0,0,0,0,0,0,0,0,0.78,12.36,0.88,
6.048,116.26287212674112,93.4378009819994,-1.0,1.0,-1.0,0,0,0,0,0,0,0,0.78,12.16,0.98,
6.062,116.32328721267412,93.45778009819993,0.0,2.0,0.0,0,0,0,0,0,0,0,0.69,11.87,1.08,
6.075,116.42832872126742,93.60377800982,-1.0,1.0,-1.0,0,0,0,0,0,0,0,0.78,11.58,1.08,
6.089,116.35783287212675,93.60937780098199,-1.0,2.0,-1.0,0,0,0,0,0,0,0,0.69,11.18,0.98,
6.103,116.25178328721267,93.7089377800982,0.0,2.0,-1.0,0,0,0,0,0,0,0,0.78,11.09,1.08,
6.116,116.24117832872126,93.37689377800982,-1.0,2.0,-2.0,0,0,0,0,0,0,0,0.78,10.89,1.08,
6.13,116.38411783287214,93.47868937780098,0.0,3.0,-3.0,0,0,0,0,0,0,0,0.98,10.59,1.18,
6.144,116.54241178328722,93.6328689377801,-1.0,3.0,-3.0,0,0,0,0,0,0,0,1.08,10.01,1.08,
6.157,116.54024117832873,93.68428689377801,-1.0,2.0,-3.0,0,0,0,0,0,0,0,1.18,9.71,1.08,
6.17,116.53102411783289,93.7794286893778,-1.0,2.0,-2.0,0,0,0,0,0,0,0,1.28,9.61,1.08,
6.184,116.62010241178328,93.78894286893778,-2.0,2.0,-2.0,0,0,0,0,0,0,0,1.37,9.52,1.08,
6.198,116.74601024117833,93.80789428689377,-2.0,3.0,-2.0,0,0,0,0,0,0,0,1.28,9.42,1.08,
6.211,116.79460102411784,93.86378942868939,-2.0,3.0,-2.0,0,0,0,0,0,0,0,1.28,9.61,1.08,
6.224,116.79946010241179,93.86037894286895,-2.0,3.0,-2.0,0,0,0,0,0,0,0,1.37,9.71,1.08,
6.238,116.74594601024118,93.86903789428689,-1.0,4.0,-1.0,0,0,0,0,0,0,0,1.47,9.91,1.08,
6.252,116.79459460102412,93.91490378942869,-1.0,4.0,-1.0,0,0,0,0,0,0,0,1.47,10.10,0.98,
6.265,116.88045946010241,93.88349037894287,-1.0,4.0,-2.0,0,0,0,0,0,0,0,1.47,10.20,0.98,
6.279,116.97004594601025,93.85334903789429,0.0,5.0,-2.0,0,0,0,0,0,0,0,1.47,10.20,0.98,
6.293,117.07800459460103,93.97633490378942,0.0,5.0,-3.0,0,0,0,0,0,0,0,1.57,9.91,0.98,
6.306,117.1518004594601,94.06963349037893,-1.0,5.0,-2.0,0,0,0,0,0,0,0,1.57,9.52,0.98,
6.32,117.24918004594602,94.16896334903791,-1.0,4.0,-2.0,0,0,0,0,0,0,0,1.77,9.32,0.98,
6.333,117.2859180045946,94.21489633490378,-2.0,3.0,-2.0,0,0,0,0,0,0,0,1.77,8.93,0.98,
6.346,117.37059180045945,94.21048963349038,-2.0,3.0,-1.0,0,0,0,0,0,1,0,1.67,8.83,0.98,
6.361,117.40605918004594,94.18304896334905,-2.0,2.0,-1.0,0,0,0,0,0,1,0,1.77,9.03,0.98,
6.374,117.43660591800459,94.15330489633492,-2.0,1.0,0.0,0,0,0,0,0,1,0,1.86,9.12,0.98,
6.387,117.57466059180047,94.10533048963349,-2.0,1.0,0.0,0,0,0,0,0,1,0,1.86,9.32,0.88,
6.401,117.61546605918005,94.06453304896336,-2.0,1.0,0.0,0,0,0,0,0,1,0,1.77,9.32,0.78,
6.415,117.619546605918,94.06945330489633,-1.0,0.0,-1.0,0,0,0,0,0,1,0,1.77,9.42,0.78,
6.428,117.5569546605918,94.13294533048963,-2.0,0.0,-1.0,0,0,0,0,0,1,0,1.77,9.52,0.88,
6.441,117.58669546605918,94.12129453304897,-2.0,0.0,0.0,0,0,0,0,0,1,0,1.67,9.52,0.78,
6.455,117.70666954660592,94.1111294533049,-2.0,0.0,-1.0,0,0,0,0,0,0,0,1.77,9.52,0.88,
6.469,117.76366695466058,94.10111294533048,-2.0,0.0,0.0,0,0,0,0,0,0,0,1.77,9.52,0.78,
6.482,117.83236669546606,94.05511129453305,-2.0,0.0,-1.0,0,0,0,0,0,0,0,1.67,9.52,0.78,
6.496,117.7852366695466,94.03251112945331,-2.0,-1.0,-1.0,0,0,0,0,0,1,0,1.77,9.61,0.88,
6.509,117.71752366695465,94.04825111294532,-2.0,-1.0,-1.0,0,0,0,0,0,1,0,1.57,9.81,0.88,
6.523,117.68375236669547,94.07682511129453,-1.0,-2.0,0.0,0,0,0,0,0,1,0,1.57,9.91,0.78,
6.537,117.73437523666954,94.07968251112945,-1.0,-2.0,0.0,0,0,0,0,0,0,0,1.47,9.91,0.88,
6.55,117.67643752366696,94.06196825111296,-1.0,-3.0,0.0,0,0,0,0,0,0,0,1.47,9.71,0.78,
6.563,117.6256437523667,94.14119682511131,-1.0,-3.0,0.0,0,0,0,0,0,0,0,1.37,9.32,0.88,
6.577,117.71056437523667,94.04111968251114,-1.0,-1.0,-3.0,0,0,0,0,0,0,0,1.28,8.34,0.78,
6.591,117.73705643752366,94.16611196825113,-2.0,-4.0,-2.0,0,0,0,0,0,0,0,1.18,7.95,0.69,
6.604,117.68570564375237,94.34061119682512,-3.0,-4.0,0.0,0,0,0,0,0,0,0,1.18,7.75,0.59,
6.618,117.64457056437524,94.30406111968252,-3.0,-6.0,0.0,0,0,0,0,0,0,0,0.98,7.75,0.39,
6.632,117.53245705643752,94.23740611196826,-3.0,-6.0,0.0,0,0,0,0,0,0,0,0.88,7.36,0.29,
6.645,117.34124570564374,94.24874061119682,-4.0,-8.0,0.0,0,0,0,0,0,0,0,0.59,7.26,0.20,
6.659,117.21412457056438,94.39387406111967,-5.0,-9.0,2.0,0,0,0,0,0,0,0,0.49,7.06,0.10,
6.672,117.12941245705643,94.37238740611197,-6.0,-9.0,4.0,0,0,0,0,0,0,0,0.39,6.97,0.10,
6.685,117.19294124570564,94.2982387406112,-7.0,-7.0,2.0,0,0,0,0,0,0,0,0.29,6.57,0.00,
6.7,117.18129412457057,94.18282387406111,-9.0,-6.0,2.0,0,0,0,0,0,0,0,0.29,6.38,0.00,
6.713,117.02712941245707,94.07228238740612,-8.0,-6.0,3.0,0,0,0,0,0,0,0,0.00,6.67,0.00,
6.726,116.77771294124571,93.96222823874062,-8.0,-5.0,2.0,0,0,0,0,0,0,0,0.00,6.97,0.00,
6.739,116.53677129412458,93.75322282387405,-8.0,-4.0,1.0,0,0,0,0,0,0,0,0.00,7.16,0.00,
6.753,116.39567712941246,93.55232228238741,-8.0,-2.0,1.0,0,0,0,0,0,0,0,0.00,7.16,0.00,
6.766,116.33656771294125,93.35223222823873,-7.0,0.0,0.0,0,0,0,0,0,0,0,0.00,6.97,0.00,
6.779,116.19565677129414,93.28722322282387,-8.0,0.0,1.0,0,0,0,0,0,0,0,0.00,6.97,0.00,
6.793,116.00156567712942,93.11872232228238,-7.0,0.0,1.0,0,0,0,0,0,0,0,0.00,6.97,0.00,
6.806,116.00915656771295,93.13787223222825,-8.0,0.0,2.0,0,0,0,0,0,0,0,0.00,6.97,0.00,
6.819,115.9199156567713,93.13978722322283,-10.0,-2.0,3.0,0,0,0,0,0,0,0,0.00,6.97,0.00,
6.834,115.93799156567712,92.90597872232227,-9.0,0.0,3.0,0,0,0,0,0,0,0,0.00,7.36,0.00,
6.847,116.0567991565677,92.76559787223223,-8.0,1.0,2.0,0,0,0,0,0,0,0,0.00,7.55,0.00,
6.86,116.09567991565676,92.49055978722322,-8.0,2.0,2.0,0,0,0,0,0,0,0,0.00,7.85,0.00,
6.874,116.14456799156568,92.39105597872232,-7.0,2.0,1.0,0,0,0,0,0,0,0,0.00,8.34,0.00,
6.887,116.38345679915658,92.19210559787223,-6.0,5.0,2.0,0,0,0,0,0,0,0,0.00,9.03,0.00,
6.9,116.92034567991567,91.83921055978723,-5.0,7.0,-1.0,0,0,0,0,0,0,0,0.00,11.38,0.00,
6.914,117.39703456799157,91.54292105597872,-6.0,8.0,-4.0,0,0,0,0,0,0,0,0.00,13.34,0.00,
6.927,117.49870345679915,91.27029210559787,-8.0,5.0,-6.0,0,0,0,0,0,0,0,0.00,15.99,0.00,
6.94,116.9148703456799,90.73002921055979,-5.0,0.0,-8.0,0,0,0,0,0,0,0,0.00,19.82,0.00,
6.953,116.32548703456798,89.92000292105597,3.0,0.0,-3.0,0,0,0,0,0,0,0,0.00,31.29,0.00,
6.968,116.77054870345678,89.79400029210561,13.0,0.0,-5.0,0,0,0,0,0,0,0,0.10,38.65,0.00,
6.981,117.67905487034568,90.31240002921058,11.0,-4.0,-2.0,0,0,0,0,0,0,0,0.20,46.99,0.00,
6.994,118.45390548703458,91.45324000292105,5.0,-16.0,-2.0,0,0,0,0,0,0,0,0.10,55.92,0.00,
7.008,118.77439054870345,91.07232400029211,6.0,-19.0,0.0,0,0,0,0,0,0,0,0.39,64.65,0.00,
7.021,118.56343905487034,91.43923240002921,6.0,-30.0,-8.0,0,0,0,0,0,0,0,0.59,82.21,0.00,
7.035,117.97534390548704,91.75492324000292,6.0,-33.0,-10.0,0,0,0,0,0,0,0,0.98,91.43,0.00,
7.049,117.1155343905487,92.26349232400028,5.0,-33.0,-8.0,0,0,0,0,0,0,0,1.28,100.36,0.00,
7.063,116.36355343905487,92.79134923240002,1.0,-32.0,-6.0,0,0,0,0,0,0,0,1.96,108.89,0.20,
7.076,115.29835534390548,93.31213492324,0.0,-29.0,-8.0,0,0,0,0,0,0,0,2.35,125.76,0.29,
7.091,114.80483553439055,95.146213492324,-3.0,-24.0,3.0,0,0,0,0,0,0,0,2.75,134.00,0.49,
7.104,114.53048355343905,95.40162134923241,-4.0,-22.0,3.0,0,0,0,0,0,0,0,3.14,141.66,0.59,
7.118,114.0620483553439,94.99516213492323,-4.0,-17.0,0.0,1,0,0,0,0,0,0,3.43,148.92,0.69,
7.132,113.74520483553438,94.72051621349232,-3.0,-17.0,-3.0,1,0,0,0,0,0,0,4.02,160.98,0.78,
7.146,113.36252048355344,94.55805162134925,-5.0,-13.0,-2.0,1,0,0,0,0,0,0,4.32,165.79,0.78,
7.159,113.02725204835534,94.27180516213492,-5.0,-9.0,-2.0,1,0,0,0,0,0,0,4.61,169.81,0.98,
7.174,112.74172520483552,93.97318051621349,-3.0,-7.0,-3.0,1,0,0,0,0,0,0,4.81,173.15,0.98,
7.187,112.65017252048355,93.71831805162134,-1.0,-1.0,-2.0,1,0,0,0,0,0,0,5.10,177.27,0.98,
7.201,112.65901725204836,93.71983180516213,-2.0,0.0,-3.0,1,0,0,0,0,1,0,5.20,177.36,1.08,
7.215,112.65990172520483,93.6479831805162,-2.0,2.0,-3.0,1,0,0,0,0,1,0,5.40,175.99,1.28,
7.229,112.65999017252048,93.74879831805163,-5.0,1.0,-4.0,1,0,0,0,0,1,0,5.49,173.74,1.37,
7.242,112.65999901725205,93.69587983180516,-6.0,1.0,-3.0,1,0,0,0,0,1,0,5.59,167.65,1.28,
7.256,112.5699999017252,93.74458798318051,-6.0,0.0,-2.0,1,0,0,0,0,0,0,5.20,164.51,0.98,
7.27,112.53399999017252,93.89345879831805,-9.0,-4.0,0.0,1,0,0,0,0,0,0,4.81,161.57,0.69,
7.283,112.50339999901725,93.75534587983181,-10.0,-5.0,0.0,1,0,0,0,0,0,0,4.41,159.61,0.20,
7.298,112.32933999990173,93.53453458798319,-11.0,-8.0,-1.0,0,0,0,0,0,0,0,4.02,159.41,0.00,
7.311,112.38393399999016,93.41345345879832,-11.0,-6.0,3.0,0,0,0,0,0,0,0,3.53,160.10,0.00,
7.325,112.31739339999902,92.96934534587983,-10.0,-7.0,2.0,0,0,0,0,0,0,0,2.55,159.90,0.00,
7.339,112.29273933999991,92.57393453458798,-4.0,-5.0,3.0,0,0,0,0,0,0,0,2.16,158.63,0.00,
7.352,112.48827393399999,91.6073934534588,12.0,-1.0,6.0,0,0,0,0,0,0,0,1.86,156.57,0.00,
7.366,112.6608273934,91.51973934534588,17.0,4.0,-1.0,0,0,0,0,0,0,0,1.77,148.43,0.00,
7.379,112.24608273934,92.00597393453458,7.0,13.0,-2.0,0,0,0,0,0,0,0,1.77,141.46,0.10,
7.394,112.114608273934,92.45059739345345,3.0,11.0,-3.0,0,0,0,0,0,0,0,1.77,133.32,0.59,
7.407,112.4164608273934,92.65705973934536,-2.0,12.0,-3.0,0,0,0,0,0,0,0,1.96,124.59,1.67,
7.421,112.74364608273935,93.19970597393454,-5.0,12.0,0.0,0,0,0,0,0,0,0,2.16,110.46,2.06,
7.435,112.84836460827393,93.12797059739346,-7.0,13.0,2.0,0,0,0,0,0,0,0,2.26,106.14,2.16,
7.448,112.91283646082739,93.03079705973934,-5.0,13.0,5.0,0,0,0,0,0,0,0,2.06,103.69,2.16,
7.462,113.26128364608273,92.89507970597393,-3.0,18.0,4.0,0,0,0,0,0,0,0,1.96,102.12,1.77,
7.476,113.38612836460827,92.68350797059739,-4.0,23.0,3.0,0,0,0,0,0,0,0,1.96,99.47,1.86,
7.489,113.50661283646082,92.80635079705974,-5.0,25.0,1.0,0,0,0,0,0,1,0,1.86,96.82,1.96,
7.503,113.64466128364607,92.76463507970598,-5.0,27.0,3.0,0,0,0,0,0,0,0,1.86,93.49,1.86,
7.517,113.9734661283646,93.0394635079706,-8.0,29.0,3.0,0,0,0,0,0,0,0,1.96,90.55,1.47,
7.53,114.44734661283645,93.02194635079707,-10.0,28.0,3.0,0,0,0,0,0,0,0,1.77,88.19,1.08,
7.544,114.97173466128365,92.93919463507972,-10.0,25.0,4.0,0,0,0,0,0,0,0,1.67,84.37,0.69,
7.558,115.53717346612835,92.48991946350796,-10.0,24.0,0.0,0,0,0,0,0,0,0,1.47,83.29,0.39,
7.572,116.12471734661283,92.0939919463508,-6.0,19.0,-1.0,0,0,0,0,0,0,0,1.28,82.60,0.10,
7.585,116.75947173466129,91.91939919463509,-4.0,16.0,0.0,0,0,0,0,0,0,0,1.08,82.50,0.00,
7.599,117.29994717346612,91.73093991946351,-2.0,10.0,-1.0,0,0,0,0,0,0,0,1.28,83.09,0.00,
7.613,117.43499471734661,91.84709399194635,-3.0,0.0,-1.0,0,0,0,0,0,0,0,1.47,83.19,0.00,
7.626,117.73649947173465,92.12870939919463,-5.0,-4.0,0.0,0,0,0,0,0,0,0,1.67,83.29,0.10,
7.64,117.49664994717347,92.13887093991946,-6.0,-11.0,3.0,0,0,0,0,0,0,0,1.77,84.95,0.59,
7.654,117.40066499471735,92.06788709399194,-5.0,-10.0,0.0,0,0,0,0,0,0,0,1.96,93.29,0.49,
7.667,117.33706649947173,92.10578870939919,-5.0,-10.0,0.0,0,0,0,0,0,0,0,2.06,97.90,0.59,
7.682,116.92570664994716,91.62357887093991,-4.0,-9.0,-2.0,1,0,0,0,0,0,0,2.06,102.32,0.49,
7.695,116.48857066499473,91.23335788709399,0.0,-1.0,-5.0,1,0,0,0,0,0,0,2.06,105.85,0.78,
7.708,116.21085706649949,91.2123357887094,3.0,0.0,-1.0,1,0,0,0,0,1,0,2.35,108.89,0.88,
7.723,116.30008570664995,91.25523357887094,4.0,0.0,-5.0,1,0,0,0,0,1,0,2.94,108.50,1.18,
7.736,116.309008570665,91.5025233578871,2.0,0.0,-3.0,1,0,0,1,0,1,0,3.53,107.13,1.37,
7.75,116.3459008570665,91.72525233578871,2.0,-1.0,-4.0,1,0,0,1,0,1,0,4.22,104.67,2.26,
7.763,116.58359008570665,91.90052523357888,2.0,-2.0,-2.0,1,0,0,1,0,1,0,4.91,98.49,2.55,
7.778,116.60735900857065,92.1700525233579,1.0,-3.0,-4.0,1,0,0,1,0,2,1,6.08,95.35,3.14,
7.791,116.59173590085707,92.11600525233578,1.0,-1.0,-4.0,1,0,0,1,0,2,1,6.57,92.21,3.53,
7.805,116.5001735900857,92.27260052523359,0.0,0.0,-6.0,1,0,0,1,0,2,1,7.06,89.27,3.83,
7.819,116.28401735900857,92.36926005252334,0.0,0.0,-7.0,1,0,0,1,0,2,1,7.36,86.62,4.51,
7.832,116.10940173590086,92.50492600525233,0.0,3.0,-7.0,1,0,0,1,0,2,2,7.55,81.13,4.81,
7.846,115.98394017359009,92.53649260052524,0.0,3.0,-6.0,1,0,0,1,0,2,2,8.04,78.28,4.91,
7.86,115.98939401735899,92.68364926005253,0.0,3.0,-4.0,1,0,0,1,0,2,2,8.14,75.54,5.20,
7.873,115.9719394017359,92.62636492600525,0.0,1.0,-2.0,1,0,0,1,0,2,2,8.24,72.99,5.40,
7.887,115.91619394017359,92.68363649260053,-1.0,1.0,-2.0,1,0,0,2,0,2,2,8.44,69.75,5.49,
7.901,116.02761939401736,93.01336364926006,-2.0,-1.0,0.0,1,0,0,2,0,2,2,8.63,68.77,5.49,
7.914,116.17376193940173,93.091336364926,-3.0,-2.0,0.0,1,0,0,2,0,2,2,8.63,68.28,5.49,
7.928,116.17037619394017,93.00013363649259,-3.0,-3.0,1.0,1,0,0,2,0,2,2,8.73,68.38,5.30,
7.942,116.17003761939401,92.81101336364927,-2.0,-2.0,0.0,1,0,0,2,0,2,2,8.63,70.73,5.20,
7.956,116.3140037619394,92.76510133636494,-2.0,0.0,-1.0,1,0,0,2,0,2,2,8.63,72.20,5.10,
7.969,116.31040037619394,92.71551013363649,-2.0,-1.0,-1.0,1,0,0,2,0,2,2,8.53,73.18,5.10,
7.984,116.36404003761939,92.56655101336365,-1.0,0.0,-3.0,1,0,0,2,0,2,2,8.63,73.38,5.10,
7.997,116.39640400376194,92.62365510133637,-1.0,-1.0,-2.0,1,0,0,2,0,2,2,8.63,72.89,5.30,
8.011,116.3996404003762,92.68336551013364,-1.0,-2.0,-1.0,1,0,0,2,0,2,2,8.63,71.91,5.30,
8.025,116.41796404003762,92.69833655101337,-1.0,-2.0,-1.0,1,0,0,2,0,3,2,8.73,71.02,5.30,
8.039,116.41979640400376,92.67283365510134,0.0,-3.0,0.0,1,0,0,2,0,3,2,8.63,70.24,5.40,
8.052,116.29397964040038,92.75128336551015,-1.0,-5.0,0.0,1,0,0,2,0,3,2,8.73,69.65,5.49,
8.066,116.16439796404005,92.75912833655102,0.0,-4.0,0.0,1,0,0,2,0,3,2,8.63,69.16,5.59,
8.08,116.13343979640399,92.85891283365511,0.0,-3.0,-2.0,1,0,0,2,0,3,2,8.63,68.96,5.69,
8.093,116.10334397964039,92.88689128336551,0.0,-2.0,-2.0,2,0,0,2,0,3,2,8.83,68.57,5.69,
8.108,116.10933439796403,92.91668912833654,-1.0,0.0,-3.0,2,0,0,2,0,3,2,8.83,67.79,5.98,
8.121,116.1819334397964,92.83866891283365,0.0,0.0,-3.0,2,0,0,2,0,3,2,8.83,65.33,5.98,
8.134,116.20719334397964,92.91186689128337,0.0,0.0,-4.0,2,0,0,2,0,3,2,9.03,63.86,5.89,
8.148,116.13771933439796,92.99118668912834,0.0,0.0,-3.0,2,0,0,2,0,3,2,9.03,62.49,5.98,
8.162,116.08577193343979,93.11611866891283,-1.0,0.0,-2.0,2,0,0,2,0,3,2,9.12,61.12,6.08,
8.175,115.99057719334398,93.14661186689129,-1.0,0.0,-2.0,2,0,0,2,0,3,2,9.12,58.96,6.08,
8.189,115.9990577193344,93.09566118668913,-1.0,0.0,-1.0,2,0,0,2,0,3,2,9.12,58.47,6.08,
8.203,115.97290577193344,93.14456611866892,-1.0,0.0,-1.0,2,0,0,2,0,3,3,9.03,58.17,5.98,
8.217,116.03329057719336,93.1674566118669,-1.0,0.0,-1.0,2,0,0,2,0,3,3,8.93,57.98,6.08,
8.23,116.05732905771934,93.20574566118668,-1.0,0.0,0.0,2,0,0,2,0,3,3,8.93,57.58,6.08,
8.244,116.09573290577192,93.26357456611866,-1.0,0.0,0.0,2,0,0,2,0,3,2,9.03,57.39,5.98,
8.258,116.0905732905772,93.23335745661187,-1.0,0.0,0.0,2,0,0,2,0,3,2,9.03,57.39,5.98,
8.271,116.06305732905773,93.23933574566118,-2.0,0.0,0.0,2,0,0,2,0,3,2,8.93,57.68,5.98,
8.285,116.09630573290576,93.18593357456612,-2.0,1.0,0.0,2,0,0,2,0,3,2,8.93,58.47,5.89,
8.299,116.11763057329058,93.17159335745662,-2.0,2.0,0.0,2,0,0,2,0,3,2,8.63,60.04,5.79,
8.312,116.08376305732905,93.22415933574567,-2.0,2.0,0.0,2,0,0,2,0,3,2,8.44,60.63,5.69,
8.326,116.14337630573291,93.22041593357456,-2.0,1.0,0.0,2,0,0,2,0,3,2,8.44,61.12,5.69,
8.34,116.21233763057329,93.27404159335745,-3.0,1.0,1.0,2,0,0,2,0,3,2,8.34,61.70,5.30,
8.353,116.21923376305733,93.18940415933575,-3.0,0.0,1.0,2,0,0,2,0,3,2,8.14,63.57,5.20,
8.367,116.32792337630573,93.16294041593356,-3.0,0.0,1.0,2,0,0,2,0,3,2,8.04,64.75,5.10,
8.381,116.32079233763058,93.07029404159336,-3.0,-1.0,1.0,2,0,0,2,0,3,2,7.95,65.83,5.10,
8.394,116.38307923376306,93.07002940415933,-3.0,-1.0,1.0,1,0,0,2,0,3,2,7.85,66.81,5.10,
8.409,116.3713079233763,93.09700294041592,-3.0,-1.0,0.0,1,0,0,2,0,3,2,7.75,68.96,5.10,
8.422,116.33413079233763,93.07270029404158,-3.0,-1.0,1.0,1,0,0,2,0,3,2,7.55,70.34,4.91,
8.435,116.24941307923376,92.95327002940415,-3.0,-1.0,1.0,1,0,0,2,0,3,2,7.16,71.91,4.81,
8.45,116.18694130792339,92.96832700294041,-2.0,0.0,0.0,1,0,0,2,0,3,2,7.06,73.28,4.71,
8.463,116.21669413079233,92.99683270029405,-3.0,0.0,0.0,1,0,0,2,0,3,2,6.87,75.64,4.61,
8.477,116.25566941307923,92.99068327002941,-3.0,0.0,0.0,1,0,0,2,0,3,2,6.57,76.71,4.71,
8.491,116.30456694130793,92.94506832700294,-3.0,0.0,0.0,1,0,0,2,0,3,2,6.38,77.79,4.51,
8.504,116.33645669413079,92.85950683270029,-3.0,0.0,0.0,1,0,0,2,0,3,2,6.28,78.87,4.41,
8.517,116.31264566941307,92.77895068327003,-3.0,0.0,0.0,1,0,0,2,0,3,2,6.08,80.05,4.32,
8.531,116.2562645669413,92.725895068327,-3.0,0.0,0.0,1,0,0,2,0,3,2,5.98,82.11,4.32,
8.545,116.22362645669412,92.74758950683271,-3.0,1.0,0.0,1,0,0,2,0,3,2,5.79,83.09,4.22,
8.559,116.23836264566941,92.77675895068327,-4.0,1.0,0.0,1,0,0,2,0,3,2,5.59,84.17,4.12,
8.572,116.23983626456693,92.69867589506833,-4.0,2.0,0.0,1,0,0,2,0,3,2,5.49,85.25,4.02,
8.586,116.23098362645669,92.68186758950684,-4.0,2.0,0.0,1,0,0,2,0,3,2,5.40,87.41,4.02,
8.6,116.16709836264566,92.65318675895068,-4.0,3.0,0.0,1,0,0,2,0,3,2,5.30,88.29,3.92,
8.613,116.12470983626457,92.61431867589508,-4.0,3.0,0.0,1,0,0,2,0,3,2,5.20,89.27,3.83,
8.627,116.25547098362645,92.61043186758951,-4.0,4.0,0.0,1,0,0,2,0,3,2,5.10,89.96,3.63,
8.641,116.40354709836265,92.63704318675896,-3.0,3.0,0.0,1,0,0,2,0,3,2,5.10,90.64,3.63,
8.654,116.51735470983627,92.6037043186759,-3.0,2.0,0.0,1,0,0,2,0,3,2,5.00,90.55,3.53,
8.668,116.53773547098363,92.57337043186759,-3.0,2.0,0.0,1,0,0,2,0,3,2,5.00,90.64,3.34,
8.682,116.55777354709838,92.60633704318676,-3.0,1.0,0.0,1,0,0,2,0,3,2,5.00,90.94,3.34,
8.695,116.64977735470984,92.53763370431868,-3.0,1.0,0.0,1,0,0,2,0,3,2,5.00,91.43,3.34,
8.709,116.71297773547099,92.50376337043187,-3.0,1.0,0.0,1,0,0,2,0,3,2,5.00,92.51,3.34,
8.723,116.7822977735471,92.46437633704318,-2.0,0.0,0.0,1,0,0,2,0,3,2,5.00,93.00,3.34,
8.736,116.8072297773547,92.45143763370432,-2.0,0.0,-1.0,1,0,0,2,0,3,2,5.00,93.49,3.24,
8.75,116.78272297773547,92.45014376337042,-2.0,0.0,-1.0,1,0,0,2,0,3,2,5.00,93.98,3.14,
8.764,116.75327229777355,92.45001437633704,-2.0,0.0,0.0,1,0,0,2,0,3,2,5.00,94.67,3.14,
8.777,116.79532722977736,92.4680014376337,-2.0,0.0,0.0,1,0,0,2,0,3,2,5.10,94.86,3.14,
8.792,116.77253272297773,92.41580014376336,-2.0,0.0,0.0,1,0,0,2,0,3,2,5.00,95.16,3.04,
8.805,116.77925327229778,92.42858001437635,-2.0,0.0,0.0,1,0,0,2,0,3,1,5.00,95.55,3.04,
8.818,116.87892532722978,92.41185800143762,-2.0,-1.0,-1.0,1,0,0,2,0,3,2,5.00,96.53,2.94,
8.833,116.93389253272296,92.38318580014376,-2.0,-1.0,-1.0,1,0,0,2,0,3,2,5.10,97.02,2.84,
8.846,116.93938925327228,92.39831858001439,-2.0,-1.0,-1.0,1,0,0,2,0,3,2,5.00,97.41,2.94,
8.86,116.91293892532723,92.35483185800143,-2.0,-2.0,0.0,1,0,0,2,0,3,2,5.10,97.71,3.04,
8.873,116.82029389253273,92.31448318580016,-1.0,-1.0,-1.0,1,0,0,2,0,3,2,5.00,98.39,3.04,
8.888,116.74802938925328,92.32844831858,-2.0,-1.0,-1.0,1,0,0,2,0,3,2,5.10,98.79,3.14,
8.901,116.73180293892533,92.302844831858,-2.0,0.0,-1.0,1,0,0,2,0,3,2,5.10,98.88,3.04,
8.915,116.75718029389253,92.30028448318579,-1.0,0.0,-2.0,1,0,0,2,0,3,2,5.10,98.69,3.04,
8.929,116.72371802938925,92.28202844831858,-1.0,0.0,-1.0,1,0,0,2,0,3,2,5.20,98.10,3.14,
8.943,116.71137180293893,92.32520284483185,-1.0,0.0,-1.0,1,0,0,2,0,3,2,5.10,96.73,3.24,
8.956,116.71013718029388,92.41052028448318,-1.0,0.0,-1.0,1,0,0,2,0,3,2,5.40,96.14,3.34,
8.97,116.73701371802939,92.37405202844832,-1.0,0.0,-1.0,1,0,0,2,0,3,2,5.49,95.75,3.34,
8.984,116.73970137180294,92.31640520284483,-1.0,0.0,-2.0,1,0,0,2,0,3,2,5.49,95.45,3.43,
8.997,116.7759701371803,92.38264052028448,-1.0,0.0,-2.0,1,0,0,2,0,3,2,5.59,94.96,3.43,
9.012,116.68959701371804,92.39826405202845,-1.0,0.0,-2.0,1,0,0,2,0,3,2,5.79,94.76,3.43,
9.025,116.74395970137181,92.42682640520286,-1.0,0.0,-1.0,1,0,0,2,0,3,2,5.89,94.67,3.53,
9.039,116.75839597013719,92.4296826405203,-1.0,0.0,-2.0,1,0,0,2,0,3,2,5.98,94.57,3.53,
9.053,116.74183959701372,92.44796826405202,-1.0,0.0,-1.0,1,0,0,2,0,3,2,5.98,93.78,3.63,
9.066,116.83018395970137,92.43179682640522,-1.0,0.0,-1.0,1,0,0,2,0,3,2,6.08,93.39,3.63,
9.08,116.83901839597014,92.42117968264051,-1.0,0.0,-1.0,1,0,0,2,0,3,2,6.18,92.61,3.63,
9.094,116.821901839597,92.49211796826405,-1.0,0.0,-2.0,1,0,0,2,0,3,2,6.18,91.82,3.73,
9.108,116.7121901839597,92.43621179682641,-1.0,0.0,-1.0,1,0,0,2,0,3,2,6.47,90.74,3.83,
9.121,116.65621901839599,92.50262117968263,-1.0,0.0,-1.0,1,0,0,2,0,3,2,6.67,90.06,3.83,
9.135,116.6596219018396,92.54526211796826,-1.0,0.0,-1.0,1,0,0,2,0,3,2,6.57,89.17,4.02,
9.149,116.68696219018396,92.54952621179683,-1.0,0.0,-1.0,1,0,0,2,0,3,2,6.87,88.39,4.02,
9.162,116.7436962190184,92.50495262117968,-1.0,0.0,-1.0,1,0,0,2,0,3,2,7.06,86.72,4.12,
9.177,116.74936962190183,92.51849526211797,-2.0,0.0,-1.0,1,0,0,2,0,3,2,7.06,86.03,4.12,
9.19,116.71393696219019,92.6008495262118,-1.0,0.0,-1.0,1,0,0,2,0,3,2,7.26,85.25,4.22,
9.204,116.68339369621903,92.69008495262119,-1.0,0.0,0.0,1,0,0,2,0,3,2,7.36,84.66,4.12,
9.218,116.6893393696219,92.71700849526212,-1.0,0.0,0.0,1,0,0,2,0,3,2,7.46,84.17,4.12,
9.231,116.71693393696219,92.7647008495262,-1.0,0.0,0.0,1,0,0,2,0,3,2,7.36,83.48,4.12,
9.245,116.72869339369622,92.76947008495262,-1.0,0.0,0.0,1,0,0,2,0,3,2,7.46,83.19,4.02,
9.259,116.75686933936962,92.74294700849525,-1.0,0.0,-1.0,1,0,0,2,0,3,2,7.55,82.99,4.12,
9.272,116.67868693393696,92.74029470084952,-1.0,0.0,-1.0,1,0,0,2,0,3,2,7.65,82.89,4.22,
9.286,116.68886869339369,92.74902947008496,-1.0,0.0,-1.0,1,0,0,2,0,3,2,7.85,82.60,4.02,
9.299,116.77088686933936,92.75890294700851,-1.0,0.0,-1.0,2,0,0,2,0,3,2,7.85,82.31,4.12,
9.314,116.82408868693393,92.80489029470085,-1.0,0.0,-1.0,2,0,0,2,0,3,2,7.85,81.91,4.12,
9.327,116.82940886869339,92.71948902947008,-1.0,0.0,-1.0,2,0,0,2,0,3,2,7.95,81.52,4.22,
9.34,116.80294088686934,92.72894890294701,-1.0,-1.0,-1.0,2,0,0,2,0,3,2,8.04,80.54,4.22,
9.355,116.76429408868694,92.7838948902947,-1.0,0.0,0.0,2,0,0,2,0,3,2,8.04,80.25,4.32,
9.368,116.70642940886869,92.75338948902947,-2.0,0.0,0.0,2,0,0,2,0,3,2,8.14,79.95,4.32,
9.382,116.70964294088687,92.81333894890294,-2.0,0.0,0.0,2,0,0,2,0,3,2,8.14,79.85,4.32,
9.396,116.7549642940887,92.7653338948903,-1.0,0.0,0.0,2,0,0,2,0,3,2,8.14,79.56,4.32,
9.409,116.70549642940887,92.72453338948904,-2.0,0.0,-1.0,2,0,0,2,0,3,2,8.14,79.46,4.32,
9.423,116.6825496429409,92.70245333894891,-2.0,0.0,-1.0,2,0,0,2,0,3,2,8.24,79.46,4.32,
9.437,116.7252549642941,92.6642453338949,-2.0,0.0,-1.0,2,0,0,2,0,3,2,8.34,79.17,4.32,
9.451,116.7205254964294,92.66042453338949,-1.0,0.0,-1.0,2,0,0,2,0,3,2,8.44,78.87,4.41,
9.464,116.73805254964294,92.71404245333895,-1.0,0.0,-1.0,2,0,0,2,0,3,2,8.44,77.99,4.32,
9.478,116.7578052549643,92.7194042453339,-1.0,0.0,-1.0,2,0,0,2,0,3,2,8.63,77.50,4.32,
9.492,116.76878052549642,92.7739404245334,-1.0,0.0,-2.0,2,0,0,2,0,3,2,8.73,76.91,4.41,
9.505,116.76987805254964,92.83339404245335,-1.0,0.0,-1.0,2,0,0,2,0,3,2,8.73,76.42,4.51,
9.52,116.77898780525497,92.85733940424532,-2.0,0.0,-1.0,2,0,0,2,0,3,2,8.83,75.83,4.51,
9.533,116.7438987805255,92.83273394042453,-2.0,0.0,-1.0,2,0,0,2,0,3,2,9.03,75.73,4.61,
9.546,116.72238987805255,92.79427339404246,-2.0,0.0,-1.0,2,0,0,2,0,3,2,9.12,75.54,4.61,
9.561,116.70223898780526,92.76342733940425,-2.0,0.0,-2.0,2,0,0,2,0,4,2,9.22,75.34,4.71,
9.574,116.69122389878052,92.77834273394043,-1.0,0.0,-2.0,2,0,0,2,0,4,2,9.42,74.65,4.71,
9.588,116.68112238987807,92.82483427339403,-1.0,0.0,-2.0,2,0,0,2,0,4,3,9.52,73.87,4.61,
9.602,116.6351122389878,92.76648342733941,-1.0,0.0,-2.0,2,0,0,2,0,4,3,9.61,73.08,4.71,
9.616,116.6485112238988,92.76064834273394,-1.0,0.0,-2.0,2,0,0,2,0,4,3,9.71,72.20,5.00,
9.629,116.66785112238988,92.7510648342734,-1.0,0.0,-2.0,2,0,0,2,0,4,3,9.81,70.14,5.00,
9.643,116.63378511223898,92.79510648342733,-1.0,0.0,-2.0,2,0,0,2,0,4,3,9.91,69.16,5.00,
9.657,116.6573785112239,92.87151064834273,-1.0,0.0,-2.0,2,0,0,2,0,4,3,10.10,68.28,5.00,
9.67,116.73173785112239,92.87015106483429,-1.0,-1.0,-1.0,2,0,0,2,0,4,3,10.20,67.49,5.00,
9.684,116.83817378511223,92.90601510648342,-1.0,-1.0,-1.0,2,0,0,2,0,4,3,10.30,66.32,5.10,
9.698,116.85781737851123,92.92760151064836,-1.0,-2.0,-1.0,2,0,0,2,0,4,3,10.30,65.92,5.10,
9.712,116.84178173785112,92.96576015106484,0.0,-2.0,-1.0,2,0,0,2,0,4,3,10.40,65.73,5.10,
9.726,116.75017817378512,92.96057601510648,-1.0,-1.0,-2.0,2,0,0,3,0,4,3,10.40,65.63,5.20,
9.74,116.7590178173785,92.95105760151066,-1.0,-1.0,-2.0,2,0,0,3,0,4,3,10.40,65.04,5.20,
9.754,116.74190178173785,92.91410576015106,-1.0,0.0,-3.0,2,0,0,3,0,4,3,10.40,64.35,5.30,
9.767,116.79419017817379,92.99141057601511,-1.0,0.0,-3.0,2,0,0,3,0,4,3,10.50,63.47,5.40,
9.782,116.76341901781738,93.0081410576015,-1.0,0.0,-3.0,2,0,0,3,0,4,3,10.59,62.49,5.40,
9.795,116.76034190178174,93.02781410576016,-1.0,2.0,-3.0,2,0,0,3,0,4,3,10.69,60.92,5.59,
9.809,116.71503419017817,93.11978141057601,-1.0,2.0,-2.0,2,0,0,3,0,4,3,10.79,60.43,5.59,
9.823,116.71950341901781,93.1649781410576,-2.0,3.0,-2.0,2,0,0,3,0,4,3,10.99,60.14,5.59,
9.837,116.70195034190178,93.16049781410575,-2.0,4.0,-3.0,2,0,0,3,0,4,3,11.09,59.94,5.59,
9.85,116.74519503419017,93.22304978141058,-2.0,4.0,-3.0,2,0,0,3,0,4,3,11.28,59.94,5.59,
9.865,116.79451950341902,93.21130497814104,-1.0,4.0,-3.0,2,0,0,3,0,4,3,11.38,59.74,5.59,
9.878,116.9254519503419,93.23713049781409,-1.0,4.0,-2.0,2,0,0,3,0,4,3,11.58,59.45,5.59,
9.892,117.06454519503419,93.2757130497814,-1.0,3.0,-2.0,2,0,0,3,0,4,3,11.77,59.15,5.40,
9.906,117.06945451950341,93.36957130497814,-1.0,2.0,-2.0,2,0,0,3,0,4,3,11.77,58.76,5.30,
9.92,117.12394545195033,93.44195713049781,-1.0,2.0,-2.0,2,0,0,3,0,4,3,11.77,57.68,5.30,
9.933,117.00339454519502,93.46719571304979,-1.0,2.0,-2.0,2,0,0,3,0,4,3,11.87,57.29,5.40,
9.948,116.9283394545195,93.45171957130498,-1.0,3.0,-2.0,2,0,0,3,0,4,3,12.07,57.19,5.30,
9.961,117.07383394545195,93.4501719571305,-1.0,2.0,-1.0,2,0,0,3,0,4,3,12.26,57.09,5.30,
9.975,117.2143833945452,93.43201719571306,-1.0,1.0,-1.0,2,0,0,3,0,4,4,12.56,56.90,5.30,
9.989,117.26443833945451,93.4842017195713,-1.0,0.0,0.0,2,0,0,3,0,4,4,12.65,56.60,5.20,
10.003,117.22444383394546,93.44442017195713,-2.0,1.0,-1.0,2,0,0,3,0,4,4,12.65,56.41,5.10,
10.016,117.57144438339455,93.6744420171957,-1.0,0.0,-1.0,2,0,0,3,0,4,4,12.36,56.21,5.10,
10.031,117.48914443833945,93.63444420171956,-1.0,-1.0,0.0,2,0,0,3,0,4,4,12.16,57.39,4.91,
10.045,117.42691444383394,93.64844442017197,-1.0,-4.0,0.0,2,0,0,3,0,4,4,11.77,58.86,4.71,
10.058,117.2496914443834,93.6408444420172,-1.0,-2.0,0.0,2,0,0,3,0,4,4,11.67,60.43,4.61,
10.073,117.18696914443834,93.65808444420172,-1.0,-1.0,0.0,2,0,0,3,0,5,4,11.67,61.80,4.61,
10.086,117.16269691444383,93.63280844442016,-2.0,-2.0,0.0,2,0,0,3,0,4,4,11.58,63.37,4.71,
10.1,117.29526969144439,93.57628084444201,-2.0,-3.0,0.0,2,0,0,3,0,5,4,11.67,63.67,4.81,
10.115,117.21852696914442,93.5076280844442,-1.0,-2.0,-1.0,2,0,0,3,0,5,4,11.67,63.96,4.81,
10.128,117.34585269691443,93.4917628084444,-1.0,-2.0,-1.0,2,0,0,3,0,5,4,11.67,64.35,4.71,
10.142,117.32258526969143,93.48117628084444,0.0,-3.0,-1.0,2,0,0,3,0,4,4,11.38,64.35,4.71,
10.157,117.22125852696914,93.49811762808444,-1.0,-5.0,-1.0,2,0,0,3,0,4,4,10.69,64.65,4.51,
10.17,117.0671258526969,93.49981176280845,0.0,-4.0,-1.0,2,0,0,3,0,4,4,10.30,65.04,4.32,
10.184,116.91671258526969,93.58998117628084,0.0,-3.0,-1.0,2,0,0,3,0,4,4,10.20,65.53,4.32,
10.198,116.87467125852697,93.6709981176281,-1.0,-3.0,0.0,2,0,0,3,0,5,4,9.91,65.04,4.41,
10.212,116.8074671258527,93.73309981176281,-1.0,-1.0,-1.0,2,0,0,3,0,4,4,9.81,64.45,4.41,
10.226,116.77374671258526,93.70330998117628,-2.0,-1.0,0.0,2,0,0,3,0,4,4,9.61,63.77,4.61,
10.24,116.78837467125852,93.70933099811762,-1.0,0.0,-1.0,2,0,0,3,0,5,4,9.42,62.39,4.61,
10.254,116.71783746712585,93.70993309981176,-2.0,0.0,-1.0,2,0,0,3,0,5,4,9.32,62.00,4.61,
10.267,116.77378374671258,93.75499330998117,-2.0,0.0,0.0,2,0,0,3,0,5,4,9.42,61.51,4.71,
10.28,116.81537837467124,93.73249933099811,-2.0,0.0,0.0,2,0,0,3,0,4,4,9.42,61.02,4.51,
10.295,116.83753783746712,93.67624993309981,-2.0,0.0,0.0,2,0,0,3,0,5,4,9.42,60.63,4.51,
10.308,116.83975378374672,93.64362499330997,-2.0,0.0,0.0,2,0,0,3,0,5,4,9.52,59.55,4.51,
10.322,116.76797537837467,93.64036249933099,-3.0,0.0,0.0,2,0,0,3,0,5,4,9.71,58.76,4.51,
10.336,116.72479753783746,93.5950362499331,-3.0,0.0,0.0,2,0,0,3,0,5,4,9.61,58.27,4.61,
10.35,116.72947975378375,93.5725036249933,-3.0,1.0,0.0,2,0,0,3,0,5,4,9.52,58.08,4.71,
10.363,116.69394797537838,93.55225036249932,-3.0,2.0,0.0,2,0,0,3,0,5,4,9.52,57.78,4.61,
10.377,116.75339479753784,93.53222503624994,-3.0,2.0,0.0,2,0,0,3,0,5,4,9.42,57.98,4.61,
10.391,116.75933947975378,93.57522250362499,-3.0,2.0,0.0,2,0,0,3,0,5,4,9.42,58.27,4.61,
10.404,116.77793394797538,93.57052225036249,-3.0,2.0,0.0,2,0,0,3,0,5,4,9.52,58.66,4.41,
10.419,116.86079339479754,93.51605222503625,-3.0,2.0,0.0,2,0,0,3,0,5,4,9.52,59.84,4.32,
10.432,116.91407933947976,93.48360522250363,-3.0,1.0,0.0,2,0,0,3,0,5,3,9.52,60.63,4.22,
10.446,116.93740793394797,93.46236052225035,-3.0,2.0,0.0,2,0,0,3,0,5,3,9.61,61.41,4.12,
10.46,117.0117407933948,93.41523605222504,-3.0,1.0,0.0,2,0,0,3,0,4,3,9.61,62.10,4.12,
10.473,117.16317407933948,93.3745236052225,-3.0,1.0,0.0,2,0,0,3,0,4,3,9.52,63.67,3.92,
10.487,117.23231740793393,93.36145236052225,-3.0,0.0,0.0,2,0,0,3,0,4,3,9.42,64.65,3.73,
10.501,117.2032317407934,93.36014523605222,-3.0,-1.0,1.0,2,0,0,3,0,4,3,9.32,65.53,3.73,
10.515,117.17332317407934,93.36001452360522,-2.0,-2.0,2.0,2,0,0,3,0,4,3,9.22,66.61,3.53,
10.528,117.15233231740794,93.36000145236052,-2.0,-3.0,2.0,2,0,0,3,0,4,3,9.12,68.96,3.53,
10.543,117.1592332317408,93.38700014523604,-2.0,-4.0,3.0,2,0,0,3,0,4,3,8.53,70.04,3.53,
10.556,117.11492332317408,93.35370001452361,-2.0,-4.0,2.0,2,0,0,3,0,4,3,8.34,71.02,3.43,
10.57,117.1284923323174,93.26037000145236,-2.0,-4.0,2.0,2,0,0,3,0,4,3,8.04,72.01,3.24,
10.584,117.02184923323175,93.22403700014523,-2.0,-3.0,1.0,2,0,0,3,0,4,3,7.85,73.97,3.24,
10.598,116.97518492332317,93.25640370001453,-3.0,-3.0,1.0,2,0,0,3,0,4,3,7.46,74.95,3.24,
10.611,117.03351849233232,93.25064037000145,-3.0,-1.0,0.0,2,0,0,3,0,4,3,7.26,75.93,3.24,
10.626,117.07535184923323,93.14206403700014,-3.0,-3.0,2.0,2,0,0,3,0,4,3,7.16,77.20,2.94,
10.639,117.05253518492331,93.1312064037,-3.0,-3.0,2.0,2,0,0,3,0,4,3,6.97,79.95,2.84,
10.653,116.99625351849232,93.02212064037,-3.0,-4.0,1.0,2,0,0,3,0,4,3,6.67,81.23,2.84,
10.667,117.05362535184923,92.93921206403701,-3.0,-3.0,0.0,2,0,0,3,0,4,3,6.28,82.60,2.75,
10.681,117.02336253518492,92.9219212064037,-3.0,-4.0,0.0,2,0,0,3,0,4,2,5.98,83.97,2.65,
10.694,117.0473362535185,92.92019212064037,-3.0,-4.0,0.0,2,0,0,3,0,4,2,5.79,86.52,2.55,
10.708,116.92373362535184,92.88401921206403,-3.0,-4.0,0.0,2,0,0,3,0,4,2,5.59,87.80,2.55,
10.722,116.87537336253519,92.8084019212064,-3.0,-4.0,0.0,1,0,0,3,0,4,2,5.20,89.07,2.45,
10.736,116.71753733625351,92.75584019212064,-2.0,-4.0,0.0,1,0,0,3,0,4,2,4.91,90.15,2.26,
10.749,116.62075373362535,92.78658401921207,-2.0,-3.0,-1.0,1,0,0,3,0,4,2,4.81,92.12,2.35,
10.764,116.45807537336253,92.78965840192122,-2.0,-2.0,-1.0,1,0,0,3,0,3,2,4.61,92.61,2.35,
10.778,116.46880753733626,92.87996584019211,-2.0,-2.0,-1.0,1,0,0,3,0,3,2,4.51,92.90,2.26,
10.791,116.43388075373363,92.83499658401921,-2.0,-2.0,-1.0,1,0,0,3,0,3,2,4.22,93.00,2.26,
10.806,116.46638807537337,92.83049965840192,-2.0,-3.0,-2.0,1,0,0,2,0,3,2,4.22,93.59,2.26,
10.819,116.43363880753733,92.82104996584019,-2.0,-4.0,-2.0,1,0,0,2,0,3,2,4.12,93.78,2.16,
10.833,116.35836388075373,92.802104996584,-2.0,-3.0,-2.0,1,0,0,2,0,3,2,4.02,93.98,2.16,
10.848,116.26083638807538,92.86321049965841,-3.0,-4.0,-2.0,1,0,0,2,0,3,2,3.83,94.18,2.26,
10.861,116.26908363880753,92.87832104996583,-3.0,-4.0,-3.0,1,0,0,2,0,3,2,3.73,95.06,2.06,
10.875,116.15290836388074,92.8708321049966,-3.0,-7.0,-3.0,1,0,0,2,0,3,2,3.63,95.75,2.06,
10.889,116.13229083638807,93.00508321049966,-4.0,-9.0,-2.0,1,0,0,2,0,3,2,3.43,96.73,2.16,
10.903,115.9952290836388,93.04550832104997,-5.0,-11.0,-1.0,1,0,0,1,0,2,1,3.24,98.00,1.77,
10.917,115.79252290836388,92.932550832105,-5.0,-12.0,-1.0,1,0,0,1,0,2,1,2.65,102.02,1.67,
10.931,115.52925229083638,92.4712550832105,0.0,-8.0,-2.0,1,0,0,1,0,2,1,2.35,104.38,1.47,
10.945,115.40392522908364,92.46112550832105,1.0,-6.0,-3.0,1,0,0,1,0,2,1,2.26,105.75,1.37,
10.959,115.36439252290836,92.40611255083212,1.0,-4.0,-3.0,1,0,0,1,0,2,1,2.26,105.36,1.47,
10.973,115.38743925229083,92.49961125508321,3.0,-2.0,-4.0,1,0,0,1,0,2,1,2.55,101.63,1.47,
10.987,115.36274392522908,92.58096112550832,3.0,0.0,-4.0,1,0,0,2,0,3,1,2.94,98.69,1.77,
11.0,115.1442743925229,92.69709611255082,1.0,0.0,-4.0,1,0,0,2,0,3,1,3.14,95.35,2.06,
11.015,115.08642743925229,92.93370961125508,0.0,1.0,-4.0,1,0,0,2,0,3,2,3.53,91.92,3.04,
11.028,115.10764274392523,93.0833709611255,-1.0,0.0,-3.0,1,0,0,2,0,3,2,3.83,86.62,3.34,
11.041,115.25376427439251,93.18833709611256,-3.0,-2.0,-2.0,1,0,0,2,0,3,2,4.12,84.86,3.43,
11.056,115.33137642743927,93.14483370961126,-3.0,-4.0,-1.0,1,0,0,2,0,3,2,4.12,83.97,3.34,
11.07,115.28513764274393,93.04148337096113,-2.0,-6.0,-2.0,1,0,0,2,0,3,1,3.92,83.88,2.94,
11.083,115.1185137642744,92.97714833709611,-1.0,-6.0,-2.0,1,0,0,2,0,3,1,3.83,83.29,2.75,
11.098,114.96685137642743,93.04271483370961,0.0,-6.0,-1.0,1,0,0,1,0,3,1,3.43,82.31,2.55,
11.111,114.64568513764274,93.07627148337096,0.0,-5.0,0.0,1,0,0,1,0,2,1,3.14,81.23,2.45,
11.125,114.46956851376429,92.9446271483371,0.0,-2.0,-1.0,1,0,0,2,0,3,1,2.94,80.25,2.35,
11.139,114.60495685137643,92.72446271483372,4.0,0.0,-4.0,1,0,0,2,0,3,2,3.04,77.99,2.35,
11.153,114.60949568513765,93.03544627148337,4.0,2.0,-3.0,1,0,0,2,0,3,2,3.14,75.44,2.55,
11.166,114.76294956851376,93.34554462714834,1.0,1.0,-2.0,1,0,0,2,0,3,2,3.24,72.40,2.84,
11.181,115.02129495685138,93.64655446271485,-2.0,0.0,-1.0,1,0,0,2,0,3,2,3.53,69.36,3.53,
11.194,115.17312949568515,93.60465544627148,-3.0,-1.0,-2.0,1,0,0,2,0,3,2,3.63,66.12,3.73,
11.208,115.12531294956851,93.54646554462715,-2.0,-2.0,-3.0,1,0,0,2,0,3,2,3.63,66.12,3.63,
11.222,114.84153129495685,93.60364655446271,-2.0,-2.0,-2.0,1,0,0,2,0,3,2,3.63,66.71,3.53,
11.236,114.54315312949569,93.65436465544627,-1.0,-1.0,0.0,1,0,0,2,0,3,2,3.53,67.59,3.53,
11.249,114.31531531294956,93.64143646554461,-1.0,-1.0,1.0,1,0,0,2,0,3,2,3.53,68.77,3.43,
11.264,114.27453153129495,93.79314364655446,-2.0,0.0,2.0,1,0,0,2,0,3,2,3.43,68.67,3.34,
11.277,114.3874531531295,93.91631436465545,-4.0,0.0,3.0,1,0,0,2,0,3,2,3.43,67.98,3.43,
11.291,114.66874531531295,94.09063143646554,-7.0,-2.0,2.0,1,0,0,1,0,2,1,3.24,67.20,3.24,
11.304,114.85887453153128,94.12606314364655,-9.0,-6.0,4.0,1,0,0,1,0,2,1,3.04,67.10,2.94,
11.319,114.88688745315312,93.94060631436466,-9.0,-10.0,4.0,0,0,0,1,0,2,1,2.84,70.93,2.35,
11.332,114.77268874531532,93.74206063143646,-9.0,-12.0,6.0,0,0,0,1,0,2,0,2.75,74.65,1.86,
11.346,114.52726887453153,93.52420606314365,-9.0,-12.0,5.0,0,0,0,0,0,1,0,2.35,78.68,1.08,
11.36,114.21472688745317,93.63742060631438,-10.0,-13.0,4.0,0,0,0,0,0,1,0,2.06,82.11,0.88,
11.374,113.72447268874531,93.24374206063145,-10.0,-9.0,8.0,0,0,0,0,0,1,0,1.86,87.51,0.69,
11.388,113.27944726887453,92.94337420606314,-6.0,-5.0,8.0,0,0,0,0,0,1,0,1.86,89.37,0.39,
11.402,113.09094472688744,92.76933742060632,-4.0,-3.0,10.0,0,0,0,0,0,0,0,1.77,91.13,0.00,
11.416,112.83809447268875,92.82393374206063,-6.0,0.0,13.0,0,0,0,0,0,0,0,1.57,92.80,0.00,
11.429,112.88480944726888,93.16239337420608,-6.0,0.0,19.0,0,0,0,0,0,0,0,1.28,96.73,0.00,
11.443,113.02448094472689,93.0432393374206,-3.0,2.0,24.0,0,0,0,0,0,0,0,1.18,99.67,0.00,
11.457,113.03844809447268,92.39232393374205,0.0,7.0,23.0,0,0,0,0,0,0,0,1.18,103.20,0.00,
11.47,112.99484480944727,91.85923239337421,0.0,12.0,14.0,0,0,0,0,0,0,0,1.37,106.93,0.00,
11.484,113.11648448094472,91.94992323933741,-2.0,13.0,9.0,0,0,0,0,0,0,0,1.47,114.09,0.00,
11.498,113.37164844809448,92.26499232393374,-5.0,14.0,8.0,0,0,0,0,0,0,0,1.47,118.01,0.00,
11.511,113.28916484480945,92.65649923239337,-6.0,14.0,14.0,0,0,0,0,0,0,0,1.67,122.13,0.00,
11.525,113.04691648448095,93.02864992323933,-13.0,14.0,15.0,0,0,0,0,0,0,0,1.77,126.75,0.00,
11.539,113.0226916484481,93.47986499232394,-18.0,16.0,20.0,0,0,0,0,0,0,0,1.96,140.18,0.00,
11.552,113.0562691648448,93.3989864992324,-25.0,18.0,22.0,0,0,0,0,0,0,0,1.96,150.29,0.00,
11.566,112.73562691648448,93.04889864992325,-28.0,22.0,21.0,0,0,0,0,0,0,0,2.16,162.94,0.00,
11.58,112.98256269164845,91.84388986499232,-21.0,28.0,19.0,0,0,0,0,0,0,0,2.26,178.05,0.00,
11.593,113.57425626916483,90.94038898649923,-19.0,29.0,10.0,0,0,0,0,0,0,0,2.26,196.40,0.00,
11.608,114.48842562691648,90.59803889864992,-25.0,29.0,10.0,0,0,0,0,0,0,0,3.24,244.07,0.00,
11.621,115.59684256269165,90.203803889865,-27.0,27.0,16.0,0,0,0,0,0,0,0,4.81,270.17,0.00,
11.634,117.00368425626917,88.9223803889865,-27.0,21.0,11.0,0,0,0,0,0,0,0,6.28,293.61,0.00,
11.649,118.54836842562692,86.99423803889866,-23.0,14.0,3.0,0,0,0,0,0,0,0,7.65,312.15,0.00,
11.662,119.14383684256269,85.76642380388986,-15.0,6.0,-10.0,0,0,0,0,0,0,0,9.22,335.50,0.00,
11.676,118.79838368425627,85.202642380389,-9.0,5.0,-16.0,0,0,0,0,0,0,0,12.07,341.00,0.00,
11.689,118.43983836842563,85.19126423803891,-6.0,7.0,-14.0,0,0,0,0,0,0,0,13.34,342.96,0.00,
11.703,118.34998383684255,85.2981264238039,-7.0,6.0,-14.0,0,0,0,0,0,0,0,14.32,340.41,0.00,
11.717,118.85399838368426,85.1648126423804,-4.0,2.0,-21.0,0,0,0,0,0,0,0,15.01,322.65,0.00,
11.73,119.23739983836843,84.45848126423803,1.0,7.0,-24.0,0,0,0,0,0,0,0,15.40,309.31,0.00,
11.744,119.95073998383684,84.68484812642379,7.0,3.0,-20.0,0,0,0,0,0,0,0,16.58,294.89,0.00,
11.757,120.1300739983837,85.04948481264238,7.0,2.0,-14.0,0,0,0,0,0,0,0,17.76,280.66,0.00,
11.771,120.46300739983838,85.56294848126424,6.0,0.0,-14.0,0,0,0,0,0,0,0,19.72,267.91,0.00,
11.785,120.61330073998383,86.01929484812642,1.0,-1.0,-16.0,0,0,0,0,0,0,0,21.97,246.03,0.00,
11.799,120.78133007399838,85.90292948481265,1.0,-3.0,-21.0,0,0,0,0,0,0,0,27.08,236.91,0.00,
11.812,120.74413300739982,86.32329294848127,3.0,-4.0,-22.0,0,0,0,0,0,0,0,29.72,229.16,0.00,
11.827,120.35341330073999,86.83332929484813,5.0,-3.0,-16.0,0,0,0,0,0,0,0,32.27,222.49,0.00,
11.841,120.269341330074,87.0013329294848,7.0,-1.0,-17.0,0,0,0,0,0,0,0,35.02,208.76,0.00,
11.854,119.7569341330074,87.55813329294848,12.0,-3.0,-16.0,0,0,0,0,0,0,0,37.67,201.11,0.00,
11.869,119.28269341330073,87.53281332929485,14.0,-3.0,-16.0,0,0,0,0,0,0,0,43.85,192.86,0.00,
11.883,119.13626934133008,87.71928133292948,17.0,-1.0,-19.0,0,0,0,0,0,0,0,47.38,173.54,0.00,
11.896,119.34662693413301,87.97192813329295,21.0,0.0,-20.0,1,0,0,0,0,0,0,51.40,162.45,0.00,
11.911,119.6196626934133,88.0331928133293,26.0,2.0,-23.0,1,0,0,1,0,0,0,56.21,150.39,0.00,
11.925,119.84496626934134,88.65131928133293,28.0,4.0,-27.0,1,0,0,1,0,1,0,67.49,137.14,0.00,
11.938,119.61549662693413,89.63113192813329,31.0,9.0,-30.0,1,0,0,1,0,1,0,72.89,108.40,0.00,
11.953,118.93554966269342,89.81011319281332,38.0,23.0,-34.0,2,0,0,2,0,2,0,77.70,93.88,0.00,
11.967,119.37155496626934,90.65601131928133,50.0,40.0,-30.0,2,0,0,3,0,2,0,81.91,79.26,0.00,
11.98,119.96415549662693,91.17260113192813,61.0,30.0,-30.0,2,0,0,3,0,3,0,86.23,64.84,0.00,
11.995,120.26641554966268,90.67526011319282,73.0,22.0,-40.0,2,0,0,4,0,4,1,85.84,35.02,0.00,
12.009,119.90064155496626,92.43452601131929,77.0,-8.0,-52.0,1,0,0,4,0,4,2,83.88,20.99,0.00,
12.023,119.23406415549663,92.98845260113194,84.0,-22.0,-55.0,0,0,0,5,0,5,3,81.03,8.44,0.00,
12.037,119.07740641554967,92.0538452601132,88.0,-5.0,-40.0,0,0,0,6,0,6,4,75.34,0.00,3.34,
12.051,117.19874064155496,96.00138452601132,116.0,38.0,-102.0,0,0,0,6,0,8,5,72.79,0.00,5.10,
12.065,115.64287406415549,96.54013845260113,116.0,25.0,-73.0,0,0,0,8,0,9,5,68.87,0.00,6.67,
12.079,115.08228740641555,97.06201384526011,120.0,56.0,-70.0,0,0,0,9,0,11,6,62.39,0.00,6.87,
12.093,114.57622874064155,96.93420138452602,136.0,39.0,-78.0,0,0,0,10,0,0,6,49.05,0.00,4.41,
12.107,114.88562287406415,97.2544201384526,147.0,64.0,-94.0,0,0,0,11,0,4,5,42.18,0.00,0.39,
12.122,116.79756228740642,96.61144201384526,181.0,53.0,-77.0,0,0,0,12,0,7,5,34.63,0.00,0.00,
12.136,117.05175622874064,97.06014420138453,201.0,54.0,-72.0,0,0,0,0,0,10,4,28.35,0.00,0.00,
12.15,117.35617562287406,97.16801442013846,230.0,57.0,-73.0,0,0,0,2,0,13,5,21.88,0.00,0.00,
12.164,118.5656175622874,97.03480144201384,250.0,61.0,-75.0,0,0,0,3,0,15,5,20.70,0.00,0.00,
12.178,120.85556175622874,98.57848014420138,250.0,85.0,-85.0,0,0,0,6,0,17,5,19.62,0.00,0.00,
12.192,124.63955617562287,103.58384801442014,250.0,74.0,-98.0,0,0,0,10,0,18,5,18.74,0.00,0.00,
12.207,127.45695561756227,107.15338480144202,250.0,26.0,-119.0,0,0,0,9,0,11,3,15.89,0.00,0.00,
12.221,128.87269556175625,106.9163384801442,244.0,46.0,-165.0,0,0,0,1,0,0,2,11.87,0.00,0.00,
12.235,129.1942695561756,105.44363384801443,250.0,79.0,-159.0,0,0,0,9,0,8,4,7.26,0.00,0.00,
12.25,129.73942695561757,104.06336338480145,224.0,78.0,-185.0,0,0,0,5,0,4,4,4.12,0.00,0.00,
12.263,130.15394269556174,105.89633633848014,197.0,53.0,-201.0,0,0,0,3,0,2,3,1.47,0.00,0.00,
12.277,130.1863942695562,110.255633633848,104.0,-1.0,-170.0,0,0,0,1,0,1,0,0.49,0.00,0.00,
12.292,126.27463942695562,114.68756336338481,66.0,-37.0,-40.0,0,0,0,0,0,1,0,0.00,1.77,0.00,
12.305,123.03946394269556,115.19375633633848,28.0,-62.0,45.0,0,0,0,0,0,0,0,0.00,3.73,0.00,
12.318,122.03194639426957,110.07837563363385,-13.0,-52.0,129.0,0,0,0,0,0,0,0,0.00,2.26,0.00,
12.333,120.93219463942695,101.31383756336339,-22.0,-30.0,120.0,0,0,0,0,0,0,0,0.00,0.20,0.00,
12.346,121.01121946394268,89.45738375633634,-48.0,-27.0,117.0,0,0,0,0,0,0,0,0.00,0.00,0.00,
12.36,123.06212194639429,76.96773837563364,-86.0,-76.0,83.0,0,0,0,0,0,0,0,0.00,0.00,0.00,
12.374,113.57421219463943,65.97177383756336,-154.0,-88.0,39.0,0,0,0,0,0,0,0,0.00,0.00,0.00,
12.387,101.51942121946395,55.89917738375633,-204.0,-110.0,1.0,0,0,0,0,0,0,0,0.00,0.00,0.00,
12.401,93.0959421219464,47.92591773837563,-250.0,-94.0,-39.0,0,0,0,0,0,0,0,0.00,0.00,0.00,
12.414,89.28359421219464,41.566591773837565,-250.0,-88.0,-68.0,0,0,0,0,0,0,0,0.00,0.00,0.00,
12.429,86.63435942121947,38.97765917738376,-250.0,-122.0,-50.0,0,0,0,0,0,0,0,0.00,0.00,0.00,
12.442,86.28843594212195,38.223765917738376,-250.0,-108.0,-46.0,0,0,0,0,0,0,0,0.00,0.00,0.00,
12.456,87.4598435942122,38.08537659177384,-250.0,-89.0,-43.0,0,0,0,0,0,0,0,0.00,0.00,0.00,
12.47,88.64798435942122,41.31153765917738,-250.0,-57.0,-16.0,0,0,0,0,0,0,0,0.00,0.00,0.00,
12.484,90.46779843594213,45.22515376591774,-250.0,-39.0,41.0,0,0,0,0,0,0,0,0.00,0.00,0.00,
12.497,91.17177984359421,51.03451537659177,-250.0,-14.0,38.0,0,0,0,0,0,0,0,0.00,0.00,0.00,
12.512,110.74517798435942,38.94345153765918,-250.0,-250.0,-250.0,0,0,0,0,0,0,0,0.00,0.00,0.00,
12.526,124.43851779843592,60.801345153765915,-250.0,-250.0,-88.0,0,0,0,0,0,0,0,0.00,0.00,0.00,
12.539,134.3938517798436,81.58113451537659,-250.0,44.0,96.0,0,0,0,1,0,0,0,0.00,0.00,0.00,
12.554,135.20938517798436,82.73211345153766,-250.0,79.0,113.0,0,0,0,1,0,0,0,0.00,0.00,0.00,
12.567,133.10393851779844,81.22721134515378,-241.0,47.0,114.0,0,0,0,1,0,0,0,0.00,0.00,0.00,
12.581,131.63339385177986,80.46472113451537,-247.0,51.0,82.0,0,0,0,1,0,1,0,0.00,0.00,0.00,
12.595,129.52433938517797,81.37847211345155,-250.0,6.0,74.0,0,0,0,1,0,1,0,0.00,0.00,0.00,
12.608,127.2434339385178,84.03484721134515,-250.0,14.0,90.0,0,0,0,1,0,1,0,0.00,0.00,0.00,
12.622,124.44134339385178,87.39648472113451,-250.0,8.0,131.0,0,0,0,1,0,1,0,0.00,0.00,0.10,
12.636,121.74913433938518,89.65864847211344,-250.0,16.0,164.0,0,0,0,1,0,1,0,0.00,0.00,0.49,
12.65,120.04891343393851,92.58486484721135,-219.0,27.0,173.0,0,0,0,1,0,1,0,0.00,0.00,0.69,
12.663,119.43789134339386,96.82848648472113,-155.0,48.0,173.0,0,0,0,1,0,1,0,0.00,0.00,1.18,
12.678,119.79978913433939,101.54584864847212,-104.0,57.0,150.0,0,0,0,1,0,1,0,0.00,0.00,1.47,
12.691,121.10497891343394,106.96758486484721,-36.0,71.0,106.0,0,0,0,1,0,1,0,0.00,0.00,1.77,
12.705,123.59349789134339,113.17075848648471,4.0,84.0,46.0,0,0,0,1,0,1,0,0.00,0.00,2.06,
12.719,126.69534978913435,120.19007584864848,-18.0,81.0,0.0,0,0,0,1,0,1,0,0.00,0.00,2.35,
12.733,128.35553497891343,126.88600758486484,-54.0,27.0,0.0,0,0,0,1,0,1,0,0.00,0.00,2.45,
12.746,124.49855349789134,131.19160075848646,48.0,46.0,51.0,0,0,0,1,0,0,0,0.00,0.00,2.45,
12.76,124.66185534978914,127.68016007584865,225.0,32.0,25.0,0,0,0,1,0,0,0,0.00,8.34,2.06,
12.774,120.4391855349789,118.13101600758486,250.0,-67.0,-91.0,0,0,0,1,0,0,0,0.00,35.61,1.08,
12.787,116.8759185534979,121.5141016007585,250.0,249.0,-250.0,0,0,0,0,0,0,0,0.00,106.34,0.00,
12.802,117.6085918553498,126.73041016007585,250.0,76.0,6.0,0,0,0,0,0,0,0,0.00,201.99,0.00,
12.816,119.75185918553498,127.51304101600759,218.0,108.0,-10.0,1,0,0,0,0,0,0,0.69,310.98,1.18,
12.829,125.4021859185535,130.95730410160076,59.0,133.0,-41.0,2,0,0,1,0,0,0,7.06,326.57,1.86,
12.844,126.43521859185535,122.61673041016007,16.0,-7.0,125.0,2,0,0,2,0,0,0,13.93,325.79,2.26,
12.858,129.12152185918552,117.99367304101601,-5.0,23.0,-38.0,2,0,0,3,0,1,0,20.40,322.45,5.98,
12.872,130.17315218591855,113.4633673041016,-12.0,-18.0,-10.0,2,0,0,4,0,2,0,23.15,290.18,7.85,
12.887,132.00631521859185,110.98533673041015,12.0,-31.0,-27.0,2,0,0,5,0,3,0,26.98,281.06,10.10,
12.901,131.41563152185918,107.35353367304103,31.0,-61.0,-9.0,2,0,0,6,0,4,0,27.08,271.15,16.58,
12.915,128.4315631521859,105.54135336730411,15.0,-51.0,-22.0,2,0,0,6,0,4,1,25.90,250.25,20.70,
12.93,126.2161563152186,104.1721353367304,13.0,-37.0,-23.0,2,0,0,6,0,5,1,23.74,236.72,24.92,
12.945,124.77961563152186,103.48621353367304,13.0,-32.0,-10.0,2,0,0,7,1,5,2,20.31,219.74,31.59,
12.959,124.05996156315219,102.63462135336731,2.0,-24.0,-5.0,2,0,0,7,1,6,2,18.74,200.71,33.75,
12.974,123.48399615631521,101.72146213533674,1.0,-20.0,-7.0,2,0,0,7,1,6,2,17.07,164.02,35.61,
12.988,122.69739961563153,101.25214621353368,-2.0,-14.0,-9.0,2,0,0,7,1,6,2,15.40,149.01,37.38,
13.002,122.20473996156315,100.27821462135337,0.0,-12.0,-7.0,2,0,0,7,1,6,2,12.56,137.83,40.12,
13.017,121.94847399615632,99.04682146213534,-2.0,-9.0,-12.0,2,0,0,8,1,7,3,11.58,125.57,40.32,
13.031,121.89584739961563,97.98768214621354,3.0,1.0,-23.0,2,0,0,8,1,7,3,10.79,122.04,40.22,
13.045,120.88258473996156,96.54976821462135,4.0,-3.0,-16.0,2,0,0,8,1,7,3,10.30,117.62,40.61,
13.06,119.81825847399615,95.73097682146214,4.0,-5.0,-13.0,2,0,0,8,1,8,3,10.20,106.24,41.99,
13.074,118.67682584739961,95.37909768214622,4.0,0.0,-12.0,2,0,0,9,1,8,3,10.30,100.55,43.75,
13.088,118.15768258473994,96.16290976821462,1.0,0.0,-3.0,2,0,0,9,1,9,3,10.40,95.26,45.71,
13.103,118.27676825847401,96.78129097682145,0.0,-1.0,-2.0,2,0,0,9,1,9,4,10.99,90.94,49.44,
13.116,118.08167682584741,96.69012909768216,-1.0,0.0,-1.0,2,0,0,10,1,9,4,11.09,85.94,50.72,
13.13,117.84616768258473,96.40201290976822,1.0,3.0,-4.0,2,0,0,10,2,10,4,11.28,86.33,51.31,
13.145,117.69661676825848,96.11220129097681,4.0,10.0,-5.0,2,0,0,10,2,10,4,11.67,87.31,52.68,
13.159,117.97866167682585,96.02922012909767,6.0,11.0,-6.0,2,0,0,11,2,10,4,12.85,85.84,53.17,
13.173,118.38486616768259,96.15592201290977,5.0,7.0,-5.0,2,0,0,11,2,11,4,13.73,83.09,53.17,
13.188,119.02848661676825,96.80759220129097,9.0,2.0,-5.0,2,0,0,11,2,11,4,14.52,79.66,53.37,
13.202,119.58784866167683,97.12475922012909,5.0,-2.0,-7.0,2,0,0,11,2,11,4,15.21,75.83,54.74,
13.216,120.36378486616768,97.05747592201291,-2.0,-3.0,1.0,2,0,0,11,2,12,4,15.89,69.06,55.62,
13.231,120.56737848661678,96.5017475922013,-1.0,-2.0,-10.0,2,0,0,12,1,12,4,16.09,66.90,56.51,
13.245,119.75973784866167,97.02217475922012,4.0,-6.0,-12.0,2,0,0,12,1,0,4,16.19,64.84,57.78,
13.259,119.18397378486618,97.91121747592202,4.0,-1.0,-1.0,2,0,0,12,1,1,4,16.09,59.45,57.39,
13.274,119.30639737848661,97.6311217475922,12.0,2.0,-6.0,2,0,0,12,2,1,4,16.19,55.62,55.92,
13.288,119.62463973784867,97.35111217475921,6.0,-4.0,-6.0,2,0,0,12,2,1,4,16.09,51.11,53.46,
13.301,119.84546397378487,97.51211121747592,4.0,-6.0,-6.0,2,0,0,12,2,0,4,15.79,46.01,47.48,
13.316,119.94854639737848,97.6722111217476,3.0,-8.0,-6.0,2,0,0,12,2,12,4,15.40,35.32,44.73,
13.33,120.20185463973786,97.94922111217475,0.0,-6.0,-9.0,2,0,0,12,2,12,4,14.03,31.20,41.79,
13.344,120.11018546397379,98.10292211121748,-2.0,-7.0,-11.0,1,0,0,11,2,12,4,13.34,28.06,36.20,
13.359,119.80401854639737,98.43329221112175,-1.0,-7.0,-9.0,1,0,0,11,2,11,4,12.56,24.92,34.24,
13.373,119.45840185463975,98.66432922111217,-2.0,-7.0,-4.0,1,0,0,11,2,11,4,11.97,24.33,32.57,
13.387,119.02784018546399,98.59743292211122,-4.0,-5.0,-4.0,2,0,0,11,2,11,4,10.89,24.33,31.10,
13.403,118.5347840185464,98.44674329221112,-8.0,1.0,-6.0,2,0,0,10,2,11,4,10.69,24.72,28.25,
13.416,118.24247840185464,98.20667432922112,-9.0,4.0,-8.0,2,0,0,10,2,11,4,10.59,26.09,26.68,
13.43,118.19524784018546,97.73266743292211,-7.0,6.0,-8.0,1,0,0,10,2,11,4,11.48,26.88,24.62,
13.445,118.17252478401855,97.74826674329222,-7.0,8.0,-10.0,1,0,0,10,2,10,4,12.07,27.47,20.11,
13.459,118.88125247840185,97.75882667432923,-9.0,3.0,-5.0,1,0,0,9,2,10,4,12.46,27.96,18.05,
13.473,119.62712524784017,97.83188266743294,-9.0,-4.0,-1.0,1,0,0,9,2,9,4,12.75,28.45,15.89,
13.488,120.10671252478402,97.7941882667433,-8.0,-10.0,6.0,1,0,0,8,2,9,4,13.05,29.63,14.13,
13.502,120.0646712524784,97.79041882667434,-10.0,-15.0,4.0,1,0,0,8,2,9,3,12.75,31.20,12.46,
13.516,119.59246712524785,98.07804188266743,-13.0,-23.0,6.0,1,0,0,7,2,8,3,12.16,36.20,12.16,
13.531,118.92424671252479,98.32280418826674,-15.0,-23.0,2.0,1,0,0,7,2,8,3,11.38,39.93,11.77,
13.545,118.12842467125247,97.94228041882668,-14.0,-20.0,-2.0,1,0,0,7,2,8,3,9.81,44.64,10.59,
13.559,116.81584246712525,97.54422804188266,-14.0,-9.0,1.0,1,0,0,7,2,8,3,9.42,55.03,9.61,
13.574,115.88358424671252,97.06342280418828,-14.0,1.0,-2.0,1,0,0,6,2,7,3,9.12,59.25,8.44,
13.587,115.61935842467125,96.45734228041883,-10.0,11.0,-8.0,1,0,0,6,2,7,2,9.03,61.90,7.06,
13.601,115.99793584246713,96.28873422804187,-5.0,11.0,-8.0,1,0,0,6,1,6,2,9.42,62.49,4.61,
13.616,116.42279358424672,96.21787342280419,-4.0,11.0,-9.0,1,0,0,6,1,6,2,9.71,57.09,3.43,
13.63,117.05927935842467,96.32778734228042,-4.0,6.0,-5.0,1,0,0,6,1,6,2,9.81,53.07,2.75,
13.643,117.50092793584247,95.97877873422804,-2.0,6.0,-9.0,1,0,0,5,1,5,2,9.71,49.15,2.26,
13.658,117.70709279358425,95.7368778734228,-4.0,2.0,-7.0,1,0,0,5,1,4,2,9.32,45.42,1.37,
13.671,117.79070927935842,96.72068778734229,-8.0,-5.0,1.0,0,0,0,4,0,4,1,8.73,37.67,0.98,
13.685,117.04307092793583,96.38706877873423,-14.0,-29.0,12.0,0,0,0,3,0,3,1,7.85,34.14,0.39,
13.7,116.84230709279358,96.09270687787343,-17.0,-31.0,24.0,0,0,0,2,0,2,1,6.67,30.90,0.00,
13.713,116.58823070927937,94.57827068778734,-11.0,-28.0,17.0,0,0,0,2,0,1,1,5.30,27.66,0.00,
13.727,116.29282307092794,93.97682706877873,-3.0,-23.0,7.0,0,0,0,1,0,1,0,2.94,20.80,0.00,
13.742,116.3532823070928,94.33968270687787,-1.0,-9.0,7.0,0,0,0,1,0,1,0,2.35,18.64,0.00,
13.755,116.41332823070928,95.1409682706878,0.0,-13.0,6.0,0,0,0,1,0,1,0,1.96,17.56,0.00,
13.768,116.09533282307093,95.84209682706879,-3.0,-27.0,7.0,0,0,0,1,0,0,0,1.77,17.17,0.00,
13.783,116.40553328230709,95.57020968270689,-3.0,-23.0,10.0,0,0,0,0,0,0,0,1.57,16.97,0.00,
13.796,117.50755332823071,94.69702096827069,-3.0,-10.0,4.0,0,0,0,0,0,0,0,1.57,16.87,0.00,
13.81,118.00475533282307,94.45670209682707,-5.0,-6.0,-4.0,0,0,0,0,0,0,0,1.57,16.58,0.00,
13.824,117.68547553328231,94.20767020968272,-7.0,-5.0,-5.0,0,0,0,0,0,0,0,1.47,16.48,0.00,
13.837,116.98754755332823,94.21876702096827,-7.0,-8.0,-7.0,0,0,0,0,0,0,0,1.37,16.78,0.00,
13.851,115.92775475533281,94.57987670209683,-10.0,-13.0,-5.0,0,0,0,0,0,0,0,1.47,17.66,0.00,
13.864,115.28177547553327,94.97598767020968,-14.0,-19.0,-4.0,0,0,0,0,0,0,0,1.57,19.13,0.00,
13.878,114.80317754755333,95.28559876702096,-22.0,-23.0,0.0,0,0,0,0,0,0,0,1.47,21.29,0.00,
13.892,113.91831775475534,94.3805598767021,-25.0,-22.0,-2.0,0,0,0,0,0,0,0,1.37,28.94,0.00,
13.905,113.25383177547553,94.02005598767022,-17.0,-15.0,2.0,0,0,0,0,0,0,0,1.47,33.75,0.00,
13.919,112.51238317754756,93.33600559876703,-6.0,-6.0,4.0,0,0,0,0,0,0,0,1.57,38.26,0.00,
13.932,112.40223831775475,92.84460055987671,0.0,-2.0,2.0,0,0,0,0,0,0,0,1.67,42.08,0.00,
13.945,112.58922383177547,92.56146005598767,0.0,1.0,-4.0,0,0,0,0,0,0,0,1.77,45.13,0.00,
13.959,112.82392238317755,92.28114600559877,0.0,5.0,-6.0,0,0,0,0,0,0,0,1.86,49.25,0.00,
13.972,113.06339223831776,92.43311460055988,5.0,8.0,-1.0,0,0,0,0,0,0,0,1.96,50.42,0.00,
13.985,113.40233922383177,92.59231146005598,9.0,6.0,3.0,0,0,0,0,0,0,0,2.26,51.01,0.10,
13.999,113.65223392238319,92.9862311460056,9.0,2.0,0.0,0,0,0,0,0,0,0,2.35,51.60,0.20,
14.012,114.03722339223832,93.44862311460057,7.0,0.0,0.0,0,0,0,0,0,0,0,2.45,52.68,0.49,
14.026,114.05772233922384,93.84586231146005,6.0,0.0,4.0,0,0,0,0,0,0,0,2.55,56.21,0.98,
14.04,113.84377223392238,94.03858623114601,5.0,2.0,5.0,0,0,0,0,0,0,0,2.65,57.58,1.67,
14.053,113.80437722339224,94.2648586231146,2.0,4.0,5.0,0,0,0,0,0,0,0,2.94,58.37,2.55,
14.066,113.71043772233922,94.35948586231146,2.0,4.0,4.0,0,0,0,0,0,0,0,3.43,59.35,4.22,
14.08,113.30504377223393,94.61194858623115,0.0,5.0,4.0,1,0,0,0,0,0,0,3.83,60.53,4.91,
14.093,113.0125043772234,94.56519485862312,0.0,6.0,4.0,1,0,0,0,0,0,0,4.32,62.29,5.69,
14.106,113.02825043772233,94.47951948586231,0.0,8.0,4.0,1,0,0,0,0,0,0,4.61,63.08,6.28,
14.12,113.46182504377224,94.17395194858622,0.0,10.0,3.0,1,0,0,0,0,0,1,5.00,64.06,6.77,
14.134,114.19818250437723,94.08939519485861,2.0,8.0,1.0,1,0,0,0,0,0,1,5.98,64.94,7.55,
14.147,114.69481825043772,94.06293951948587,2.0,5.0,-1.0,1,0,0,0,0,0,1,6.38,65.24,7.85,
14.161,115.21248182504377,94.17729395194858,0.0,1.0,-4.0,1,0,0,0,0,0,1,6.77,65.04,8.14,
14.175,115.54324818250439,94.20672939519486,0.0,-1.0,-6.0,1,0,0,0,0,1,1,6.97,65.14,8.24,
14.188,115.45032481825044,94.47067293951949,-2.0,-2.0,-6.0,1,0,0,0,0,1,1,7.26,65.83,8.34,
14.202,114.88303248182504,94.62306729395195,-3.0,-5.0,-5.0,1,0,0,0,0,1,1,7.55,67.10,8.44,
14.217,114.5653032481825,94.6743067293952,-3.0,-3.0,-2.0,1,0,0,0,0,1,1,7.55,71.51,8.24,
14.23,114.33553032481825,94.42743067293952,-2.0,2.0,0.0,1,0,0,0,0,1,1,7.55,74.56,8.04,
14.244,114.23155303248183,94.42074306729396,-1.0,5.0,-2.0,1,0,0,0,0,1,1,7.75,77.20,7.75,
14.258,114.30215530324818,94.4290743067294,-2.0,5.0,-1.0,1,0,0,0,0,1,1,8.34,78.48,7.55,
14.272,114.51621553032483,94.48390743067293,-2.0,6.0,-3.0,1,0,0,0,0,1,1,8.63,78.19,7.26,
14.285,115.00562155303248,94.48939074306729,-3.0,6.0,-3.0,1,0,0,1,0,2,1,8.93,77.99,7.06,
14.3,115.47756215530325,94.50793907430673,-3.0,4.0,-6.0,1,0,0,1,0,2,1,9.22,78.19,6.38,
14.313,115.48875621553033,94.54579390743066,-4.0,1.0,-7.0,1,0,0,1,0,2,1,9.52,79.26,6.18,
14.327,115.27387562155303,94.51357939074308,-3.0,1.0,-6.0,1,0,0,1,0,2,1,9.52,83.48,5.89,
14.341,115.1623875621553,94.51035793907431,-2.0,2.0,-5.0,1,0,0,1,0,2,1,9.71,85.54,5.79,
14.355,115.15123875621553,94.60903579390742,-3.0,4.0,-4.0,1,0,0,1,0,2,1,10.01,86.72,5.79,
14.368,115.10512387562156,94.64590357939075,-3.0,3.0,-3.0,1,0,0,1,0,2,1,10.50,87.01,5.79,
14.383,115.00151238756216,94.66759035793908,-3.0,2.0,-3.0,1,0,0,1,0,2,1,11.28,86.43,5.69,
14.396,115.00015123875622,94.67875903579392,-2.0,4.0,-2.0,1,0,0,1,0,2,1,11.77,85.94,5.59,
14.41,115.11701512387562,94.5988759035794,-1.0,6.0,-3.0,1,0,0,1,0,2,1,12.36,85.25,5.40,
14.425,115.38070151238756,94.54588759035795,0.0,7.0,-5.0,1,0,0,1,0,2,1,12.95,84.27,5.20,
14.438,115.38907015123876,94.6755887590358,0.0,6.0,-5.0,1,0,0,2,0,2,1,13.54,81.62,5.00,
14.452,115.45290701512387,94.77855887590358,-1.0,5.0,-4.0,1,0,0,2,0,2,2,14.62,80.34,4.91,
14.466,115.56729070151239,94.82485588759035,-1.0,4.0,-4.0,1,0,0,2,0,3,2,15.01,79.56,4.81,
14.48,115.56072907015124,94.83848558875904,-2.0,3.0,-4.0,1,0,0,2,0,3,2,15.30,79.36,4.61,
14.493,115.56007290701513,94.8578485588759,-1.0,4.0,-4.0,1,0,0,2,0,3,2,15.30,80.15,4.41,
14.508,115.63200729070152,94.8687848558876,-2.0,4.0,-4.0,1,0,0,2,0,3,2,15.70,80.15,4.22,
14.522,115.69320072907016,94.93287848558876,-1.0,4.0,-2.0,1,0,0,2,0,3,2,16.09,79.85,4.22,
14.535,115.68132007290703,94.92128784855888,0.0,4.0,0.0,1,0,0,2,0,3,2,16.38,79.07,4.22,
14.55,115.7701320072907,94.93812878485588,0.0,4.0,0.0,1,0,0,2,0,3,2,16.68,77.01,4.22,
14.563,115.86001320072907,95.03881287848559,-1.0,2.0,0.0,1,0,0,2,0,3,2,16.97,75.93,4.12,
14.577,116.01300132007292,95.06688128784856,-2.0,4.0,0.0,1,0,0,2,0,3,2,17.07,74.95,4.02,
14.59,116.07330013200729,94.96168812878486,-2.0,5.0,0.0,1,0,0,2,0,3,2,17.17,74.26,3.83,
14.605,116.08833001320073,94.88816881287848,-2.0,6.0,-2.0,1,0,0,2,0,3,2,17.17,74.65,3.63,
14.618,116.15283300132006,94.89881688128786,-3.0,7.0,-4.0,1,0,0,2,0,3,2,17.36,75.14,3.43,
14.632,116.33928330013201,94.97188168812878,-4.0,7.0,-5.0,1,0,0,2,0,3,2,17.66,75.54,3.04,
14.646,116.2319283300132,95.03318816881287,-5.0,5.0,-3.0,1,0,0,2,0,3,2,17.76,76.32,2.65,
14.66,116.19419283300131,94.92231881688129,-4.0,6.0,0.0,1,0,0,2,0,3,2,17.85,78.38,2.35,
14.673,116.50541928330014,94.93823188168813,-4.0,9.0,0.0,1,0,0,2,0,3,2,17.95,79.07,1.96,
14.688,116.80654192833002,94.81382318816881,-4.0,10.0,0.0,1,0,0,2,0,3,2,18.15,79.17,1.47,
14.701,117.079654192833,94.70238231881689,-4.0,10.0,-2.0,1,0,0,2,0,3,2,18.54,78.87,1.28,
14.715,117.25096541928329,94.70923823188167,-3.0,9.0,-2.0,1,0,0,2,0,3,2,18.64,78.09,1.08,
14.73,117.34009654192832,94.76392382318815,-4.0,8.0,-1.0,1,0,0,2,0,3,2,18.74,77.89,0.78,
14.743,117.59200965419284,94.85939238231882,-4.0,8.0,-1.0,1,0,0,2,0,3,2,18.74,77.89,0.59,
14.757,117.82420096541928,94.82393923823187,-5.0,6.0,-1.0,1,0,0,2,0,3,2,18.84,78.48,0.29,
14.772,117.80242009654192,94.74839392382317,-5.0,6.0,-3.0,1,0,0,2,0,3,2,18.84,80.54,0.20,
14.785,118.03424200965419,94.85783939238232,-6.0,5.0,-4.0,1,0,0,2,0,3,2,18.74,81.72,0.10,
14.799,118.04842420096543,94.87778393923823,-6.0,3.0,-3.0,1,0,0,2,0,3,2,18.54,83.38,0.00,
14.813,118.18484242009654,94.83477839392381,-5.0,4.0,-2.0,1,0,0,2,0,3,2,17.76,85.35,0.00,
14.827,118.25248424200966,94.69547783939238,-4.0,5.0,-2.0,1,0,0,2,0,3,2,17.36,89.47,0.00,
14.84,118.34024842420096,94.64554778393924,-2.0,6.0,-3.0,1,0,0,2,0,3,2,17.07,90.64,0.00,
14.855,118.4840248424201,94.63155477839392,-1.0,6.0,-3.0,1,0,0,2,0,3,2,16.87,91.13,0.00,
14.869,118.453402484242,94.6931554778394,0.0,5.0,-2.0,1,0,0,2,0,3,2,16.58,90.15,0.00,
14.882,118.4413402484242,94.83431554778393,0.0,4.0,-1.0,1,0,0,2,0,3,2,15.89,89.57,0.00,
14.897,118.44013402484242,95.00143155477839,-2.0,4.0,0.0,1,0,0,2,0,3,2,15.79,89.27,0.00,
14.91,118.36801340248424,94.94614315547784,-3.0,3.0,0.0,1,0,0,2,0,3,2,15.70,89.17,0.00,
14.924,118.35180134024841,94.90461431554779,-3.0,3.0,0.0,1,0,0,2,0,3,2,15.40,89.17,0.00,
14.938,118.31418013402484,94.87346143155479,-3.0,3.0,0.0,1,0,0,2,0,3,2,14.91,90.25,0.00,
14.952,118.22941801340248,94.87034614315549,-3.0,5.0,1.0,1,0,0,2,0,3,2,14.62,90.94,0.00,
14.965,118.49994180134026,94.91503461431554,-3.0,9.0,1.0,1,0,0,2,0,3,2,14.52,91.53,0.00,
14.98,118.90499418013403,94.93750346143155,-3.0,9.0,0.0,1,0,0,2,0,3,2,14.72,91.63,0.00,
14.993,119.26949941801341,94.92175034614314,-4.0,9.0,-1.0,1,0,0,2,0,3,2,14.72,91.13,0.00,
15.007,119.52194994180134,94.76717503461433,-4.0,6.0,-1.0,1,0,0,2,0,3,2,14.81,91.33,0.00,
15.021,119.43919499418014,94.77871750346144,-3.0,4.0,-2.0,1,0,0,2,0,3,2,14.52,91.63,0.00,
15.035,119.34091949941802,94.65387175034614,-3.0,4.0,-2.0,1,0,0,2,0,2,2,14.22,92.21,0.00,
15.049,119.4030919499418,94.65938717503461,-4.0,6.0,-2.0,1,0,0,2,0,2,2,13.93,94.86,0.00,
15.063,119.45430919499417,94.62393871750346,-4.0,6.0,-2.0,1,0,0,2,0,2,1,13.24,96.53,0.00,
15.077,119.45043091949942,94.62939387175035,-4.0,8.0,-2.0,1,0,0,2,0,2,1,12.95,98.10,0.00,
15.09,119.45004309194995,94.71093938717505,-5.0,6.0,0.0,1,0,0,2,0,2,1,12.56,99.67,0.00,
15.105,119.31500430919499,94.6830939387175,-6.0,6.0,0.0,1,0,0,2,0,2,1,12.16,102.81,0.00,
15.118,119.4005004309195,94.65330939387175,-6.0,7.0,1.0,1,0,0,1,0,2,1,11.77,104.57,0.00,
15.132,119.59805004309194,94.57833093938717,-6.0,11.0,1.0,1,0,0,1,0,2,1,10.99,106.73,0.00,
15.147,119.69880500430918,94.50783309393871,-4.0,12.0,1.0,1,0,0,1,0,2,1,10.99,108.69,0.00,
15.16,119.87088050043091,94.47378330939387,-5.0,12.0,3.0,1,0,0,1,0,2,1,10.99,111.25,0.00,
15.174,120.02308805004309,94.4343783309394,-5.0,12.0,4.0,1,0,0,2,0,2,1,11.09,111.83,0.00,
15.188,120.0023088050043,94.34943783309394,-4.0,14.0,3.0,1,0,0,2,0,2,1,11.28,112.13,0.00,
15.202,120.20723088050043,94.32294378330938,-5.0,15.0,4.0,1,0,0,2,0,2,1,11.48,112.72,0.00,
15.216,120.47072308805005,94.08629437833095,-5.0,15.0,6.0,1,0,0,2,0,2,1,11.67,113.01,0.00,
15.23,120.67707230880501,94.05362943783308,-4.0,17.0,5.0,1,0,0,2,0,2,1,11.87,113.50,0.00,
15.244,120.9857072308805,94.05936294378331,-4.0,19.0,6.0,1,0,0,2,0,2,1,12.46,113.89,0.00,
15.258,121.30457072308805,93.94293629437834,-3.0,20.0,6.0,1,0,0,2,0,2,1,12.75,114.19,0.00,
15.272,121.7414570723088,93.91329362943785,-3.0,20.0,7.0,1,0,0,2,0,2,1,13.15,113.89,0.00,
15.286,122.08214570723088,93.87432936294378,-4.0,18.0,6.0,1,0,0,2,0,2,1,13.64,113.50,0.00,
15.3,122.37721457072308,93.84343293629438,-4.0,15.0,7.0,1,0,0,2,0,2,1,14.52,113.01,0.00,
15.314,122.65872145707232,93.81334329362943,-5.0,13.0,7.0,1,0,0,2,0,2,1,15.01,112.81,0.00,
15.328,122.83987214570723,93.73833432936294,-6.0,11.0,8.0,1,0,0,2,0,2,1,15.40,113.50,0.00,
15.342,122.95698721457072,93.6858334329363,-6.0,8.0,8.0,1,0,0,2,0,2,1,15.79,114.58,0.00,
15.356,123.24769872145707,93.58158334329363,-6.0,4.0,9.0,1,0,0,2,0,2,1,16.09,115.86,0.00,
15.37,123.38476987214571,93.40015833432936,-4.0,3.0,12.0,1,0,0,2,0,2,1,16.28,119.58,0.00,
15.384,123.54247698721457,93.26501583343293,-3.0,2.0,12.0,1,0,0,2,0,2,1,16.38,122.33,0.00,
15.397,123.59424769872145,93.03550158334329,-3.0,0.0,12.0,1,0,0,2,0,2,1,16.58,125.37,0.00,
15.412,123.72542476987215,92.94055015833435,-1.0,-4.0,13.0,1,0,0,2,0,2,1,16.78,128.22,0.00,
15.426,123.3155424769872,92.73305501583343,0.0,-9.0,15.0,1,0,0,2,0,2,1,16.87,133.02,0.00,
15.439,122.95055424769872,92.81130550158333,0.0,-9.0,14.0,1,0,0,2,0,2,1,16.78,135.28,0.00,
15.454,122.59905542476987,92.82813055015833,0.0,-4.0,17.0,1,0,0,2,0,2,1,17.17,138.03,0.00,
15.468,123.23890554247699,92.92881305501584,0.0,0.0,23.0,1,0,0,2,0,2,1,17.46,140.97,0.00,
15.481,123.4018905542477,92.40788130550158,0.0,-2.0,20.0,1,0,0,2,0,2,1,18.15,145.09,0.00,
15.496,123.59818905542478,92.31078813055015,0.0,-3.0,12.0,1,0,0,2,0,2,1,18.44,146.76,0.00,
15.51,123.58181890554246,92.45407881305502,-1.0,0.0,14.0,1,0,0,2,0,2,1,19.03,149.11,0.00,
15.523,123.99418189055426,92.2524078813055,-1.0,0.0,10.0,1,0,0,2,0,2,2,19.62,154.80,0.00,
15.538,124.11641818905542,91.51224078813055,0.0,4.0,7.0,1,0,0,2,0,2,1,20.99,156.67,0.00,
15.552,124.50664181890554,91.60022407881306,-2.0,9.0,3.0,1,0,0,2,0,2,1,21.39,158.04,0.00,
15.566,124.61766418189055,91.8430224078813,-2.0,10.0,3.0,1,0,0,2,0,2,1,21.58,159.12,0.00,
15.58,124.79076641818907,91.94830224078812,-3.0,10.0,0.0,2,0,0,2,0,2,1,22.07,164.32,0.00,
15.594,124.70007664181891,91.65283022407883,-4.0,10.0,0.0,2,0,0,2,0,2,1,22.86,168.93,0.00,
15.608,124.80800766418189,91.64128302240788,-5.0,7.0,3.0,2,0,0,2,0,2,1,24.43,173.54,0.00,
15.623,124.87280076641818,91.68512830224078,-5.0,10.0,6.0,2,0,0,2,0,2,2,24.82,177.17,0.00,
15.636,124.89728007664182,91.37451283022408,-6.0,10.0,2.0,2,0,0,2,0,2,1,25.02,181.68,0.00,
15.65,125.10672800766419,91.02845128302239,-4.0,11.0,0.0,2,0,0,2,0,2,1,25.21,183.05,0.00,
15.665,125.44267280076642,90.84984512830223,-3.0,11.0,0.0,2,0,0,2,0,2,1,25.70,184.04,0.00,
15.679,125.48526728007664,90.68798451283023,-3.0,8.0,-1.0,2,0,0,2,0,2,1,26.00,184.53,0.00,
15.693,125.65152672800767,90.63579845128301,-3.0,8.0,-2.0,2,0,0,3,0,2,1,26.29,184.23,0.00,
15.707,125.80315267280076,90.4415798451283,-3.0,5.0,-3.0,2,0,0,3,0,2,1,26.59,183.94,0.00,
15.721,126.07931526728007,90.29615798451283,-3.0,4.0,-4.0,2,0,0,3,0,2,1,27.27,182.96,0.00,
15.735,126.29593152672801,90.2096157984513,-2.0,2.0,-7.0,2,0,0,3,0,2,1,27.37,179.03,0.00,
15.75,126.2815931526728,90.11096157984514,-1.0,4.0,-8.0,2,0,0,3,0,2,1,27.57,176.78,0.00,
15.764,126.08215931526729,90.2270961579845,-1.0,4.0,-9.0,2,0,0,3,0,2,2,27.66,174.62,0.00,
15.777,125.85521593152673,90.51770961579845,-2.0,5.0,-8.0,2,0,0,3,0,2,2,28.35,172.56,0.00,
15.792,125.75152159315266,90.65477096157986,-3.0,5.0,-7.0,2,0,0,3,0,2,2,28.65,168.44,0.00,
15.806,125.82215215931527,90.64147709615798,-4.0,5.0,-7.0,2,0,0,3,0,2,1,28.74,166.38,0.00,
15.819,125.93721521593153,90.6761477096158,-3.0,5.0,-7.0,2,0,0,3,0,2,1,28.84,164.61,0.00,
15.834,126.11072152159315,90.66161477096158,-3.0,4.0,-7.0,2,0,0,3,0,2,1,28.65,162.85,0.00,
15.848,126.28107215215931,90.68716147709615,-3.0,1.0,-8.0,1,0,0,3,0,2,1,28.35,160.69,0.00,
15.861,126.35210721521594,90.7077161477096,-4.0,0.0,-8.0,1,0,0,2,0,2,1,28.06,160.49,0.00,
15.876,126.4132107215216,90.70977161477096,-3.0,-2.0,-8.0,1,0,0,2,0,2,1,27.76,160.59,0.00,
15.89,126.31132107215215,90.84497716147709,-2.0,-2.0,-6.0,1,0,0,2,0,2,1,26.68,161.28,0.00,
15.904,126.05813210721522,90.93949771614771,-2.0,-2.0,-6.0,1,0,0,2,0,2,1,26.09,163.83,0.00,
15.918,125.73581321072153,91.05694977161477,-2.0,-1.0,-5.0,1,0,0,2,0,2,1,25.60,165.10,0.00,
15.932,125.72158132107215,91.25769497716148,-2.0,0.0,-3.0,1,0,0,2,0,2,1,24.92,166.08,0.00,
15.946,125.72915813210722,91.28676949771615,-2.0,-1.0,-3.0,1,0,0,2,0,2,1,24.33,167.65,0.00,
15.961,125.85591581321071,91.37067694977162,-3.0,-2.0,-3.0,1,0,0,2,0,2,1,23.94,168.14,0.00,
15.974,126.03959158132108,91.28906769497716,-3.0,-3.0,-3.0,1,0,0,2,0,2,1,23.64,168.54,0.00,
15.988,126.0579591581321,91.27190676949772,-3.0,-5.0,-4.0,1,0,0,2,0,2,1,23.05,169.52,0.00,
16.003,125.96079591581321,91.36019067694977,-3.0,-6.0,-4.0,1,0,0,2,0,1,1,21.97,172.95,0.00,
16.017,125.80707959158133,91.30601906769498,-3.0,-7.0,-2.0,1,0,0,2,0,1,1,21.39,175.01,0.00,
16.03,125.63870795915814,91.2646019067695,-3.0,-6.0,-3.0,1,0,0,1,0,1,1,20.60,176.87,0.00,
16.045,125.45087079591582,91.29646019067695,-3.0,-5.0,-3.0,1,0,0,1,0,1,1,19.82,178.54,0.00,
16.059,125.20708707959159,91.3536460190677,-3.0,-4.0,-2.0,1,0,0,1,0,1,1,19.13,180.80,0.00,
16.073,125.14670870795916,91.34136460190678,-3.0,-3.0,-1.0,1,0,0,1,0,1,1,17.76,181.78,0.00,
16.087,125.32067087079592,91.23213646019067,-2.0,-3.0,-1.0,1,0,0,1,0,1,1,17.27,182.37,0.00,
16.101,125.43706708707958,91.14021364601906,-1.0,-5.0,-2.0,1,0,0,1,0,1,1,16.78,181.68,0.00,
16.115,125.44870670870796,91.14902136460191,0.0,-5.0,-3.0,1,0,0,1,0,1,1,16.28,180.70,0.00,
16.13,125.2158706708708,91.20390213646019,-1.0,-5.0,-3.0,1,0,0,1,0,1,1,15.60,180.11,0.00,
16.143,125.12058706708709,91.35339021364602,-1.0,-4.0,-3.0,1,0,0,1,0,1,1,15.50,179.92,0.00,
16.157,125.0390587067087,91.3323390213646,-2.0,-5.0,-3.0,1,0,0,1,0,1,1,15.30,180.31,0.00,
16.172,124.85990587067087,91.40223390213646,-2.0,-4.0,-3.0,1,0,0,1,0,1,1,15.21,180.41,0.00,
16.186,124.79699058706709,91.38222339021365,-1.0,-2.0,-2.0,1,0,0,1,0,1,1,15.01,180.70,0.00,
16.199,124.8266990587067,91.35322233902137,-1.0,-1.0,-3.0,1,0,0,1,0,1,1,15.01,181.09,0.00,
16.214,124.89266990587068,91.42232223390214,-1.0,-1.0,-3.0,1,0,0,1,0,1,1,15.11,182.37,0.00,
16.228,124.98926699058707,91.43823222339022,-2.0,-2.0,-4.0,1,0,0,1,0,1,1,15.30,183.15,0.00,
16.242,124.8909266990587,91.37682322233903,-2.0,-2.0,-3.0,1,0,0,1,0,1,1,15.40,184.33,0.00,
16.256,124.71009266990588,91.49668232223391,-1.0,-2.0,-2.0,1,0,0,1,0,1,1,15.40,185.80,0.00,
16.27,124.6560092669906,91.59866823222339,-2.0,-1.0,-1.0,1,0,0,1,0,1,1,15.50,189.14,0.00,
16.284,124.57860092669905,91.68086682322235,-3.0,0.0,-1.0,1,0,0,1,0,1,1,15.60,190.31,0.00,
16.299,124.5618600926699,91.64408668232224,-4.0,0.0,-1.0,1,0,0,1,0,1,1,15.79,191.00,0.00,
16.312,124.64118600926699,91.61340866823222,-4.0,0.0,-2.0,1,0,0,1,0,1,1,15.60,191.79,0.00,
16.326,124.6491186009267,91.59234086682324,-4.0,0.0,-2.0,1,0,0,1,0,1,1,15.40,192.37,0.00,
16.34,124.65891186009267,91.52723408668231,-5.0,0.0,-2.0,1,0,0,1,0,1,1,15.21,192.77,0.00,
16.354,124.67789118600926,91.50272340866823,-4.0,2.0,-2.0,1,0,0,0,0,1,1,14.62,192.86,0.00,
16.368,124.68878911860092,91.46427234086681,-4.0,2.0,-3.0,1,0,0,0,0,1,1,14.32,191.79,0.00,
16.382,124.62687891186009,91.4424272340867,-5.0,2.0,-2.0,1,0,0,0,0,1,1,14.03,190.71,0.00,
16.396,124.65668789118601,91.42224272340867,-4.0,2.0,-2.0,1,0,0,0,0,1,1,13.73,189.53,0.00,
16.41,124.83066878911859,91.27622427234087,-3.0,2.0,-1.0,1,0,0,0,0,1,1,13.44,188.16,0.00,
16.424,125.10906687891186,91.1086224272341,-1.0,0.0,-1.0,1,0,0,0,0,1,1,12.85,185.31,0.00,
16.438,125.27190668789119,91.10986224272341,0.0,0.0,0.0,1,0,0,0,0,1,1,12.56,183.35,0.00,
16.452,125.06319066878912,91.28998622427234,0.0,0.0,0.0,1,0,0,0,0,1,1,12.26,181.29,0.00,
16.465,124.91631906687891,91.46999862242723,0.0,0.0,2.0,1,0,0,1,0,1,1,11.97,179.52,0.00,
16.48,124.74863190668789,91.48799986224272,-1.0,0.0,4.0,1,0,0,1,0,1,1,11.77,176.97,0.00,
16.493,124.61486319066879,91.46279998622427,-1.0,3.0,4.0,1,0,0,1,0,1,2,11.87,175.70,0.00,
16.507,124.81748631906689,91.37027999862244,0.0,5.0,3.0,1,0,0,1,0,1,2,11.97,174.03,0.00,
16.521,125.04474863190669,91.21702799986224,0.0,5.0,1.0,1,0,0,1,0,1,2,12.26,171.58,0.00,
16.535,125.29247486319066,91.14770279998622,1.0,4.0,0.0,1,0,0,1,0,1,2,13.64,164.71,0.00,
16.548,125.36224748631908,91.17677027999864,0.0,4.0,-1.0,1,0,0,1,0,2,2,14.32,161.08,0.00,
16.563,125.3512247486319,91.18867702799986,1.0,8.0,-1.0,2,0,0,1,0,2,2,15.01,157.74,0.00,
16.577,125.3951224748632,91.31586770279999,1.0,9.0,-2.0,2,0,0,2,0,2,2,15.70,154.31,0.00,
16.59,125.39951224748633,91.47258677027999,3.0,8.0,-1.0,2,0,0,2,0,2,2,16.48,146.37,0.00,
16.605,125.39095122474863,91.62325867702799,1.0,8.0,-1.0,2,0,0,2,0,2,2,18.44,142.54,0.00,
16.618,125.47109512247486,91.7733258677028,0.0,9.0,0.0,2,0,0,2,0,2,2,19.33,139.20,0.00,
16.632,125.77610951224749,91.81533258677027,-3.0,10.0,-3.0,2,0,0,2,0,2,2,20.40,136.16,0.00,
16.647,125.97761095122475,91.77453325867702,-2.0,7.0,-4.0,2,0,0,2,0,2,2,21.29,130.57,0.00,
16.66,126.16876109512248,91.6804533258677,-4.0,6.0,-6.0,2,0,0,2,0,3,2,22.86,127.73,0.00,
16.674,126.11587610951224,91.77904533258678,-3.0,7.0,-5.0,2,0,0,2,0,3,2,23.74,125.37,0.00,
16.689,126.22758761095122,91.91490453325869,0.0,7.0,0.0,2,0,0,2,0,3,2,24.52,123.51,0.00,
16.702,126.19375876109511,91.99149045332587,-1.0,6.0,0.0,2,0,0,2,0,3,2,25.31,120.66,0.00,
16.716,126.3163758761095,91.9541490453326,-2.0,5.0,0.0,2,0,0,3,0,3,2,26.78,119.19,0.00,
16.731,126.50863758761096,91.95941490453325,-2.0,3.0,0.0,2,0,0,3,0,3,2,27.27,117.82,0.00,
16.744,126.54586375876109,91.87894149045333,-2.0,4.0,-2.0,2,0,0,3,0,3,2,27.76,116.44,0.00,
16.758,126.6035863758761,91.79889414904534,-1.0,6.0,-1.0,2,0,0,3,0,3,2,28.25,113.99,0.00,
16.773,126.78035863758761,91.86288941490454,-1.0,6.0,-1.0,2,0,0,3,0,3,2,28.94,112.52,0.00,
16.787,127.01403586375878,91.91428894149047,-1.0,4.0,-1.0,2,0,0,3,0,3,2,30.51,110.95,0.00,
16.801,127.09140358637588,91.97342889414905,-1.0,1.0,0.0,2,0,0,3,0,3,2,31.10,107.91,0.00,
16.815,127.07214035863758,92.1593428894149,-1.0,0.0,1.0,2,0,0,3,0,3,2,31.49,106.93,0.00,
16.829,127.15121403586376,92.16893428894149,-1.0,-1.0,2.0,2,0,0,3,0,3,2,31.78,106.54,0.00,
16.843,127.25812140358636,92.04389342889414,-1.0,-2.0,1.0,2,0,0,3,0,3,2,32.47,106.14,0.00,
16.858,127.34081214035862,91.8423893428894,-1.0,-3.0,1.0,2,0,0,3,0,3,2,32.47,105.56,0.00,
16.871,127.35808121403585,91.78623893428895,-1.0,-4.0,0.0,2,0,0,3,0,3,2,32.37,105.36,0.00,
16.885,127.37780812140358,91.84362389342888,-1.0,-6.0,0.0,2,0,0,3,0,3,2,32.18,105.16,0.00,
16.9,127.37978081214035,91.78636238934288,-1.0,-6.0,0.0,2,0,0,3,0,3,2,31.29,105.07,0.00,
16.914,127.23597808121404,91.77163623893429,0.0,-2.0,-1.0,2,0,0,3,0,3,2,31.00,104.87,0.00,
16.927,127.1045978081214,91.82416362389344,-1.0,-2.0,-1.0,2,0,0,3,0,3,2,30.80,104.57,0.00,
16.942,127.01045978081214,91.78441636238935,-1.0,-2.0,-1.0,2,0,0,3,0,4,2,30.61,103.89,0.00,
16.956,126.84804597808122,91.76244163623893,-1.0,-2.0,-1.0,2,0,0,3,0,4,2,30.02,102.02,0.00,
16.97,126.74180459780813,91.81424416362388,0.0,-2.0,-1.0,2,0,0,3,0,4,2,29.63,101.14,0.00,
16.985,126.68618045978083,91.8554244163624,0.0,-3.0,0.0,2,0,0,3,0,4,2,29.23,100.36,0.00,
16.999,126.63561804597808,91.87754244163622,0.0,-3.0,-1.0,2,0,0,3,0,4,2,29.14,99.38,0.00,
17.012,126.76556180459781,91.8527542441636,0.0,-3.0,-1.0,2,0,0,3,0,4,2,29.23,96.92,0.00,
17.027,126.96755618045978,91.86827542441637,0.0,-5.0,-1.0,2,0,0,3,0,4,2,29.14,95.55,0.00,
17.041,126.98775561804597,91.93282754244163,0.0,-5.0,-2.0,2,0,0,3,0,4,2,29.04,94.08,0.00,
17.054,126.8277755618046,91.99328275424416,0.0,-5.0,-1.0,2,0,0,3,0,4,2,28.84,92.61,0.00,
17.069,126.43377755618046,92.11632827542442,0.0,-4.0,-1.0,2,0,0,3,0,4,2,28.25,90.15,0.00,
17.083,126.21437775561805,92.07463282754244,-1.0,-3.0,0.0,2,0,0,4,0,4,2,28.15,89.47,0.00,
17.096,126.0844377755618,92.08846328275425,0.0,-1.0,-1.0,2,0,0,4,0,4,2,28.15,88.98,0.00,
17.111,126.11644377755619,92.16184632827543,0.0,-1.0,-1.0,2,0,0,4,0,4,3,28.25,88.09,0.00,
17.125,126.22764437775561,92.15118463282755,-1.0,-1.0,-1.0,2,0,0,4,0,5,3,28.84,85.94,0.00,
17.139,126.02276443777556,92.17711846328275,0.0,-2.0,-1.0,2,0,0,4,0,5,3,28.94,84.76,0.00,
17.153,125.93027644377756,92.25171184632828,0.0,-3.0,0.0,2,0,0,4,0,5,3,29.23,83.78,0.00,
17.167,125.96602764437776,92.27717118463283,0.0,-2.0,0.0,2,0,0,4,0,5,3,29.63,81.82,0.00,
17.181,126.12260276443777,92.42371711846329,0.0,-2.0,0.0,2,0,0,4,0,5,3,30.71,80.74,0.00,
17.195,126.17426027644379,92.51037171184633,0.0,-3.0,0.0,2,0,0,4,0,5,3,31.10,79.85,0.00,
17.209,126.15242602764438,92.45603717118463,0.0,-3.0,0.0,2,0,0,4,0,5,3,31.59,79.26,0.00,
17.222,126.12324260276445,92.47760371711846,0.0,-3.0,0.0,2,0,0,4,0,5,3,31.88,78.28,0.00,
17.236,126.12932426027643,92.56976037171185,0.0,-3.0,0.0,2,0,0,4,0,5,3,32.18,77.70,0.00,
17.251,126.21993242602764,92.59697603717119,0.0,-2.0,0.0,2,0,0,4,0,5,3,32.47,77.30,0.00,
17.264,126.08499324260275,92.67169760371712,0.0,-3.0,0.0,2,0,0,4,0,5,3,32.57,76.71,0.00,
17.278,126.10749932426026,92.59816976037172,-1.0,-4.0,0.0,2,0,0,4,0,5,3,32.57,75.64,0.00,
17.293,126.12774993242601,92.56381697603717,-1.0,-3.0,0.0,2,0,0,4,0,5,3,32.47,75.34,0.00,
17.306,126.03077499324259,92.56938169760372,-2.0,-4.0,0.0,2,0,0,4,0,5,3,31.98,75.05,0.00,
17.32,126.03007749932426,92.45293816976037,-1.0,-4.0,0.0,2,0,0,4,1,5,3,31.59,74.95,0.00,
17.335,126.05700774993244,92.55829381697603,-1.0,-6.0,0.0,2,0,0,4,1,5,3,31.20,75.05,0.00,
17.349,125.88870077499324,92.62282938169761,-2.0,-6.0,0.0,2,0,0,4,1,5,3,30.71,75.05,0.00,
17.362,125.85387007749932,92.69228293816977,-2.0,-6.0,1.0,2,0,0,4,1,5,3,29.33,75.14,0.00,
17.377,125.69738700774994,92.62722829381698,-2.0,-6.0,0.0,2,0,0,4,1,5,3,28.35,75.64,0.00,
17.391,125.573738700775,92.5847228293817,-2.0,-5.0,0.0,2,0,0,4,1,5,3,27.57,76.91,0.00,
17.404,125.5523738700775,92.53547228293817,-2.0,-6.0,0.0,2,0,0,4,1,5,3,26.98,77.30,0.00,
17.419,125.46023738700775,92.55754722829381,-2.0,-5.0,0.0,2,0,0,4,1,5,3,25.80,77.79,0.00,
17.433,125.36102373870077,92.49675472282938,-3.0,-6.0,0.0,2,0,0,4,1,5,2,25.21,78.38,0.00,
17.446,125.12610237387008,92.46367547228293,-3.0,-5.0,0.0,2,0,0,4,1,5,2,24.52,80.34,0.00,
17.461,124.92261023738702,92.4063675472283,-4.0,-5.0,1.0,2,0,0,4,1,5,2,23.84,81.82,0.00,
17.475,124.83926102373869,92.30163675472284,-5.0,-5.0,0.0,2,0,0,4,1,5,2,23.25,83.78,0.00,
17.489,124.75892610237388,92.12916367547228,-4.0,-6.0,0.0,2,0,0,4,0,5,2,22.27,88.68,0.00,
17.503,124.85889261023739,92.15691636754723,-4.0,-5.0,0.0,2,0,0,4,0,5,2,21.78,90.94,0.00,
17.517,124.88688926102373,92.13269163675471,-4.0,-5.0,0.0,2,0,0,4,0,5,2,21.19,92.70,0.00,
17.531,124.75468892610236,92.15726916367547,-4.0,-5.0,0.0,2,0,0,4,0,5,2,20.40,94.08,0.00,
17.545,124.62446889261024,92.21372691636755,-4.0,-4.0,0.0,2,0,0,4,0,5,2,19.33,97.51,0.00,
17.559,124.37744688926101,92.20137269163675,-4.0,-3.0,0.0,2,0,0,4,0,5,2,18.84,99.47,0.10,
17.573,124.3527446889261,92.11013726916367,-5.0,-2.0,1.0,2,0,0,4,0,5,2,18.44,101.44,0.10,
17.588,124.35927446889261,92.03801372691636,-5.0,-1.0,0.0,2,0,0,4,0,5,2,18.15,103.30,0.00,
17.601,124.34192744688926,92.01280137269164,-5.0,-1.0,1.0,2,0,0,4,0,5,2,17.85,107.52,0.00,
17.615,124.14219274468894,91.97428013726916,-5.0,-2.0,2.0,2,0,0,3,0,5,2,17.76,110.36,0.00,
17.63,124.10421927446889,91.85342801372693,-5.0,0.0,1.0,2,0,0,3,0,5,2,17.66,113.40,0.00,
17.644,123.9654219274469,91.85934280137269,-4.0,-1.0,1.0,2,0,0,3,0,5,2,17.85,116.44,0.00,
17.657,123.96054219274468,91.64393428013727,-5.0,-1.0,1.0,2,0,0,3,0,5,2,18.25,121.45,0.00,
17.672,124.10405421927447,91.44239342801373,-3.0,-1.0,1.0,2,0,0,3,0,5,2,18.34,123.51,0.00,
17.686,124.20840542192745,91.26023934280137,-3.0,-2.0,0.0,2,0,0,3,0,5,2,18.44,125.18,0.00,
17.7,124.32684054219274,91.17002393428012,-3.0,-2.0,0.0,2,0,0,3,0,5,2,18.44,128.51,0.00,
17.715,124.31168405421927,91.15200239342802,-3.0,-3.0,0.0,2,0,0,3,0,5,2,18.74,130.37,0.00,
17.728,124.24716840542193,91.06020023934279,-3.0,-3.0,0.0,2,0,0,3,0,5,2,18.84,132.04,0.00,
17.742,124.14171684054219,91.07802002393427,-3.0,-1.0,0.0,2,0,0,3,0,5,2,18.93,133.71,0.00,
17.757,124.12217168405422,91.07980200239342,-3.0,-2.0,0.0,2,0,0,3,0,5,2,18.74,137.14,0.00,
17.771,124.10221716840542,91.03498020023935,-3.0,-2.0,0.0,2,0,0,3,0,5,2,18.74,138.81,0.00,
17.784,124.07322171684054,91.00349802002394,-3.0,-3.0,0.0,2,0,0,3,0,5,2,18.84,140.18,0.00,
17.799,124.06132217168405,90.9283498020024,-3.0,-4.0,0.0,2,0,0,3,0,5,2,18.84,141.26,0.00,
17.813,124.1051322171684,90.95683498020023,-3.0,-5.0,0.0,2,0,0,3,0,5,2,18.84,143.52,0.00,
17.827,124.04651322171685,90.95968349802001,-2.0,-5.0,0.0,2,0,0,3,0,5,2,18.64,144.70,0.00,
17.842,123.9596513221717,90.950968349802,-3.0,-6.0,0.0,2,0,0,3,0,5,2,18.44,146.07,0.00,
17.855,123.82496513221717,90.8600968349802,-3.0,-6.0,0.0,2,0,0,3,0,5,2,18.15,148.82,0.00,
17.869,123.70349651322171,90.81500968349802,-3.0,-6.0,0.0,2,0,0,3,0,5,2,17.95,150.09,0.00,
17.884,123.63734965132217,90.79250096834981,-3.0,-5.0,0.0,2,0,0,3,0,5,2,17.66,151.37,0.00,
17.898,123.46873496513221,90.74525009683498,-3.0,-4.0,0.0,2,0,0,3,0,5,2,17.36,152.84,0.00,
17.912,123.33487349651321,90.7675250096835,-3.0,-2.0,0.0,2,0,0,3,0,5,2,17.07,156.67,0.00,
17.926,123.25848734965132,90.76075250096835,-3.0,-2.0,0.0,2,0,0,3,0,5,2,16.97,158.82,0.00,
17.94,123.43084873496514,90.66107525009684,-3.0,-2.0,0.0,2,0,0,3,0,5,2,16.58,160.79,0.00,
17.954,123.5830848734965,90.65110752500969,-3.0,-5.0,0.0,2,0,0,3,0,4,2,16.28,162.55,0.00,
17.969,123.49930848734964,90.69511075250098,-3.0,-5.0,-1.0,2,0,0,3,0,4,2,15.89,166.38,0.00,
17.983,123.27493084873495,90.71751107525009,-3.0,-5.0,-1.0,2,0,0,3,0,4,2,15.40,168.63,0.00,
17.997,123.0634930848735,90.62075110752501,-3.0,-3.0,-1.0,2,0,0,3,0,4,2,14.62,170.79,0.00,
18.011,122.92534930848734,90.67407511075251,-3.0,-2.0,-2.0,2,0,0,3,0,4,2,14.32,173.93,0.00,
18.025,122.92053493084873,90.57140751107525,-3.0,-1.0,-1.0,2,0,0,2,0,4,2,13.83,174.91,0.00,
18.039,122.91105349308486,90.56114075110753,-3.0,-3.0,0.0,2,0,0,2,0,4,2,13.34,176.58,0.00,
18.054,122.88310534930848,90.47011407511076,-3.0,-2.0,0.0,2,0,0,2,0,3,2,12.46,178.84,0.00,
18.068,122.71831053493085,90.55101140751108,-3.0,-1.0,0.0,2,0,0,2,0,3,2,12.16,183.74,0.00,
18.082,122.80983105349308,90.71210114075112,-6.0,0.0,-1.0,2,0,0,1,0,3,1,11.87,185.61,0.00,
18.096,122.7739831053493,90.53021011407512,-7.0,-2.0,-3.0,2,0,0,1,0,2,1,11.58,187.76,0.00,
18.11,122.68939831053493,90.35902101140752,-6.0,-1.0,-3.0,2,0,0,1,0,2,1,10.89,190.71,0.00,
18.124,122.53693983105349,90.29690210114076,-4.0,0.0,-1.0,2,0,0,1,0,2,1,10.59,197.08,0.00,
18.139,122.44069398310536,90.34469021011407,-5.0,0.0,-2.0,2,0,0,1,0,2,1,10.40,199.34,0.00,
18.153,122.37706939831054,90.5474690210114,-6.0,1.0,-1.0,2,0,0,0,0,2,1,10.30,200.71,0.00,
18.166,122.53270693983106,90.50474690210115,-7.0,1.0,-2.0,2,0,0,0,0,1,1,10.01,202.28,0.00,
18.181,122.69227069398309,90.39247469021011,-7.0,1.0,-2.0,2,0,0,0,0,1,1,9.61,203.17,0.00,
18.194,122.80722706939831,90.336247469021,-5.0,0.0,-1.0,2,0,0,0,0,1,1,9.42,204.05,0.00,
18.208,122.92672270693983,90.27662474690209,-3.0,0.0,0.0,2,0,0,0,0,1,1,9.03,204.83,0.00,
18.223,122.99267227069399,90.33366247469021,-6.0,0.0,-1.0,2,0,0,0,0,1,1,8.83,206.50,0.00,
18.236,122.9812672270694,90.15036624746902,-6.0,-1.0,-1.0,2,0,0,0,0,1,1,8.34,207.78,0.00,
18.25,122.83612672270694,90.0060366247469,-5.0,0.0,-2.0,1,0,0,0,0,1,1,8.14,209.44,0.00,
18.264,122.90261267227069,89.84760366247468,-3.0,0.0,-2.0,1,0,0,0,0,1,1,7.95,211.11,0.00,
18.278,122.91826126722707,90.04776036624747,-4.0,0.0,-2.0,1,0,0,0,0,1,1,7.65,213.37,0.00,
18.292,122.8568261267227,90.03177603662475,-6.0,0.0,-1.0,1,0,0,0,0,1,1,7.26,214.15,0.00,
18.306,122.82368261267226,89.87717760366246,-6.0,0.0,-2.0,1,0,0,0,0,1,1,7.16,214.94,0.00,
18.32,122.82036826126722,89.68171776036624,-4.0,0.0,-2.0,1,0,0,0,0,1,1,6.87,215.53,0.00,
18.333,122.80203682612671,89.56317177603663,-3.0,0.0,-2.0,1,0,0,0,0,1,1,6.57,216.41,0.00,
18.348,122.77320368261266,89.68631717760367,-3.0,0.0,-1.0,1,0,0,0,0,1,1,6.47,216.70,0.00,
18.361,122.81532036826125,89.67163171776036,-5.0,0.0,-1.0,1,0,0,0,0,1,1,6.47,216.90,0.00,
18.375,122.81053203682613,89.58916317177604,-4.0,0.0,-1.0,1,0,0,0,0,1,1,6.47,217.29,0.00,
18.39,122.81005320368263,89.5539163171776,-2.0,1.0,0.0,1,0,0,0,0,1,1,6.47,219.06,0.00,
18.403,122.83700532036828,89.52339163171776,-1.0,1.0,0.0,1,0,0,0,0,1,1,6.38,219.74,0.00,
18.417,122.88470053203682,89.67333916317178,-2.0,1.0,0.0,1,0,0,0,0,1,1,6.57,220.04,0.00,
18.43,122.90747005320368,89.68833391631718,-3.0,1.0,0.0,1,0,0,0,0,1,1,6.67,219.94,0.00,
18.445,122.91874700532037,89.69883339163172,-3.0,2.0,-1.0,1,0,0,0,0,1,1,6.77,219.84,0.00,
18.458,122.90187470053205,89.60088333916318,-1.0,3.0,-1.0,1,0,0,0,0,1,1,6.77,219.84,0.00,
18.472,122.9451874700532,89.60008833391632,0.0,3.0,0.0,1,0,0,0,0,1,1,6.87,219.65,0.00,
18.486,122.97651874700531,89.62700883339163,-1.0,3.0,0.0,1,0,0,0,0,1,1,7.16,219.45,0.00,
18.5,122.98865187470054,89.75570088333916,-2.0,4.0,0.0,1,0,0,0,0,1,1,7.36,218.86,0.00,
18.513,123.12486518747006,89.7955700883339,-1.0,4.0,1.0,1,0,0,0,0,1,1,7.55,218.76,0.00,
18.528,123.237486518747,89.6915570088334,-1.0,4.0,1.0,1,0,0,0,0,1,1,7.85,218.86,0.00,
18.541,123.3297486518747,89.71715570088334,0.0,3.0,1.0,1,0,0,0,0,1,1,8.44,219.16,0.00,
18.555,123.42897486518747,89.69271557008834,0.0,3.0,0.0,1,0,0,0,0,2,1,8.63,218.57,0.00,
18.569,123.50189748651874,89.78927155700882,0.0,3.0,0.0,1,0,0,0,0,2,1,8.93,217.68,0.00,
18.583,123.55418974865188,89.7539271557009,-1.0,3.0,0.0,1,0,0,0,0,2,1,9.12,217.00,0.00,
18.596,123.57741897486518,89.73239271557009,0.0,4.0,0.0,1,0,0,0,0,2,1,9.32,216.60,0.00,
18.61,123.53474189748653,89.739239271557,0.0,5.0,0.0,1,0,0,0,0,2,1,9.91,216.41,0.00,
18.624,123.58447418974866,89.6049239271557,1.0,5.0,0.0,2,0,0,1,0,2,1,10.30,215.92,0.00,
18.637,123.67044741897487,89.51949239271558,3.0,5.0,-1.0,2,0,0,1,0,2,1,10.79,215.13,0.00,
18.652,123.80504474189749,89.62794923927156,4.0,4.0,-1.0,2,0,0,1,0,2,1,11.38,213.56,0.00,
18.666,123.96250447418976,89.77379492392716,4.0,3.0,0.0,2,0,0,1,0,2,1,12.56,208.95,0.00,
18.679,123.97825044741899,89.7703794923927,4.0,5.0,0.0,2,0,0,1,0,2,1,13.15,206.30,0.00,
18.694,124.0338250447419,89.95903794923927,4.0,6.0,0.0,2,0,0,1,0,3,1,13.73,203.66,0.00,
18.707,124.06638250447418,90.22990379492393,1.0,6.0,-1.0,2,0,0,2,0,3,1,14.52,200.71,0.00,
18.721,124.06963825044741,90.3379903794924,0.0,6.0,-1.0,2,0,0,2,0,3,1,15.50,194.83,0.00,
18.735,123.96196382504475,90.35779903794923,-1.0,7.0,-1.0,2,0,0,2,0,3,2,16.97,192.77,0.00,
18.749,124.05019638250448,90.34177990379493,0.0,8.0,-1.0,2,0,0,2,0,3,2,17.85,190.90,0.00,
18.763,124.27501963825046,90.2951779903795,0.0,6.0,-2.0,2,0,0,2,0,3,2,18.44,188.94,0.00,
18.778,124.46850196382503,90.40751779903795,0.0,4.0,-2.0,2,0,0,2,0,4,2,19.33,184.43,0.00,
18.791,124.6138501963825,90.4727517799038,0.0,2.0,0.0,2,0,0,2,0,4,1,21.19,182.37,0.00,
18.805,124.76338501963825,90.41627517799037,-1.0,0.0,0.0,2,0,0,2,0,4,2,21.88,180.70,0.00,
18.82,124.94033850196382,90.46462751779904,0.0,-1.0,0.0,2,0,0,2,0,4,2,22.56,179.23,0.00,
18.833,124.95803385019637,90.4244627517799,0.0,0.0,-2.0,2,0,0,2,0,4,2,22.96,177.07,0.00,
18.847,124.99580338501963,90.51944627517798,-1.0,0.0,-1.0,2,0,0,2,0,4,2,23.64,176.29,0.00,
18.862,124.94558033850195,90.5289446275178,-1.0,0.0,0.0,2,0,0,2,0,4,2,23.84,175.80,0.00,
18.875,125.0215580338502,90.57489446275179,-1.0,0.0,-1.0,2,0,0,3,0,4,2,24.13,175.60,0.00,
18.889,125.07415580338503,90.58848944627519,0.0,-2.0,-1.0,2,0,0,3,0,4,2,24.52,175.01,0.00,
18.904,125.25941558033851,90.54484894462752,0.0,-5.0,-1.0,2,0,0,3,0,4,2,24.82,174.52,0.00,
18.918,125.14294155803385,90.53148489446275,0.0,-6.0,-1.0,2,0,0,3,0,4,2,24.62,173.83,0.00,
18.932,124.99629415580338,90.67414848944627,0.0,-5.0,-1.0,2,0,0,3,0,4,2,24.03,173.15,0.00,
18.946,124.68462941558033,90.58941484894463,0.0,-4.0,-2.0,2,0,0,3,0,4,2,23.45,172.07,0.00,
18.96,124.69846294155803,90.50894148489446,0.0,-4.0,-1.0,2,0,0,3,0,4,2,22.27,171.48,0.00,
18.974,124.78084629415581,90.58189414848945,0.0,-6.0,0.0,2,0,0,3,0,5,2,21.78,170.79,0.00,
