time,t1:pitch,t1:roll,t1:gyrx,t1:gyry,t1:gyrz,t2:pitch,t2:roll,t2:gyrx,t2:gyry,t2:gyrz,k1:pitch,k1:roll,k1:gyrx,k1:gyry,k1:gyrz,k2:pitch,k2:roll,k2:gyrx,k2:gyry,k2:gyrz,W:pitch,W:roll,W:gyrx,W:gyry,W:gyrz,B:pitch,B:roll,B:gyrx,B:gyry,B:gyrz
0.286,-1.4809488799642343,20.981798476282325,0.015267175572519083,0.06870229007633588,0.022900763358778626,27.798532899138305,20.250104582212835,-0.03816793893129771,-0.0,-0.07633587786259542,-6.750064908635182,24.416051250748723,0.007633587786259542,-0.007633587786259542,0.04580152671755725,13.5,13.5,0.0,-0.0,0.0,0.0,0.0,0.0,0.0,0.0,48.91,58.63,-5.0,0.0,2.0,
0.323,-2.7397554279338334,38.816327181122304,0.015267175572519083,0.06870229007633588,0.022900763358778626,51.427285863405864,37.462693477093744,-0.03816793893129771,-0.0,-0.07633587786259542,-12.487620080975088,45.16969481388514,0.007633587786259542,-0.007633587786259542,0.04580152671755725,38.475000015426,30.974935121359813,-0.007633587786259542,-0.0,0.061068702290076333,0.0,0.0,0.0,0.0,0.0,53.45,63.54,-6.0,0.0,0.0,
0.36,-3.7117305785983907,53.983126007135894,0.0,-0.0,0.022900763358778626,71.5117258830333,52.09339403774251,-0.03816793893129771,-0.0,-0.07633587786259542,-17.364541977464008,62.810291842551095,0.007633587786259542,-0.007633587786259542,0.04580152671755725,59.703750028538096,45.82862997451565,-0.007633587786259542,-0.0,0.061068702290076333,0.0,0.0,0.0,0.0,0.0,57.27,68.06,-7.0,2.0,1.0,
0.398,-4.5379094566632645,66.87490500924744,0.0,-0.0,0.022900763358778626,88.43838349663565,64.39170770887415,-0.04580152671755725,-0.015267175572519083,0.0,-21.50992558947959,77.80479931691715,0.007633587786259542,-0.007633587786259542,0.04580152671755725,77.74818753968339,58.45427059969811,-0.007633587786259542,-0.0,0.061068702290076333,0.0,0.0,0.0,0.0,0.0,60.47,71.49,-3.0,-2.0,0.0,
0.436,-5.240161503018407,77.83291716104226,0.0,-0.0,0.022900763358778626,103.38557988584168,75.43888757599355,0.022900763358778626,0.007633587786259542,0.06870229007633588,-25.033501659692835,90.5501306701283,0.007633587786259542,-0.007633587786259542,0.04580152671755725,93.08595942415687,69.1860651311032,-0.007633587786259542,-0.0,0.061068702290076333,0.0,0.0,0.0,0.0,0.0,63.14,74.86,-8.0,3.0,-1.0,
0.474,-5.837075742420279,87.14722749006785,0.0,-0.0,0.022900763358778626,116.0906968166668,84.82899046304503,0.022900763358778626,0.007633587786259542,0.06870229007633588,-27.894964712657316,101.53179663222718,-0.007633587786259542,-0.022900763358778626,0.0,106.12306552595933,78.30809048279754,-0.007633587786259542,-0.0,0.061068702290076333,0.0,0.0,0.0,0.0,0.0,65.63,77.49,-4.0,1.0,0.0,
0.512,-6.344452845911869,95.0643912697396,0.0,-0.0,0.022900763358778626,126.89004620786817,92.81057791703878,0.022900763358778626,0.007633587786259542,0.06870229007633588,-30.3946387297367,110.77736540691387,-0.015267175572519083,-0.015267175572519083,0.05343511450381679,117.20460571249143,86.06181203173772,-0.007633587786259542,-0.0,0.061068702290076333,0.0,0.0,0.0,0.0,0.0,67.59,79.9,-7.0,4.0,0.0,
0.5509999999999999,-6.775723383879721,101.7939804824606,0.0,-0.0,0.022900763358778626,136.06949319038932,99.59492725293347,0.022900763358778626,0.007633587786259542,0.06870229007633588,-32.519361644254175,118.63609886539756,-0.015267175572519083,-0.015267175572519083,0.05343511450381679,126.62391487104371,92.65247534833686,-0.007633587786259542,-0.0,0.022900763358778626,0.0,0.0,0.0,0.0,0.0,69.19,81.7,-4.0,2.0,0.0,
0.589,-7.142303341152395,107.51413131327344,0.0,-0.0,0.022900763358778626,143.8720231255323,105.36162418844397,0.022900763358778626,0.007633587786259542,0.06870229007633588,-34.32537612159403,125.31602230510869,-0.015267175572519083,-0.015267175572519083,0.05343511450381679,134.63039254130933,98.25453916744614,-0.007633587786259542,0.007633587786259542,0.06870229007633588,0.0,0.0,0.0,0.0,0.0,70.89,83.4,-7.0,4.0,0.0,
0.627,-7.6092201215437765,112.56551398703203,0.0,-0.0,0.007633587786259542,150.50417357040382,110.26331658362788,0.022900763358778626,0.007633587786259542,0.06870229007633588,-35.86048842733291,130.99395722886317,-0.015267175572519083,-0.015267175572519083,0.05343511450381679,141.43589856103512,103.01629341368903,-0.007633587786259542,0.007633587786259542,0.06870229007633588,0.0,0.0,0.0,0.0,0.0,71.95,84.98,-4.0,0.0,0.0,
0.665,-8.00609938487645,116.85918925972683,0.0,-0.0,0.007633587786259542,156.14150144854463,114.4297551195342,0.022900763358778626,0.007633587786259542,0.06870229007633588,-37.462943897931176,135.95905939064778,0.0,-0.0,-0.007633587786259542,147.220578677802,107.06378452299549,-0.007633587786259542,0.007633587786259542,0.06870229007633588,0.0,0.0,0.0,0.0,0.0,72.93,86.21,-4.0,1.0,0.0,
0.702,-8.390078840644726,120.34615964538519,0.022900763358778626,-0.030534351145038167,0.030534351145038167,160.9332301449643,117.97122787505458,0.022900763358778626,0.007633587786259542,0.06870229007633588,-38.8250310479397,140.1793962281647,0.0,-0.0,-0.007633587786259542,152.13755677705387,110.50415196590598,-0.007633587786259542,0.007633587786259542,0.06870229007633588,0.0,0.0,0.0,0.0,0.0,73.95,87.12,-7.0,5.0,2.0,
0.74,-8.716461378047761,123.31008447319478,0.022900763358778626,-0.030534351145038167,0.030534351145038167,165.00619953692106,120.9814797172469,0.022900763358778626,0.007633587786259542,0.06870229007633588,-39.61710017447466,143.60624692304162,0.0,-0.0,0.0,156.31698816141795,113.42846429237989,-0.007633587786259542,0.007633587786259542,0.06870229007633588,0.0,0.0,0.0,0.0,0.0,74.96,88.03,-5.0,0.0,1.0,
0.778,-8.8882822059204,125.77767429758042,0.007633587786259542,-0.030534351145038167,0.022900763358778626,168.46822352008428,123.54019378311037,0.022900763358778626,0.007633587786259542,0.06870229007633588,-40.29035893202936,146.51907001368699,0.0,-0.0,0.0,159.86950483812743,115.91412976988272,-0.007633587786259542,0.007633587786259542,0.06870229007633588,0.0,0.0,0.0,0.0,0.0,75.71,88.42,-5.0,4.0,1.0,
0.816,-9.18362985729539,128.08663958081047,0.022900763358778626,-0.061068702290076333,0.0,171.41094390577302,125.71510073909432,0.022900763358778626,0.007633587786259542,0.06870229007633588,-40.86262887595087,148.99496964073555,0.0,-0.0,0.0,162.88914401333048,118.02694542576012,-0.007633587786259542,0.007633587786259542,0.06870229007633588,0.0,0.0,0.0,0.0,0.0,76.36,89.19,-5.0,1.0,-2.0,
0.854,-9.434675360964134,130.049260071556,0.022900763358778626,-0.061068702290076333,0.0,173.91225623360845,127.56377165168068,0.022900763358778626,0.007633587786259542,0.06870229007633588,-41.496050730093295,151.17139512356107,-0.007633587786259542,-0.007633587786259542,-0.030534351145038167,165.45583731225307,119.8228387332559,-0.007633587786259542,0.007633587786259542,0.06870229007633588,0.0,0.0,0.0,0.0,0.0,76.89,89.53,-5.0,2.0,0.0,
0.892,-9.648064039082564,131.7174874886897,0.022900763358778626,-0.061068702290076333,0.0,176.17430115514142,129.0955384321671,0.12213740458015267,0.03816793893129771,-0.0916030534351145,-42.03445930611436,153.02135678396277,-0.007633587786259542,-0.007633587786259542,-0.030534351145038167,167.63752661633728,121.34934804462733,-0.007633587786259542,0.007633587786259542,0.06870229007633588,0.0,0.0,0.0,0.0,0.0,77.38,90.05,-7.0,2.0,0.0,
0.931,-9.829444415483232,133.13548079325335,0.022900763358778626,-0.061068702290076333,0.0,178.09703933844446,130.39754019558058,0.12213740458015267,0.03816793893129771,-0.0916030534351145,-42.49210659573226,154.59382419530422,-0.007633587786259542,-0.007633587786259542,-0.030534351145038167,169.49215718129742,122.64694584478923,0.0,0.030534351145038167,0.0916030534351145,0.0,0.0,0.0,0.0,0.0,78.01,90.1,-4.0,1.0,0.0,
0.969,-9.983617735423799,134.34077510213245,0.022900763358778626,-0.061068702290076333,0.0,179.80483523397663,131.84278212194005,0.061068702290076333,-0.0,-0.07633587786259542,-42.88110679190748,155.93042149494445,-0.007633587786259542,-0.007633587786259542,-0.030534351145038167,171.06859316151355,123.74990397492684,0.0,0.030534351145038167,0.0916030534351145,0.0,0.0,0.0,0.0,0.0,78.43,90.43,-7.0,2.0,0.0,
1.008,-10.421140451951725,135.54507826535587,0.030534351145038167,-0.03816793893129771,0.007633587786259542,181.25646174517897,133.07123775934562,0.061068702290076333,-0.0,-0.07633587786259542,-43.21175695865641,157.06652919963864,-0.007633587786259542,-0.007633587786259542,-0.030534351145038167,172.40856374469723,124.68741838554381,0.0,0.030534351145038167,0.0916030534351145,0.0,0.0,0.0,0.0,0.0,78.8,90.75,-3.0,0.0,0.0,
1.046,-10.66852052481418,136.6532388922526,0.015267175572519083,-0.030534351145038167,0.015267175572519083,182.49034427970096,134.11542505114033,0.061068702290076333,-0.0,-0.07633587786259542,-43.492809600393,158.0322207486287,-0.007633587786259542,-0.007633587786259542,-0.030534351145038167,173.54753874040338,125.48430563456823,0.0,0.030534351145038167,0.0916030534351145,0.0,0.0,0.0,0.0,0.0,79.27,90.94,-5.0,3.0,3.0,
1.083,-10.878793586747268,137.5951754251148,0.015267175572519083,-0.030534351145038167,0.015267175572519083,183.57535292993126,134.9806216813591,0.04580152671755725,0.022900763358778626,0.0,-43.731704345869105,158.85305856527026,-0.007633587786259542,-0.007633587786259542,-0.030534351145038167,174.5156674867536,126.161659796239,0.0,0.030534351145038167,0.0916030534351145,0.0,0.0,0.0,0.0,0.0,79.63,90.87,-3.0,0.0,-1.0,
1.1219999999999999,-11.072628412039304,138.19490083264407,0.015267175572519083,0.007633587786259542,0.04580152671755725,184.49761028262702,135.71603881704507,0.04580152671755725,0.022900763358778626,0.0,-43.9347648795238,159.5507707094156,-0.007633587786259542,-0.007633587786259542,-0.030534351145038167,175.33857692115131,126.73741083365914,0.0,0.030534351145038167,0.0916030534351145,0.0,0.0,0.0,0.0,0.0,79.51,91.29,-3.0,2.0,-1.0,
1.1600000000000001,-11.237388013537535,138.70466742904395,0.015267175572519083,0.007633587786259542,0.04580152671755725,185.2815290324184,136.34114338237814,0.04580152671755725,0.022900763358778626,0.0,-44.10736633313028,160.1438260319391,-0.007633587786259542,-0.007633587786259542,-0.030534351145038167,176.0377903984046,127.22660455897771,-0.022900763358778626,-0.0,-0.03816793893129771,0.0,0.0,0.0,0.0,0.0,79.62,91.13,-3.0,1.0,0.0,
1.1989999999999998,-11.501604095905146,139.42341387882922,0.0,0.007633587786259542,0.015267175572519083,185.9478599697411,136.87248226291123,0.04580152671755725,0.022900763358778626,0.0,-44.25407756869579,160.6479230560841,-0.007633587786259542,-0.007633587786259542,-0.030534351145038167,176.6321218540699,127.6424192254985,-0.022900763358778626,-0.0,-0.03816793893129771,0.0,0.0,0.0,0.0,0.0,79.61,91.59,-5.0,2.0,1.0,
1.237,-11.658606641076135,139.80118006612324,0.007633587786259542,0.030534351145038167,0.022900763358778626,186.51424126646538,137.32412031136437,0.04580152671755725,0.022900763358778626,0.0,-44.37878211892648,161.07640552660735,-0.007633587786259542,-0.007633587786259542,-0.030534351145038167,177.1373035913854,127.99586169204117,-0.022900763358778626,-0.0,-0.03816793893129771,0.0,0.0,0.0,0.0,0.0,79.6,91.54,0.0,-1.0,-1.0,
1.275,-11.782836628727617,140.23972789381094,-0.015267175572519083,0.015267175572519083,0.0,186.99566536868102,137.70801265254954,0.04580152671755725,0.022900763358778626,0.0,-44.48478098662256,161.4406156265521,-0.007633587786259542,-0.007633587786259542,-0.030534351145038167,177.5667080681036,128.29628778860246,-0.022900763358778626,-0.0,-0.03816793893129771,0.0,0.0,0.0,0.0,0.0,79.89,91.88,-6.0,2.0,0.0,
1.314,-11.625308278723336,140.29733924357092,0.0,0.030534351145038167,0.03816793893129771,187.4048758555643,138.03432114255693,0.04580152671755725,0.022900763358778626,0.0,-44.57488002416423,161.75019421150515,-0.007633587786259542,-0.007633587786259542,-0.030534351145038167,177.93170187331404,128.55164997067953,-0.022900763358778626,-0.0,-0.03816793893129771,0.0,0.0,0.0,0.0,0.0,79.94,91.97,-2.0,0.0,1.0,
1.352,-11.491409181219698,140.34630889086688,0.0,0.030534351145038167,0.03816793893129771,187.75270476941512,138.3116833590632,0.04580152671755725,0.022900763358778626,0.0,-44.65938704302229,162.00535310770553,0.0,-0.04580152671755725,0.03816793893129771,178.24194660774293,128.76870782544506,-0.022900763358778626,-0.0,-0.03816793893129771,0.0,0.0,0.0,0.0,0.0,80.0,91.99,-2.0,1.0,0.0,
1.39,-11.377594948341605,140.38793309106845,0.0,0.030534351145038167,0.03816793893129771,188.0483593461883,138.54744124309354,0.04580152671755725,0.022900763358778626,0.0,-44.50086901228242,162.33983890666698,0.0,-0.030534351145038167,-0.030534351145038167,178.5056546320075,128.95320700199574,-0.022900763358778626,-0.0,-0.03816793893129771,0.0,0.0,0.0,0.0,0.0,80.09,92.23,-3.0,0.0,-1.0,
1.429,-11.280852850395226,140.4233136612398,0.0,0.030534351145038167,0.03816793893129771,188.29966573644552,138.74783544451932,0.04580152671755725,0.022900763358778626,0.0,-44.69372191614709,162.4500855982958,-0.022900763358778626,-0.030534351145038167,0.05343511450381679,178.72980645263237,129.11003130206382,-0.022900763358778626,-0.0,-0.03816793893129771,0.0,0.0,0.0,0.0,0.0,80.34,92.24,-3.0,1.0,1.0,
1.466,-11.380416404072307,140.66407028003462,0.0,-0.007633587786259542,0.0,188.51327616816414,138.91817051573125,0.04580152671755725,0.022900763358778626,0.0,-44.85764688443206,162.54379528618028,-0.022900763358778626,-0.030534351145038167,0.05343511450381679,178.9203355001635,129.2433319571217,-0.022900763358778626,-0.0,-0.03816793893129771,0.0,0.0,0.0,0.0,0.0,80.27,92.01,-6.0,1.0,-1.0,
1.504,-11.465045424697825,140.86871340601022,0.0,-0.007633587786259542,0.0,188.69484503512496,139.06295532626137,0.04580152671755725,0.022900763358778626,0.0,-44.87319859641325,162.82581833951568,0.0,-0.03816793893129771,-0.007633587786259542,179.08228519056496,129.3566375139209,-0.022900763358778626,-0.0,-0.03816793893129771,0.0,0.0,0.0,0.0,0.0,80.34,92.42,-3.0,-3.0,-1.0,
1.543,-11.63818697259672,141.06186122704514,0.015267175572519083,-0.0,0.05343511450381679,188.84917857204167,139.186022415212,0.04580152671755725,0.022900763358778626,0.0,-44.88641755159727,163.06553793485077,0.0,-0.03816793893129771,-0.007633587786259542,179.2199424274062,129.45294723720022,-0.022900763358778626,-0.0,-0.03816793893129771,0.0,0.0,0.0,0.0,0.0,80.5,92.37,-5.0,1.0,1.0,
1.581,-11.78535728831078,141.22603687492483,0.015267175572519083,-0.0,0.05343511450381679,189.0683889090965,139.0748430471384,0.11450381679389313,-0.015267175572519083,-0.08396946564885496,-44.89765366350368,163.2692995908856,0.0,-0.03816793893129771,-0.007633587786259542,179.33695107872128,129.53481050198764,-0.022900763358778626,-0.0,-0.03816793893129771,0.0,0.0,0.0,0.0,0.0,80.21,92.43,-3.0,0.0,0.0,
1.619,-11.806569608340055,141.51537306188177,0.0,-0.0,0.0,189.25471769559314,138.98034058427584,0.11450381679389313,-0.015267175572519083,-0.08396946564885496,-44.907204358624135,163.4424969985152,0.0,-0.03816793893129771,-0.007633587786259542,179.43640843233908,129.60439427705694,-0.022900763358778626,-0.0,-0.03816793893129771,0.0,0.0,0.0,0.0,0.0,80.62,92.22,-2.0,0.0,-1.0,
1.658,-11.753040949279141,141.47174110867653,0.015267175572519083,0.007633587786259542,0.06870229007633588,189.41309716411527,138.90001349084267,0.11450381679389313,-0.015267175572519083,-0.08396946564885496,-44.91532244947652,163.58971479500036,0.0,-0.03816793893129771,-0.007633587786259542,179.5209471829142,129.66354048586584,-0.022900763358778626,-0.0,-0.03816793893129771,0.0,0.0,0.0,0.0,0.0,80.07,92.63,-8.0,4.0,1.0,
1.696,-11.707541589077364,141.43465394845208,0.015267175572519083,0.007633587786259542,0.06870229007633588,189.45291749210458,138.98032571057098,0.0,0.030534351145038167,-0.007633587786259542,-44.922222826701045,163.71484992201275,0.0,-0.03816793893129771,-0.007633587786259542,179.59280512090305,129.7138147633534,-0.022900763358778626,-0.0,-0.03816793893129771,0.0,0.0,0.0,0.0,0.0,80.19,92.43,2.0,-11.0,-1.0,
1.734,-11.804278010434322,141.5801575754813,-0.007633587786259542,-0.0,-0.007633587786259542,189.4867647708955,139.04859109734002,0.0,0.030534351145038167,-0.007633587786259542,-44.92808814734189,163.82121477997327,0.0,-0.03816793893129771,-0.007633587786259542,179.6538843681936,129.75654789921785,-0.022900763358778626,-0.0,-0.03816793893129771,0.0,0.0,0.0,0.0,0.0,80.37,92.49,-9.0,4.0,1.0,
1.773,-11.886503968587736,141.70383565845614,-0.007633587786259542,-0.0,-0.007633587786259542,189.51553495786777,139.10661667609372,0.0,0.030534351145038167,-0.007633587786259542,-44.93307366988661,163.91162490923972,0.0,-0.03816793893129771,-0.007633587786259542,179.70606127037527,129.793000835695,-0.007633587786259542,0.030534351145038167,0.007633587786259542,0.0,0.0,0.0,0.0,0.0,80.32,92.66,-2.0,-6.0,-4.0,
1.811,-11.956396033018137,141.80896202898475,-0.007633587786259542,-0.0,-0.007633587786259542,189.30118499237625,138.72913048058132,0.06870229007633588,-0.030534351145038167,-0.183206106870229,-44.93731136404962,163.9884735191162,0.0,-0.03816793893129771,-0.007633587786259542,179.75041163722972,129.82398583170058,-0.007633587786259542,0.030534351145038167,0.007633587786259542,0.0,0.0,0.0,0.0,0.0,80.52,92.61,-1.0,-2.0,3.0,
1.849,-11.838117257467966,141.6276493271817,0.0,-0.007633587786259542,0.007633587786259542,189.11898752170845,138.40826721439578,0.06870229007633588,-0.030534351145038167,-0.183206106870229,-44.94091340408818,164.05379483751122,0.0,-0.03816793893129771,-0.007633587786259542,179.78810944905598,129.85032307830534,-0.007633587786259542,0.030534351145038167,0.007633587786259542,0.0,0.0,0.0,0.0,0.0,80.19,92.45,-5.0,-1.0,-1.0,
1.887,-11.73758029825032,141.4735335306491,0.0,-0.007633587786259542,0.007633587786259542,188.96387413898933,138.45810249356057,-0.04580152671755725,0.04580152671755725,0.05343511450381679,-44.943975138120955,164.109317958147,0.0,-0.03816793893129771,-0.007633587786259542,179.82015258910832,129.87270973791937,-0.007633587786259542,0.030534351145038167,0.007633587786259542,0.0,0.0,0.0,0.0,0.0,80.42,92.45,0.0,-8.0,-4.0,
1.926,-11.65212388291532,141.3425351035964,0.0,-0.007633587786259542,0.007633587786259542,188.83202776367807,138.50046248085064,-0.04580152671755725,0.04580152671755725,0.05343511450381679,-45.06403711030921,164.01519533785074,-0.022900763358778626,-0.04580152671755725,0.06870229007633588,179.8473892581528,129.8917383985913,-0.007633587786259542,0.030534351145038167,0.007633587786259542,0.0,0.0,0.0,0.0,0.0,80.23,92.3,-3.0,-5.0,-1.0,
1.964,-11.758544647453716,141.4206089016516,0.007633587786259542,-0.0,0.04580152671755725,188.7199583446635,138.5364684700472,-0.04580152671755725,0.04580152671755725,0.05343511450381679,-45.166089786669225,163.93519111059894,-0.022900763358778626,-0.04580152671755725,0.06870229007633588,179.8705404268406,129.90791276016242,-0.007633587786259542,0.030534351145038167,0.007633587786259542,0.0,0.0,0.0,0.0,0.0,80.04,92.2,0.0,-12.0,-7.0,
2.003,-11.70419730544279,141.48699981586773,0.0,-0.007633587786259542,0.022900763358778626,188.6246993385011,138.5670735608643,-0.04580152671755725,0.04580152671755725,0.05343511450381679,-45.252834561575234,163.8671875174349,-0.022900763358778626,-0.04580152671755725,0.06870229007633588,179.89021892022524,129.92166096749787,-0.007633587786259542,0.030534351145038167,0.007633587786259542,0.0,0.0,0.0,0.0,0.0,80.13,92.07,0.0,-7.0,-9.0,
2.041,-11.658002064733502,141.54343209295143,0.0,-0.007633587786259542,0.022900763358778626,188.54372918326308,138.5930878880588,-0.04580152671755725,0.04580152671755725,0.05343511450381679,-45.22745876822511,163.8162297046435,-0.022900763358778626,-0.015267175572519083,0.04580152671755725,179.90694563960218,129.933346943733,-0.007633587786259542,0.030534351145038167,0.007633587786259542,0.0,0.0,0.0,0.0,0.0,79.93,92.14,-2.0,-2.0,-21.0,
2.08,-11.902924996717962,141.89271943461188,-0.022900763358778626,0.007633587786259542,-0.015267175572519083,188.47490455131074,138.61520006617414,-0.04580152671755725,0.04580152671755725,0.05343511450381679,-45.20588934387751,163.7729155637708,-0.022900763358778626,-0.015267175572519083,0.04580152671755725,179.92116335107258,129.94328002353288,-0.007633587786259542,0.030534351145038167,0.007633587786259542,0.0,0.0,0.0,0.0,0.0,79.0,91.41,2.0,-5.0,-33.0,
2.1189999999999998,-12.214053442027692,142.07150906224427,-0.07633587786259542,0.0916030534351145,-0.015267175572519083,188.41640361415125,138.63399541757218,-0.04580152671755725,0.04580152671755725,0.05343511450381679,-45.18755533318205,163.736098544029,-0.022900763358778626,-0.015267175572519083,0.04580152671755725,179.9332484058224,129.95172314136278,-0.007633587786259542,0.030534351145038167,0.007633587786259542,0.0,0.0,0.0,0.0,0.0,79.49,91.73,-13.0,19.0,-27.0,
2.158,-12.668684237359319,142.21867882431994,-0.24427480916030533,0.2595419847328244,-0.15267175572519084,188.3666778175657,138.64997146626052,-0.04580152671755725,0.04580152671755725,0.05343511450381679,-45.171971424090906,163.7048040772485,-0.022900763358778626,-0.015267175572519083,0.04580152671755725,179.9435207023598,129.95889979151818,-0.007633587786259542,0.030534351145038167,0.007633587786259542,0.0,0.0,0.0,0.0,0.0,79.16,92.39,-13.0,18.0,-8.0,
2.197,-13.0551204133912,142.34377312208426,-0.24427480916030533,0.2595419847328244,-0.15267175572519084,188.32441089046796,138.66355110764562,-0.04580152671755725,0.04580152671755725,0.05343511450381679,-46.45783144774423,164.0490155967132,0.549618320610687,-0.9083969465648855,-0.5877862595419847,179.95225215441656,129.9649999441503,-0.007633587786259542,0.030534351145038167,0.007633587786259542,0.0,0.0,0.0,0.0,0.0,78.96,92.2,-2.0,7.0,-8.0,
2.2359999999999998,-13.140040612361329,142.4703328371426,-0.5725190839694656,0.6259541984732825,-0.4351145038167939,188.2884840024349,138.67509380282294,-0.04580152671755725,0.04580152671755725,0.05343511450381679,-47.55081246784956,164.34159538825818,0.549618320610687,-0.9083969465648855,-0.5877862595419847,179.9596738886648,129.9701850738876,-0.007633587786259542,0.030534351145038167,0.007633587786259542,0.0,0.0,0.0,0.0,0.0,79.9,93.24,-13.0,34.0,-1.0,
2.275,-11.547810993458196,141.15886066677442,-0.4351145038167939,1.16793893129771,0.015267175572519083,188.2579461476068,138.68490509372367,-0.04580152671755725,0.04580152671755725,0.05343511450381679,-48.47984633493909,164.59028821107142,0.549618320610687,-0.9083969465648855,-0.5877862595419847,179.96598236277583,129.97459243416426,-0.007633587786259542,0.030534351145038167,0.007633587786259542,0.0,0.0,0.0,0.0,0.0,80.92,93.68,-5.0,28.0,13.0,
2.314,-9.847449934250308,139.56313492219658,-0.32061068702290074,1.0381679389312977,0.20610687022900764,188.2319889710029,138.69324469098927,-0.04580152671755725,0.04580152671755725,0.05343511450381679,-49.26952512196519,164.8016771104627,0.549618320610687,-0.9083969465648855,-0.5877862595419847,179.97134456577018,129.97833869039945,-0.007633587786259542,0.030534351145038167,0.007633587786259542,0.0,0.0,0.0,0.0,0.0,81.74,93.14,-4.0,31.0,13.0,
2.354,-7.808039946248186,136.7934966934802,-0.06870229007633588,0.7862595419847328,0.22900763358778625,188.20992537088958,138.70033334866505,-0.04580152671755725,0.04580152671755725,0.05343511450381679,-49.94075209093737,164.98135767494526,0.549618320610687,-0.9083969465648855,-0.5877862595419847,179.9759024383154,129.98152300819936,-0.007633587786259542,0.030534351145038167,0.007633587786259542,0.0,0.0,0.0,0.0,0.0,81.94,92.77,-6.0,23.0,19.0,
2.393,-6.074541456446384,134.43930419907127,-0.06870229007633588,0.7862595419847328,0.22900763358778625,186.16107360593787,134.04692263827437,0.2900763358778626,-1.0763358778625953,0.09923664122137404,-50.51129501456373,165.13408615475544,0.549618320610687,-0.9083969465648855,-0.5877862595419847,179.9797766299788,129.98422967832929,-0.007633587786259542,0.030534351145038167,0.007633587786259542,0.0,0.0,0.0,0.0,0.0,82.12,91.94,-5.0,16.0,13.0,
2.432,-3.272090554378742,131.49153755995917,0.015267175572519083,0.2824427480916031,0.25190839694656486,184.41954960572892,130.0915235344423,0.2900763358778626,-1.0763358778625953,0.09923664122137404,-50.99625649964613,165.2639053625941,0.549618320610687,-0.9083969465648855,-0.5877862595419847,179.9830696928927,129.98653034793972,-0.007633587786259542,0.030534351145038167,0.007633587786259542,0.0,0.0,0.0,0.0,0.0,81.6,91.79,-14.0,36.0,-4.0,
2.471,-0.4437148798659729,129.47763319744672,0.0,-0.12213740458015267,0.25190839694656486,182.9392542055513,126.72943429618503,0.2900763358778626,-1.0763358778625953,0.09923664122137404,-51.40847376196617,165.37425168925697,0.549618320610687,-0.9083969465648855,-0.5877862595419847,179.98586879636954,129.9884859171086,-0.007633587786259542,0.030534351145038167,0.007633587786259542,0.0,0.0,0.0,0.0,0.0,80.93,92.82,-14.0,31.0,-4.0,
2.51,1.9604044434698809,127.76581448931113,0.0,-0.12213740458015267,0.25190839694656486,181.68100311540033,123.87165844366635,0.2900763358778626,-1.0763358778625953,0.09923664122137404,-3.357756882692584,164.49071949137215,-0.022900763358778626,-1.5572519083969465,0.2366412213740458,179.98824803432484,129.99014815090214,-0.007633587786259542,0.030534351145038167,0.007633587786259542,0.0,0.0,0.0,0.0,0.0,81.14,92.76,3.0,23.0,0.0,
2.548,4.003905868305356,126.31076858739587,0.0,-0.12213740458015267,0.25190839694656486,179.1976981685743,120.80090880256803,0.1297709923664122,0.04580152671755725,-0.46564885496183206,37.48535246468997,163.73971712317004,-0.022900763358778626,-1.5572519083969465,0.2366412213740458,179.99027038658684,129.99156104962663,-0.007633587786259542,0.030534351145038167,0.007633587786259542,0.0,0.0,0.0,0.0,0.0,80.82,90.35,-9.0,16.0,1.0,
2.587,5.74088207941551,125.0739795707679,0.0,-0.12213740458015267,0.25190839694656486,177.08688896377217,118.19077160763446,0.1297709923664122,0.04580152671755725,-0.46564885496183206,71.8017469609616,164.12451632672855,0.22900763358778625,-1.1068702290076335,0.35877862595419846,179.99198938600955,129.99276201354246,-0.007633587786259542,0.030534351145038167,0.007633587786259542,0.0,0.0,0.0,0.0,0.0,80.95,89.75,-19.0,22.0,5.0,
2.625,7.217311858859141,124.02270890663414,0.0,-0.12213740458015267,0.25190839694656486,175.29270113969037,115.97215499194093,0.1297709923664122,0.04580152671755725,-0.46564885496183206,100.55210637556047,163.78110112354813,0.3511450381679389,-1.0534351145038168,0.20610687022900764,179.99345053551886,129.99378283287092,-0.007633587786259542,0.030534351145038167,0.007633587786259542,0.0,0.0,0.0,0.0,0.0,82.6,89.32,-8.0,33.0,26.0,
2.663,8.472277171386228,123.12912884212044,0.0,-0.12213740458015267,0.25190839694656486,173.79858456267615,116.64985670569978,0.3969465648854962,0.9923664122137404,-0.6946564885496184,124.98991187796949,163.48919820084475,0.3511450381679389,-1.0534351145038168,0.20610687022900764,179.99469251260177,129.9946505293001,-0.007633587786259542,0.030534351145038167,0.007633587786259542,0.0,0.0,0.0,0.0,0.0,84.21,89.0,5.0,0.0,-12.0,
2.702,9.53899768703425,122.36958578728378,0.0,-0.12213740458015267,0.25190839694656486,180.62623083057335,123.230222396228,1.8549618320610688,0.4732824427480916,0.26717557251908397,145.76204655501718,163.2410807165469,0.3511450381679389,-1.0534351145038168,0.20610687022900764,179.99574819312224,129.9953880712649,-0.007633587786259542,0.030534351145038167,0.007633587786259542,0.0,0.0,0.0,0.0,0.0,86.57,89.83,-7.0,22.0,-23.0,
2.742,10.44571012533507,121.72397419067264,0.0,-0.12213740458015267,0.25190839694656486,186.42973015828596,128.823533233177,1.8549618320610688,0.4732824427480916,0.26717557251908397,157.29139537224694,141.07009803354381,0.03816793893129771,-0.42748091603053434,0.030534351145038167,179.99664552156463,129.996014981935,-0.007633587786259542,0.030534351145038167,0.007633587786259542,0.0,0.0,0.0,0.0,0.0,89.42,90.84,-27.0,30.0,7.0,
2.781,11.216415697890767,121.17520433355315,0.0,-0.12213740458015267,0.25190839694656486,191.3627045868417,133.57784744458363,1.8549618320610688,0.4732824427480916,0.26717557251908397,167.09134186689224,122.22476275299121,0.03816793893129771,-0.42748091603053434,0.030534351145038167,153.00220974660624,117.99765089572767,0.12213740458015267,0.5954198473282443,-0.45038167938931295,0.0,0.0,0.0,0.0,0.0,90.66,90.04,-16.0,30.0,13.0,
2.82,11.87151543456311,120.7087499550016,0.0,-0.12213740458015267,0.25190839694656486,195.55573285111404,137.61901452427927,1.8549618320610688,0.4732824427480916,0.26717557251908397,175.42129638734073,106.2062277645215,0.03816793893129771,-0.42748091603053434,0.030534351145038167,130.0527217806397,119.79826281020925,0.030534351145038167,0.09923664122137404,-0.030534351145038167,0.0,0.0,0.0,0.0,0.0,92.72,89.09,4.0,14.0,-19.0,
2.859,12.428350210734601,120.31226373323277,0.0,-0.12213740458015267,0.25190839694656486,199.11980687574555,141.05400654202055,1.8549618320610688,0.4732824427480916,0.26717557251908397,186.8479360457424,115.56587915260872,0.10687022900763359,-0.0,0.08396946564885496,110.54565700956813,121.3287829375186,0.030534351145038167,0.09923664122137404,-0.030534351145038167,0.0,0.0,0.0,0.0,0.0,93.88,88.97,-35.0,64.0,-7.0,
2.898,12.901659770480368,119.97525044472927,0.0,-0.12213740458015267,0.25190839694656486,202.14926979668235,143.97374975710065,1.8549618320610688,0.4732824427480916,0.26717557251908397,198.1645736973726,123.3431997567636,0.08396946564885496,-0.022900763358778626,-0.3969465648854962,93.9646519541573,122.62972504573155,0.030534351145038167,0.09923664122137404,-0.030534351145038167,0.0,0.0,0.0,0.0,0.0,94.51,88.57,-16.0,65.0,-19.0,
2.938,13.30397289626427,119.68878914950129,0.0,-0.12213740458015267,0.25190839694656486,204.72431327947862,146.45553148991874,1.8549618320610688,0.4732824427480916,0.26717557251908397,207.22666686288488,129.94379599143042,0.03816793893129771,-0.022900763358778626,0.21374045801526717,79.87079765705809,123.73552583771254,0.030534351145038167,0.09923664122137404,-0.030534351145038167,0.0,0.0,0.0,0.0,0.0,95.87,89.01,6.0,13.0,-23.0,
2.977,13.645939053180587,119.4452970485575,0.0,-0.12213740458015267,0.25190839694656486,206.91310023985545,148.5650459628141,1.8549618320610688,0.4732824427480916,0.26717557251908397,213.52120340419413,135.75269135417054,0.015267175572519083,-0.0,0.16793893129770993,67.89102150452376,124.6754565108964,0.030534351145038167,0.09923664122137404,-0.030534351145038167,0.0,0.0,0.0,0.0,0.0,96.69,90.0,-9.0,-16.0,17.0,
3.016,13.936610286559457,119.2383287627553,0.0,-0.12213740458015267,0.25190839694656486,197.34608059333414,141.34590151165466,-0.3435114503816794,-0.2900763358778626,-0.40458015267175573,218.87155946430698,140.69025241249963,0.015267175572519083,-0.0,0.16793893129770993,57.70821177486959,125.47439758310267,0.030534351145038167,0.09923664122137404,-0.030534351145038167,0.0,0.0,0.0,0.0,0.0,97.63,88.87,-1.0,5.0,16.0,
3.055,14.183680834931495,119.06240571982342,0.0,-0.12213740458015267,0.25190839694656486,189.21411389379102,135.20962872816912,-0.3435114503816794,-0.2900763358778626,-0.40458015267175573,223.4193621154029,144.88717931207935,0.015267175572519083,-0.0,0.16793893129770993,49.04899526038872,126.1531081815009,-0.015267175572519083,-0.3511450381679389,0.1450381679389313,0.0,0.0,0.0,0.0,0.0,98.84,87.52,-28.0,14.0,10.0,
3.094,14.393690801047729,118.91287113333132,0.0,-0.12213740458015267,0.25190839694656486,182.30194219917934,129.9937968622064,-0.3435114503816794,-0.2900763358778626,-0.40458015267175573,227.28499436883442,148.45456717672212,0.015267175572519083,-0.0,0.16793893129770993,41.68742839865251,114.73624118406099,0.7175572519083969,-0.4961832061068702,-0.3053435114503817,0.0,0.0,0.0,0.0,0.0,100.09,87.76,-28.0,18.0,-7.0,
3.132,11.254056463311672,121.62070717556097,-0.1450381679389313,-0.04580152671755725,0.015267175572519083,176.42659625875945,125.56033977613811,-0.3435114503816794,-0.2900763358778626,-0.40458015267175573,230.5707817842512,151.48684686166848,0.015267175572519083,-0.0,0.16793893129770993,35.43009656617672,105.03190423623707,0.7175572519083969,-0.4961832061068702,-0.3053435114503817,0.0,0.0,0.0,0.0,0.0,101.0,87.58,-24.0,9.0,-1.0,
3.171,8.585367276236024,123.92236781145616,-0.1450381679389313,-0.04580152671755725,0.015267175572519083,171.4325522094025,121.79190125298005,-0.3435114503816794,-0.2900763358778626,-0.40458015267175573,234.73111031418426,154.10229061529512,0.022900763358778626,-0.07633587786259542,-0.1450381679389313,30.111364508572304,96.78321783058674,0.7175572519083969,-0.4961832061068702,-0.3053435114503817,0.0,0.0,0.0,0.0,0.0,101.92,87.92,-11.0,13.0,-10.0,
3.21,6.316981467221723,125.87877935196707,-0.1450381679389313,-0.04580152671755725,0.015267175572519083,167.18761476744913,118.5887285082957,-0.3435114503816794,-0.2900763358778626,-0.40458015267175573,238.26738956462736,156.32541780587775,0.022900763358778626,-0.07633587786259542,-0.1450381679389313,25.59453004586809,101.76560539186235,-0.015267175572519083,-0.015267175572519083,0.2595419847328244,0.0,0.0,0.0,0.0,0.0,100.84,87.94,-4.0,16.0,-12.0,
3.249,4.388853529559568,127.54172916140135,-0.1450381679389313,-0.04580152671755725,0.015267175572519083,163.57941794178873,115.866031675314,-0.3435114503816794,-0.2900763358778626,-0.40458015267175573,241.10498017605235,157.9920481934086,0.1450381679389313,0.030534351145038167,-0.09923664122137404,21.75522075256951,106.00063481894662,-0.015267175572519083,-0.015267175572519083,0.2595419847328244,0.0,0.0,0.0,0.0,0.0,101.06,87.57,-8.0,28.0,2.0,
3.288,2.380391985764902,129.49071107808004,0.007633587786259542,0.015267175572519083,0.0,160.51245063997743,113.55173936727957,-0.3435114503816794,-0.2900763358778626,-0.40458015267175573,243.5169321957636,159.40868402280984,0.1450381679389313,0.030534351145038167,-0.09923664122137404,18.491807853265716,109.60040983196825,-0.015267175572519083,-0.015267175572519083,0.2595419847328244,0.0,0.0,0.0,0.0,0.0,101.63,87.56,-25.0,28.0,7.0,
3.326,0.6731996735394363,131.1473457072569,0.007633587786259542,0.015267175572519083,0.0,163.66560451363253,116.33336032281264,0.007633587786259542,-0.015267175572519083,-0.007633587786259542,245.56709141251815,160.6128244778009,0.1450381679389313,0.030534351145038167,-0.09923664122137404,15.717906888857494,112.66021859303665,-0.015267175572519083,-0.015267175572519083,0.2595419847328244,0.0,0.0,0.0,0.0,0.0,102.41,86.89,-20.0,42.0,3.0,
3.365,-1.2845062656883948,132.76958607083816,-0.06870229007633588,-0.007633587786259542,-0.04580152671755725,166.34578530623938,118.69773813501574,0.007633587786259542,-0.015267175572519083,-0.007633587786259542,247.30972674675954,161.6363438645433,0.1450381679389313,0.030534351145038167,-0.09923664122137404,13.360091069110505,115.26105603994478,-0.015267175572519083,-0.015267175572519083,0.2595419847328244,0.0,0.0,0.0,0.0,0.0,102.58,86.26,-20.0,51.0,2.0,
3.403,-2.948556314032051,134.14849037988222,-0.06870229007633588,-0.007633587786259542,-0.04580152671755725,168.6239389799552,120.70745927538837,0.007633587786259542,-0.015267175572519083,-0.007633587786259542,248.7909667808647,162.50633534327434,0.1450381679389313,0.030534351145038167,-0.09923664122137404,11.35588273682938,117.4720922972976,0.022900763358778626,-0.022900763358778626,0.04580152671755725,0.0,0.0,0.0,0.0,0.0,103.9,86.02,-19.0,41.0,0.0,
3.442,-4.362998855124159,135.3205590425697,-0.06870229007633588,-0.007633587786259542,-0.04580152671755725,170.56036960261363,122.41572224470512,0.007633587786259542,-0.015267175572519083,-0.007633587786259542,250.0500208098541,163.24582810019572,0.1450381679389313,0.030534351145038167,-0.09923664122137404,9.652240768894243,119.35147311604752,0.022900763358778626,-0.030534351145038167,0.015267175572519083,0.0,0.0,0.0,0.0,0.0,105.12,84.76,-16.0,40.0,-1.0,
3.48,-4.422345809751775,135.39859715109478,-0.10687022900763359,-0.0,-0.15267175572519084,172.20633563187332,123.86774576862436,0.007633587786259542,-0.015267175572519083,-0.007633587786259542,251.12021673449507,163.8743969435789,0.1450381679389313,0.030534351145038167,-0.09923664122137404,8.204145096149377,120.94894681198494,0.022900763358778626,-0.030534351145038167,0.015267175572519083,0.0,0.0,0.0,0.0,0.0,106.82,84.73,-26.0,49.0,-2.0,
3.518,-4.472790721185248,135.46492954334107,-0.10687022900763359,-0.0,-0.15267175572519084,173.60540675674403,125.1019657639557,0.007633587786259542,-0.015267175572519083,-0.007633587786259542,253.10649589157083,164.7750396161467,0.09923664122137404,-0.015267175572519083,-0.11450381679389313,6.97326377431624,122.30679945353175,0.022900763358778626,-0.030534351145038167,0.015267175572519083,0.0,0.0,0.0,0.0,0.0,108.55,84.34,-13.0,44.0,-8.0,
3.556,-4.5156688959037,135.52131207675043,-0.10687022900763359,-0.0,-0.15267175572519084,174.79461721288413,126.15105275998735,0.007633587786259542,-0.015267175572519083,-0.007633587786259542,254.79483317508524,165.54058588782934,0.09923664122137404,-0.015267175572519083,-0.11450381679389313,5.927144421750439,123.46123374083126,0.05343511450381679,-0.015267175572519083,0.015267175572519083,0.0,0.0,0.0,0.0,0.0,110.6,83.53,-9.0,48.0,-14.0,
3.594,-4.552115344414385,135.5692372301484,-0.10687022900763359,-0.0,-0.15267175572519084,175.80544610060323,127.04277670661425,0.007633587786259542,-0.015267175572519083,-0.007633587786259542,256.18668524294054,142.42950625981518,-0.12213740458015267,0.31297709923664124,-0.11450381679389313,5.037942972069509,124.44250288503585,0.05343511450381679,-0.015267175572519083,0.015267175572519083,0.0,0.0,0.0,0.0,0.0,111.45,82.76,3.0,56.0,-25.0,
3.633,-4.583094825648466,135.60997361053666,-0.10687022900763359,-0.0,-0.15267175572519084,176.59166225515446,127.69896202850228,-0.0916030534351145,0.05343511450381679,0.11450381679389313,257.3697595006176,122.78508857600316,-0.12213740458015267,0.31297709923664124,-0.11450381679389313,4.282121739840718,125.27658165760975,0.05343511450381679,-0.015267175572519083,0.015267175572519083,0.0,0.0,0.0,0.0,0.0,112.64,81.9,-4.0,50.0,-16.0,
3.672,-4.4420646590291675,136.16326510480815,0.2824427480916031,-0.0,0.29770992366412213,177.259945986523,128.2567195521071,-0.0916030534351145,0.05343511450381679,0.11450381679389313,258.37537261964303,106.08733354476294,-0.12213740458015267,0.31297709923664124,-0.11450381679389313,3.639673692446245,125.98554861429757,0.05343511450381679,-0.015267175572519083,0.015267175572519083,0.0,0.0,0.0,0.0,0.0,116.04,81.98,-18.0,47.0,-10.0,
3.711,-5.100406663749136,137.2114892729308,0.45038167938931295,0.007633587786259542,0.26717557251908397,177.8279871581863,128.73081344717124,-0.0916030534351145,0.05343511450381679,0.11450381679389313,259.23014377081466,91.89424176820876,-0.12213740458015267,0.31297709923664124,-0.11450381679389313,3.093592852160943,126.5881705274822,0.05343511450381679,-0.015267175572519083,0.015267175572519083,0.0,0.0,0.0,0.0,0.0,116.39,81.07,0.0,40.0,-20.0,
3.75,-5.730069918436311,137.79117390646618,0.45038167938931295,0.06870229007633588,0.48091603053435117,178.31082215410007,129.13379325797575,-0.0916030534351145,0.05343511450381679,0.11450381679389313,259.9566992493106,79.8301137581377,-0.12213740458015267,0.31297709923664124,-0.11450381679389313,2.629424137918436,127.10039915368915,0.05343511450381679,-0.015267175572519083,0.015267175572519083,0.0,0.0,0.0,0.0,0.0,118.8,80.17,-11.0,69.0,-29.0,
3.789,-6.26528368492041,138.28390584497123,0.45038167938931295,0.06870229007633588,0.48091603053435117,178.72123190062678,129.47632609715959,-0.0916030534351145,0.05343511450381679,0.11450381679389313,259.94518716076107,92.92598161904358,-0.5038167938931297,-0.21374045801526717,0.3053435114503817,2.2348807308123053,127.53579348596506,0.05343511450381679,-0.015267175572519083,0.015267175572519083,0.0,0.0,0.0,0.0,0.0,120.6,80.84,-15.0,65.0,-22.0,
3.829,-6.251445412625559,137.8866892388059,0.6183206106870229,0.10687022900763359,0.32061068702290074,179.07008018517448,129.76747901046585,-0.0916030534351145,0.05343511450381679,0.11450381679389313,259.93540188549395,104.05746930081358,-0.5038167938931297,-0.21374045801526717,0.3053435114503817,1.8995188347720944,127.90587866839958,0.05343511450381679,-0.015267175572519083,0.015267175572519083,0.0,0.0,0.0,0.0,0.0,122.58,80.47,-6.0,45.0,-27.0,
3.868,-6.716331049754004,137.81540201800385,0.5725190839694656,0.09923664122137404,0.29770992366412213,179.36660122704004,130.01495898677615,-0.0916030534351145,0.05343511450381679,0.11450381679389313,259.9270844015169,113.51923383031807,-0.5038167938931297,-0.21374045801526717,0.3053435114503817,1.614461223137915,128.22045107346892,0.05343511450381679,-0.015267175572519083,0.015267175572519083,0.0,0.0,0.0,0.0,0.0,125.68,80.75,-8.0,55.0,-34.0,
3.907,-6.972932135097937,137.65746108157046,0.5954198473282443,0.1297709923664122,0.15267175572519084,179.61864411262576,130.22531696663992,-0.0916030534351145,0.05343511450381679,0.11450381679389313,259.9200145401364,121.5617336803969,-0.5038167938931297,-0.21374045801526717,0.3053435114503817,1.3721622532488627,128.48783761777787,0.05343511450381679,-0.015267175572519083,0.015267175572519083,0.0,0.0,0.0,0.0,0.0,128.84,81.88,-16.0,57.0,-26.0,
3.946,-7.191043057640281,137.5232112856021,0.5954198473282443,0.1297709923664122,0.15267175572519084,180.14068337352484,130.8193326127247,-0.10687022900763359,0.17557251908396945,-0.19083969465648856,259.91400515796295,128.3978585529639,-0.5038167938931297,-0.21374045801526717,0.3053435114503817,1.166208128843168,128.71511618044048,0.05343511450381679,-0.015267175572519083,0.015267175572519083,0.0,0.0,0.0,0.0,0.0,131.8,84.53,-3.0,38.0,-4.0,
3.984,-7.376437341801273,137.40909895902897,0.5954198473282443,0.1297709923664122,0.15267175572519084,180.83568438925593,131.69165166060145,-0.11450381679389313,0.183206106870229,-0.1450381679389313,259.9088971831155,134.20856469464584,-0.5038167938931297,-0.21374045801526717,0.3053435114503817,0.9911471230983278,128.90830295870367,0.05343511450381679,-0.015267175572519083,0.015267175572519083,0.0,0.0,0.0,0.0,0.0,135.16,84.95,4.0,8.0,-3.0,
4.023,-7.5340224833381155,137.31210348144182,0.5954198473282443,0.1297709923664122,0.15267175572519084,180.98331926589037,132.02969730909322,-0.16793893129770993,0.17557251908396945,-0.1984732824427481,259.9045554044952,139.1476649150755,-0.5038167938931297,-0.21374045801526717,0.3053435114503817,0.8423452682152136,129.0725117202274,0.05343511450381679,-0.015267175572519083,0.015267175572519083,0.0,0.0,0.0,0.0,0.0,137.14,85.46,8.0,2.0,6.0,
4.061999999999999,-7.667969853644432,137.22965732549275,0.5954198473282443,0.1297709923664122,0.15267175572519084,181.10880891102966,132.31703611031122,-0.16793893129770993,0.17557251908396945,-0.1984732824427481,259.900864892668,143.3459001024407,-0.5038167938931297,-0.21374045801526717,0.3053435114503817,27.716512577378392,117.21221892480294,0.06870229007633588,0.061068702290076333,0.16030534351145037,0.0,0.0,0.0,0.0,0.0,138.75,85.29,1.0,10.0,2.0,
4.101,-7.781825118404801,137.15957809293604,0.5954198473282443,0.1297709923664122,0.15267175572519084,181.21547510939803,132.56127409134652,-0.16793893129770993,0.17557251908396945,-0.1984732824427481,258.7319553458981,146.65488145341942,0.0916030534351145,-0.007633587786259542,-0.061068702290076333,50.5595547901671,107.13097004869215,0.06870229007633588,0.061068702290076333,0.16030534351145037,0.0,0.0,0.0,0.0,0.0,140.19,86.47,5.0,-19.0,2.0,
4.140000000000001,-7.878602093451115,137.10001074526284,0.5954198473282443,0.1297709923664122,0.15267175572519084,182.0325867432706,133.62516137186503,0.17557251908396945,-0.05343511450381679,-0.1984732824427481,257.7383822311437,149.4675156017513,0.0916030534351145,-0.007633587786259542,-0.061068702290076333,69.97614067103748,98.56190850399797,0.06870229007633588,0.061068702290076333,0.16030534351145037,0.0,0.0,0.0,0.0,0.0,140.8,86.18,2.0,-23.0,13.0,
4.179,-7.960862522240482,137.0493784997406,0.5954198473282443,0.1297709923664122,0.15267175572519084,182.22807002365386,133.73198741761132,0.20610687022900764,-0.08396946564885496,-0.22137404580152673,256.89384508360246,151.85825462783342,0.0916030534351145,-0.007633587786259542,-0.061068702290076333,86.48023866977732,91.27820619100792,0.06870229007633588,0.061068702290076333,0.16030534351145037,0.0,0.0,0.0,0.0,0.0,141.29,85.67,0.0,-28.0,2.0,
4.218,-8.030783886711443,137.00634109104672,0.5954198473282443,0.1297709923664122,0.15267175572519084,182.39423081197964,133.82278955649565,0.20610687022900764,-0.08396946564885496,-0.22137404580152673,256.06693852367897,153.93910389271858,0.0916030534351145,0.03816793893129771,-0.0916030534351145,100.50872196870618,85.08705922496638,0.06870229007633588,0.061068702290076333,0.16030534351145037,0.0,0.0,0.0,0.0,0.0,141.16,86.58,7.0,-40.0,4.0,
4.257,-8.09021704651176,136.96975929365692,0.5954198473282443,0.1297709923664122,0.15267175572519084,182.53546748205656,133.89997137454733,0.20610687022900764,-0.08396946564885496,-0.22137404580152673,255.6254590306373,155.5047017569576,0.015267175572519083,0.022900763358778626,-0.1297709923664122,112.43293277279571,79.82458430383107,0.06870229007633588,0.061068702290076333,0.16030534351145037,0.0,0.0,0.0,0.0,0.0,140.62,87.01,7.0,-41.0,11.0,
4.296,-8.140735232342031,136.9386647658756,0.5954198473282443,0.1297709923664122,0.15267175572519084,182.65551865162195,133.96557591989128,0.20610687022900764,-0.08396946564885496,-0.22137404580152673,255.1496063606102,156.79963841143692,0.03816793893129771,0.04580152671755725,-0.11450381679389313,122.5685119562718,75.35148062086606,0.06870229007633588,0.061068702290076333,0.16030534351145037,0.0,0.0,0.0,0.0,0.0,139.69,87.39,7.0,-50.0,14.0,
4.335,-8.183675690297761,136.91223441726146,0.5954198473282443,0.1297709923664122,0.15267175572519084,182.9810307864674,134.188567998437,0.07633587786259542,-0.06870229007633588,-0.11450381679389313,254.74513159108716,157.90033456774432,0.03816793893129771,0.04580152671755725,-0.11450381679389313,131.1837542622265,71.5493424903458,0.06870229007633588,0.061068702290076333,0.16030534351145037,0.0,0.0,0.0,0.0,0.0,138.51,87.73,9.0,-55.0,15.0,
4.374,-8.220175079560132,136.88976862093944,0.5954198473282443,0.1297709923664122,0.15267175572519084,183.25771610108603,134.37811126520089,0.07633587786259542,-0.06870229007633588,-0.11450381679389313,254.07591353488263,158.92169845361133,0.07633587786259542,0.06870229007633588,-0.07633587786259542,138.506710222288,68.31752507940357,0.06870229007633588,0.061068702290076333,0.16030534351145037,0.0,0.0,0.0,0.0,0.0,137.03,88.22,9.0,-55.0,20.0,
4.412,-8.251199560433147,136.87067269406572,0.5954198473282443,0.1297709923664122,0.15267175572519084,183.62969549970256,134.72094871419827,0.0916030534351145,-0.05343511450381679,-0.05343511450381679,253.5070781871088,159.78985775659828,0.07633587786259542,0.06870229007633588,-0.07633587786259542,144.7312227883403,65.57048028010267,0.06870229007633588,0.061068702290076333,0.16030534351145037,0.0,0.0,0.0,0.0,0.0,135.08,88.0,16.0,-68.0,16.0,
4.451,-8.277570369175208,136.85444115622306,0.5954198473282443,0.1297709923664122,0.15267175572519084,183.94587798852663,135.01236054584604,0.0916030534351145,-0.05343511450381679,-0.05343511450381679,253.02356814150102,160.52779316413717,0.07633587786259542,0.06870229007633588,-0.07633587786259542,123.02166912565562,75.23374030601197,-0.13740458015267176,0.015267175572519083,0.0,0.0,0.0,0.0,0.0,0.0,132.62,87.58,15.0,-73.0,11.0,
4.49,-8.29998555660596,136.8406443490568,0.5954198473282443,0.1297709923664122,0.15267175572519084,184.0535710996702,135.01346804362868,0.11450381679389313,-0.07633587786259542,-0.09923664122137404,252.61258460273442,161.15503826054524,0.07633587786259542,0.06870229007633588,-0.07633587786259542,104.56854851237365,83.44751132803486,-0.13740458015267176,0.015267175572519083,0.0,0.0,0.0,0.0,0.0,0.0,130.04,87.4,7.0,-64.0,5.0,
4.529,-8.319038465922102,136.82891706296547,0.5954198473282443,0.1297709923664122,0.15267175572519084,184.3098163841568,135.2285999569011,0.13740458015267176,-0.08396946564885496,-0.07633587786259542,252.26324859478282,161.6881965924921,0.07633587786259542,0.06870229007633588,-0.07633587786259542,88.88339599108397,90.42921669675434,-0.13740458015267176,0.015267175572519083,0.0,0.0,0.0,0.0,0.0,0.0,127.93,87.83,-1.0,-54.0,-1.0,
4.568,-8.025663276983554,137.01417650337606,-0.5572519083969466,-0.04580152671755725,-0.16793893129770993,184.52762487597042,135.41146208318264,0.13740458015267176,-0.08396946564885496,-0.07633587786259542,251.96631298802396,162.1413811746469,0.07633587786259542,0.06870229007633588,-0.07633587786259542,75.55101634798774,96.36366626016589,-0.13740458015267176,0.015267175572519083,0.0,0.0,0.0,0.0,0.0,0.0,125.5,88.43,6.0,-40.0,-3.0,
4.607,-7.7762943663857875,137.17164702772504,-0.5572519083969466,-0.04580152671755725,-0.16793893129770993,184.66739491406673,135.38956230886194,-0.007633587786259542,-0.06870229007633588,-0.06870229007633588,251.71391772227892,162.52658806947852,0.07633587786259542,0.06870229007633588,-0.07633587786259542,64.21849365135596,101.4079483890657,-0.13740458015267176,0.015267175572519083,0.0,0.0,0.0,0.0,0.0,0.0,123.1,88.41,6.0,-40.0,-1.0,
4.646,-7.564330792377685,137.30549697342167,-0.5572519083969466,-0.04580152671755725,-0.16793893129770993,184.73196162614914,135.2629801588997,-0.06870229007633588,-0.07633587786259542,-0.06870229007633588,251.49938174639564,162.8540139300854,0.07633587786259542,0.06870229007633588,-0.07633587786259542,54.58584935921893,105.69558819863055,-0.13740458015267176,0.015267175572519083,0.0,0.0,0.0,0.0,0.0,0.0,121.96,88.64,5.0,-38.0,6.0,
4.685,-7.978278543563984,138.07464647720727,-0.549618320610687,-0.05343511450381679,-0.24427480916030533,184.7868433314192,135.1553853314318,-0.06870229007633588,-0.07633587786259542,-0.06870229007633588,251.31702616689486,163.1323259116012,0.07633587786259542,0.06870229007633588,-0.07633587786259542,46.398101710902466,109.34008203676066,-0.13740458015267176,0.015267175572519083,0.0,0.0,0.0,0.0,0.0,0.0,119.16,89.04,3.0,-39.0,5.0,
4.724,-7.981168618211774,138.61828800698538,-0.5877862595419847,-0.1450381679389313,-0.2366412213740458,184.83349278089872,135.06392972808408,-0.06870229007633588,-0.07633587786259542,-0.06870229007633588,251.1620239243192,163.36889109588967,0.07633587786259542,0.06870229007633588,-0.07633587786259542,39.438516209833466,112.43790179917126,-0.13740458015267176,0.015267175572519083,0.0,0.0,0.0,0.0,0.0,0.0,117.51,89.18,6.0,-21.0,6.0,
4.763,-7.983625181662395,139.08038330729678,-0.5877862595419847,-0.1450381679389313,-0.2366412213740458,184.28600089756844,134.50960623074133,-0.015267175572519083,0.007633587786259542,0.09923664122137404,251.03027201812986,163.56997150253486,0.07633587786259542,0.06870229007633588,-0.07633587786259542,33.522868533924814,115.07104859722027,-0.13740458015267176,0.015267175572519083,0.0,0.0,0.0,0.0,0.0,0.0,115.74,89.44,1.0,-32.0,4.0,
4.802,-6.945394474343262,138.25585554305135,-0.5267175572519084,-0.12213740458015267,-0.0916030534351145,183.8206327967377,134.038431258,-0.015267175572519083,0.007633587786259542,0.09923664122137404,250.91828289786895,163.74088984818326,0.07633587786259542,0.06870229007633588,-0.07633587786259542,28.49456800940246,117.30922337556193,-0.13740458015267176,0.015267175572519083,0.0,0.0,0.0,0.0,0.0,0.0,113.76,89.19,1.0,-30.0,6.0,
4.84,-6.062898373121999,137.55500694344275,-0.5267175572519084,-0.12213740458015267,-0.0916030534351145,183.42506991103156,133.63793253116987,-0.015267175572519083,0.007633587786259542,0.09923664122137404,200.92112032959696,141.11003487993966,0.13740458015267176,-0.07633587786259542,-0.549618320610687,24.220512563558458,119.21167193715233,-0.13740458015267176,0.015267175572519083,0.0,0.0,0.0,0.0,0.0,0.0,111.98,89.05,3.0,-30.0,0.0,
4.879,-5.582596215293805,138.0027839585971,-0.13740458015267176,0.07633587786259542,0.022900763358778626,183.08884145818135,133.29750861336424,-0.015267175572519083,0.007633587786259542,0.09923664122137404,158.42353214656575,121.87380815693261,0.13740458015267176,-0.07633587786259542,-0.549618320610687,20.587565434591056,120.82875321450418,-0.13740458015267176,0.015267175572519083,0.0,0.0,0.0,0.0,0.0,0.0,110.47,89.21,-1.0,-22.0,-4.0,
4.918,-4.838898266856804,136.96129953621215,-0.015267175572519083,0.015267175572519083,0.061068702290076333,182.80304727325867,133.00814828322947,-0.015267175572519083,0.007633587786259542,0.09923664122137404,122.30058219098922,105.52301544237662,0.13740458015267176,-0.07633587786259542,-0.549618320610687,17.499560374968762,122.20327230025325,-0.13740458015267176,0.015267175572519083,0.0,0.0,0.0,0.0,0.0,0.0,109.0,89.45,-2.0,-16.0,-8.0,
4.957,-4.206755010685353,136.07603777718495,-0.015267175572519083,0.015267175572519083,0.061068702290076333,182.5601222160744,132.7621920026149,-0.015267175572519083,0.007633587786259542,0.09923664122137404,91.59607472874917,91.62484163500402,0.13740458015267176,-0.07633587786259542,-0.549618320610687,14.874691188793634,123.37193795062088,-0.09923664122137404,0.007633587786259542,0.007633587786259542,0.0,0.0,0.0,0.0,0.0,107.63,89.88,2.0,-20.0,-8.0,
4.997,-3.6694332429396206,135.32356528201186,-0.015267175572519083,0.015267175572519083,0.061068702290076333,182.35363591746776,132.55312916409252,-0.015267175572519083,0.007633587786259542,0.09923664122137404,116.27487843635308,79.77922605295649,-0.11450381679389313,-0.16793893129770993,1.1145038167938932,12.643552380544772,124.36530375343335,-0.09923664122137404,0.007633587786259542,0.007633587786259542,0.0,0.0,0.0,0.0,0.0,106.67,90.09,0.0,-16.0,-9.0,
5.036,-3.212709740355747,134.68396366111472,-0.015267175572519083,0.015267175572519083,0.061068702290076333,182.17812256365212,132.3754257513485,-0.015267175572519083,0.007633587786259542,0.09923664122137404,137.17442606024187,69.63338783466185,-0.25190839694656486,-0.2366412213740458,0.6412213740458015,10.74708439353324,125.20966468582395,-0.09923664122137404,0.007633587786259542,0.007633587786259542,0.0,0.0,0.0,0.0,0.0,106.03,90.7,0.0,-10.0,-1.0,
5.074,-2.824494763159455,134.14030228335216,-0.015267175572519083,0.015267175572519083,0.061068702290076333,182.02893621290883,132.22437785051608,-0.015267175572519083,0.007633587786259542,0.09923664122137404,154.52775786536543,60.71915700665462,-0.42748091603053434,-0.030534351145038167,0.37404580152671757,9.13508660457344,125.92737147835597,-0.09923664122137404,0.007633587786259542,0.007633587786259542,0.0,0.0,0.0,0.0,0.0,105.45,91.34,-3.0,-15.0,5.0,
5.113,-2.4945120325426067,133.67819011225396,-0.015267175572519083,0.015267175572519083,0.061068702290076333,182.1331658929082,132.34694985944535,0.05343511450381679,0.007633587786259542,0.007633587786259542,169.27808989972047,53.142060802848476,-0.42748091603053434,-0.030534351145038167,0.37404580152671757,7.764888483957608,126.53742225200818,-0.09923664122137404,0.007633587786259542,0.007633587786259542,0.0,0.0,0.0,0.0,0.0,104.83,90.92,-4.0,-3.0,5.0,
5.151,-2.2140267115182857,133.2853947668205,-0.015267175572519083,0.015267175572519083,0.061068702290076333,182.22176112090767,132.4511360670352,0.05343511450381679,0.007633587786259542,0.007633587786259542,181.30427544000622,70.32300270667416,-0.3053435114503817,-0.21374045801526717,0.06870229007633588,6.600220081434151,127.05596540961257,-0.09923664122137404,0.007633587786259542,0.007633587786259542,0.0,0.0,0.0,0.0,0.0,104.4,90.89,-1.0,-10.0,6.0,
5.19,-3.2851230229680515,134.04702758572196,0.19083969465648856,0.061068702290076333,0.11450381679389313,182.29706706470722,132.5396943434866,0.05343511450381679,0.007633587786259542,0.007633587786259542,191.5265331492491,84.92680332492598,-0.3053435114503817,-0.21374045801526717,0.06870229007633588,5.610251939289213,127.4967270935763,-0.09923664122137404,0.007633587786259542,0.007633587786259542,0.0,0.0,0.0,0.0,0.0,103.91,91.23,-8.0,-6.0,17.0,
5.228,-3.909431537603731,134.54359420007458,0.13740458015267176,0.03816793893129771,0.09923664122137404,182.36107711693683,132.61496887847028,0.05343511450381679,0.007633587786259542,0.007633587786259542,200.21545220210555,97.34003385044004,-0.3053435114503817,-0.21374045801526717,0.06870229007633588,4.768779018466016,127.87137452494547,-0.09923664122137404,0.007633587786259542,0.007633587786259542,0.0,0.0,0.0,0.0,0.0,103.89,90.57,-4.0,9.0,5.0,
5.266,-4.962445706893144,135.47973401091747,0.030534351145038167,0.05343511450381679,0.183206106870229,182.415485661332,132.67895223320642,0.05343511450381679,0.007633587786259542,0.007633587786259542,207.60103339703355,107.89127979712698,-0.3053435114503817,-0.21374045801526717,0.06870229007633588,4.053527035766298,128.18982484160927,-0.09923664122137404,0.007633587786259542,0.007633587786259542,0.0,0.0,0.0,0.0,0.0,103.12,90.57,-4.0,6.0,-8.0,
5.304,-5.857507750789143,136.27545285013395,0.030534351145038167,0.05343511450381679,0.183206106870229,182.46173292406792,132.7333380847321,0.05343511450381679,0.007633587786259542,0.007633587786259542,216.30462733330913,116.60517126461316,-0.42748091603053434,-0.061068702290076333,-0.5267175572519084,3.445562850471538,128.4605076107735,-0.09923664122137404,0.007633587786259542,0.007633587786259542,0.0,0.0,0.0,0.0,0.0,102.87,90.51,-5.0,-4.0,3.0,
5.343,-4.624535283138191,134.9740576855846,-0.03816793893129771,0.4122137404580153,0.3053435114503817,182.50104309739342,132.77956605852896,0.05343511450381679,0.007633587786259542,0.007633587786259542,223.70268217914338,124.01197901197641,-0.42748091603053434,-0.061068702290076333,-0.5267175572519084,2.9287932929709912,128.6905879645631,-0.09923664122137404,0.007633587786259542,0.007633587786259542,0.0,0.0,0.0,0.0,0.0,102.82,90.62,-6.0,4.0,-13.0,
5.381,-2.9407602908129995,133.16105600581682,0.04580152671755725,0.06870229007633588,0.09923664122137404,182.5344567447201,132.81885983625628,0.05343511450381679,0.007633587786259542,0.007633587786259542,229.9910287981025,130.30776559723517,-0.42748091603053434,-0.061068702290076333,-0.5267175572519084,2.4895391690955266,128.88615626528423,-0.09923664122137404,0.007633587786259542,0.007633587786259542,0.0,0.0,0.0,0.0,0.0,102.87,91.5,-10.0,-2.0,-2.0,
5.42,-1.5095515473365868,131.6200045780142,0.04580152671755725,0.06870229007633588,0.09923664122137404,182.42050023025774,132.64941284190652,0.10687022900763359,-0.022900763358778626,-0.16030534351145037,235.33612342421773,135.65918419470512,-0.42748091603053434,-0.061068702290076333,-0.5267175572519084,2.116173163801382,129.0523893208972,-0.09923664122137404,0.007633587786259542,0.007633587786259542,0.0,0.0,0.0,0.0,0.0,102.72,90.93,-4.0,-1.0,4.0,
5.458,-2.0474250196704604,132.21210170358697,0.20610687022900764,-0.48854961832061067,-0.183206106870229,182.32363719296478,132.50538289670922,0.10687022900763359,-0.022900763358778626,-0.16030534351145037,239.8794538564157,140.2078900025546,-0.42748091603053434,-0.061068702290076333,-0.5267175572519084,1.798812059301359,129.19368741816822,-0.09923664122137404,0.007633587786259542,0.007633587786259542,0.0,0.0,0.0,0.0,0.0,102.8,90.92,-4.0,2.0,-6.0,
5.497,-2.504617471154253,132.71538426032382,0.20610687022900764,-0.48854961832061067,-0.183206106870229,182.24130361126572,132.38295744329153,0.10687022900763359,-0.022900763358778626,-0.16030534351145037,243.74128472378396,144.07428993922665,-0.42748091603053434,-0.061068702290076333,-0.5267175572519084,1.529768860934355,129.31443965581045,-0.022900763358778626,0.0916030534351145,-0.015267175572519083,0.0,0.0,0.0,0.0,0.0,103.53,91.55,-6.0,0.0,-4.0,
5.536,-2.096410349634128,132.27400921079843,-0.007633587786259542,-0.1450381679389313,-0.16793893129770993,182.17132006682152,132.2788958078865,0.10687022900763359,-0.022900763358778626,-0.16030534351145037,247.023840961047,147.3607298853979,-0.42748091603053434,-0.061068702290076333,-0.5267175572519084,1.3010821423224015,129.41707905780635,-0.022900763358778626,0.0916030534351145,-0.015267175572519083,0.0,0.0,0.0,0.0,0.0,103.51,91.07,-5.0,8.0,-3.0,
5.575,-1.7494342963420215,131.89884041870187,-0.007633587786259542,-0.1450381679389313,-0.16793893129770993,182.11183405404398,132.1904434177922,0.10687022900763359,-0.022900763358778626,-0.16030534351145037,249.81401376272058,150.15420383964343,-0.42748091603053434,-0.061068702290076333,-0.5267175572519084,1.1064388895175081,129.5045172059914,0.0,0.061068702290076333,0.04580152671755725,0.0,0.0,0.0,0.0,0.0,102.93,90.55,-6.0,5.0,-5.0,
5.613,-1.4545046510437312,131.57994694541978,-0.007633587786259542,-0.1450381679389313,-0.16793893129770993,182.06127094318305,132.11525888621208,0.10687022900763359,-0.022900763358778626,-0.16030534351145037,249.25477536805806,152.65504799641863,0.0,-0.06870229007633588,0.5954198473282443,0.9409921246333489,129.57883963194868,0.0,0.061068702290076333,0.04580152671755725,0.0,0.0,0.0,0.0,0.0,102.98,90.55,-6.0,4.0,-6.0,
5.651,-1.2038144525401844,131.30888749313002,-0.007633587786259542,-0.1450381679389313,-0.16793893129770993,182.01829229895128,132.05135203436896,0.10687022900763359,-0.022900763358778626,-0.16030534351145037,250.0710028620806,155.12306688874247,-0.08396946564885496,-0.06870229007633588,-0.09923664122137404,0.8003623744818137,129.64201369401238,0.0,0.061068702290076333,0.04580152671755725,0.0,0.0,0.0,0.0,0.0,103.17,90.51,-9.0,9.0,-4.0,
5.689,-2.133246385832697,132.39459920252554,0.0,-0.007633587786259542,0.04580152671755725,181.98176045135426,131.9970312103023,0.10687022900763359,-0.022900763358778626,-0.16030534351145037,250.76479623199978,157.22088294721775,-0.08396946564885496,-0.06870229007633588,-0.09923664122137404,0.6808270868530087,129.6957116467665,0.0,0.061068702290076333,0.04580152671755725,0.0,0.0,0.0,0.0,0.0,102.94,90.34,-6.0,2.0,-3.0,
5.728,-2.845998945374043,133.16806599759994,-0.007633587786259542,-0.0,0.07633587786259542,181.9507083808968,131.95085850984566,0.10687022900763359,-0.022900763358778626,-0.16030534351145037,251.35452059643106,159.0040265969217,-0.08396946564885496,-0.06870229007633588,-0.09923664122137404,0.5792220923685245,129.7413549066075,0.0,0.061068702290076333,0.04580152671755725,0.0,0.0,0.0,0.0,0.0,102.48,90.71,-3.0,-8.0,2.0,
5.766,-3.451838620984187,133.82551277341318,-0.007633587786259542,-0.0,0.07633587786259542,182.52026227369504,132.5014357327568,-0.0916030534351145,-0.022900763358778626,0.10687022900763359,251.85578630619764,160.51969869917008,-0.08396946564885496,-0.06870229007633588,-0.09923664122137404,0.4928578470567129,129.78015167747236,0.0,0.061068702290076333,0.04580152671755725,0.0,0.0,0.0,0.0,0.0,102.08,90.58,-2.0,-7.0,4.0,
5.805,-3.966802345252809,134.38434253285442,-0.007633587786259542,-0.0,0.07633587786259542,183.00438308257355,132.96942637223125,-0.0916030534351145,-0.022900763358778626,0.10687022900763359,252.28186215949924,161.8080199860812,-0.08396946564885496,-0.06870229007633588,-0.09923664122137404,0.418799383579841,129.81371290217317,0.06870229007633588,-0.015267175572519083,0.03816793893129771,0.0,0.0,0.0,0.0,0.0,102.0,90.3,-5.0,4.0,0.0,
5.844,-4.404521510881138,134.85934782837947,-0.007633587786259542,-0.0,0.07633587786259542,183.0119073099229,133.08769839975588,-0.015267175572519083,0.015267175572519083,0.06870229007633588,252.6440266348056,162.90309307995565,-0.08396946564885496,-0.06870229007633588,-0.09923664122137404,0.3558496896244998,129.84223994316883,0.06870229007633588,-0.015267175572519083,0.03816793893129771,0.0,0.0,0.0,0.0,0.0,102.0,90.22,-7.0,1.0,1.0,
5.882,-4.984523051428468,135.45743263647367,0.08396946564885496,0.022900763358778626,0.061068702290076333,183.01830290316983,133.1882296231518,-0.015267175572519083,0.015267175572519083,0.06870229007633588,252.951866438816,163.83390520974893,-0.08396946564885496,-0.06870229007633588,-0.09923664122137404,0.30234244976245983,129.86648792801515,0.06870229007633588,-0.015267175572519083,0.03816793893129771,0.0,0.0,0.0,0.0,0.0,101.87,90.07,-5.0,2.0,1.0,
5.921,-5.508487636745972,135.87701493479884,0.03816793893129771,0.030534351145038167,0.09923664122137404,183.0237391574297,133.27368116303836,-0.015267175572519083,0.015267175572519083,0.06870229007633588,253.21353027222486,164.62509552007322,-0.08396946564885496,-0.06870229007633588,-0.09923664122137404,0.25686129587972584,129.88709871513453,0.06870229007633588,-0.015267175572519083,0.03816793893129771,0.0,0.0,0.0,0.0,0.0,101.77,90.21,-7.0,5.0,1.0,
5.959,-5.977341114359629,136.16029182262528,0.0,0.022900763358778626,0.07633587786259542,183.0283599735506,133.34631497194192,-0.015267175572519083,0.015267175572519083,0.06870229007633588,253.43594453062238,165.29760728384886,-0.08396946564885496,-0.06870229007633588,-0.09923664122137404,0.2182023150794019,129.904617884186,0.06870229007633588,-0.015267175572519083,0.03816793893129771,0.0,0.0,0.0,0.0,0.0,101.84,90.19,-8.0,4.0,1.0,
5.997,-6.296078950414405,136.40693286087858,0.0,0.007633587786259542,-0.007633587786259542,183.03228766725337,133.40805370950994,-0.015267175572519083,0.015267175572519083,0.06870229007633588,253.62499665026027,165.86924228305816,-0.08396946564885496,-0.06870229007633588,-0.09923664122137404,0.1853421813991266,129.91950917787975,0.06870229007633588,-0.015267175572519083,0.03816793893129771,0.0,0.0,0.0,0.0,0.0,101.98,90.16,-5.0,1.0,2.0,
6.035,-6.426343796248371,136.50207561840503,-0.04580152671755725,0.007633587786259542,-0.022900763358778626,183.03562620690073,133.46053163644274,-0.015267175572519083,0.015267175572519083,0.06870229007633588,253.7856909519525,166.35513203238608,-0.08396946564885496,-0.06870229007633588,-0.09923664122137404,0.15741106777089256,129.93216677751943,0.06870229007633588,-0.015267175572519083,0.03816793893129771,0.0,0.0,0.0,0.0,0.0,102.21,90.02,-3.0,-2.0,2.0,
6.073,-6.537068915207244,136.58294696230251,-0.04580152671755725,0.007633587786259542,-0.022900763358778626,183.03846396560098,133.50513787433562,-0.015267175572519083,0.015267175572519083,0.06870229007633588,254.14836030187004,166.5162140053539,0.022900763358778626,-0.0,-0.09923664122137404,0.13366962118689363,129.94292573721316,0.06870229007633588,-0.015267175572519083,0.03816793893129771,0.0,0.0,0.0,0.0,0.0,102.24,89.82,-2.0,4.0,-1.0,
6.112,-6.559142630187354,136.68840735126088,-0.03816793893129771,-0.015267175572519083,-0.030534351145038167,183.0408760604962,133.54305317654456,-0.015267175572519083,0.015267175572519083,0.06870229007633588,254.45662924929997,166.65313368237656,0.022900763358778626,-0.0,-0.09923664122137404,0.11348939159049455,129.95207085295283,0.06870229007633588,-0.015267175572519083,0.03816793893129771,0.0,0.0,0.0,0.0,0.0,102.26,89.64,-5.0,2.0,-2.0,
6.15,-6.844898357258847,137.10435696795332,-0.015267175572519083,-0.015267175572519083,-0.030534351145038167,183.04292634115714,133.5752811834222,-0.015267175572519083,0.015267175572519083,0.06870229007633588,254.7186578546154,166.76951540784583,0.022900763358778626,-0.0,-0.09923664122137404,0.09633619643355533,129.95984420133155,0.06870229007633588,-0.015267175572519083,0.03816793893129771,0.0,0.0,0.0,0.0,0.0,102.2,89.65,-7.0,0.0,0.0,
6.188,-6.922552497039849,137.29451345581822,-0.03816793893129771,-0.0,0.0,183.04466907971894,133.60267498926817,-0.015267175572519083,0.015267175572519083,0.06870229007633588,254.9413821691335,166.8684398744947,0.022900763358778626,-0.0,-0.09923664122137404,0.081755980550157,129.96645154745346,0.06870229007633588,-0.015267175572519083,0.03816793893129771,0.0,0.0,0.0,0.0,0.0,102.18,89.67,-6.0,0.0,-1.0,
6.226,-6.910585650977364,137.33121832967447,-0.022900763358778626,-0.0,0.0,183.04615040749647,133.62595972423725,-0.015267175572519083,0.015267175572519083,0.06870229007633588,255.1306978364739,166.95252567114622,0.022900763358778626,-0.0,-0.09923664122137404,0.06936279704926841,129.97206779165708,0.06870229007633588,-0.015267175572519083,0.03816793893129771,0.0,0.0,0.0,0.0,0.0,102.2,89.56,-7.0,5.0,0.0,
6.264,-6.961633772684658,137.39079524270983,-0.007633587786259542,-0.0,0.0,183.04740953610735,133.64575174896095,-0.015267175572519083,0.015267175572519083,0.06870229007633588,255.29161615371322,167.0239985983,0.022900763358778626,-0.0,-0.09923664122137404,0.05882859107351312,129.97684159923017,0.06870229007633588,-0.015267175572519083,0.03816793893129771,0.0,0.0,0.0,0.0,0.0,102.23,89.37,-8.0,6.0,0.0,
6.302,-7.005024676135859,137.44143561878988,-0.007633587786259542,-0.0,0.0,183.0484797954266,133.6625749699761,-0.015267175572519083,0.015267175572519083,0.06870229007633588,255.42839672336666,167.08475058638075,0.022900763358778626,-0.0,-0.09923664122137404,0.04993940149030433,129.98063979368254,0.03816793893129771,-0.007633587786259542,0.04580152671755725,0.0,0.0,0.0,0.0,0.0,102.26,89.25,-9.0,8.0,0.0,
6.34,-7.120354813954524,137.53533579115745,-0.007633587786259542,-0.0,0.015267175572519083,183.04938951584796,133.67687470783898,-0.015267175572519083,0.015267175572519083,0.06870229007633588,255.54466020757206,167.1363897762494,0.022900763358778626,-0.0,-0.09923664122137404,0.042383590344576866,129.98386825896705,0.03816793893129771,-0.007633587786259542,0.04580152671755725,0.0,0.0,0.0,0.0,0.0,102.46,89.34,-11.0,9.0,0.0,
6.379,-7.2183854311003905,137.6151509376699,-0.007633587786259542,-0.0,0.015267175572519083,183.05016277820613,133.68902948502244,-0.015267175572519083,0.015267175572519083,0.06870229007633588,255.48697620553475,167.22047595046584,0.015267175572519083,-0.007633587786259542,0.022900763358778626,0.035961150870708516,129.9866124544589,0.03816793893129771,-0.007633587786259542,0.04580152671755725,0.0,0.0,0.0,0.0,0.0,102.64,89.12,-9.0,7.0,0.0,
6.416,-7.308830448858152,137.7460762885523,-0.007633587786259542,-0.0,-0.015267175572519083,183.05082005121056,133.6993610456284,-0.015267175572519083,0.015267175572519083,0.06870229007633588,255.43794480380302,167.29194919854984,0.015267175572519083,-0.007633587786259542,0.022900763358778626,0.030502077317920418,129.98894502062697,0.03816793893129771,-0.007633587786259542,0.04580152671755725,0.0,0.0,0.0,0.0,0.0,102.73,89.05,-6.0,8.0,-1.0,
6.454,-7.3857087139522495,137.85736283680234,-0.007633587786259542,-0.0,-0.015267175572519083,182.94498995249268,133.54518706425654,0.015267175572519083,0.007633587786259542,0.0,255.39626811233106,167.35270145942124,0.015267175572519083,-0.007633587786259542,0.022900763358778626,0.025861864798050537,129.99092770186985,0.03816793893129771,-0.007633587786259542,0.04580152671755725,0.0,0.0,0.0,0.0,0.0,102.92,88.94,-8.0,9.0,-1.0,
6.492,-7.383469929255822,137.87210901175905,-0.015267175572519083,-0.0,0.0,182.85503436858247,133.41413918009047,0.015267175572519083,0.007633587786259542,0.0,255.36084292457988,167.40434088116191,0.015267175572519083,-0.007633587786259542,0.022900763358778626,0.02191768415616114,129.99261298092628,0.03816793893129771,-0.007633587786259542,0.04580152671755725,0.0,0.0,0.0,0.0,0.0,103.45,88.64,-10.0,10.0,-1.0,
6.53,-7.439450176011796,137.98557723348088,0.0,-0.0,0.0,182.7785721222588,133.30274847854932,0.015267175572519083,0.007633587786259542,0.0,255.33073151499138,167.4482343896415,0.015267175572519083,-0.007633587786259542,0.022900763358778626,0.01856513061055515,129.99404546812423,0.03816793893129771,-0.007633587786259542,0.04580152671755725,0.0,0.0,0.0,0.0,0.0,103.61,88.46,-5.0,3.0,-1.0,
6.568,-7.3710112543702895,137.96350419483215,0.0,0.007633587786259542,0.0,182.71357921288367,133.20806638223934,0.015267175572519083,0.007633587786259542,0.0,255.30513681684116,167.48554387184916,0.015267175572519083,-0.007633587786259542,0.022900763358778626,0.015715460096790063,129.9952630822425,0.03816793893129771,-0.007633587786259542,0.04580152671755725,0.0,0.0,0.0,0.0,0.0,103.81,88.44,-3.0,0.0,-1.0,
6.606,-7.312838170975009,137.94474211198073,0.0,0.007633587786259542,0.0,182.65833523991483,133.12758660037585,0.015267175572519083,0.007633587786259542,0.0,255.28338132341347,167.51725693172565,0.015267175572519083,-0.007633587786259542,0.022900763358778626,0.01335812565627294,129.99603851225828,0.007633587786259542,-0.0,0.03816793893129771,0.0,0.0,0.0,0.0,0.0,104.09,88.32,-8.0,7.0,0.0,
6.643,-7.263391050089021,137.92879434155702,0.0,0.007633587786259542,0.0,182.61137786289132,133.0591787857919,0.015267175572519083,0.007633587786259542,0.0,255.26488915399995,167.5442130326207,0.015267175572519083,-0.007633587786259542,0.022900763358778626,0.011354391381833388,129.9966976277717,0.007633587786259542,-0.0,0.04580152671755725,0.0,0.0,0.0,0.0,0.0,104.39,88.12,-7.0,6.0,0.0,
6.681,-7.2746665244599535,137.9329555617929,0.0,-0.007633587786259542,0.007633587786259542,182.5714640924213,133.00103214339552,0.015267175572519083,0.007633587786259542,0.0,255.24917080999845,167.56712571838145,0.015267175572519083,-0.007633587786259542,0.022900763358778626,0.009651217248559767,129.99725787595813,0.007633587786259542,-0.0,0.04580152671755725,0.0,0.0,0.0,0.0,0.0,104.61,87.99,-4.0,0.0,1.0,
6.718,-7.423049170708075,138.08292382439194,0.0,-0.007633587786259542,-0.015267175572519083,182.5375373875218,132.95160749735862,0.015267175572519083,0.007633587786259542,0.0,255.23581021759716,167.5866015012781,0.015267175572519083,-0.007633587786259542,0.022900763358778626,0.00820351923527719,129.99773408691658,0.007633587786259542,-0.0,0.04580152671755725,0.0,0.0,0.0,0.0,0.0,104.81,88.02,-4.0,0.0,2.0,
6.756,-7.491483535123125,138.209924955267,0.0,-0.0,-0.022900763358778626,182.50869968835724,132.90959654822726,0.015267175572519083,0.007633587786259542,0.0,255.22445371405607,167.60315591674026,0.015267175572519083,-0.007633587786259542,0.022900763358778626,0.006972975923986999,129.99813886623127,0.007633587786259542,-0.0,0.04580152671755725,0.0,0.0,0.0,0.0,0.0,104.92,87.9,-3.0,0.0,1.0,
6.794,-7.448238387349914,138.2074328084321,0.0,-0.0,-0.007633587786259542,182.48418764406736,132.87388724146558,0.015267175572519083,0.007633587786259542,0.0,255.21480068604615,167.6172271698831,0.015267175572519083,-0.007633587786259542,0.022900763358778626,0.005927014109390337,129.99848292864874,0.007633587786259542,-0.0,0.04580152671755725,0.0,0.0,0.0,0.0,0.0,105.09,87.81,-3.0,0.0,2.0,
6.832,-7.411480011742684,138.2053144836224,0.0,-0.0,-0.007633587786259542,182.46335240642097,132.84353433071817,0.015267175572519083,0.007633587786259542,0.0,255.41619097186555,167.67089075976926,-0.007633587786259542,-0.0,0.0,0.005037946566983174,129.99877538170358,0.007633587786259542,-0.0,0.04580152671755725,0.0,0.0,0.0,0.0,0.0,104.95,87.87,-6.0,0.0,4.0,
6.87,-7.458189600237535,138.31120790030948,-0.007633587786259542,-0.0,0.015267175572519083,182.44564245442152,132.81773435658286,0.015267175572519083,0.007633587786259542,0.0,255.58737271481203,167.7165048111725,-0.007633587786259542,-0.0,0.0,0.0042822391559370855,129.99902396680022,0.007633587786259542,-0.0,0.04580152671755725,0.0,0.0,0.0,0.0,0.0,104.76,87.71,-2.0,-4.0,3.0,
6.908,-7.5455896765837585,138.4263295500677,0.0,-0.0,0.030534351145038167,182.430588995222,132.79580437856785,0.015267175572519083,0.007633587786259542,0.0,255.73287719631657,167.75527675486526,-0.007633587786259542,-0.0,0.0,0.003639887856547911,129.99923526413235,0.007633587786259542,-0.0,0.04580152671755725,0.0,0.0,0.0,0.0,0.0,104.54,87.88,-16.0,18.0,13.0,
6.946,-7.642462594461467,138.56488086104423,0.0,0.015267175572519083,0.015267175572519083,182.4177935549024,132.7771638972551,0.015267175572519083,0.007633587786259542,0.0,255.85655600559542,167.7882329070041,-0.007633587786259542,-0.0,0.0,0.0030938892520671122,129.99941486686467,0.007633587786259542,-0.0,0.04580152671755725,0.0,0.0,0.0,0.0,0.0,104.17,87.51,-16.0,31.0,18.0,
6.984,-7.813444270960283,138.7755073940084,0.0,0.022900763358778626,0.030534351145038167,182.40691743063073,132.76131948813924,0.015267175572519083,0.007633587786259542,0.0,255.96168299348244,167.81624563632212,-0.007633587786259542,-0.0,0.0,0.002629790438258434,129.99956752918712,0.007633587786259542,-0.0,0.04580152671755725,0.0,0.0,0.0,0.0,0.0,105.02,87.15,-19.0,17.0,6.0,
7.022,-7.958778695984277,138.95453994702794,0.0,0.022900763358778626,0.030534351145038167,182.3976727249998,132.74785174039076,0.015267175572519083,0.007633587786259542,0.0,255.72476282180259,168.0099346542828,-0.05343511450381679,0.007633587786259542,0.022900763358778626,0.002235306446521057,129.99969729216122,0.007633587786259542,-0.0,0.04580152671755725,0.0,0.0,0.0,0.0,0.0,105.19,86.8,-24.0,41.0,3.0,
7.059,-8.082312957254672,139.10671761709455,0.0,0.022900763358778626,0.030534351145038167,182.38981472521354,132.73640415480457,0.015267175572519083,0.007633587786259542,0.0,255.56132593100688,168.20557106695648,-0.06870229007633588,0.015267175572519083,0.0,0.0018999950535442867,129.99980759068922,0.007633587786259542,-0.0,0.04580152671755725,0.0,0.0,0.0,0.0,0.0,105.39,86.34,-19.0,43.0,-10.0,
7.098,-8.187317079334509,139.23606863665117,0.0,0.022900763358778626,0.030534351145038167,182.69788746247298,133.06117430935848,0.09923664122137404,-0.030534351145038167,-0.007633587786259542,255.4224045738305,168.3718620177291,-0.06870229007633588,0.015267175572519083,0.0,0.0016149803695140318,129.999901344438,0.007633587786259542,-0.0,0.04580152671755725,0.0,0.0,0.0,0.0,0.0,105.15,86.58,-17.0,48.0,-10.0,
7.136,-8.27657058310237,139.34601700327428,0.0,0.022900763358778626,0.030534351145038167,182.64705496706512,132.96930059759808,0.04580152671755725,-0.05343511450381679,0.0,255.3043214202306,168.5132093258858,-0.06870229007633588,0.015267175572519083,0.0,0.0013727178880883152,129.99998103512445,0.007633587786259542,-0.0,0.04580152671755725,0.0,0.0,0.0,0.0,0.0,105.37,86.81,-18.0,53.0,-3.0,
7.174,-8.35243606130505,139.43947311490393,0.0,0.022900763358778626,0.030534351145038167,182.60384734596843,132.89120794260174,0.04580152671755725,-0.05343511450381679,0.0,255.4037557994227,168.12798111012353,-0.04580152671755725,0.061068702290076333,0.0,0.0011667947788764562,130.00004877220795,0.007633587786259542,-0.0,0.04580152671755725,0.0,0.0,0.0,0.0,0.0,105.66,86.82,-25.0,59.0,-2.0,
7.213,-7.609196610974787,138.52451459248613,-0.007633587786259542,0.015267175572519083,0.015267175572519083,182.56712086803626,132.82482918585487,0.04580152671755725,-0.05343511450381679,0.0,255.48827502173597,167.8005371267256,-0.04580152671755725,0.061068702290076333,0.0,0.0009917601360463762,130.00010634872893,0.007633587786259542,-0.0,0.04580152671755725,0.0,0.0,0.0,0.0,0.0,106.32,86.58,-20.0,81.0,-13.0,
7.251,-7.029612139657143,137.87160351401656,0.007633587786259542,-0.030534351145038167,-0.061068702290076333,182.5359033617939,132.76840724262001,0.04580152671755725,-0.05343511450381679,0.0,255.56011636070227,167.52220974083735,-0.04580152671755725,0.061068702290076333,0.0,0.0008429806896408079,130.00015528877177,0.007633587786259542,-0.0,0.04580152671755725,0.0,0.0,0.0,0.0,0.0,108.59,86.94,-31.0,85.0,-2.0,
7.289,-6.281179345457369,137.05524895272777,0.015267175572519083,-0.061068702290076333,-0.09923664122137404,182.5093684814879,132.7204485908704,0.04580152671755725,-0.05343511450381679,0.0,255.62118149882363,167.28563146283236,-0.04580152671755725,0.061068702290076333,0.0,0.0007165181601960749,130.00019688780816,0.007633587786259542,-0.0,0.04580152671755725,0.0,0.0,0.0,0.0,0.0,112.11,86.44,-32.0,83.0,-4.0,
7.327,-5.51974427639395,136.27145480704428,0.030534351145038167,-0.16030534351145037,-0.11450381679389313,182.4868138332278,132.67968373688322,0.04580152671755725,-0.05343511450381679,0.0,255.67308686622678,167.0845399265281,-0.04580152671755725,0.061068702290076333,0.0,0.0006090250101680519,130.0002322469891,0.007633587786259542,-0.0,0.04580152671755725,0.0,0.0,0.0,0.0,0.0,115.27,84.8,-17.0,61.0,33.0,
7.365,-4.261696456113537,134.7512078657938,0.007633587786259542,-0.35877862595419846,-0.24427480916030533,182.46764238220675,132.64503361099412,0.04580152671755725,-0.05343511450381679,0.0,255.71720642851946,166.91361212066948,-0.04580152671755725,0.061068702290076333,0.0,0.0005176558326442322,130.0002623022929,0.007633587786259542,-0.0,0.04580152671755725,0.0,0.0,0.0,0.0,0.0,117.03,82.84,0.0,28.0,6.0,
7.404,-3.1923558088751864,133.45899796573087,0.007633587786259542,-0.35877862595419846,-0.24427480916030533,182.45134664883884,132.61558100398838,0.04580152671755725,-0.05343511450381679,0.0,257.14523320901174,166.7566196677662,0.19083969465648856,-0.16030534351145037,0.25190839694656486,0.00043999203174898555,130.00028784930112,0.007633587786259542,-0.0,0.04580152671755725,0.0,0.0,0.0,0.0,0.0,120.31,80.55,-5.0,58.0,-10.0,
7.441,-2.283416258722588,132.36061955067737,0.007633587786259542,-0.35877862595419846,-0.24427480916030533,181.75860968319233,131.3012501941518,0.3435114503816794,0.5572519083969466,0.3511450381679389,258.35905597243016,166.62317608279838,0.19083969465648856,-0.16030534351145037,0.25190839694656486,0.00037397780098802585,130.00030956425812,0.007633587786259542,-0.0,0.04580152671755725,0.0,0.0,0.0,0.0,0.0,124.13,79.78,-6.0,43.0,-3.0,
7.479,-1.5108176410928797,131.4269978978819,0.007633587786259542,-0.35877862595419846,-0.24427480916030533,181.1697832623928,130.18406900579072,0.3435114503816794,0.5572519083969466,0.3511450381679389,256.50705003624927,166.81910119502933,0.3053435114503817,-0.3511450381679389,0.2366412213740458,0.0003178657048412101,130.00032802197157,0.007633587786259542,-0.0,0.04580152671755725,0.0,0.0,0.0,0.0,0.0,126.92,78.45,11.0,-8.0,11.0,
7.518,-0.8541088161076276,130.63341949300576,0.007633587786259542,-0.35877862595419846,-0.24427480916030533,182.7226001836607,132.1607660364619,0.4198473282442748,0.9618320610687023,0.16793893129770993,254.9328449904955,166.98563754042564,0.3053435114503817,-0.3511450381679389,0.2366412213740458,0.00027017042311641676,130.000343711028,0.007633587786259542,-0.0,0.04580152671755725,0.0,0.0,0.0,0.0,0.0,128.05,77.27,13.0,-23.0,10.0,
7.557,-0.29590631487016333,129.95887784886105,0.007633587786259542,-0.35877862595419846,-0.24427480916030533,186.43059607936496,135.1675468861146,0.3893129770992366,1.1908396946564885,-0.2824427480916031,253.59477070160483,167.1271934340125,0.3053435114503817,-0.3511450381679389,0.2366412213740458,0.00022962943365034243,130.00035704672598,0.007633587786259542,-0.0,0.04580152671755725,0.0,0.0,0.0,0.0,0.0,129.08,76.7,4.0,-20.0,8.0,
7.596,-3.8913357678910785,134.59765112936776,0.25190839694656486,-1.251908396946565,-0.42748091603053434,189.58239259071357,137.7233106083194,0.3893129770992366,1.1908396946564885,-0.2824427480916031,252.45740755604774,167.24751594356133,0.3053435114503817,-0.3511450381679389,0.2366412213740458,0.00019516959260417924,130.00036838206927,0.007633587786259542,-0.0,0.04580152671755725,0.0,0.0,0.0,0.0,0.0,129.37,76.21,10.0,-46.0,1.0,
7.635,-8.430723588577493,137.92487380412746,0.07633587786259542,-1.2748091603053435,0.3969465648854962,192.2614196253599,139.89570977219347,0.3893129770992366,1.1908396946564885,-0.2824427480916031,251.49064888232422,167.34979007667783,0.3053435114503817,-0.3511450381679389,0.2366412213740458,0.00016587872771494055,130.00037801711105,0.007633587786259542,-0.0,0.04580152671755725,0.0,0.0,0.0,0.0,0.0,128.76,76.88,15.0,-57.0,0.0,
7.674,-12.289203236160946,140.7530130776732,0.07633587786259542,-1.2748091603053435,0.3969465648854962,194.02137954840546,142.5254505466136,0.2748091603053435,1.213740458015267,-0.22900763358778625,250.66890400965923,167.43672308982684,0.3053435114503817,-0.3511450381679389,0.2366412213740458,0.00014098149255908766,130.00038620689656,0.007633587786259542,-0.0,0.04580152671755725,0.0,0.0,0.0,0.0,0.0,127.41,77.82,16.0,-69.0,1.0,
7.714,-15.56891093660688,143.15693146018708,0.07633587786259542,-1.2748091603053435,0.3969465648854962,195.5173454829942,144.76073020487073,0.2748091603053435,1.213740458015267,-0.22900763358778625,249.85637119293733,143.96969794727178,-0.06870229007633588,-0.007633587786259542,-0.2366412213740458,0.00011981884267661269,130.00039316821426,0.007633587786259542,-0.0,0.04580152671755725,0.0,0.0,0.0,0.0,0.0,126.12,78.62,14.0,-74.0,1.0,
7.753,-18.356662481985925,145.20026208532389,0.07633587786259542,-1.2748091603053435,0.3969465648854962,196.7889165273946,146.66071791438927,0.2748091603053435,1.213740458015267,-0.22900763358778625,249.16571829872373,124.02272657609998,-0.06870229007633588,-0.007633587786259542,-0.2366412213740458,-0.0010661083410212007,129.99936091739536,-0.11450381679389313,-0.13740458015267176,-0.06870229007633588,0.0,0.0,0.0,0.0,0.0,124.34,78.97,22.0,-82.0,0.0,
7.792,-20.726251295558114,146.93709311669016,0.07633587786259542,-1.2748091603053435,0.3969465648854962,197.86975191513497,148.27570746748003,0.2748091603053435,1.213740458015267,-0.22900763358778625,248.5693686486436,106.98180317499337,-0.12213740458015267,0.25190839694656486,-0.07633587786259542,-0.0020741464471643422,129.9984835041993,-0.11450381679389313,-0.13740458015267176,-0.06870229007633588,0.0,0.0,0.0,0.0,0.0,122.6,79.51,29.0,-91.0,-10.0,
7.832,-25.924274667009257,148.98688973291058,0.48854961832061067,-1.4045801526717556,0.6335877862595419,198.78846199471428,149.6484485876072,0.2748091603053435,1.213740458015267,-0.22900763358778625,248.0624714460755,92.49701828405276,-0.12213740458015267,0.25190839694656486,-0.07633587786259542,-0.002930978837386013,129.99773770298265,-0.11450381679389313,-0.13740458015267176,-0.06870229007633588,0.0,0.0,0.0,0.0,0.0,120.38,80.23,20.0,-81.0,-11.0,
7.872,-31.39299451131035,151.04463898739237,0.648854961832061,-1.4732824427480915,0.3511450381679389,199.5693655623567,150.81527853971528,0.2748091603053435,1.213740458015267,-0.22900763358778625,247.63160882389263,80.18495112675323,-0.12213740458015267,0.25190839694656486,-0.07633587786259542,-0.0036592863690744323,129.9971037719485,-0.11450381679389313,-0.13740458015267176,-0.06870229007633588,0.0,0.0,0.0,0.0,0.0,118.21,81.08,17.0,-72.0,-13.0,
7.91,-36.39083262942704,153.1127567028654,0.6641221374045801,-1.4961832061068703,0.1984732824427481,200.23313359485275,151.80708399900715,0.2748091603053435,1.213740458015267,-0.22900763358778625,247.2653755950372,69.71969404304865,-0.12213740458015267,0.25190839694656486,-0.07633587786259542,-0.0042783477710095896,129.99656493056946,-0.11450381679389313,-0.13740458015267176,-0.06870229007633588,0.0,0.0,0.0,0.0,0.0,116.77,82.37,22.0,-68.0,-11.0,
7.95,-40.99657453626514,155.3365096630489,0.732824427480916,-1.4580152671755726,0.07633587786259542,200.7973364224744,152.65011863940524,0.2748091603053435,1.213740458015267,-0.22900763358778625,246.9540773505101,60.824225521899734,-0.12213740458015267,0.25190839694656486,-0.07633587786259542,-0.004804549962654473,129.99610691539726,-0.11450381679389313,-0.13740458015267176,-0.06870229007633588,0.0,0.0,0.0,0.0,0.0,115.32,83.48,24.0,-76.0,-9.0,
7.99,-44.911455157077526,157.22669967920487,0.732824427480916,-1.4580152671755726,0.07633587786259542,201.27690882595277,153.36669808374361,0.2748091603053435,1.213740458015267,-0.22900763358778625,246.68947384266204,53.26307727892316,-0.12213740458015267,0.25190839694656486,-0.07633587786259542,-0.008236554649980105,129.99591225898948,-0.0916030534351145,-0.48854961832061067,0.5725190839694656,0.0,0.0,0.0,0.0,0.0,112.9,84.88,27.0,-75.0,1.0,
8.029,-49.13178833990159,158.4668013007503,0.37404580152671757,-1.1450381679389312,-0.07633587786259542,201.6845453689094,153.97579061143125,0.2748091603053435,1.213740458015267,-0.22900763358778625,246.46456086099118,46.83610127239307,-0.12213740458015267,0.25190839694656486,-0.07633587786259542,-0.011153758634206892,129.99574680104286,-0.0916030534351145,-0.48854961832061067,0.5725190839694656,0.0,0.0,0.0,0.0,0.0,110.67,85.76,21.0,-62.0,3.0,
8.068999999999999,-52.71907154530204,159.5208876790639,0.37404580152671757,-1.1450381679389312,-0.07633587786259542,207.59148132376458,155.54357712022488,0.24427480916030533,0.9618320610687023,0.03816793893129771,246.27338482657098,41.3731716668425,-0.12213740458015267,0.25190839694656486,-0.07633587786259542,-0.01363338202079966,129.99560616178823,-0.0916030534351145,-0.48854961832061067,0.5725190839694656,0.0,0.0,0.0,0.0,0.0,108.41,86.65,11.0,-46.0,3.0,
8.108,-56.46464645031311,160.12376196555962,0.13740458015267176,-0.7099236641221374,0.05343511450381679,212.6123768853915,156.8761956526995,0.24427480916030533,0.9618320610687023,0.03816793893129771,246.1108851973138,36.729681502124514,-0.12213740458015267,0.25190839694656486,-0.07633587786259542,-0.01574106189940351,129.9954866184218,-0.0916030534351145,-0.48854961832061067,0.5725190839694656,0.0,0.0,0.0,0.0,0.0,106.0,87.64,12.0,-38.0,4.0,
8.147,-59.648385119572524,160.63620510908098,0.13740458015267176,-0.7099236641221374,0.05343511450381679,216.8801381127744,158.0089214053029,0.24427480916030533,0.9618320610687023,0.03816793893129771,248.66656852787557,56.26354576681706,-0.022900763358778626,-0.06870229007633588,-0.04580152671755725,-0.017532589796216785,129.99538500656035,-0.0916030534351145,-0.48854961832061067,0.5725190839694656,0.0,0.0,0.0,0.0,0.0,103.74,88.12,4.0,-31.0,4.0,
8.184999999999999,-62.35456298844302,161.07178178107415,0.13740458015267176,-0.7099236641221374,0.05343511450381679,220.50773515604985,158.9717382950158,0.24427480916030533,0.9618320610687023,0.03816793893129771,250.8388993588531,72.86733039180572,-0.022900763358778626,-0.06870229007633588,-0.04580152671755725,26.98561639806868,129.99614214792848,0.007633587786259542,0.061068702290076333,-0.16030534351145037,0.0,0.0,0.0,0.0,0.0,101.92,88.89,2.0,-29.0,7.0,
8.224,-64.65481417698294,161.44202195226833,0.13740458015267176,-0.7099236641221374,0.05343511450381679,223.591192642834,159.79013265127176,0.24427480916030533,0.9618320610687023,0.03816793893129771,252.68538056518398,86.98054732304608,-0.022900763358778626,-0.06870229007633588,-0.04580152671755725,22.93848766339039,129.9967208325952,0.0,0.08396946564885496,-0.05343511450381679,0.0,0.0,0.0,0.0,0.0,99.64,88.27,-20.0,-5.0,2.0,
8.262,-66.61002768724187,161.7567260977834,0.13740458015267176,-0.7099236641221374,0.05343511450381679,226.21213150660049,160.48576785408932,0.24427480916030533,0.9618320610687023,0.03816793893129771,254.25488959056523,98.97678171460038,-0.022900763358778626,-0.06870229007633588,-0.04580152671755725,19.498428238913846,129.9972127145619,0.0,0.08396946564885496,0.08396946564885496,0.0,0.0,0.0,0.0,0.0,98.62,88.62,-7.0,-2.0,4.0,
8.301,-68.27195917096196,162.0242246214712,0.13740458015267176,-0.7099236641221374,0.05343511450381679,228.439929540802,161.07705777648425,0.24427480916030533,0.9618320610687023,0.03816793893129771,255.5889722621393,109.17358094742153,-0.022900763358778626,-0.06870229007633588,-0.04580152671755725,16.574247957116416,129.99769569972977,0.007633587786259542,0.06870229007633588,0.09923664122137404,0.0,0.0,0.0,0.0,0.0,97.89,88.94,-7.0,1.0,2.0,
8.338,-17.735038879949848,162.8173934101615,0.07633587786259542,-0.2595419847328244,0.06870229007633588,230.33355786987332,161.57965421051995,0.24427480916030533,0.9618320610687023,0.03816793893129771,256.72294253297724,117.84086029531952,-0.022900763358778626,-0.06870229007633588,-0.04580152671755725,14.088694717588604,129.99810623712247,0.007633587786259542,0.06870229007633588,0.09923664122137404,0.0,0.0,0.0,0.0,0.0,97.14,89.55,-8.0,0.0,7.0,
8.377,25.221343367410448,163.49158688054823,0.07633587786259542,-0.2595419847328244,0.06870229007633588,235.22066269406662,162.23679311936138,0.16030534351145037,0.16793893129770993,-0.3053435114503817,257.6868172631895,125.2080477410328,-0.022900763358778626,-0.06870229007633588,-0.04580152671755725,11.975974463989964,129.99845519390627,0.007633587786259542,0.06870229007633588,0.09923664122137404,0.0,0.0,0.0,0.0,0.0,96.31,89.88,-1.0,-4.0,5.0,
8.415,8.283905771464742,164.12825574126393,0.11450381679389313,-0.2900763358778626,0.03816793893129771,239.37470179463094,162.79536119187662,0.16030534351145037,0.16793893129770993,-0.3053435114503817,258.5061107838699,131.4701570698891,-0.022900763358778626,-0.06870229007633588,-0.04580152671755725,10.180162248431118,129.99875180717248,0.007633587786259542,0.06870229007633588,0.09923664122137404,0.0,0.0,0.0,0.0,0.0,95.68,90.08,-5.0,4.0,3.0,
8.453,-5.8893587496061,164.4968296756764,0.0916030534351145,-0.19083969465648856,0.1297709923664122,242.9056350301106,163.27014405351457,0.16030534351145037,0.16793893129770993,-0.3053435114503817,259.2025102764482,136.79294999941698,-0.022900763358778626,-0.06870229007633588,-0.04580152671755725,8.653721865206101,129.99900392844876,0.007633587786259542,0.06870229007633588,0.09923664122137404,0.0,0.0,0.0,0.0,0.0,95.04,90.42,-9.0,-2.0,5.0,
8.491,-17.936633592516316,164.810117519927,0.0916030534351145,-0.19083969465648856,0.1297709923664122,245.90692828026832,163.67370948590678,0.16030534351145037,0.16793893129770993,-0.3053435114503817,259.7944498451398,141.31732398951567,-0.022900763358778626,-0.06870229007633588,-0.04580152671755725,7.356117768472471,129.99915334603745,0.0,0.05343511450381679,-0.015267175572519083,0.0,0.0,0.0,0.0,0.0,94.53,90.59,0.0,2.0,-2.0,
8.529,-28.17681720899,165.07641218754,0.0916030534351145,-0.19083969465648856,0.1297709923664122,248.45802754290239,164.0167401034402,0.16030534351145037,0.16793893129770993,-0.3053435114503817,260.2975984785277,145.16304188109956,-0.022900763358778626,-0.06870229007633588,-0.04580152671755725,6.2530894007527005,129.99921546549166,-0.007633587786259542,0.04580152671755725,-0.07633587786259542,0.0,0.0,0.0,0.0,0.0,94.45,90.89,-3.0,7.0,-5.0,
8.568,-37.066898441457596,165.44762217399077,-0.007633587786259542,-0.030534351145038167,-0.0916030534351145,250.62646191614132,164.30831612834362,0.16030534351145037,0.16793893129770993,-0.3053435114503817,260.72527481690736,148.43190208894586,-0.022900763358778626,-0.06870229007633588,-0.04580152671755725,5.315515288190896,129.99926826702773,-0.007633587786259542,0.04580152671755725,-0.07633587786259542,0.0,0.0,0.0,0.0,0.0,94.1,91.28,-6.0,6.0,-4.0,
8.606,-44.62346748905505,165.76315066247392,-0.007633587786259542,-0.030534351145038167,-0.0916030534351145,252.63732585882775,164.4690130201969,0.04580152671755725,0.05343511450381679,-0.03816793893129771,261.0887997045301,151.21043326561522,-0.022900763358778626,-0.06870229007633588,-0.04580152671755725,4.518577292513362,129.99931314833339,-0.007633587786259542,0.04580152671755725,-0.07633587786259542,0.0,0.0,0.0,0.0,0.0,94.11,91.45,-3.0,0.0,-2.0,
8.644,-51.35892118765739,166.1779486422552,0.0,-0.0,0.0916030534351145,254.3465602101112,164.6056053782722,0.04580152671755725,0.05343511450381679,-0.03816793893129771,261.3977958590094,153.5721847657842,-0.022900763358778626,-0.06870229007633588,-0.04580152671755725,3.8411799961874573,129.99935129744318,-0.007633587786259542,0.04580152671755725,-0.07633587786259542,0.0,0.0,0.0,0.0,0.0,93.89,91.49,-6.0,-7.0,5.0,
8.682,-57.084056831469375,166.53052692506927,0.0,-0.0,0.0916030534351145,255.7994094087021,164.7217088826362,0.04580152671755725,0.05343511450381679,-0.03816793893129771,261.27541613328333,155.67108246715316,-0.007633587786259542,-0.03816793893129771,0.0,3.265392294310439,129.99938372418654,-0.007633587786259542,0.04580152671755725,-0.07633587786259542,0.0,0.0,0.0,0.0,0.0,93.86,91.44,-2.0,6.0,-4.0,
8.719,-8.162826088997662,166.71817216939206,0.007633587786259542,-0.007633587786259542,0.06870229007633588,257.0343312275044,164.82039686134559,0.04580152671755725,0.05343511450381679,-0.03816793893129771,261.17139336641617,157.45514551331678,-0.007633587786259542,-0.03816793893129771,0.0,2.775972747714974,129.9994112869184,-0.007633587786259542,0.04580152671755725,-0.07633587786259542,0.0,0.0,0.0,0.0,0.0,93.51,91.41,-7.0,0.0,3.0,
8.757,33.30519271463814,166.89677322551907,0.0,-0.007633587786259542,0.08396946564885496,258.0840147734864,164.90428164324857,0.04580152671755725,0.05343511450381679,-0.03816793893129771,261.08297401457907,158.97159910255587,-0.007633587786259542,-0.03816793893129771,0.0,2.3599661331088284,129.99943471524045,-0.007633587786259542,0.04580152671755725,-0.07633587786259542,0.0,0.0,0.0,0.0,0.0,93.14,91.49,-2.0,1.0,-3.0,
8.795,68.55300869772856,167.04858412322702,0.0,-0.007633587786259542,0.08396946564885496,258.9762457875711,164.97558370786612,0.04580152671755725,0.05343511450381679,-0.03816793893129771,260.81352601380246,160.26921146283883,-0.022900763358778626,0.022900763358778626,0.022900763358778626,2.0063605106936047,129.99945462931422,-0.007633587786259542,0.04580152671755725,-0.07633587786259542,0.0,0.0,0.0,0.0,0.0,92.92,91.54,-5.0,8.0,-4.0,
8.833,44.8142152671884,167.1128505028946,-0.007633587786259542,0.015267175572519083,0.0,259.73464214954305,165.03619046279104,0.04580152671755725,0.05343511450381679,-0.03816793893129771,260.58449521314236,161.37218196907935,-0.022900763358778626,0.022900763358778626,0.022900763358778626,1.7057957316406644,129.9994715562769,-0.007633587786259542,0.04580152671755725,-0.07633587786259542,0.0,0.0,0.0,0.0,0.0,92.45,91.88,-9.0,14.0,-4.0,
8.871,24.636240851229275,167.16747692561205,-0.007633587786259542,0.015267175572519083,0.0,260.3792790572192,165.0877062044772,0.04580152671755725,0.05343511450381679,-0.03816793893129771,260.76037341323405,162.18496815393323,-0.022900763358778626,0.015267175572519083,0.0,1.4503156694456654,129.99948594419516,-0.007633587786259542,0.04580152671755725,-0.07633587786259542,0.0,0.0,0.0,0.0,0.0,92.36,92.19,-10.0,14.0,-7.0,
8.909,7.48496259766401,167.2139093849219,-0.007633587786259542,0.015267175572519083,0.0,260.92722042874396,165.13149458491046,0.04580152671755725,0.05343511450381679,-0.03816793893129771,260.909869883312,162.87583641105903,-0.022900763358778626,0.015267175572519083,0.0,1.2324438761219008,129.9994981739257,-0.007633587786259542,-0.03816793893129771,0.04580152671755725,0.0,0.0,0.0,0.0,0.0,92.37,92.19,-10.0,12.0,-6.0,
8.947,-7.093623917866464,167.25337697533524,-0.007633587786259542,0.015267175572519083,0.0,261.39297059454003,165.1687147082787,0.04580152671755725,0.05343511450381679,-0.03816793893129771,261.0369418828783,163.46307442961597,-0.022900763358778626,0.015267175572519083,0.0,1.0471230808043344,129.99944368370046,-0.015267175572519083,-0.05343511450381679,0.08396946564885496,0.0,0.0,0.0,0.0,0.0,92.34,92.14,-7.0,7.0,-7.0,
8.985,-19.48542245606737,167.2869244271866,-0.007633587786259542,0.015267175572519083,0.0,261.78885823546665,165.20035181314174,0.04580152671755725,0.05343511450381679,-0.03816793893129771,261.14495308250963,163.96222674538936,-0.022900763358778626,0.015267175572519083,0.0,0.8894706337920367,129.999397367009,-0.015267175572519083,-0.06870229007633588,0.07633587786259542,0.0,0.0,0.0,0.0,0.0,92.35,92.24,-8.0,5.0,-5.0,
9.022,-29.522164072472393,167.32437149656664,-0.015267175572519083,0.015267175572519083,0.015267175572519083,262.12536273025427,165.2272433522753,0.04580152671755725,0.05343511450381679,-0.03816793893129771,261.2367626021963,164.38650621379674,-0.022900763358778626,0.015267175572519083,0.0,0.7554660538315837,129.99935799782128,-0.015267175572519083,-0.06870229007633588,0.07633587786259542,0.0,0.0,0.0,0.0,0.0,92.51,92.23,-7.0,3.0,-4.0,
9.06,-38.00634527741424,167.39358604133452,-0.015267175572519083,-0.0,0.07633587786259542,262.41139155082374,165.25010116053883,0.04580152671755725,0.05343511450381679,-0.03816793893129771,261.3148006939299,164.74714376194302,-0.022900763358778626,0.015267175572519083,0.0,0.6415621608651987,129.9993245340117,-0.015267175572519083,-0.06870229007633588,0.07633587786259542,0.0,0.0,0.0,0.0,0.0,92.59,92.23,-6.0,4.0,-2.0,
9.098,-45.30204428068066,167.45136683748882,0.0,-0.007633587786259542,0.07633587786259542,262.6545160483078,165.26953029756282,0.04580152671755725,0.05343511450381679,-0.03816793893129771,261.3811330719035,165.05368567786735,-0.022900763358778626,0.015267175572519083,0.0,0.5447438518437714,129.99929608977357,-0.015267175572519083,-0.06870229007633588,0.07633587786259542,0.0,0.0,0.0,0.0,0.0,92.67,92.19,-9.0,0.0,-4.0,
9.136,-51.50338843345712,167.50048051421993,0.0,-0.007633587786259542,0.07633587786259542,262.8611718711693,165.28604506403323,0.04580152671755725,0.05343511450381679,-0.03816793893129771,261.43751559318105,165.31424630640305,-0.022900763358778626,0.015267175572519083,0.0,27.46257809101992,129.9994016831635,0.0,-0.05343511450381679,0.07633587786259542,0.0,0.0,0.0,0.0,0.0,92.53,92.13,-6.0,-2.0,-3.0,
9.173,-56.77453096331711,167.54222713944142,0.0,-0.007633587786259542,0.07633587786259542,263.03682932060156,165.30008261553309,0.04580152671755725,0.05343511450381679,-0.03816793893129771,261.485440736267,165.5357228406584,-0.022900763358778626,0.015267175572519083,0.0,50.343126507296745,129.99942655204882,-0.007633587786259542,-0.007633587786259542,0.05343511450381679,0.0,0.0,0.0,0.0,0.0,92.67,92.09,-6.0,1.0,-2.0,
9.211,-61.255002113698104,167.57771177087966,0.0,-0.007633587786259542,0.07633587786259542,263.186138152619,165.31201453430796,0.04580152671755725,0.05343511450381679,-0.03816793893129771,261.51869783324753,165.76262347102136,-0.015267175572519083,-0.007633587786259542,0.030534351145038167,69.79159266113204,129.9994476906013,-0.007633587786259542,-0.007633587786259542,0.05343511450381679,0.0,0.0,0.0,0.0,0.0,92.74,92.04,-5.0,-4.0,-1.0,
9.249,-65.06340259152195,167.60787370760215,0.0,-0.007633587786259542,0.07633587786259542,263.3130506598338,165.3221566652666,0.04580152671755725,0.05343511450381679,-0.03816793893129771,261.268754482064,165.97118226410376,-0.015267175572519083,-0.015267175572519083,0.022900763358778626,86.32278889189205,129.99946565837092,-0.007633587786259542,-0.007633587786259542,0.05343511450381679,0.0,0.0,0.0,0.0,0.0,92.74,92.1,-1.0,-6.0,-1.0,
9.286,-68.30054299767222,167.6335113538163,0.0,-0.007633587786259542,0.07633587786259542,263.42092629096635,165.33077747658143,0.04580152671755725,0.05343511450381679,-0.03816793893129771,261.05630263355806,166.1484572382238,-0.015267175572519083,-0.015267175572519083,0.022900763358778626,73.37463008466698,129.9994809309751,-0.007633587786259542,0.030534351145038167,0.04580152671755725,0.0,0.0,0.0,0.0,0.0,92.68,92.07,0.0,-3.0,-1.0,
9.324,-71.05211234289995,167.6553033530983,0.0,-0.007633587786259542,0.07633587786259542,262.9958454266035,165.399875812331,0.022900763358778626,-0.0,0.007633587786259542,260.875718562328,166.29914096622585,-0.015267175572519083,-0.015267175572519083,0.022900763358778626,62.36869509852567,129.99949391268865,-0.007633587786259542,0.030534351145038167,0.04580152671755725,0.0,0.0,0.0,0.0,0.0,92.59,92.11,-1.0,-5.0,0.0,
9.361,-73.39094628634352,167.67382655248804,0.0,-0.007633587786259542,0.07633587786259542,262.6345266918951,165.4586093977182,0.022900763358778626,-0.0,0.007633587786259542,260.72222210178245,166.4272221350276,-0.015267175572519083,-0.015267175572519083,0.022900763358778626,53.01358547480937,129.99956983264133,0.0,0.022900763358778626,0.007633587786259542,0.0,0.0,0.0,0.0,0.0,92.34,92.16,-2.0,-6.0,1.0,
9.399,-75.37895513827056,167.68957127196927,0.0,-0.007633587786259542,0.07633587786259542,262.3274057673929,165.50853294529725,0.022900763358778626,-0.0,0.007633587786259542,260.59175011031874,166.53609112850907,-0.015267175572519083,-0.015267175572519083,0.022900763358778626,45.061807180146694,129.99963436460112,0.0,0.030534351145038167,0.015267175572519083,0.0,0.0,0.0,0.0,0.0,92.19,92.16,-3.0,-2.0,1.0,
9.436,-77.06876266240853,167.70295428352836,0.0,-0.007633587786259542,0.07633587786259542,262.06635298156607,165.55096796073946,0.022900763358778626,-0.0,0.007633587786259542,260.4808489175746,166.6286297729683,-0.015267175572519083,-0.015267175572519083,0.022900763358778626,38.30286051517961,129.99968921676697,0.0,0.03816793893129771,0.030534351145038167,0.0,0.0,0.0,0.0,0.0,92.03,92.24,-2.0,-5.0,2.0,
9.474,-78.5050990579258,167.71432984335354,0.0,-0.007633587786259542,0.07633587786259542,261.9521395175752,165.5633406860484,0.03816793893129771,0.007633587786259542,-0.007633587786259542,260.386582903742,166.70728762075868,-0.015267175572519083,-0.015267175572519083,0.022900763358778626,32.55775584995759,129.9997358411079,0.0,0.03816793893129771,0.030534351145038167,0.0,0.0,0.0,0.0,0.0,91.82,92.24,-1.0,-6.0,3.0,
9.512,-79.72598499411549,167.72399906920498,0.0,-0.007633587786259542,0.07633587786259542,261.85505807318293,165.573857502561,0.03816793893129771,0.007633587786259542,-0.007633587786259542,260.3064567919844,166.7741467913805,-0.015267175572519083,-0.015267175572519083,0.022900763358778626,27.674416884518866,129.9997754717977,0.0,0.03816793893129771,0.0,0.0,0.0,0.0,0.0,0.0,91.65,92.12,-2.0,-7.0,2.0,
9.549,-80.76373803987673,167.73221791117868,0.0,-0.007633587786259542,0.07633587786259542,261.8945964271848,165.59356733123934,0.05343511450381679,0.015267175572519083,-0.05343511450381679,260.23834959699036,166.83097708640904,-0.015267175572519083,-0.015267175572519083,0.022900763358778626,23.52357876389595,129.99980915788404,0.0,0.03816793893129771,0.0,0.0,0.0,0.0,0.0,0.0,91.49,92.14,-2.0,-7.0,1.0,
9.587,-81.64582812877377,167.73920392685636,0.0,-0.007633587786259542,0.07633587786259542,261.9282040280864,165.61032068561593,0.05343511450381679,0.015267175572519083,-0.05343511450381679,260.0459924416872,166.9212237763704,-0.022900763358778626,-0.030534351145038167,0.0,19.995366361366475,129.99983779105742,0.0,0.03816793893129771,0.0,0.0,0.0,0.0,0.0,0.0,91.24,92.09,-2.0,-7.0,1.0,
9.625,-82.39560470433626,167.74514204018237,0.0,-0.007633587786259542,0.07633587786259542,261.9567704888527,165.62456103683604,0.05343511450381679,0.015267175572519083,-0.05343511450381679,260.04868837935453,166.9529748689181,-0.015267175572519083,-0.022900763358778626,-0.03816793893129771,16.99638581921642,129.99986212925478,0.0,0.03816793893129771,0.0,0.0,0.0,0.0,0.0,0.0,91.05,92.07,-2.0,-9.0,0.0,
9.661,-83.03291479356439,167.75018943650946,0.0,-0.007633587786259542,0.07633587786259542,261.95942886042087,165.65851844185724,0.061068702290076333,0.030534351145038167,-0.07633587786259542,260.0509799263718,166.97996329758365,-0.015267175572519083,-0.022900763358778626,-0.03816793893129771,14.447252358388877,129.99988281672256,0.0,0.03816793893129771,0.0,0.0,0.0,0.0,0.0,0.0,90.8,92.17,-2.0,-11.0,0.0,
9.7,-83.57462836940829,167.75447972338748,0.0,-0.007633587786259542,0.07633587786259542,261.9616884762538,165.68738223612527,0.061068702290076333,0.030534351145038167,-0.07633587786259542,260.0529277413365,167.00290346194936,-0.015267175572519083,-0.022900763358778626,-0.03816793893129771,12.28061868767783,129.99996528656635,0.007633587786259542,0.05343511450381679,-0.007633587786259542,0.0,0.0,0.0,0.0,0.0,90.53,92.15,-2.0,-10.0,1.0,
9.738,-84.0350849088756,167.7581264672338,0.0,-0.007633587786259542,0.07633587786259542,262.1548295578334,165.7458880798456,0.05343511450381679,0.022900763358778626,-0.04580152671755725,260.05458338405646,167.02240260166025,-0.015267175572519083,-0.022900763358778626,-0.03816793893129771,10.43898006757344,130.0000353859336,0.007633587786259542,0.05343511450381679,-0.007633587786259542,0.0,0.0,0.0,0.0,0.0,90.26,92.15,-3.0,-6.0,2.0,
9.775,-84.42647296742282,167.7612261995032,0.0,-0.007633587786259542,0.07633587786259542,262.3189994771761,165.79561804700788,0.05343511450381679,0.022900763358778626,-0.04580152671755725,260.05599068036844,167.0389768704145,-0.015267175572519083,-0.022900763358778626,-0.03816793893129771,8.873522354988525,130.0000949703957,0.007633587786259542,0.04580152671755725,-0.007633587786259542,0.0,0.0,0.0,0.0,0.0,90.07,92.24,-2.0,-7.0,3.0,
9.813,-84.75915281718795,167.76386097193216,0.0,-0.007633587786259542,0.07633587786259542,262.45854390861734,165.83788851909583,0.05343511450381679,0.022900763358778626,-0.04580152671755725,259.85901726812847,167.0559788481623,-0.022900763358778626,-0.061068702290076333,0.007633587786259542,7.542883299291348,130.00014561718854,0.007633587786259542,0.04580152671755725,-0.007633587786259542,0.0,0.0,0.0,0.0,0.0,89.66,92.34,11.0,20.0,3.0,
9.851,-85.04193068948832,167.7661005284968,0.0,-0.007633587786259542,0.07633587786259542,262.63395868153714,165.8796468540763,0.061068702290076333,0.022900763358778626,-0.06870229007633588,259.6915898677245,167.07043052924794,-0.022900763358778626,-0.061068702290076333,0.007633587786259542,6.411840101948746,130.00018866696243,0.007633587786259542,0.04580152671755725,-0.007633587786259542,0.0,0.0,0.0,0.0,0.0,89.95,92.18,-8.0,-33.0,9.0,
9.889,-85.28229188094363,167.76800415157675,0.0,-0.007633587786259542,0.07633587786259542,262.783061238519,165.9151414388097,0.061068702290076333,0.022900763358778626,-0.06870229007633588,259.34881951138175,167.10805231784735,-0.022900763358778626,-0.04580152671755725,0.0,5.450453384207535,130.00022525927022,0.007633587786259542,0.04580152671755725,-0.007633587786259542,0.0,0.0,0.0,0.0,0.0,89.12,92.28,-5.0,-49.0,11.0,
9.926,-85.48659889368065,167.76962223119472,0.0,-0.007633587786259542,0.07633587786259542,262.88370534274696,166.00002835195195,0.061068702290076333,0.022900763358778626,-0.06870229007633588,259.05746470849044,167.14003083815686,-0.022900763358778626,-0.04580152671755725,0.0,4.633274674127505,130.00025636273188,0.007633587786259542,0.04580152671755725,-0.007633587786259542,0.0,0.0,0.0,0.0,0.0,89.39,92.43,-2.0,16.0,9.0,
9.964,-32.207993645167356,167.75504634722807,0.0,-0.015267175572519083,-0.007633587786259542,262.9692528313408,166.07218222812284,0.061068702290076333,0.022900763358778626,-0.06870229007633588,258.8098131260328,167.16721258041994,-0.022900763358778626,-0.04580152671755725,0.0,3.9386727705594793,130.00028280067426,0.007633587786259542,0.04580152671755725,-0.007633587786259542,0.0,0.0,0.0,0.0,0.0,89.77,93.21,-3.0,-10.0,10.0,
10.001,13.078820816068937,167.74265684585643,0.0,-0.015267175572519083,-0.007633587786259542,263.0419681966455,166.1335130228681,0.061068702290076333,0.022900763358778626,-0.06870229007633588,258.5993092809438,167.19031706134356,-0.022900763358778626,-0.04580152671755725,0.0,3.3481962670304743,130.00024038742913,0.0,0.03816793893129771,0.0,0.0,0.0,0.0,0.0,0.0,89.48,93.17,1.0,-4.0,5.0,
10.038,-2.3653366540837,167.73277454752503,-0.007633587786259542,-0.0,-0.03816793893129771,263.1037762571545,166.18564419840158,0.061068702290076333,0.022900763358778626,-0.06870229007633588,258.4203810126182,167.20995587012862,-0.022900763358778626,-0.04580152671755725,0.0,2.8462912390308204,130.00020433617075,0.0,0.03816793893129771,0.0,0.0,0.0,0.0,0.0,0.0,89.42,93.1,1.0,8.0,0.0,
10.076,-15.492870503713442,167.72437459394334,-0.007633587786259542,-0.0,-0.03816793893129771,263.15631310858714,166.22995569760502,0.061068702290076333,0.022900763358778626,-0.06870229007633588,258.2682919845414,167.22664885759593,-0.022900763358778626,-0.04580152671755725,0.0,2.4196719652311143,130.00017369260115,0.0,0.03816793893129771,-0.030534351145038167,0.0,0.0,0.0,0.0,0.0,89.11,93.08,-4.0,-9.0,0.0,
10.113,-26.65127427589872,167.7172346333989,-0.007633587786259542,-0.0,-0.03816793893129771,263.20096943230493,166.26762047192796,0.061068702290076333,0.022900763358778626,-0.06870229007633588,258.13901631067614,167.24083789694313,-0.022900763358778626,-0.04580152671755725,0.0,2.0571104679975476,130.00014764556698,0.0,0.04580152671755725,-0.007633587786259542,0.0,0.0,0.0,0.0,0.0,89.02,93.0,-3.0,6.0,-4.0,
10.151,-35.98519653473193,167.7139345370582,-0.015267175572519083,0.007633587786259542,-0.05343511450381679,263.238927307465,166.29963553010245,0.061068702290076333,0.022900763358778626,-0.06870229007633588,258.02913198789065,167.25289858038826,-0.022900763358778626,-0.04580152671755725,0.0,1.748933195349016,130.00012550558793,0.0,0.04580152671755725,-0.007633587786259542,0.0,0.0,0.0,0.0,0.0,89.04,92.52,-1.0,5.0,-9.0,
10.189,-43.91903045474015,167.71112945516862,-0.015267175572519083,0.007633587786259542,-0.05343511450381679,263.2711915013511,166.32684832955078,0.061068702290076333,0.022900763358778626,-0.06870229007633588,258.0337489528182,167.22582474841712,-0.022900763358778626,-0.022900763358778626,-0.015267175572519083,1.4869825135977641,130.00010668660573,0.0,0.04580152671755725,-0.007633587786259542,0.0,0.0,0.0,0.0,0.0,89.04,92.6,-4.0,-3.0,-5.0,
10.227,-50.66278928674714,167.70874513556245,-0.015267175572519083,0.007633587786259542,-0.05343511450381679,263.2986160661543,166.34997920908185,0.061068702290076333,0.022900763358778626,-0.06870229007633588,258.0376733730066,167.20281199124167,-0.022900763358778626,-0.022900763358778626,-0.015267175572519083,1.2641946631168337,130.00009069047087,0.0,0.030534351145038167,0.015267175572519083,0.0,0.0,0.0,0.0,0.0,89.26,92.65,-2.0,6.0,-7.0,
10.265,-56.39498429395308,167.70671846389723,-0.015267175572519083,0.007633587786259542,-0.05343511450381679,263.321926946237,166.36964045668327,0.061068702290076333,0.022900763358778626,-0.06870229007633588,258.15905071642476,167.13704865070488,-0.030534351145038167,-0.015267175572519083,0.03816793893129771,1.0748249902080427,130.00007709375623,0.0,0.030534351145038167,0.015267175572519083,0.0,0.0,0.0,0.0,0.0,89.57,92.98,-3.0,0.0,-8.0,
10.302,-61.26735005007813,167.70499579298178,-0.015267175572519083,0.007633587786259542,-0.05343511450381679,263.3417411943073,166.38635251714447,0.061068702290076333,0.022900763358778626,-0.06870229007633588,258.2622214583302,167.08114981124862,-0.030534351145038167,-0.015267175572519083,0.03816793893129771,0.9136661117470208,130.00013042204495,0.007633587786259542,0.007633587786259542,0.0916030534351145,0.0,0.0,0.0,0.0,0.0,89.5,93.16,-1.0,1.0,-1.0,
10.339,-65.40886094278443,167.70353152270366,-0.015267175572519083,0.007633587786259542,-0.05343511450381679,263.2628295121638,166.4734614529987,0.015267175572519083,0.007633587786259542,0.06870229007633588,258.34991658894984,167.0336357977108,-0.030534351145038167,-0.015267175572519083,0.03816793893129771,0.7766810650551523,130.00017575109035,0.007633587786259542,0.007633587786259542,0.0916030534351145,0.0,0.0,0.0,0.0,0.0,89.4,93.13,-2.0,0.0,0.0,
10.377,-15.20362967591764,167.67975031241468,0.0,-0.0,0.13740458015267176,263.19575458234186,166.54750404847476,0.015267175572519083,0.007633587786259542,0.06870229007633588,258.4244574499765,166.99324888620362,-0.030534351145038167,-0.015267175572519083,0.03816793893129771,0.6602437753670641,130.00021428077895,0.007633587786259542,0.007633587786259542,0.0916030534351145,0.0,0.0,0.0,0.0,0.0,89.41,93.21,-4.0,-1.0,1.0,
10.415,27.470816900919132,167.65953628366907,0.0,-0.0,0.13740458015267176,263.13874089199317,166.61044025462942,0.015267175572519083,0.007633587786259542,0.06870229007633588,258.1965510837848,166.97298462641348,-0.015267175572519083,-0.030534351145038167,0.05343511450381679,0.5612720791321891,130.00024703101428,0.007633587786259542,0.007633587786259542,0.0916030534351145,0.0,0.0,0.0,0.0,0.0,89.21,93.33,-4.0,5.0,3.0,
10.453,63.74409649123039,167.6423543592353,0.0,-0.0,0.13740458015267176,263.0902792551968,166.66393602986088,0.015267175572519083,0.007633587786259542,0.06870229007633588,258.00283067252184,166.95576000559186,-0.015267175572519083,-0.030534351145038167,0.05343511450381679,0.47701636634017897,130.00020998321816,0.0,-0.007633587786259542,0.022900763358778626,0.0,0.0,0.0,0.0,0.0,88.91,93.34,0.0,-3.0,4.0,
10.49,94.57638414299495,167.6277497234666,0.0,-0.0,0.13740458015267176,263.04908686391985,166.70940743880763,0.015267175572519083,0.007633587786259542,0.06870229007633588,257.8381683229483,166.9411190778935,-0.015267175572519083,-0.030534351145038167,0.05343511450381679,0.4053990104669703,130.00017849259143,0.0,-0.007633587786259542,-0.030534351145038167,0.0,0.0,0.0,0.0,0.0,89.03,93.16,0.0,-4.0,-3.0,
10.527,120.78382864699483,167.6153357830632,0.0,-0.0,0.13740458015267176,263.14056533121834,166.68093973601185,0.015267175572519083,-0.015267175572519083,-0.08396946564885496,257.6982053258108,166.92867428934989,-0.015267175572519083,-0.030534351145038167,0.05343511450381679,0.34452425797474295,130.0001517255587,0.0,-0.007633587786259542,-0.030534351145038167,0.0,0.0,0.0,0.0,0.0,89.07,93.3,-7.0,17.0,-2.0,
10.565,143.06015647539473,167.60478393372028,0.0,-0.0,0.13740458015267176,263.21832202842205,166.65674218863543,0.015267175572519083,-0.015267175572519083,-0.08396946564885496,257.5448597517199,167.08459873686058,0.0,0.007633587786259542,0.03816793893129771,0.2927807183563497,130.0001289735809,0.0,-0.007633587786259542,-0.030534351145038167,0.0,0.0,0.0,0.0,0.0,89.06,93.43,-1.0,2.0,-7.0,
10.603,161.99503512953464,167.59581486177882,0.0,-0.0,0.13740458015267176,262.97080702775304,166.62427280857386,0.007633587786259542,-0.04580152671755725,-0.022900763358778626,257.4145160137426,167.2171345172447,0.0,0.007633587786259542,0.03816793893129771,0.24879870968071544,130.00010963439976,0.0,-0.007633587786259542,-0.030534351145038167,0.0,0.0,0.0,0.0,0.0,89.35,93.52,0.0,6.0,-4.0,
10.639,178.08968198555357,167.58819115062857,0.0,-0.0,0.13740458015267176,262.7604192771844,166.59667383552153,0.007633587786259542,-0.04580152671755725,-0.022900763358778626,257.41417051152206,167.12552026335482,-0.022900763358778626,0.04580152671755725,0.05343511450381679,0.2114140023064263,130.0000931960958,0.0,-0.007633587786259542,-0.030534351145038167,0.0,0.0,0.0,0.0,0.0,89.37,93.67,-6.0,10.0,-5.0,
10.677,191.77013181316966,167.5817109961509,0.0,-0.0,0.13740458015267176,262.58158968920105,166.57321470842706,0.007633587786259542,-0.04580152671755725,-0.022900763358778626,257.41387683463455,167.04764814754844,-0.022900763358778626,0.04580152671755725,0.05343511450381679,0.1796370010382805,129.99994945254505,-0.015267175572519083,-0.007633587786259542,0.022900763358778626,0.0,0.0,0.0,0.0,0.0,89.49,93.56,-5.0,9.0,-8.0,
10.715,149.60183959508583,167.6226464149109,0.0,-0.015267175572519083,-0.007633587786259542,262.4295845394152,166.55327445039674,0.007633587786259542,-0.04580152671755725,-0.022900763358778626,257.41362720928015,166.98145684911304,-0.022900763358778626,0.04580152671755725,0.05343511450381679,0.1526265499603566,129.9998272705269,-0.015267175572519083,-0.007633587786259542,0.022900763358778626,0.0,0.0,0.0,0.0,0.0,89.92,93.61,-4.0,7.0,-8.0,
10.752,114.03042022390814,167.62879374021824,0.007633587786259542,-0.0,0.015267175572519083,262.3003801620972,166.53632523107098,0.007633587786259542,-0.04580152671755725,-0.022900763358778626,257.41341502772895,166.92519424544292,-0.022900763358778626,0.04580152671755725,0.05343511450381679,0.1296676665441213,129.9997234158115,-0.015267175572519083,-0.007633587786259542,0.022900763358778626,0.0,0.0,0.0,0.0,0.0,90.17,93.85,-4.0,7.0,-7.0,
10.79,83.7947137584071,167.6340189667295,0.007633587786259542,-0.0,0.015267175572519083,262.19055644137694,166.52191839464408,0.007633587786259542,-0.04580152671755725,-0.022900763358778626,257.4132346734104,166.8773710323233,-0.022900763358778626,0.04580152671755725,0.05343511450381679,0.10976330266322204,129.99957025380724,-0.022900763358778626,-0.05343511450381679,0.08396946564885496,0.0,0.0,0.0,0.0,0.0,90.42,94.05,-4.0,3.0,-2.0,
10.828,58.09436326273121,167.6384604092641,0.007633587786259542,-0.0,0.015267175572519083,262.0972062787647,166.5096725836812,0.007633587786259542,-0.04580152671755725,-0.022900763358778626,257.4130813722396,166.83672130117168,-0.022900763358778626,0.04580152671755725,0.05343511450381679,0.09277970786827447,129.99950495159976,-0.015267175572519083,-0.061068702290076333,0.13740458015267176,0.0,0.0,0.0,0.0,0.0,90.6,94.1,-3.0,0.0,0.0,
10.866,36.249065341406705,167.64223563541847,0.007633587786259542,-0.0,0.015267175572519083,262.0178586405443,166.49926364436277,0.007633587786259542,-0.04580152671755725,-0.022900763358778626,257.4805200703218,166.8768691608082,-0.015267175572519083,0.022900763358778626,0.04580152671755725,0.07834365229256902,129.99944944472344,-0.015267175572519083,-0.061068702290076333,0.13740458015267176,0.0,0.0,0.0,0.0,0.0,90.64,94.13,-3.0,0.0,2.0,
10.903,17.680562108280878,167.6454445776497,0.007633587786259542,-0.0,0.015267175572519083,261.950413148057,166.4904160459421,0.007633587786259542,-0.04580152671755725,-0.022900763358778626,257.6351524848329,166.90241472020446,-0.015267175572519083,0.022900763358778626,0.007633587786259542,0.0660730050532194,129.99940226387855,-0.015267175572519083,-0.061068702290076333,0.13740458015267176,0.0,0.0,0.0,0.0,0.0,90.58,94.17,-4.0,1.0,4.0,
10.94,1.8973343601239243,167.64817217854625,0.007633587786259542,-0.0,0.015267175572519083,261.6508991959807,166.44235634778929,0.0,-0.0,0.015267175572519083,257.76659003716725,166.92412844569125,-0.015267175572519083,0.022900763358778626,0.007633587786259542,0.05564295489977223,129.9993621601604,-0.015267175572519083,-0.061068702290076333,0.13740458015267176,0.0,0.0,0.0,0.0,0.0,90.59,94.14,-3.0,0.0,4.0,
10.977,-11.518409225809487,167.65049063930832,0.007633587786259542,-0.0,0.015267175572519083,261.39631233671577,166.4015056043594,0.0,-0.0,0.015267175572519083,257.8243265585181,166.94560926306468,-0.007633587786259542,0.030534351145038167,0.007633587786259542,0.046777412269342136,129.99932807199997,-0.015267175572519083,-0.061068702290076333,0.13740458015267176,0.0,0.0,0.0,0.0,0.0,90.56,94.04,-3.0,0.0,3.0,
