time,pitch,roll,gyrx,gyry,gyrz,f1,f2,f3,f4,f5,f6,f7,g1,g2,g3
0.386,42.69,67.75,-0.11,0.46,0.18,0.0,0.0,0.0,0.0,0.0,0.0,0.0,0.0,0.0,0.0,
0.409,48.72,77.62299999999999,-2.05,-0.18,0.18,0.0,0.0,0.0,0.0,0.0,0.0,0.0,0.0,0.0,0.0,
0.433,54.219,86.9803,-5.04,0.95,-0.44,0.0,0.0,0.0,0.0,0.0,0.0,0.0,0.0,0.0,0.0,
0.456,58.8999,95.10703000000001,-2.6,1.52,-1.89,0.0,0.0,0.0,0.0,0.0,0.0,0.0,0.0,0.0,0.0,
0.48,63.08499,102.03070299999999,-0.23,-0.19,-1.82,0.0,0.0,0.0,0.0,0.0,0.0,0.0,0.0,0.0,0.0,
0.503,66.518499,107.9070703,-4.14,-0.56,0.46,0.0,0.0,0.0,0.0,0.0,0.0,0.0,0.0,0.0,0.0,
0.527,69.2468499,112.84170703,-6.24,0.43,1.2,0.0,0.0,0.0,0.0,0.0,0.0,0.0,0.0,0.0,0.0,
0.55,71.45468499,117.160170703,-4.28,-1.24,-2.05,0.0,0.0,0.0,0.0,0.0,0.0,0.0,0.0,0.0,0.0,
0.575,73.45746849900002,120.8590170703,-5.64,-3.45,-3.29,0.0,0.0,0.0,0.0,0.0,0.0,0.0,0.0,0.0,0.0,
0.599,75.2867468499,123.79390170703002,-6.28,-3.01,-3.05,0.0,0.0,0.0,0.0,0.0,0.0,0.0,0.0,0.0,0.0,
0.622,76.66667468498999,126.436390170703,-5.11,-0.77,-3.32,0.0,0.0,0.0,0.0,0.0,0.0,0.0,0.0,0.0,0.0,
0.646,78.271667468499,128.8786390170703,-4.35,-0.57,-3.27,0.0,0.0,0.0,0.0,0.0,0.0,0.0,0.0,0.0,0.0,
0.67,79.9171667468499,130.73386390170702,-2.17,-0.6,-1.59,0.0,0.0,0.0,0.0,0.0,0.0,0.0,0.0,0.0,0.0,
0.694,81.134716674685,132.3053863901707,-3.78,-0.95,0.17,0.0,0.0,0.0,0.0,0.0,0.0,0.0,0.0,0.0,0.0,
0.717,81.81447166746851,133.77653863901708,-5.37,-0.47,-0.35,0.0,0.0,0.0,0.0,0.0,0.0,0.0,0.0,0.0,0.0,
0.741,82.48544716674685,135.12965386390172,-3.29,-0.21,-3.0,0.0,0.0,0.0,0.0,0.0,0.0,0.0,0.0,0.0,0.0,
0.765,83.03854471667468,136.24596538639017,-1.59,-0.59,-1.8,0.0,0.0,0.0,0.0,0.0,0.0,0.0,0.0,0.0,0.0,
0.789,83.48985447166747,136.91559653863902,-3.6,-0.76,0.24,0.0,0.0,0.0,0.0,0.0,0.0,0.0,0.0,0.0,0.0,
0.813,83.71498544716674,137.4145596538639,-4.26,-1.45,0.63,0.0,0.0,0.0,0.0,0.0,0.0,0.0,0.0,0.0,0.0,
0.836,83.71949854471667,137.8244559653864,-3.54,-2.49,-2.92,0.0,0.0,0.0,0.0,0.0,0.0,0.0,0.0,0.0,0.0,
0.86,83.50394985447167,138.09044559653864,-5.28,-0.97,-3.87,0.0,0.0,0.0,0.0,0.0,0.0,0.0,0.0,0.0,0.0,
0.884,83.48239498544717,138.45904455965388,-4.96,-0.81,-2.89,0.0,0.0,0.0,0.0,0.0,0.0,0.0,0.0,0.0,0.0,
0.908,83.85823949854472,138.7839044559654,-4.39,-3.9,-1.6,0.0,0.0,0.0,0.0,0.0,0.0,0.0,0.0,0.0,0.0,
0.931,84.17482394985447,139.01439044559652,-7.67,-4.83,-0.07,0.0,0.0,0.0,0.0,0.0,0.0,0.0,0.1,0.0,0.0,
0.955,84.34148239498545,139.28943904455963,-10.34,-4.83,-1.63,0.0,0.0,0.0,0.0,0.0,0.0,0.0,0.0,0.0,0.0,
0.979,84.73614823949855,139.66794390445597,-5.47,-3.39,-2.25,0.0,0.0,0.0,0.0,0.0,0.0,0.0,0.0,0.0,0.0,
1.003,84.99161482394986,140.0027943904456,-1.63,-4.56,-3.48,0.0,0.0,0.0,0.0,0.0,0.0,0.0,0.0,0.0,0.0,
1.027,85.386161482395,140.14427943904457,-3.19,-2.18,0.63,0.0,0.0,0.0,0.0,0.0,0.0,0.0,0.0,0.0,0.0,
1.05,85.4976161482395,140.17642794390446,-4.09,-2.57,1.08,0.0,0.0,0.0,0.0,0.0,0.0,0.0,0.0,0.0,0.0,
1.074,85.50876161482395,140.35964279439045,-6.21,-2.51,0.89,0.0,0.0,0.0,0.0,0.0,0.0,0.0,0.0,0.0,0.0,
1.097,85.5548761614824,140.41396427943903,-4.4,-3.48,-3.17,0.0,0.0,0.0,0.0,0.0,0.0,0.0,0.0,0.0,0.0,
1.122,85.64048761614825,140.2843964279439,-3.07,-1.3,-2.92,0.0,0.0,0.0,0.0,0.0,0.0,0.0,0.0,0.0,0.0,
1.145,85.65804876161482,140.1994396427944,-2.16,0.42,-0.65,0.0,0.0,0.0,0.0,0.0,0.0,0.0,0.0,0.0,0.0,
1.169,85.71380487616148,140.35294396427946,-2.72,0.21,2.52,0.0,0.0,0.0,0.0,0.0,0.0,0.0,0.0,0.0,0.0,
1.192,85.67438048761616,140.27829439642795,-2.38,-0.49,3.26,0.0,0.0,0.0,0.0,0.0,0.0,0.0,0.0,0.0,0.0,
1.216,85.55343804876162,140.2168294396428,-3.2,-0.47,-0.06,0.0,0.0,0.0,0.0,0.0,0.0,0.0,0.0,0.0,0.0,
1.241,85.44234380487617,140.21968294396427,-5.72,0.35,-1.97,0.0,0.0,0.0,0.0,0.0,0.0,0.0,0.0,0.0,0.0,
1.264,85.29623438048762,140.27396829439644,-6.26,-1.98,-4.23,0.0,0.0,0.0,0.0,0.0,0.0,0.0,0.0,0.0,0.0,
1.288,85.48862343804876,140.34239682943965,-4.79,-1.73,-1.95,0.0,0.0,0.0,0.0,0.0,0.0,0.0,0.0,0.0,0.0,
1.311,85.57986234380488,140.51123968294397,-3.13,-1.72,-0.71,0.0,0.0,0.0,0.0,0.0,0.0,0.0,0.0,0.0,0.0,
1.335,85.64298623438049,140.5821239682944,-4.58,-0.31,1.4,0.0,0.0,0.0,0.0,0.0,0.0,0.0,0.0,0.0,0.0,
1.359,85.73029862343805,140.63421239682944,-4.45,-1.87,-0.45,0.0,0.0,0.0,0.0,0.0,0.0,0.0,0.0,0.0,0.0,
1.383,85.75702986234381,140.63042123968293,-3.02,-1.5,-0.98,0.0,0.0,0.0,0.0,0.0,0.0,0.0,0.0,0.0,0.0,
1.406,85.73270298623439,140.6570421239683,-2.23,-1.71,-1.6,0.0,0.0,0.0,0.0,0.0,0.0,0.0,0.0,0.0,0.0,
1.43,85.83827029862344,140.65970421239683,-3.1,-1.5,-0.11,0.0,0.0,0.0,0.0,0.0,0.0,0.0,0.0,0.0,0.0,
1.455,85.67782702986234,140.47097042123966,-4.29,-1.0,0.88,0.0,0.0,0.0,0.0,0.0,0.0,0.0,0.0,0.0,0.0,
1.478,85.54478270298624,140.41609704212397,-5.13,-1.21,-0.61,0.0,0.0,0.0,0.0,0.0,0.0,0.0,0.0,0.0,0.0,
1.502,85.65747827029863,140.3926097042124,-5.85,0.57,1.27,0.0,0.0,0.0,0.0,0.0,0.0,0.0,0.0,0.0,0.0,
1.525,85.66874782702988,140.21926097042123,-3.59,0.27,1.82,0.0,0.0,0.0,0.0,0.0,0.0,0.0,0.0,0.0,0.0,
1.549,85.426874782703,140.11192609704213,-4.5,-0.5,1.38,0.0,0.0,0.0,0.0,0.0,0.0,0.0,0.0,0.0,0.0,
1.572,85.3846874782703,139.98419260970422,-6.88,-1.11,-0.89,0.0,0.0,0.0,0.0,0.0,0.0,0.0,0.0,0.0,0.0,
1.596,85.49746874782703,139.90841926097042,-5.75,-1.89,-3.15,0.0,0.0,0.0,0.0,0.0,0.0,0.0,0.0,0.0,0.0,
1.62,85.5537468747827,139.94584192609705,-6.88,-1.4,-2.69,0.0,0.0,0.0,0.0,0.0,0.0,0.0,0.0,0.0,0.0,
1.644,85.43337468747826,140.0755841926097,-7.85,-1.27,-1.94,0.0,0.0,0.0,0.0,0.0,0.0,0.0,0.1,0.0,0.0,
1.668,85.55633746874781,140.025558419261,-6.41,-1.62,0.4,0.0,0.0,0.0,0.0,0.0,0.0,0.0,0.0,0.0,0.0,
1.691,85.63163374687478,139.9305558419261,-8.85,-4.36,-2.57,0.0,0.0,0.0,0.0,0.0,0.0,0.0,0.0,0.0,0.0,
1.716,85.76516337468748,139.9930555841926,-15.22,-5.84,-2.43,0.0,0.0,0.0,0.0,0.0,0.0,0.0,0.0,0.0,0.0,
1.739,85.49951633746875,139.75630555841926,-12.36,-5.85,-0.86,0.0,0.0,0.0,0.0,0.0,0.0,0.0,0.0,0.0,0.0,
1.763,85.45495163374687,139.19263055584193,-9.65,-5.27,1.82,0.0,0.0,0.0,0.0,0.0,0.0,0.0,0.1,0.0,0.0,
1.786,85.20749516337469,137.7052630555842,-16.99,-4.24,4.98,0.0,0.0,0.0,0.0,0.0,0.0,0.0,0.1,0.0,0.0,
1.811,84.63374951633747,135.98152630555842,-36.67,-5.92,0.84,0.0,0.0,0.0,0.0,0.0,0.0,0.0,0.1,0.0,0.0,
1.835,83.87437495163374,134.88215263055582,-53.68,-11.4,-10.85,0.0,0.0,0.0,0.0,0.0,0.0,0.0,0.1,0.0,0.0,
1.858,83.06943749516337,133.97121526305557,-53.64,-8.7,-17.25,0.0,0.0,0.0,0.0,0.0,0.0,0.0,0.1,0.0,0.0,
1.883,83.31294374951634,132.54812152630555,-49.94,-4.77,-14.47,0.0,0.0,0.0,0.0,0.0,0.0,0.0,0.0,0.0,0.0,
1.906,83.40929437495163,130.71381215263054,-59.44,-6.92,-5.24,0.0,0.0,0.0,0.0,0.0,0.0,0.0,0.0,0.0,0.0,
1.93,84.51692943749516,127.76738121526304,-78.73,-0.66,13.21,0.0,0.0,0.0,0.0,0.0,1.0,0.0,0.0,0.0,0.0,
1.954,84.92469294374952,126.51873812152631,-93.18,0.14,16.49,0.0,0.0,0.0,0.0,0.0,0.0,0.0,0.0,0.0,0.0,
1.978,84.71346929437496,125.61987381215263,-88.37,17.28,29.45,0.0,0.0,0.0,0.0,0.0,1.0,0.0,0.0,0.0,0.0,
2.001,84.58434692943749,123.62198738121526,-74.08,5.38,9.51,0.0,0.0,0.0,0.0,0.0,0.0,0.0,0.0,0.0,0.0,
2.025,84.77843469294373,121.53219873812152,-76.69,1.84,-5.71,0.0,0.0,0.0,0.0,0.0,0.0,0.0,0.0,0.0,0.0,
2.05,85.36484346929439,119.94621987381214,-82.13,6.56,-4.68,0.0,0.0,0.0,0.0,0.0,0.0,0.0,0.0,0.0,0.0,
2.073,85.94548434692945,117.95162198738122,-79.31,8.21,-1.83,0.0,0.0,0.0,0.0,0.0,0.0,0.0,0.0,0.0,0.0,
2.097,85.99454843469294,116.20416219873812,-81.48,10.63,2.98,0.0,0.0,0.0,0.0,0.0,0.0,0.0,0.0,0.0,0.0,
2.12,86.3954548434693,114.2384162198738,-93.52,13.42,10.9,0.0,0.0,0.0,0.0,0.0,0.0,0.0,0.0,0.0,0.0,
2.145,87.20954548434692,111.70184162198738,-96.78,5.24,6.84,0.0,0.0,0.0,0.0,0.0,0.0,0.0,0.0,0.0,0.0,
2.168,87.5969545484347,109.44118416219874,-97.69,-2.77,1.47,0.0,0.0,0.0,0.0,0.0,0.0,0.0,0.0,0.0,0.0,
2.192,88.23869545484347,107.64911841621986,-105.85,-2.32,0.73,0.0,0.0,0.0,0.0,0.0,1.0,0.0,0.0,0.0,0.0,
2.215,88.08686954548433,106.16491184162199,-97.63,-14.45,-4.08,0.0,0.0,0.0,0.0,0.0,1.0,0.0,0.0,0.0,0.0,
2.24,88.65668695454843,105.6204911841622,-86.84,2.62,1.65,0.0,0.0,0.0,0.0,0.0,1.0,0.0,0.0,0.0,0.0,
2.264,88.22766869545485,105.90804911841622,-78.44,-6.82,6.53,0.0,0.0,0.0,0.0,0.0,1.0,0.0,0.0,0.0,0.0,
2.287,88.5267668695455,106.31480491184162,-69.7,13.65,16.95,0.0,0.0,0.0,0.0,0.0,1.0,0.0,0.0,0.0,0.0,
2.311,88.19667668695455,106.17548049118416,-54.59,16.66,15.18,0.0,0.0,0.0,0.0,0.0,1.0,0.0,0.0,0.0,0.0,
2.335,87.80366766869545,103.70454804911842,-39.74,-3.65,-5.95,0.0,0.0,0.0,0.0,0.0,1.0,0.0,0.0,0.0,0.0,
2.359,86.95436676686955,103.01645480491185,-46.7,-33.45,-24.82,0.0,0.0,0.0,0.0,0.0,0.0,0.0,0.0,0.0,0.0,
2.383,86.80643667668696,103.75764548049119,-72.02,-0.87,0.23,0.0,0.0,0.0,0.0,0.0,0.0,0.0,0.0,0.0,0.0,
2.407,87.1336436676687,103.88576454804912,-77.33,14.34,13.63,0.0,0.0,0.0,0.0,0.0,1.0,0.0,0.0,0.0,0.0,
2.43,88.28236436676687,100.81157645480491,-52.2,4.55,4.21,0.0,0.0,0.0,0.0,0.0,1.0,0.0,0.0,0.0,0.0,
2.454,89.1982364366767,99.1271576454805,-41.6,-24.37,-19.53,0.0,0.0,0.0,0.0,0.0,0.0,0.0,0.0,0.0,0.0,
2.479,88.66882364366766,98.40971576454805,-51.08,-10.28,-15.75,0.0,0.0,0.0,0.0,0.0,0.0,0.0,0.0,0.0,0.0,
2.502,88.88588236436676,98.86897157645481,-59.73,17.95,0.2,0.0,0.0,0.0,0.0,0.0,0.0,0.0,0.0,0.0,0.0,
2.526,90.00558823643668,95.74689715764549,-38.18,36.21,16.58,0.0,0.0,0.0,0.0,0.0,1.0,0.0,0.0,0.0,0.0,
2.55,92.23255882364367,101.22168971576455,119.45,-250.13,-150.7,0.0,0.0,0.0,0.0,0.0,0.0,0.0,0.0,0.0,0.0,
2.574,95.02025588236437,103.12816897157646,44.59,118.59,30.69,0.0,0.0,0.0,0.0,0.0,0.0,0.0,0.69,0.59,0.0,
2.598,89.00802558823644,103.34581689715765,-29.54,-9.93,36.11,0.0,0.0,0.0,0.0,0.0,0.0,0.0,0.88,0.0,0.0,
2.622,88.31680255882364,99.18258168971576,-9.46,-25.05,-8.04,0.0,0.0,0.0,0.0,0.0,0.0,0.0,0.39,0.0,0.0,
2.646,90.75868025588237,95.98525816897157,11.57,38.15,2.74,0.0,0.0,0.0,0.0,0.0,0.0,0.0,0.1,0.0,0.0,
2.669,91.33586802558824,96.69152581689715,6.2,-10.02,-22.47,0.0,0.0,0.0,0.0,0.0,0.0,0.0,0.0,0.0,0.0,
2.694,90.28658680255883,96.71715258168972,-15.89,-35.79,-15.19,0.0,0.0,0.0,0.0,0.0,0.0,0.0,0.39,0.0,0.0,
2.717,88.00365868025588,95.13571525816897,-22.56,-2.89,-7.21,0.0,0.0,0.0,1.0,0.0,0.0,0.0,0.69,0.0,0.0,
2.742,87.06436586802559,93.5285715258169,-10.6,9.84,-5.08,0.0,0.0,0.0,1.0,0.0,0.0,0.0,0.88,0.1,0.0,
2.765,86.76343658680256,92.8368571525817,-9.8,8.64,-8.85,0.0,0.0,0.0,1.0,0.0,0.0,0.0,0.78,0.29,0.0,
2.789,87.43534365868025,92.75868571525818,-7.48,-1.26,-4.92,0.0,0.0,0.0,1.0,0.0,0.0,0.0,0.98,0.29,0.0,
2.812,87.39453436586803,92.70586857152583,-4.14,-6.65,3.16,0.0,0.0,0.0,1.0,0.0,0.0,0.0,1.08,0.39,0.0,
2.836,87.0034534365868,92.04358685715258,1.1,-16.21,2.06,0.0,0.0,0.0,2.0,0.0,1.0,0.0,0.98,0.78,0.0,
2.861,86.12734534365869,91.64435868571525,-4.39,-2.64,2.2,0.0,0.0,0.0,2.0,0.0,1.0,0.0,0.88,0.88,0.0,
2.884,85.34673453436588,91.38843586857152,-5.43,-7.66,-0.5,0.0,0.0,0.0,2.0,0.0,1.0,0.0,0.98,0.88,0.0,
2.909,84.88167345343658,91.37184358685715,-3.71,-3.62,-2.16,0.0,0.0,0.0,2.0,0.0,1.0,0.0,0.98,0.98,0.0,
2.932,84.61016734534365,91.05518435868571,-5.14,-1.76,-0.08,0.0,0.0,1.0,2.0,0.0,1.0,0.0,0.98,1.18,0.0,
2.957,84.57401673453437,90.73551843586858,-6.05,0.2,0.94,0.0,0.0,2.0,2.0,0.0,1.0,0.0,0.98,1.47,0.0,
2.98,84.04840167345343,90.44255184358686,-5.27,-2.98,0.74,0.0,0.0,2.0,2.0,0.0,2.0,1.0,1.08,1.47,0.0,
3.004,84.00484016734535,90.11625518435869,-3.69,2.89,0.15,0.0,0.0,3.0,1.0,0.0,2.0,1.0,1.08,1.47,0.0,
3.028,84.08148401673455,90.01162551843586,-1.5,-1.05,-0.76,0.0,0.0,3.0,1.0,1.0,2.0,2.0,1.18,1.57,0.0,
3.052,83.99914840167345,90.05516255184358,-1.44,-3.92,0.72,0.0,0.0,3.0,1.0,1.0,2.0,2.0,1.18,1.47,0.0,
3.077,83.99091484016733,90.14951625518437,-2.54,2.27,2.79,0.0,0.0,3.0,2.0,1.0,2.0,2.0,1.28,1.37,0.0,
3.1,84.00809148401675,90.05995162551844,-2.42,-1.01,0.64,0.0,0.0,3.0,2.0,1.0,2.0,2.0,1.18,1.18,0.0,
3.125,84.05480914840169,89.95199516255184,-2.18,-0.36,-0.62,0.0,0.0,3.0,2.0,1.0,2.0,2.0,1.08,0.98,0.0,
3.148,83.78948091484017,89.95919951625518,-2.2,-5.34,-2.02,0.0,0.0,3.0,2.0,1.0,2.0,2.0,1.18,0.88,0.0,
3.173,83.92494809148403,90.01391995162552,-3.27,0.22,0.33,0.0,0.0,3.0,1.0,1.0,2.0,2.0,1.08,0.78,0.0,
3.196,83.90249480914841,89.94739199516255,-2.22,-5.41,-0.4,0.0,0.0,4.0,2.0,1.0,2.0,2.0,1.18,0.88,0.0,
3.22,83.78324948091483,89.97673919951626,-1.92,-3.89,-0.41,0.0,0.0,4.0,2.0,1.0,2.0,2.0,1.18,0.88,0.0,
3.245,83.72632494809147,90.05167391995163,-3.68,-1.23,0.31,0.0,0.0,4.0,2.0,1.0,1.0,2.0,1.37,0.88,0.0,
3.268,83.61263249480913,89.99616739199516,-3.25,-2.15,-0.37,0.0,0.0,4.0,2.0,1.0,1.0,2.0,1.37,0.98,0.0,
3.293,83.61926324948092,90.04461673919951,-3.26,-0.92,-0.13,0.0,0.0,4.0,2.0,1.0,2.0,2.0,1.37,1.08,0.0,
3.316,83.5479263249481,90.04946167391995,-3.43,0.02,-0.55,0.0,0.0,4.0,2.0,1.0,2.0,2.0,1.47,1.08,0.0,
3.341,83.6037926324948,90.040946167392,-3.43,-0.45,-0.28,0.0,0.0,4.0,2.0,1.0,2.0,2.0,1.47,0.98,0.0,
3.364,83.52837926324948,90.0310946167392,-3.44,-1.82,0.05,0.0,0.0,4.0,2.0,1.0,2.0,2.0,1.47,0.98,0.0,
3.389,83.54783792632495,90.00310946167392,-3.67,-1.0,-0.05,0.0,0.0,4.0,2.0,1.0,2.0,2.0,1.57,0.98,0.0,
3.412,83.62178379263248,89.98231094616739,-3.64,-0.64,-0.82,0.0,0.0,4.0,2.0,1.0,2.0,2.0,1.57,0.98,0.0,
3.437,83.63817837926324,89.98923109461674,-3.32,-1.53,-1.6,0.0,0.0,4.0,2.0,1.0,2.0,2.0,1.57,0.98,0.0,
3.461,83.63081783792632,90.02592310946167,-3.76,-2.1,-1.23,0.0,0.0,4.0,2.0,1.0,2.0,2.0,1.57,0.98,0.0,
3.485,83.64808178379263,89.93959231094618,-3.34,-0.98,-0.11,0.0,0.0,4.0,2.0,1.0,2.0,2.0,1.47,1.08,0.0,
3.509,83.62280817837927,89.93995923109462,-3.16,-0.86,0.46,0.0,0.0,4.0,2.0,1.0,2.0,2.0,1.57,1.08,0.0,
3.533,83.51228081783793,89.91299592310946,-3.44,-1.87,-0.23,0.0,0.0,4.0,2.0,1.0,2.0,2.0,1.47,0.88,0.0,
3.557,83.57322808178378,89.89229959231093,-3.74,-1.19,-0.15,0.0,0.0,4.0,2.0,1.0,2.0,2.0,1.47,0.98,0.0,
3.581,83.55232280817837,89.9082299592311,-3.74,-0.42,-0.82,0.0,0.0,4.0,2.0,1.0,2.0,2.0,1.47,0.98,0.0,
3.605,83.56823228081782,89.90082299592312,-3.43,0.24,-0.82,0.0,0.0,4.0,2.0,1.0,2.0,2.0,1.57,0.98,0.0,
3.63,83.68682322808178,89.87308229959231,-3.34,0.27,-1.01,0.0,0.0,4.0,2.0,1.0,2.0,2.0,1.47,0.98,0.0,
3.653,83.71668232280817,89.85230822995922,-3.69,0.04,-0.4,0.0,0.0,4.0,2.0,1.0,2.0,2.0,1.57,0.88,0.0,
3.678,83.67466823228081,89.78723082299592,-3.85,-0.96,-0.79,0.0,0.0,4.0,2.0,1.0,2.0,2.0,1.67,0.98,0.0,
3.701,83.63446682322808,89.7627230822996,-3.0,-2.07,-0.21,0.0,0.0,4.0,2.0,1.0,2.0,2.0,1.67,0.88,0.0,
3.726,83.7024466823228,89.75127230822997,-3.18,0.52,-0.33,0.0,0.0,4.0,2.0,1.0,2.0,2.0,1.57,0.88,0.0,
3.749,83.72724466823227,89.786127230823,-3.09,-2.54,-0.7,0.0,0.0,4.0,2.0,1.0,1.0,2.0,1.67,0.88,0.0,
3.774,83.73872446682323,89.8076127230823,-3.5,-1.1,-0.26,0.0,0.0,4.0,2.0,1.0,1.0,2.0,1.57,0.88,0.0,
3.798,83.69487244668233,89.79176127230824,-3.81,-0.75,-0.33,0.0,0.0,4.0,2.0,1.0,1.0,1.0,1.57,0.88,0.0,
3.822,83.57348724466824,89.68217612723083,-3.53,-0.71,-0.75,0.0,0.0,4.0,2.0,1.0,1.0,1.0,1.67,0.88,0.0,
3.846,83.66034872446681,89.70721761272307,-2.97,-0.19,0.13,0.0,0.0,4.0,2.0,1.0,1.0,1.0,1.67,0.88,0.0,
3.87,83.66003487244667,89.6557217612723,-2.76,-2.33,-0.24,0.0,0.0,4.0,2.0,1.0,1.0,1.0,1.77,0.88,0.0,
3.894,83.61500348724466,89.70457217612721,-3.05,-0.96,-0.4,0.0,0.0,4.0,2.0,1.0,1.0,1.0,1.77,0.88,0.0,
3.918,83.60150034872446,89.68245721761272,-3.09,-0.58,-1.01,0.0,0.0,4.0,2.0,1.0,1.0,1.0,1.77,0.98,0.0,
3.942,83.58215003487244,89.76124572176127,-3.07,-2.15,-0.47,0.0,0.0,4.0,2.0,1.0,1.0,1.0,1.77,0.88,0.0,
3.966,83.53521500348725,89.78712457217614,-3.27,-0.76,0.38,0.0,0.0,4.0,2.0,1.0,1.0,1.0,1.77,0.98,0.0,
3.99,83.57552150034871,89.78071245721762,-2.85,-0.56,0.25,0.0,0.0,4.0,2.0,1.0,1.0,1.0,1.77,0.88,0.0,
4.015,83.63355215003486,89.78907124572177,-3.0,-1.34,0.63,0.0,0.0,4.0,2.0,1.0,1.0,1.0,1.86,0.98,0.0,
4.038,83.57635521500347,89.77190712457217,-3.25,-1.05,-0.29,0.0,0.0,4.0,2.0,1.0,1.0,1.0,1.86,0.98,0.0,
4.063,83.65163552150034,89.7431907124572,-3.53,-0.27,-0.05,0.0,0.0,4.0,2.0,1.0,1.0,1.0,1.77,0.88,0.0,
4.086,83.65916355215003,89.75831907124572,-3.33,-0.86,0.47,0.0,0.0,4.0,2.0,1.0,1.0,1.0,1.77,0.88,0.0,
4.111,83.668916355215,89.76883190712456,-3.09,-0.83,0.18,0.0,0.0,4.0,2.0,1.0,1.0,1.0,1.77,0.88,0.0,
4.134,83.6968916355215,89.70688319071246,-2.88,-1.02,-0.02,0.0,0.0,4.0,2.0,1.0,1.0,1.0,1.86,0.88,0.0,
4.159,83.68168916355216,89.70068831907125,-3.11,-0.78,-0.4,0.0,0.0,4.0,2.0,1.0,1.0,1.0,1.77,0.88,0.0,
4.183,83.72516891635522,89.72706883190713,-3.02,-0.34,-0.06,0.0,0.0,4.0,2.0,1.0,1.0,1.0,1.77,0.88,0.0,
4.207,83.72051689163553,89.72970688319072,-2.81,-1.6,-0.33,0.0,0.0,4.0,2.0,1.0,1.0,1.0,1.77,0.88,0.0,
4.231,83.67505168916355,89.75697068831907,-3.31,-0.44,0.26,0.0,0.0,3.0,2.0,1.0,1.0,1.0,1.77,0.88,0.0,
4.255,83.69750516891635,89.73269706883191,-3.13,-0.76,0.3,0.0,0.0,3.0,2.0,1.0,1.0,1.0,1.86,0.88,0.0,
4.279,83.70875051689163,89.7752697068832,-3.19,-0.83,-0.34,0.0,0.0,3.0,2.0,1.0,1.0,1.0,1.86,0.98,0.0,
4.303,83.73687505168917,89.7165269706883,-3.53,-0.71,-0.19,0.0,0.0,3.0,2.0,1.0,1.0,1.0,1.86,0.88,0.0,
4.327,83.82068750516892,89.71965269706884,-3.23,-0.97,0.07,0.0,0.0,3.0,2.0,1.0,1.0,1.0,1.77,0.88,0.0,
4.352,83.7750687505169,89.70196526970689,-2.92,-1.92,-0.04,0.0,0.0,3.0,2.0,1.0,1.0,1.0,1.86,0.88,0.0,
4.375,83.72550687505169,89.77219652697069,-2.96,-1.41,-0.3,0.0,0.0,3.0,2.0,1.0,1.0,1.0,1.86,0.88,0.0,
4.4,83.69355068750517,89.84221965269705,-3.49,-0.35,-0.47,0.0,0.0,3.0,2.0,1.0,1.0,1.0,1.77,0.88,0.0,
4.423,83.7083550687505,89.8582219652697,-3.12,-0.76,-0.15,0.0,0.0,3.0,2.0,1.0,1.0,1.0,1.77,0.98,0.0,
4.448,83.69183550687505,89.85982219652696,-3.11,-1.37,-0.08,0.0,0.0,3.0,2.0,1.0,1.0,1.0,1.86,0.98,0.0,
4.471,83.76218355068751,89.83298221965269,-3.21,-1.06,0.27,0.0,0.0,4.0,2.0,1.0,1.0,1.0,1.86,0.98,0.0,
4.496,83.77821835506874,89.80329822196526,-2.85,-1.52,-0.16,0.0,0.0,3.0,2.0,1.0,1.0,1.0,1.86,0.88,0.0,
4.519,83.82482183550688,89.82732982219652,-3.22,-1.57,0.04,0.0,0.0,3.0,2.0,1.0,1.0,1.0,1.86,0.88,0.0,
4.544,83.8294821835507,89.80273298221964,-3.35,-1.48,0.23,0.0,0.0,3.0,2.0,1.0,1.0,1.0,1.86,0.88,0.0,
4.568,83.80294821835507,89.80927329822197,-2.8,-1.47,0.15,0.0,0.0,3.0,2.0,1.0,1.0,1.0,1.86,0.88,0.0,
4.592,83.7912948218355,89.7829273298222,-3.02,-2.14,0.03,0.0,0.0,3.0,2.0,1.0,1.0,1.0,1.77,0.88,0.0,
4.616,83.78112948218354,89.75329273298223,-3.05,-1.85,0.17,0.0,0.0,3.0,2.0,1.0,1.0,1.0,1.77,0.88,0.0,
4.639,83.79811294821836,89.73232927329823,-3.09,-1.26,0.04,0.0,0.0,3.0,2.0,1.0,1.0,1.0,1.86,0.98,0.0,
4.664,83.78181129482184,89.66723292732982,-2.91,-1.72,0.31,0.0,0.0,3.0,2.0,1.0,1.0,1.0,1.86,0.88,0.0,
4.687,83.84318112948219,89.67872329273298,-2.8,-1.72,0.48,0.0,0.0,3.0,2.0,1.0,1.0,1.0,1.86,0.78,0.0,
4.712,83.76831811294822,89.73387232927328,-2.99,-1.13,0.28,0.0,0.0,3.0,2.0,1.0,1.0,1.0,1.86,0.88,0.0,
4.736,83.76083181129482,89.73038723292733,-3.18,-1.05,0.22,0.0,0.0,3.0,2.0,1.0,1.0,1.0,1.86,0.78,0.0,
4.76,83.81408318112949,89.74803872329274,-2.76,-1.37,0.22,0.0,0.0,3.0,2.0,1.0,1.0,1.0,1.86,0.78,0.0,
4.784,83.81040831811295,89.77680387232928,-2.53,-1.75,-0.05,0.0,0.0,3.0,2.0,1.0,1.0,1.0,1.86,0.78,0.0,
4.808,83.80104083181129,89.82468038723292,-2.56,-1.45,0.21,0.0,0.0,3.0,2.0,1.0,1.0,0.0,1.86,0.69,0.0,
4.832,83.76410408318112,89.84746803872329,-2.62,-2.05,0.13,0.0,0.0,3.0,2.0,1.0,1.0,0.0,1.77,0.69,0.0,
4.855,83.73341040831811,89.78674680387233,-2.49,-1.73,0.12,0.0,0.0,3.0,2.0,1.0,1.0,0.0,1.77,0.59,0.0,
4.88,83.7303410408318,89.78067468038724,-2.62,-0.87,0.15,0.0,0.0,3.0,2.0,1.0,1.0,0.0,1.86,0.49,0.0,
4.903,83.70303410408317,89.76206746803872,-2.2,-1.37,0.74,0.0,0.0,3.0,2.0,1.0,1.0,0.0,1.77,0.49,0.0,
4.928,83.70030341040831,89.80520674680388,-2.65,-1.34,0.52,0.0,0.0,3.0,2.0,1.0,1.0,0.0,1.86,0.49,0.0,
4.952,83.65503034104084,89.8365206746804,-2.82,-1.5,0.03,0.0,0.0,3.0,2.0,1.0,1.0,0.0,1.77,0.39,0.0,
4.976,83.64150303410408,89.87565206746804,-2.54,-1.38,-0.03,0.0,0.0,3.0,2.0,1.0,1.0,0.0,1.77,0.49,0.0,
5.0,83.64015030341041,89.88856520674679,-2.69,-1.18,-0.02,0.0,0.0,3.0,2.0,1.0,1.0,0.0,1.86,0.29,0.0,
5.024,83.60401503034103,89.94385652067467,-2.93,-1.25,-0.09,0.0,0.0,3.0,2.0,1.0,1.0,0.0,1.77,0.29,0.0,
5.048,83.60940150303409,89.94938565206746,-2.85,-1.31,0.31,0.0,0.0,3.0,2.0,1.0,1.0,0.0,1.86,0.39,0.0,
5.072,83.5829401503034,89.94093856520675,-2.94,-0.98,0.04,0.0,0.0,3.0,2.0,1.0,1.0,0.0,1.86,0.39,0.0,
5.096,83.60729401503033,89.90409385652069,-2.7,-1.29,0.0,0.0,0.0,3.0,2.0,1.0,1.0,0.0,1.77,0.29,0.0,
5.12,83.66372940150303,89.95440938565207,-2.76,-1.8,-0.16,0.0,0.0,3.0,2.0,1.0,1.0,0.0,1.86,0.29,0.0,
5.144,83.65137294015031,90.01344093856521,-3.13,-0.76,0.23,0.0,0.0,3.0,2.0,1.0,1.0,0.0,1.77,0.29,0.0,
5.168,83.57813729401502,89.96534409385652,-2.75,-1.92,0.23,0.0,0.0,2.0,2.0,1.0,1.0,0.0,1.77,0.39,0.0,
5.192,83.64281372940151,89.98753440938565,-2.73,-1.23,0.37,0.0,0.0,2.0,2.0,1.0,1.0,0.0,1.77,0.39,0.0,
5.216,83.63128137294015,89.98075344093856,-2.84,-0.63,0.01,0.0,0.0,2.0,2.0,1.0,1.0,0.0,1.77,0.29,0.0,
5.24,83.62112813729402,90.01607534409385,-3.08,-0.88,0.53,0.0,0.0,2.0,2.0,1.0,1.0,0.0,1.77,0.29,0.0,
5.264,83.62911281372939,90.07360753440939,-3.15,-0.56,0.31,0.0,0.0,2.0,2.0,1.0,1.0,0.0,1.77,0.2,0.0,
5.288,83.64791128137296,90.07036075344094,-2.84,-1.74,0.22,0.0,0.0,2.0,2.0,1.0,1.0,0.0,1.86,0.2,0.0,
5.312,83.7217911281373,90.02503607534409,-2.85,-0.94,-0.08,0.0,0.0,2.0,2.0,1.0,1.0,0.0,1.77,0.1,0.0,
5.337,83.72917911281372,90.06550360753441,-2.79,-1.51,-0.06,0.0,0.0,2.0,2.0,1.0,1.0,0.0,1.77,0.1,0.0,
5.36,83.69391791128137,90.13255036075344,-2.99,-1.65,-0.47,0.0,0.0,2.0,2.0,1.0,1.0,0.0,1.67,0.2,0.0,
5.385,83.70839179112814,90.06725503607535,-3.11,-1.27,-0.37,0.0,0.0,2.0,2.0,1.0,1.0,0.0,1.77,0.2,0.0,
5.408,83.7278391791128,90.06072550360753,-3.05,-1.59,-0.43,0.0,0.0,2.0,2.0,1.0,1.0,0.0,1.86,0.1,0.0,
5.433,83.72078391791128,90.03307255036076,-3.12,-1.41,-0.26,0.0,0.0,2.0,2.0,1.0,1.0,0.0,1.77,0.29,0.0,
5.456,83.72007839179112,90.03030725503608,-3.07,-0.8,-0.05,0.0,0.0,2.0,2.0,1.0,1.0,0.0,1.77,0.2,0.0,
5.481,83.68400783917912,90.07503072550361,-2.92,-1.28,-0.04,0.0,0.0,2.0,2.0,1.0,1.0,0.0,1.86,0.2,0.0,
5.505,83.7074007839179,90.12450307255037,-3.0,-1.17,0.44,0.0,0.0,2.0,2.0,1.0,1.0,0.0,1.86,0.1,0.0,
5.529,83.64674007839179,90.10245030725504,-2.96,-1.26,0.38,0.0,0.0,2.0,2.0,1.0,1.0,0.0,1.77,0.1,0.0,
5.553,83.6496740078392,90.1182450307255,-2.82,-1.37,-0.08,0.0,0.0,2.0,2.0,1.0,1.0,0.0,1.86,0.0,0.0,
5.577,83.65896740078392,90.11082450307255,-2.75,-1.59,0.22,0.0,0.0,2.0,2.0,1.0,1.0,0.0,1.77,0.0,0.0,
5.601,83.6328967400784,90.11908245030726,-2.77,-1.6,0.45,0.0,0.0,2.0,2.0,0.0,1.0,0.0,1.77,0.0,0.0,
5.625,83.67528967400784,90.22790824503072,-2.73,-1.46,0.02,0.0,0.0,2.0,2.0,0.0,1.0,0.0,1.77,0.0,0.0,
5.649,83.6795289674008,90.22079082450307,-3.14,-0.56,0.27,0.0,0.0,2.0,2.0,0.0,1.0,0.0,1.86,0.0,0.0,
5.672,83.67095289674008,90.18407908245031,-2.98,-1.08,0.14,0.0,0.0,2.0,2.0,0.0,1.0,0.0,1.77,0.0,0.0,
5.697,83.68809528967401,90.18040790824503,-2.96,-1.02,-0.03,0.0,0.0,2.0,2.0,0.0,1.0,0.0,1.67,0.0,0.0,
5.721,83.7078095289674,90.1170407908245,-2.98,-0.6,-0.05,0.0,0.0,2.0,2.0,0.0,1.0,0.0,1.77,0.0,0.0,
5.745,83.69178095289674,90.13770407908245,-3.02,-1.41,-0.43,0.0,0.0,2.0,2.0,1.0,1.0,0.0,1.77,0.0,0.0,
5.769,83.73517809528967,90.17577040790825,-3.17,-1.4,-0.21,0.0,0.0,2.0,2.0,1.0,1.0,0.0,1.86,0.0,0.0,
5.793,83.76651780952896,90.23357704079082,-3.06,-1.21,-0.18,0.0,0.0,2.0,2.0,1.0,1.0,0.0,1.77,0.0,0.0,
5.817,83.7426517809529,90.24835770407908,-3.18,-1.58,-0.23,0.0,0.0,2.0,2.0,1.0,1.0,0.0,1.86,0.0,0.0,
5.841,83.72226517809528,90.23183577040791,-3.2,-1.1,-0.21,0.0,0.0,2.0,2.0,1.0,1.0,0.0,1.86,0.0,0.0,
5.865,83.72022651780952,90.1581835770408,-3.04,-0.85,-0.15,0.0,0.0,2.0,2.0,1.0,1.0,0.0,1.86,0.0,0.0,
5.89,83.71102265178095,90.15981835770408,-3.11,-1.25,-0.1,0.0,0.0,2.0,2.0,1.0,1.0,0.0,1.86,0.1,0.0,
5.913,83.7461022651781,90.17798183577041,-3.24,-1.06,0.02,0.0,0.0,2.0,2.0,1.0,1.0,0.0,1.86,0.0,0.0,
5.938,83.7496102265178,90.16179818357705,-3.03,-1.44,0.02,0.0,0.0,2.0,2.0,1.0,1.0,0.0,1.86,0.0,0.0,
5.961,83.76796102265178,90.1781798183577,-2.87,-1.07,-0.33,0.0,0.0,2.0,2.0,1.0,1.0,0.0,1.77,0.0,0.0,
5.986,83.79679610226518,90.18881798183577,-3.05,-1.07,0.17,0.0,0.0,2.0,2.0,1.0,1.0,0.0,1.86,0.0,0.0,
6.009,83.79967961022652,90.19888179818358,-2.98,-1.22,-0.09,0.0,0.0,2.0,2.0,1.0,1.0,0.0,1.86,0.0,0.0,
6.034,83.78196796102264,90.19988817981836,-3.01,-1.15,-0.34,0.0,0.0,2.0,2.0,1.0,1.0,0.0,1.96,0.0,0.0,
6.057,83.76219679610226,90.16398881798185,-3.16,-1.6,-0.37,0.0,0.0,2.0,2.0,1.0,1.0,0.0,1.77,0.0,0.0,
6.082,83.75121967961023,90.13339888179819,-3.33,-0.66,-0.21,0.0,0.0,2.0,2.0,1.0,1.0,0.0,1.77,0.0,0.0,
6.106,83.75012196796102,90.14833988817982,-3.1,-1.56,-0.24,0.0,0.0,2.0,2.0,0.0,1.0,0.0,1.77,0.0,0.0,
6.13,83.80401219679611,90.18583398881799,-2.86,-1.18,0.23,0.0,0.0,2.0,2.0,0.0,1.0,0.0,1.86,0.0,0.0,
6.154,83.80040121967961,90.24358339888181,-2.7,-1.19,0.32,0.0,0.0,2.0,2.0,0.0,1.0,0.0,1.77,0.0,0.0,
6.178,83.75504012196797,90.27635833988819,-3.05,-1.41,0.2,0.0,0.0,2.0,2.0,0.0,1.0,0.0,1.86,0.0,0.0,
6.202,83.7595040121968,90.26163583398883,-2.85,-1.54,0.15,0.0,0.0,2.0,2.0,0.0,1.0,0.0,1.77,0.0,0.0,
6.226,83.75995040121968,90.3051635833989,-2.84,-1.02,-0.03,0.0,0.0,2.0,2.0,0.0,1.0,0.0,1.77,0.0,0.0,
6.25,83.73299504012196,90.34551635833989,-2.95,-1.25,0.35,0.0,0.0,2.0,2.0,0.0,1.0,0.0,1.86,0.0,0.0,
6.274,83.7122995040122,90.394551635834,-2.77,-0.81,-0.11,0.0,0.0,2.0,2.0,0.0,1.0,0.0,1.86,0.0,0.0,
6.298,83.71022995040121,90.3634551635834,-3.1,-1.21,0.31,0.0,0.0,2.0,2.0,0.0,1.0,0.0,1.77,0.0,0.0,
6.322,83.75502299504012,90.29734551635835,-2.72,-1.08,0.21,0.0,0.0,2.0,2.0,0.0,1.0,0.0,1.77,0.0,0.0,
6.346,83.741502299504,90.32673455163584,-2.98,-0.98,-0.01,0.0,0.0,2.0,2.0,0.0,1.0,0.0,1.77,0.0,0.0,
6.37,83.7761502299504,90.33867345516359,-3.01,-1.05,-0.06,0.0,0.0,2.0,2.0,0.0,1.0,0.0,1.77,0.0,0.0,
6.394,83.77061502299505,90.34886734551635,-3.0,-1.09,-0.24,0.0,0.0,2.0,2.0,0.0,1.0,0.0,1.77,0.0,0.0,
6.418,83.8060615022995,90.34088673455165,-3.08,-0.65,0.29,0.0,0.0,2.0,2.0,0.0,1.0,0.0,1.77,0.0,0.0,
6.443,83.74660615022995,90.34908867345516,-2.94,-1.37,-0.14,0.0,0.0,2.0,2.0,0.0,1.0,0.0,1.77,0.0,0.0,
6.466,83.74066061502299,90.3319088673455,-2.97,-1.28,-0.02,0.0,0.0,2.0,2.0,0.0,1.0,0.0,1.77,0.0,0.0,
6.491,83.72206606150229,90.25819088673455,-3.11,-1.3,0.21,0.0,0.0,2.0,2.0,0.0,1.0,0.0,1.77,0.0,0.0,
6.514,83.68420660615024,90.31381908867345,-2.69,-1.64,0.59,0.0,0.0,1.0,2.0,0.0,1.0,0.0,1.86,0.0,0.0,
6.539,83.68042066061503,90.30138190886734,-2.91,-1.12,0.11,0.0,0.0,1.0,2.0,0.0,1.0,0.0,1.77,0.0,0.0,
6.562,83.65304206606152,90.30913819088674,-2.87,-1.56,-0.27,0.0,0.0,1.0,2.0,0.0,1.0,0.0,1.77,0.0,0.0,
6.587,83.61430420660615,90.32791381908866,-3.06,-1.37,0.03,0.0,0.0,1.0,2.0,0.0,1.0,0.0,1.77,0.0,0.0,
6.61,83.6014304206606,90.31179138190888,-2.89,-1.45,0.06,0.0,0.0,1.0,2.0,0.0,1.0,0.0,1.77,0.0,0.0,
6.635,83.64514304206607,90.32817913819088,-3.17,-1.22,0.01,0.0,0.0,1.0,2.0,0.0,1.0,0.0,1.77,0.0,0.0,
6.659,83.64951430420662,90.3118179138191,-3.05,-1.05,0.02,0.0,0.0,1.0,2.0,0.0,1.0,0.0,1.77,0.0,0.0,
6.683,83.69495143042066,90.34618179138191,-3.21,-0.99,0.11,0.0,0.0,1.0,2.0,0.0,1.0,0.0,1.77,0.0,0.0,
6.707,83.73549514304206,90.3676181791382,-2.83,-1.53,-0.35,0.0,0.0,1.0,2.0,0.0,1.0,0.0,1.77,0.0,0.0,
6.731,83.7575495143042,90.36076181791381,-2.92,-1.71,-0.53,0.0,0.0,1.0,2.0,0.0,1.0,0.0,1.77,0.0,0.0,
6.755,83.76875495143042,90.34207618179138,-3.08,-1.65,-0.43,0.0,0.0,1.0,2.0,0.0,1.0,0.0,1.77,0.0,0.0,
6.779,83.76087549514304,90.32220761817914,-3.11,-1.21,-0.24,0.0,0.0,1.0,2.0,0.0,1.0,0.0,1.67,0.0,0.0,
6.803,83.74208754951431,90.34722076181791,-3.14,-1.48,-0.18,0.0,0.0,1.0,2.0,0.0,1.0,0.0,1.67,0.0,0.0,
6.827,83.74020875495142,90.38572207618179,-2.89,-2.25,-0.29,0.0,0.0,1.0,2.0,0.0,1.0,0.0,1.77,0.0,0.0,
6.851,83.68602087549516,90.40757220761817,-2.76,-1.48,-0.54,0.0,0.0,1.0,2.0,0.0,1.0,0.0,1.67,0.0,0.0,
6.875,83.75260208754952,90.39175722076182,-2.82,-2.36,-0.41,0.0,0.0,1.0,2.0,0.0,1.0,0.0,1.77,0.0,0.0,
6.899,83.72326020875495,90.45317572207618,-3.16,-1.25,0.34,0.0,0.0,1.0,2.0,0.0,1.0,0.0,1.67,0.0,0.0,
6.923,83.73832602087549,90.45031757220761,-2.66,-2.81,0.01,0.0,0.0,1.0,2.0,0.0,1.0,0.0,1.57,0.0,0.0,
6.947,83.76683260208755,90.44103175722076,-2.63,-2.53,-0.38,0.0,0.0,1.0,2.0,0.0,1.0,0.0,1.57,0.0,0.0,
6.971,83.76968326020875,90.40410317572208,-2.9,-2.85,-0.59,0.0,0.0,1.0,1.0,0.0,1.0,0.0,1.57,0.0,0.0,
6.995,83.68896832602088,90.45441031757221,-2.75,-3.96,-0.46,0.0,0.0,1.0,1.0,0.0,1.0,0.0,1.47,0.0,0.0,
7.019,83.6538968326021,90.42344103175722,-2.69,-2.09,0.34,0.0,0.0,1.0,1.0,0.0,1.0,0.0,1.37,0.0,0.0,
7.043,83.56938968326021,90.43834410317572,-2.07,-2.45,-0.05,0.0,0.0,1.0,1.0,0.0,0.0,0.0,1.28,0.0,0.0,
7.067,83.49793896832601,90.47583441031757,-2.01,-1.29,0.88,0.0,0.0,1.0,1.0,0.0,0.0,0.0,1.18,0.0,0.0,
7.091,83.4367938968326,90.47958344103176,-1.24,-0.04,2.82,0.0,0.0,0.0,1.0,0.0,0.0,0.0,1.08,0.0,0.0,
7.114,83.34067938968326,90.47095834410318,-0.92,1.63,2.14,0.0,0.0,0.0,1.0,0.0,0.0,0.0,0.98,0.0,0.0,
7.139,83.32206793896833,90.47009583441032,-1.45,3.02,2.29,0.0,0.0,0.0,1.0,0.0,0.0,0.0,0.88,0.0,0.0,
7.162,83.54520679389682,90.45200958344103,-1.85,4.31,2.36,0.0,0.0,0.0,1.0,0.0,0.0,0.0,0.88,0.0,0.0,
7.186,83.54952067938967,90.2702009583441,0.21,1.89,1.71,0.0,0.0,0.0,0.0,0.0,0.0,0.0,0.78,0.0,0.0,
7.209,83.54995206793896,90.4050200958344,1.63,4.02,4.6,0.0,0.0,0.0,0.0,0.0,0.0,0.0,0.59,0.0,0.0,
7.233,83.7209952067939,90.48150200958344,2.84,2.85,3.58,0.0,0.0,0.0,0.0,0.0,0.0,0.0,0.59,0.0,0.0,
7.257,84.0530995206794,90.75915020095836,1.21,4.95,5.06,0.0,0.0,0.0,0.0,0.0,0.0,0.0,0.59,0.0,0.0,
7.281,84.41930995206793,90.99391502009583,-1.64,0.03,4.18,0.0,0.0,0.0,0.0,0.0,0.0,0.0,0.49,0.0,0.0,
7.305,84.62693099520679,91.03539150200959,-0.12,0.46,4.5,0.0,0.0,0.0,0.0,0.0,0.0,0.0,0.39,0.0,0.0,
7.328,84.21569309952068,91.02153915020095,1.8,-1.3,6.7,0.0,0.0,0.0,0.0,0.0,0.0,0.0,0.29,0.0,0.0,
7.352,84.54356930995206,90.8851539150201,1.7,-1.94,7.93,0.0,0.0,0.0,0.0,0.0,0.0,0.0,0.1,0.0,0.0,
7.375,84.83735693099521,91.20451539150201,-0.5,-12.74,-0.4,0.0,0.0,0.0,0.0,0.0,0.0,0.0,0.1,0.0,0.0,
7.4,84.47973569309951,91.8484515391502,-6.38,-17.37,-1.92,0.0,0.0,0.0,0.0,0.0,0.0,0.0,0.0,0.0,0.0,
7.424,84.17397356930995,91.32784515391502,-7.35,-12.43,3.06,0.0,0.0,0.0,0.0,0.0,0.0,0.0,0.0,0.0,0.0,
7.447,84.06239735693099,91.06878451539151,-2.5,-17.53,-1.89,0.0,0.0,0.0,0.0,0.0,0.0,0.0,0.0,0.49,0.0,
7.472,83.0972397356931,91.06987845153914,1.21,-11.98,-6.17,0.0,0.0,0.0,0.0,0.0,0.0,0.0,0.0,1.28,0.0,
7.495,82.71272397356931,91.60998784515391,-12.73,1.26,3.49,0.0,0.0,0.0,0.0,0.0,0.0,0.0,0.0,1.57,0.0,
7.519,82.71027239735692,91.07899878451538,-11.95,-3.63,2.18,0.0,0.0,0.0,1.0,0.0,0.0,0.0,0.0,1.96,0.0,
7.542,82.39502723973568,90.18889987845154,-7.4,-12.95,1.7,0.0,0.0,0.0,1.0,0.0,0.0,0.0,0.0,2.26,0.0,
7.567,82.66050272397358,89.85688998784515,-4.85,-4.75,6.38,0.0,0.0,0.0,1.0,0.0,0.0,0.0,0.0,2.35,0.0,
7.59,82.87605027239736,90.05768899878451,-6.72,-6.45,5.21,0.0,0.0,0.0,1.0,0.0,0.0,0.0,0.0,2.26,0.0,
7.614,82.78060502723973,90.19476889987844,-10.14,-0.24,7.25,0.0,0.0,0.0,1.0,0.0,0.0,0.0,0.0,2.06,0.0,
7.638,82.27606050272398,90.19047688998785,-15.52,-11.66,13.04,0.0,0.0,0.0,1.0,0.0,0.0,0.0,0.0,2.16,0.0,
7.662,83.0266060502724,90.16304768899879,-11.21,-14.38,11.21,0.0,0.0,0.0,2.0,0.0,0.0,0.0,0.0,2.45,0.0,
7.686,82.58866060502724,90.66430476889987,-9.82,-8.51,1.48,0.0,0.0,0.0,2.0,0.0,0.0,0.0,0.0,2.84,0.0,
7.71,82.32886606050272,90.05743047688998,-17.63,-6.7,1.53,0.0,0.0,0.0,3.0,0.0,1.0,0.0,0.0,2.75,0.0,
7.734,81.82588660605028,89.717743047689,-22.56,-12.66,4.73,0.0,0.0,0.0,3.0,0.0,1.0,0.0,0.0,2.94,0.0,
7.757,81.45158866060503,89.4947743047689,-16.57,-5.91,3.56,0.0,0.0,0.0,4.0,0.0,0.0,0.0,0.0,3.43,0.0,
7.781,81.0991588660605,88.6084774304769,-14.27,-11.63,-11.51,0.0,0.0,0.0,5.0,0.0,1.0,0.0,0.1,4.22,0.0,
7.805,80.76691588660606,88.20484774304768,-10.53,-10.14,-1.24,0.0,0.0,0.0,5.0,0.0,1.0,0.0,0.39,4.81,0.0,
7.829,80.58069158866061,88.81248477430478,-17.64,-7.15,-1.35,0.0,0.0,0.0,6.0,0.0,1.0,0.0,0.39,5.0,0.0,
7.853,80.49006915886606,87.60424847743047,-15.57,-10.52,-5.63,0.0,0.0,0.0,7.0,0.0,1.0,0.0,0.69,5.59,0.0,
7.877,80.83200691588661,87.51042484774305,-13.08,-17.44,-7.97,0.0,0.0,0.0,7.0,0.0,1.0,0.0,0.98,6.67,0.0,
7.901,80.09220069158866,87.0780424847743,-12.37,-14.54,-10.41,0.0,0.0,0.0,8.0,0.0,2.0,0.0,1.47,7.16,0.0,
7.925,79.61322006915887,86.39580424847743,-9.85,-11.72,-15.62,0.0,0.0,0.0,9.0,0.0,2.0,0.0,1.57,8.24,0.0,
7.949,79.49332200691589,86.19258042484773,-7.82,-14.86,-11.77,0.0,0.0,0.0,9.0,0.0,2.0,0.0,1.86,9.12,0.0,
7.973,77.66333220069158,88.74625804248478,-15.73,-0.92,-40.6,0.0,0.0,0.0,10.0,0.0,2.0,0.0,2.06,9.91,0.0,
7.998,78.56033322006915,89.39762580424848,-8.75,-17.73,-17.33,0.0,0.0,0.0,11.0,0.0,3.0,0.0,2.26,10.79,0.0,
8.023,78.5240333220069,89.22876258042484,-16.12,-7.44,-7.89,0.0,0.0,0.0,12.0,0.0,3.0,0.0,2.55,12.26,0.0,
8.047,78.4394033322007,88.43787625804248,-14.67,-4.98,-8.88,0.0,0.0,1.0,1.0,0.0,3.0,0.0,2.84,13.15,0.0,
8.071,78.35894033322006,87.81878762580425,-7.05,-5.76,-3.44,0.0,0.0,1.0,3.0,0.0,4.0,0.0,2.84,14.03,0.0,
8.095,78.287894033322,87.30687876258042,-1.88,-4.35,-3.26,0.0,0.0,0.0,4.0,0.0,4.0,0.0,2.75,14.72,0.0,
8.119,77.8397894033322,86.99468787625804,-1.9,-2.32,0.51,0.0,0.0,0.0,5.0,0.0,3.0,0.0,2.84,14.72,0.0,
8.143,77.67797894033322,86.88246878762581,-5.72,2.12,1.55,0.0,0.0,1.0,5.0,0.0,3.0,0.0,3.34,14.81,0.0,
8.167,77.69779789403333,86.71824687876259,-11.44,4.89,5.29,0.0,0.0,1.0,5.0,1.0,4.0,0.0,3.92,15.01,0.0,
8.192,77.70877978940332,86.29682468787625,-17.61,7.12,9.59,0.0,0.0,2.0,5.0,1.0,4.0,0.0,4.71,14.81,0.0,
8.216,77.88087797894035,85.75968246878763,-11.04,7.78,9.79,0.0,0.0,3.0,5.0,1.0,4.0,1.0,5.1,14.62,0.0,
8.24,78.32108779789404,85.63396824687877,-5.76,3.05,12.07,0.0,0.0,3.0,5.0,2.0,4.0,1.0,5.3,14.22,0.0,
8.264,78.5721087797894,85.50439682468787,-5.73,6.19,11.27,0.0,0.0,3.0,4.0,2.0,4.0,1.0,5.3,13.73,0.0,
8.289,78.57921087797894,85.23943968246878,-5.82,6.62,11.4,0.0,0.0,3.0,3.0,2.0,4.0,1.0,5.69,13.15,0.0,
8.312,78.70592108779789,85.06894396824688,-3.38,8.05,9.66,0.0,0.0,3.0,2.0,2.0,4.0,1.0,6.08,12.65,0.0,
8.337,78.80859210877979,85.04289439682469,-1.71,9.08,10.7,0.0,0.0,3.0,1.0,2.0,4.0,1.0,6.47,12.36,0.0,
8.36,78.98085921087798,85.10328943968247,-3.3,11.39,8.12,0.0,0.0,3.0,1.0,2.0,4.0,1.0,6.77,12.26,0.0,
8.385,79.1420859210878,85.00132894396825,-0.17,11.54,8.03,0.0,0.0,2.0,1.0,2.0,4.0,1.0,6.97,12.46,0.0,
8.41,79.27520859210878,85.04513289439683,-0.25,13.5,9.92,0.0,0.0,2.0,0.0,2.0,4.0,1.0,7.06,12.46,0.0,
8.433,79.55852085921087,85.37351328943969,-1.17,13.81,6.17,0.0,0.0,2.0,12.0,2.0,4.0,1.0,7.16,12.26,0.0,
8.458,79.91985208592108,85.43335132894397,-0.59,15.28,6.45,0.0,0.0,2.0,12.0,2.0,4.0,1.0,7.36,12.07,0.0,
8.482,80.35198520859213,85.32233513289441,2.08,14.63,3.41,0.0,0.0,2.0,12.0,2.0,4.0,1.0,7.46,11.97,0.0,
8.506,80.5481985208592,85.30223351328944,2.77,14.26,-0.12,0.0,0.0,3.0,12.0,2.0,4.0,2.0,7.65,12.07,0.0,
8.53,81.17081985208591,84.97622335132894,3.2,12.87,-2.89,0.0,0.0,3.0,11.0,2.0,5.0,2.0,7.65,11.77,0.0,
8.554,81.4490819852086,85.1236223351329,3.56,17.98,0.21,0.0,0.0,3.0,11.0,2.0,5.0,2.0,7.55,11.58,0.0,
8.579,81.70190819852085,85.45336223351329,5.3,8.76,-7.32,0.0,0.0,3.0,11.0,2.0,5.0,2.0,7.55,11.28,0.0,
8.603,81.95219081985209,85.63033622335134,2.96,11.63,-6.76,0.0,0.0,3.0,11.0,2.0,5.0,2.0,7.55,10.89,0.0,
8.627,82.4542190819852,85.62103362233513,1.79,8.85,-6.36,0.0,0.0,3.0,12.0,2.0,5.0,2.0,7.85,10.99,0.0,
8.651,82.81042190819852,85.71910336223353,1.11,8.17,-1.48,0.0,0.0,3.0,12.0,2.0,5.0,2.0,8.04,11.09,0.0,
8.675,83.04404219081984,85.26091033622335,2.56,6.29,-4.19,0.0,0.0,3.0,11.0,2.0,5.0,3.0,8.24,11.18,0.0,
8.699,83.30140421908199,85.53009103362234,0.95,4.58,-5.58,0.0,0.0,3.0,12.0,2.0,5.0,2.0,8.24,11.48,0.0,
8.723,83.3451404219082,85.45800910336223,-1.18,3.21,-9.51,0.0,0.0,4.0,1.0,3.0,5.0,3.0,8.34,11.77,0.0,
8.748,83.25951404219082,85.38780091033622,1.22,4.05,-10.67,0.0,0.0,4.0,2.0,3.0,5.0,3.0,8.14,12.46,0.0,
8.771,83.43995140421907,85.56978009103362,-2.72,3.61,-6.31,0.0,0.0,4.0,3.0,3.0,6.0,3.0,7.95,13.34,0.0,
8.796,83.70999514042191,86.05597800910336,-4.03,4.64,-7.44,0.0,0.0,4.0,3.0,3.0,6.0,3.0,7.85,14.03,0.0,
8.819,84.22299951404219,86.36559780091034,-4.79,4.25,-5.34,0.0,0.0,5.0,3.0,3.0,6.0,4.0,8.04,14.62,0.0,
8.844,84.32829995140422,86.75655978009104,-7.06,1.85,-11.46,0.0,0.0,5.0,4.0,3.0,6.0,4.0,8.14,14.81,0.0,
8.867,84.32982999514043,86.8946559780091,-5.35,2.89,-8.26,0.0,0.0,5.0,4.0,4.0,6.0,4.0,8.24,14.91,0.0,
8.892,85.33798299951404,86.56646559780091,-6.91,-22.59,-22.64,0.0,0.0,5.0,4.0,4.0,6.0,4.0,8.04,15.21,0.0,
8.916,85.25879829995141,86.45264655978009,-7.08,2.81,-2.66,0.0,0.0,5.0,5.0,4.0,6.0,4.0,7.95,15.5,0.0,
8.94,85.14287982999514,86.72926465597801,-18.12,-11.11,-6.92,0.0,0.0,5.0,6.0,4.0,7.0,4.0,7.95,15.99,0.0,
8.965,84.62728798299952,85.8659264655978,-8.2,-53.19,-14.18,0.0,0.0,5.0,7.0,4.0,7.0,4.0,8.04,16.48,0.0,
8.989,84.94472879829995,85.34759264655979,-9.71,8.06,0.12,0.0,0.0,5.0,6.0,4.0,7.0,5.0,8.04,17.07,0.0,
9.013,84.67047287983,85.47575926465598,-7.84,-4.34,-3.44,0.0,0.0,6.0,7.0,4.0,7.0,5.0,7.95,17.36,0.0,
9.037,84.373047287983,85.32657592646561,-6.31,-6.96,-3.69,0.0,0.0,6.0,7.0,4.0,7.0,5.0,7.95,17.46,0.0,
9.061,84.1363047287983,85.19465759264656,-3.98,-1.6,-2.82,0.0,0.0,6.0,7.0,4.0,8.0,5.0,7.85,17.46,0.0,
9.085,83.93263047287984,85.06446575926466,-3.98,0.92,-1.24,0.0,0.0,6.0,7.0,4.0,8.0,5.0,7.65,17.27,0.0,
9.109,83.80426304728799,85.10544657592646,-0.16,2.47,-1.33,0.0,0.0,6.0,7.0,4.0,7.0,5.0,7.65,17.07,0.0,
9.134,83.8724263047288,85.20854465759265,0.16,0.66,-0.47,0.0,0.0,6.0,7.0,4.0,7.0,5.0,7.65,16.48,0.0,
9.157,83.95124263047288,85.41685446575926,-2.89,-2.59,-1.39,0.0,0.0,6.0,6.0,4.0,7.0,5.0,7.46,15.99,0.0,
9.182,83.91412426304728,85.47368544657593,-5.62,-5.18,-2.04,0.0,0.0,6.0,6.0,4.0,7.0,5.0,7.36,15.4,0.0,
9.205,83.81141242630473,85.45236854465759,-6.0,-3.96,-0.95,0.0,0.0,6.0,6.0,3.0,7.0,5.0,7.06,14.52,0.0,
9.23,83.70214124263047,85.54923685446576,-5.31,-4.28,-1.36,0.0,0.0,6.0,7.0,3.0,7.0,5.0,6.97,13.64,0.0,
9.254,83.66421412426304,85.61292368544659,-4.6,-6.58,-2.29,0.0,0.0,6.0,7.0,3.0,7.0,5.0,6.87,13.15,0.0,
9.278,83.62442141242632,85.59229236854466,-6.19,-7.24,-3.28,0.0,0.0,6.0,7.0,3.0,7.0,4.0,6.77,12.95,0.0,
9.303,83.43144214124263,85.47322923685446,-5.18,-4.98,-1.6,0.0,0.0,6.0,7.0,3.0,8.0,5.0,6.47,12.56,0.0,
9.326,83.32214421412426,85.36232292368544,-3.5,-3.6,-1.23,0.0,0.0,6.0,8.0,3.0,8.0,5.0,6.38,12.36,0.0,
9.351,83.21221442141244,85.39623229236855,-2.52,-1.32,0.42,0.0,0.0,6.0,8.0,3.0,8.0,5.0,6.28,12.16,0.0,
9.374,83.12922144214124,85.41762322923685,-3.6,-4.05,0.83,0.0,0.0,6.0,8.0,3.0,8.0,4.0,6.28,11.97,0.0,
9.399,83.04892214421413,85.2937623229237,-4.06,-3.82,-0.27,0.0,0.0,6.0,8.0,3.0,8.0,4.0,6.38,11.67,0.0,
9.423,83.05889221442142,85.24537623229236,-4.02,-3.86,-0.66,0.0,0.0,6.0,7.0,3.0,8.0,4.0,6.28,11.38,0.0,
9.447,82.96088922144214,85.23153762322924,-4.12,-3.26,-0.33,0.0,0.0,6.0,7.0,3.0,8.0,5.0,6.38,11.09,0.0,
9.472,82.92408892214421,85.20315376232293,-4.11,-2.47,0.57,0.0,0.0,6.0,7.0,3.0,8.0,4.0,6.18,10.79,0.0,
9.495,82.98340889221443,85.2453153762323,-3.74,-5.48,1.38,0.0,0.0,6.0,7.0,3.0,8.0,4.0,6.18,10.5,0.0,
9.52,82.89034088922143,85.30353153762324,-3.5,-2.96,1.08,0.0,0.0,6.0,7.0,3.0,8.0,4.0,5.98,10.2,0.0,
9.543,82.71003408892214,85.24635315376231,-2.78,-4.45,-0.13,0.0,0.0,6.0,6.0,3.0,8.0,4.0,5.89,9.91,0.0,
9.568,82.63800340889222,85.24963531537624,-2.28,-2.93,0.27,0.0,0.0,6.0,6.0,3.0,7.0,4.0,5.89,9.81,0.0,
9.591,82.53180034088922,85.24096353153762,-2.55,-2.39,0.9,0.0,0.0,6.0,6.0,3.0,7.0,4.0,5.98,9.52,0.0,
9.616,82.54818003408892,85.30309635315378,-2.44,-0.84,2.24,0.0,0.0,6.0,6.0,3.0,7.0,3.0,5.98,9.22,0.0,
9.639,82.52281800340889,85.34530963531537,-2.68,-0.92,2.78,0.0,0.0,6.0,5.0,3.0,7.0,3.0,5.89,8.93,0.0,
9.664,82.43028180034088,85.34953096353154,-2.45,-0.46,2.56,0.0,0.0,5.0,5.0,3.0,7.0,3.0,5.79,8.73,0.0,
9.688,82.2680281800341,85.28695309635316,-2.58,-1.38,2.08,0.0,0.0,5.0,5.0,2.0,7.0,3.0,5.69,8.44,0.0,
9.711,82.2698028180034,85.2986953096353,-3.11,1.76,2.85,0.0,0.0,5.0,5.0,2.0,7.0,3.0,5.79,8.34,0.0,
9.736,82.30598028180034,85.38086953096352,-3.22,0.21,2.44,0.0,0.0,5.0,4.0,3.0,7.0,3.0,5.79,8.24,0.0,
9.759,82.35459802818002,85.40708695309635,-3.4,-0.51,1.89,0.0,0.0,5.0,4.0,3.0,7.0,3.0,5.69,8.14,0.0,
9.784,82.386459802818,85.39170869530963,-3.27,-0.62,1.89,0.0,0.0,5.0,3.0,3.0,7.0,3.0,5.79,8.04,0.0,
9.807,82.34464598028181,85.43517086953096,-3.14,-0.26,1.5,0.0,0.0,5.0,3.0,3.0,7.0,3.0,5.69,7.75,0.0,
9.831,82.36746459802819,85.4125170869531,-3.12,1.35,2.41,0.0,0.0,5.0,3.0,3.0,7.0,3.0,5.69,7.46,0.0,
9.856,82.38774645980281,85.37425170869533,-2.71,0.71,1.34,0.0,0.0,5.0,3.0,2.0,7.0,3.0,5.79,7.36,0.0,
9.879,82.46177464598028,85.38842517086952,-2.77,0.32,1.38,0.0,0.0,5.0,3.0,2.0,7.0,3.0,5.89,7.36,0.0,
9.903,82.52317746459804,85.39884251708696,-2.17,0.76,1.75,0.0,0.0,5.0,2.0,2.0,6.0,3.0,5.89,7.16,0.0,
9.927,82.51131774645981,85.3368842517087,-2.18,-0.22,1.88,0.0,0.0,5.0,2.0,2.0,6.0,3.0,5.98,6.97,0.0,
9.951,82.49213177464598,85.31268842517088,-1.21,1.41,2.05,0.0,0.0,5.0,2.0,2.0,6.0,3.0,5.98,6.77,0.0,
9.975,82.5892131774646,85.38226884251708,-0.89,2.44,1.5,0.0,0.0,5.0,2.0,2.0,6.0,3.0,5.98,6.57,0.0,
9.999,82.67092131774646,85.4882268842517,-1.9,0.08,0.91,0.0,0.0,5.0,2.0,2.0,6.0,2.0,6.08,6.28,0.0,
10.022,82.59809213177465,85.54382268842517,-2.46,0.49,0.34,0.0,0.0,5.0,2.0,2.0,6.0,2.0,6.08,6.28,0.0,
10.047,82.65380921317747,85.55838226884252,-2.67,-0.84,0.53,0.0,0.0,5.0,2.0,2.0,6.0,2.0,5.98,6.28,0.0,
10.071,82.68638092131775,85.51483822688425,-2.71,0.52,1.63,0.0,0.0,5.0,2.0,2.0,5.0,2.0,6.08,6.18,0.0,
10.095,82.72563809213179,85.56448382268842,-2.41,0.91,1.38,0.0,0.0,5.0,2.0,2.0,5.0,2.0,6.08,6.18,0.0,
10.119,82.81056380921318,85.66844838226885,-3.12,1.4,1.98,0.0,0.0,5.0,1.0,2.0,5.0,2.0,6.18,6.18,0.0,
10.142,82.90905638092131,85.66084483822688,-3.08,0.05,1.38,0.0,0.0,5.0,1.0,2.0,5.0,2.0,6.18,6.38,0.0,
10.167,82.91890563809213,85.6510844838227,-3.17,-0.52,0.9,0.0,0.0,5.0,1.0,2.0,5.0,3.0,6.28,6.38,0.0,
10.19,82.92889056380923,85.62310844838228,-3.35,-0.8,0.44,0.0,0.0,5.0,1.0,2.0,5.0,3.0,6.28,6.47,0.0,
10.215,82.97488905638093,85.55731084483823,-3.31,-1.63,-0.47,0.0,0.0,5.0,1.0,2.0,5.0,3.0,6.38,6.57,0.0,
10.238,82.97048890563809,85.56873108448382,-3.55,-1.66,-0.19,0.0,0.0,5.0,0.0,2.0,6.0,3.0,6.38,6.67,0.0,
10.263,82.93404889056382,85.6328731084484,-3.6,-2.24,-0.52,0.0,0.0,5.0,0.0,2.0,6.0,3.0,6.28,6.77,0.0,
10.288,82.98440488905638,85.61228731084485,-3.71,-1.22,-0.81,0.0,0.0,5.0,0.0,2.0,6.0,3.0,6.38,6.97,0.0,
10.311,82.98944048890564,85.60122873108448,-3.55,-0.98,-0.46,0.0,0.0,5.0,0.0,2.0,6.0,3.0,6.38,7.06,0.0,
10.336,82.99894404889056,85.60912287310845,-3.37,-0.7,0.24,0.0,0.0,5.0,0.0,2.0,6.0,3.0,6.47,7.26,0.0,
10.359,83.01789440488906,85.66391228731085,-3.19,-0.05,0.62,0.0,0.0,5.0,1.0,2.0,6.0,3.0,6.47,7.26,0.0,
10.384,83.04678944048891,85.63339122873107,-3.72,-0.71,0.16,0.0,0.0,5.0,1.0,2.0,6.0,3.0,6.47,7.36,0.0,
10.407,83.1036789440489,85.59433912287311,-3.39,-0.11,0.62,0.0,0.0,5.0,1.0,2.0,6.0,3.0,6.57,7.36,0.0,
10.432,83.1363678944049,85.5994339122873,-2.97,-0.47,0.58,0.0,0.0,5.0,1.0,2.0,6.0,3.0,6.47,7.36,0.0,
10.456,83.1756367894405,85.63594339122874,-2.92,-1.11,0.25,0.0,0.0,5.0,1.0,2.0,6.0,3.0,6.47,7.36,0.0,
10.48,83.17956367894406,85.64859433912288,-2.97,-1.71,0.11,0.0,0.0,5.0,1.0,2.0,6.0,3.0,6.47,7.26,0.0,
10.504,83.2069563678944,85.60485943391228,-2.85,-1.63,0.42,0.0,0.0,5.0,1.0,2.0,6.0,3.0,6.38,7.26,0.0,
10.528,83.17369563678945,85.59148594339123,-2.8,-0.84,0.32,0.0,0.0,5.0,1.0,2.0,6.0,3.0,6.38,7.06,0.0,
10.552,83.11636956367894,85.61714859433913,-2.63,-1.36,0.08,0.0,0.0,5.0,0.0,2.0,6.0,3.0,6.38,6.87,0.0,
10.576,83.12863695636788,85.6557148594339,-2.63,-1.47,-0.02,0.0,0.0,5.0,0.0,2.0,6.0,3.0,6.47,6.77,0.0,
10.6,83.18386369563679,85.6955714859434,-3.23,-1.37,0.46,0.0,0.0,5.0,1.0,2.0,5.0,3.0,6.57,6.67,0.0,
10.625,83.16238636956368,85.64555714859435,-2.92,-1.61,0.09,0.0,0.0,5.0,0.0,2.0,5.0,3.0,6.47,6.57,0.0,
10.648,83.16023863695636,85.64055571485945,-2.8,-1.34,-0.31,0.0,0.0,5.0,0.0,2.0,5.0,3.0,6.38,6.38,0.0,
10.673,83.12402386369564,85.73905557148593,-2.78,1.09,0.73,0.0,0.0,5.0,0.0,2.0,5.0,3.0,6.38,6.28,0.0,
10.697,83.12940238636955,85.81190555714859,-2.05,-0.42,0.19,0.0,0.0,5.0,0.0,2.0,5.0,3.0,6.38,6.38,0.0,
10.721,83.15694023863695,85.81919055571485,-2.27,-1.08,-0.07,0.0,0.0,5.0,1.0,2.0,5.0,3.0,6.47,6.57,0.0,
10.745,83.2046940238637,85.7929190555715,-2.79,-1.47,0.24,0.0,0.0,5.0,0.0,2.0,5.0,2.0,6.47,6.57,0.0,
10.769,83.27246940238636,85.72729190555714,-2.83,-1.79,-0.01,0.0,0.0,5.0,0.0,2.0,5.0,2.0,6.47,6.57,0.0,
10.793,83.29724694023864,85.73872919055572,-2.84,-1.74,0.3,0.0,0.0,5.0,0.0,2.0,5.0,2.0,6.47,6.38,0.0,
10.817,83.27272469402386,85.75787291905559,-2.85,-0.81,0.74,0.0,0.0,5.0,12.0,2.0,5.0,2.0,6.47,6.18,0.0,
10.842,83.21627246940238,85.81378729190556,-2.95,-0.18,1.36,0.0,0.0,5.0,12.0,2.0,5.0,2.0,6.38,5.98,0.0,
10.865,83.23762724694024,85.85537872919056,-2.8,-0.77,1.16,0.0,0.0,5.0,12.0,2.0,5.0,2.0,6.57,5.98,0.0,
10.89,83.23976272469402,85.88653787291906,-3.11,-0.46,1.41,0.0,0.0,5.0,12.0,2.0,5.0,2.0,6.57,5.89,0.0,
10.914,83.22197627246939,85.94365378729191,-3.07,-1.2,0.67,0.0,0.0,5.0,12.0,2.0,5.0,2.0,6.57,5.79,0.0,
10.938,83.26519762724693,85.95836537872918,-3.0,-1.83,-0.02,0.0,0.0,5.0,12.0,2.0,5.0,2.0,6.47,5.79,0.0,
10.962,83.22451976272468,85.9868365378729,-3.35,-2.39,0.06,0.0,0.0,5.0,12.0,2.0,5.0,2.0,6.57,5.79,0.0,
10.986,83.19345197627246,85.9986836537873,-3.58,-1.72,1.09,0.0,0.0,5.0,12.0,2.0,5.0,2.0,6.57,5.59,0.0,
11.011,83.17234519762725,85.99986836537873,-3.44,-1.21,0.29,0.0,0.0,5.0,12.0,2.0,5.0,2.0,6.57,5.49,0.0,
11.035,83.13423451976271,85.95498683653787,-3.18,-2.27,-0.13,0.0,0.0,5.0,12.0,2.0,5.0,2.0,6.67,5.4,0.0,
11.059,83.12142345197628,85.95049868365379,-3.6,-1.98,-0.02,0.0,0.0,5.0,12.0,2.0,5.0,2.0,6.57,5.4,0.0,
11.083,83.07514234519762,85.90504986836538,-3.66,-2.95,0.14,0.0,0.0,5.0,11.0,2.0,5.0,2.0,6.47,5.2,0.0,
11.108,83.00751423451976,85.95450498683653,-3.63,-2.92,0.34,0.0,0.0,5.0,11.0,2.0,5.0,2.0,6.47,5.0,0.0,
11.131,83.02775142345197,85.92345049868365,-3.54,-2.28,0.65,0.0,0.0,5.0,11.0,2.0,5.0,2.0,6.47,5.1,0.0,
11.156,83.0297751423452,85.86634504986836,-3.55,-2.11,0.55,0.0,0.0,5.0,11.0,2.0,5.0,2.0,6.47,5.0,0.0,
11.18,83.00297751423452,85.86063450498683,-3.53,-2.8,0.23,0.0,0.0,5.0,11.0,2.0,5.0,2.0,6.47,4.81,0.0,
11.204,82.96429775142346,85.82406345049868,-3.48,-3.37,0.01,0.0,0.0,5.0,11.0,2.0,5.0,2.0,6.47,4.91,0.0,
11.229,82.96042977514234,85.82040634504986,-3.9,-2.24,0.87,0.0,0.0,5.0,11.0,2.0,5.0,2.0,6.47,4.71,0.0,
11.252,82.95104297751423,85.79304063450499,-3.69,-2.36,0.57,0.0,0.0,5.0,11.0,2.0,5.0,2.0,6.47,4.61,0.0,
11.277,82.93210429775144,85.8623040634505,-3.78,-2.98,0.15,0.0,0.0,5.0,11.0,2.0,5.0,2.0,6.47,4.61,0.0,
11.3,82.87621042977516,85.81523040634505,-3.36,-2.21,0.18,0.0,0.0,5.0,11.0,2.0,5.0,2.0,6.47,4.41,0.0,
11.325,82.78962104297753,85.79252304063452,-3.03,-1.38,0.23,0.0,0.0,5.0,11.0,2.0,5.0,2.0,6.47,4.32,0.0,
11.35,82.75396210429776,85.81725230406344,-3.28,-0.4,0.55,0.0,0.0,5.0,11.0,2.0,5.0,2.0,6.47,4.22,0.0,
11.373,82.72339621042978,85.80172523040635,-3.22,-0.89,0.92,0.0,0.0,5.0,11.0,2.0,5.0,2.0,6.57,4.41,0.0,
11.398,82.76533962104297,85.78217252304063,-3.11,-1.54,0.9,0.0,0.0,5.0,11.0,2.0,5.0,2.0,6.67,4.61,0.0,
11.421,82.76953396210429,85.80721725230406,-3.45,-1.47,0.74,0.0,0.0,5.0,11.0,2.0,5.0,2.0,6.77,4.61,0.0,
11.446,82.76995339621043,85.8097217252304,-3.66,-1.76,0.5,0.0,0.0,5.0,11.0,2.0,5.0,2.0,6.67,4.51,0.0,
11.469,82.77899533962105,85.81897217252303,-3.41,-1.43,0.05,0.0,0.0,5.0,11.0,2.0,5.0,2.0,6.67,4.51,0.0,
11.494,82.76189953396211,85.7838972172523,-3.31,-1.91,0.23,0.0,0.0,5.0,11.0,2.0,5.0,2.0,6.57,4.41,0.0,
11.518,82.76018995339622,85.76238972172524,-3.53,-0.53,0.63,0.0,0.0,5.0,11.0,2.0,5.0,2.0,6.57,4.51,0.0,
11.542,82.72401899533963,85.74223897217252,-3.37,-0.92,0.54,0.0,0.0,5.0,11.0,2.0,5.0,2.0,6.57,4.61,0.0,
11.567,82.67540189953397,85.74022389721725,-3.47,-0.92,0.6,0.0,0.0,5.0,11.0,2.0,5.0,2.0,6.67,4.61,0.0,
11.59,82.6795401899534,85.76702238972172,-3.34,-0.18,1.19,0.0,0.0,5.0,11.0,2.0,5.0,2.0,6.67,4.51,0.0,
11.615,82.71595401899535,85.77870223897217,-3.23,-0.53,0.8,0.0,0.0,5.0,11.0,2.0,5.0,2.0,6.67,4.61,0.0,
11.639,82.71059540189952,85.77087022389722,-3.32,0.21,0.95,0.0,0.0,4.0,11.0,2.0,5.0,2.0,6.77,4.71,0.0,
11.663,82.71005954018995,85.78808702238973,-3.53,-0.64,0.89,0.0,0.0,5.0,11.0,2.0,5.0,3.0,6.87,4.81,0.0,
11.687,82.800005954019,85.78080870223897,-3.59,-1.03,0.78,0.0,0.0,5.0,11.0,2.0,5.0,3.0,6.87,4.81,0.0,
11.711,82.8270005954019,85.7710808702239,-3.93,-0.27,1.34,0.0,0.0,5.0,11.0,2.0,5.0,3.0,6.97,5.0,0.0,
11.736,82.82970005954019,85.77010808702238,-3.94,1.54,2.2,0.0,0.0,5.0,11.0,2.0,5.0,3.0,6.97,4.91,0.0,
11.759,82.91097000595401,85.74301080870224,-3.82,1.92,2.12,0.0,0.0,5.0,11.0,2.0,5.0,3.0,7.06,5.2,0.0,
11.784,82.82009700059541,85.76730108087023,-3.4,3.82,3.9,0.0,0.0,5.0,11.0,2.0,5.0,3.0,7.16,5.49,0.0,
11.808,82.83800970005956,85.77873010808702,-3.47,5.44,4.69,0.0,0.0,5.0,11.0,2.0,5.0,3.0,7.36,5.89,0.0,
11.832,82.94780097000596,85.76187301080871,-3.63,5.53,3.61,0.0,0.0,5.0,11.0,2.0,5.0,3.0,7.75,6.57,0.0,
11.856,83.0757800970006,85.67918730108087,-3.15,3.69,3.62,0.0,0.0,5.0,11.0,2.0,5.0,3.0,8.14,7.06,0.0,
11.88,83.29557800970005,85.63491873010808,-3.79,3.64,3.33,0.0,0.0,5.0,11.0,2.0,5.0,3.0,8.34,7.46,0.0,
11.905,83.47055780097,85.6034918730108,-4.37,2.57,2.62,0.0,0.0,5.0,11.0,2.0,5.0,3.0,8.63,7.85,0.0,
11.928,83.632055780097,85.56434918730108,-4.6,0.44,1.24,0.0,0.0,5.0,11.0,2.0,5.0,3.0,8.83,8.14,0.0,
11.953,83.6662055780097,85.57843491873011,-4.63,-0.98,0.5,0.0,0.0,5.0,11.0,2.0,5.0,3.0,8.93,8.44,0.0,
11.976,83.76862055780097,85.56184349187302,-4.99,-4.48,-0.99,0.0,0.0,5.0,10.0,3.0,5.0,3.0,8.83,8.34,0.0,
12.001,83.7968620557801,85.56018434918731,-5.18,-4.98,-0.95,0.0,0.0,5.0,10.0,2.0,5.0,3.0,8.93,7.95,0.0,
12.024,83.76368620557801,85.50601843491873,-4.62,-4.12,-0.06,0.0,0.0,5.0,10.0,2.0,5.0,2.0,8.73,7.55,0.0,
12.049,83.6163686205578,85.44660184349188,-4.53,-2.88,2.26,0.0,0.0,5.0,10.0,2.0,5.0,2.0,8.53,7.06,-2627.61,
12.073,83.54763686205578,85.42266018434918,-4.56,-2.84,1.88,0.0,0.0,5.0,10.0,2.0,5.0,2.0,8.44,6.47,0.0,
12.098,83.52276368620556,85.27626601843492,-4.3,-2.79,2.19,0.0,0.0,5.0,10.0,2.0,5.0,2.0,8.34,6.08,0.0,
12.122,83.47527636862056,85.21662660184349,-3.73,-2.24,3.2,0.0,0.0,4.0,10.0,2.0,5.0,2.0,8.34,5.79,0.0,
12.146,83.37152763686206,85.21066266018434,-3.66,0.21,4.88,0.0,0.0,4.0,9.0,2.0,4.0,2.0,8.24,5.59,0.0,
12.17,83.27115276368622,85.18306626601844,-3.0,-0.89,3.78,0.0,0.0,4.0,9.0,2.0,4.0,2.0,8.14,5.49,0.0,
12.194,83.23411527636863,85.19830662660185,-2.47,-2.93,1.3,0.0,0.0,4.0,9.0,2.0,4.0,2.0,8.34,5.69,0.0,
12.218,83.14941152763687,85.17283066266019,-2.6,-3.16,0.34,0.0,0.0,4.0,9.0,2.0,4.0,2.0,8.53,5.79,0.0,
12.242,83.13194115276367,85.26928306626603,-2.9,-5.92,-0.57,0.0,0.0,4.0,10.0,2.0,4.0,2.0,8.63,5.98,0.0,
12.267,83.07619411527635,85.35992830662661,-5.63,-7.37,-0.41,0.0,0.0,4.0,10.0,2.0,4.0,2.0,8.73,6.08,0.0,
12.291,83.01661941152764,85.70199283066266,-5.47,-8.32,-2.65,0.0,0.0,4.0,9.0,2.0,4.0,2.0,8.63,5.98,0.0,
12.315,82.83066194115277,85.82619928306626,-10.23,-9.13,-1.41,0.0,0.0,4.0,9.0,2.0,4.0,2.0,8.63,6.18,0.0,
12.339,82.96506619411528,85.75761992830662,-15.66,-10.8,-1.44,0.0,0.0,4.0,8.0,2.0,4.0,2.0,8.73,6.18,0.0,
12.363,82.69050661941154,85.23776199283067,-18.38,-15.46,-9.32,0.0,0.0,4.0,7.0,2.0,4.0,2.0,8.73,6.18,0.0,
12.388,82.50105066194115,85.09577619928307,-21.92,-11.08,-9.44,0.0,0.0,4.0,5.0,2.0,4.0,2.0,8.73,6.28,0.0,
12.412,83.03110506619412,84.7485776199283,-33.2,-20.15,-8.02,0.0,0.0,4.0,4.0,0.0,4.0,1.0,8.53,6.28,0.0,
12.436,83.02111050661941,85.02885776199282,-47.51,-9.58,2.51,0.0,0.0,4.0,3.0,2.0,4.0,1.0,7.75,6.38,0.0,
12.461,82.59711105066194,84.59788577619928,-52.1,-14.53,-4.73,0.0,0.0,3.0,1.0,1.0,4.0,1.0,6.57,5.98,0.0,
12.485,82.27571110506618,82.96178857761994,-66.29,10.18,10.73,0.0,0.0,2.0,0.0,1.0,4.0,1.0,4.91,4.51,0.0,
12.509,83.45857111050663,82.483178857762,-46.22,7.82,16.89,0.0,0.0,0.0,0.0,0.0,2.0,0.0,3.53,2.26,0.0,
12.533,85.69185711105067,83.2633178857762,-40.11,5.96,23.27,0.0,0.0,0.0,0.0,0.0,0.0,0.0,2.94,1.47,0.0,
12.557,85.97818571110507,85.22233178857762,-3.27,-1.98,44.84,0.0,0.0,0.0,0.0,0.0,0.0,0.0,0.98,1.28,0.0,
12.58,85.44881857111051,88.08223317885776,36.72,-15.02,38.35,0.0,0.0,0.0,0.0,0.0,0.0,0.0,0.0,1.47,0.0,
12.604,83.82988185711106,91.43722331788578,43.06,-3.3,33.54,0.0,0.0,0.0,0.0,0.0,0.0,0.0,0.0,1.67,0.0,
12.627,82.3359881857111,93.93272233178858,49.78,-2.6,25.18,0.0,0.0,0.0,0.0,0.0,0.0,0.0,0.0,1.57,0.0,
12.651,81.16059881857112,95.84727223317887,58.12,-10.73,15.27,0.0,0.0,0.0,0.0,0.0,0.0,0.0,0.0,1.47,0.0,
12.675,80.25105988185712,97.36172722331789,59.84,-14.11,8.14,0.0,0.0,0.0,0.0,0.0,0.0,0.0,0.0,1.37,0.0,
12.699,79.53910598818571,98.27817272233179,49.24,-15.17,1.48,0.0,0.0,0.0,0.0,0.0,0.0,0.0,0.0,1.47,0.0,
12.723,79.17991059881857,98.36981727223318,36.78,-11.91,-4.55,0.0,0.0,0.0,0.0,0.0,0.0,0.0,0.0,1.37,0.0,
12.746,79.13499105988186,97.82098172722333,24.63,0.04,-8.24,0.0,0.0,0.0,0.0,0.0,0.0,0.0,0.0,1.37,0.0,
12.77,79.22949910598818,96.64109817272234,18.45,14.51,-0.92,0.0,0.0,0.0,0.0,0.0,0.0,0.0,0.0,1.37,0.0,
12.793,79.81494991059881,94.82210981727223,25.68,27.54,2.6,0.0,0.0,0.0,0.0,0.0,0.0,0.0,0.0,1.18,0.0,
12.817,80.54849499105987,93.13721098172722,31.92,34.05,4.24,0.0,0.0,0.0,0.0,0.0,0.0,0.0,0.0,1.18,0.0,
12.84,81.42284949910598,91.88872109817272,33.89,28.54,4.34,0.0,0.0,0.0,0.0,0.0,0.0,0.0,0.0,1.18,0.0,
12.864,82.35628494991059,90.89087210981727,28.98,28.99,16.19,0.0,0.0,0.0,0.0,0.0,0.0,0.0,0.0,1.08,0.0,
12.888,82.88162849499106,89.94508721098174,21.71,34.35,30.21,0.0,0.0,0.0,0.0,0.0,0.0,0.0,0.0,1.08,0.0,
12.911,83.5371628494991,88.08650872109817,21.42,44.09,44.1,0.0,0.0,0.0,0.0,0.0,0.0,0.0,0.0,1.08,0.0,
12.936,84.07971628494991,86.18165087210983,28.21,34.38,44.9,0.0,0.0,0.0,0.0,0.0,0.0,0.0,0.0,1.08,0.0,
12.959,84.493971628495,84.74916508721098,30.79,15.78,41.48,0.0,0.0,0.0,0.0,0.0,0.0,0.0,0.0,1.18,0.0,
12.983,84.14839716284949,83.9039165087211,27.24,0.04,35.34,0.0,0.0,0.0,0.0,0.0,0.0,0.0,0.0,1.18,0.0,
13.006,83.21383971628495,82.77539165087211,18.6,-1.09,31.98,0.0,0.0,0.0,0.0,0.0,0.0,0.0,0.0,1.18,0.0,
13.03,81.9683839716285,79.97153916508721,-9.08,-15.23,20.48,0.0,0.0,0.0,0.0,0.0,0.0,0.0,0.0,1.18,0.0,
13.053,81.62783839716286,77.66615391650872,-19.88,-34.34,-12.66,0.0,0.0,0.0,0.0,0.0,0.0,0.0,0.0,1.08,0.0,
13.078,80.67578383971627,77.84061539165087,-17.98,-64.11,-25.71,0.0,0.0,0.0,0.0,0.0,0.0,0.0,0.0,0.98,0.0,
13.102,81.23757838397162,81.48506153916509,-26.09,-2.92,-25.4,0.0,0.0,0.0,0.0,0.0,0.0,0.0,0.0,0.88,0.0,
13.125,80.35775783839716,82.65050615391652,-40.44,-33.52,-27.15,0.0,0.0,0.0,0.0,0.0,0.0,0.0,0.0,1.08,0.0,
13.15,80.44977578383971,83.87405061539167,-57.66,39.42,-15.24,0.0,0.0,0.0,0.0,0.0,0.0,0.0,0.0,1.18,0.0,
13.173,81.66497757838397,83.01540506153917,1.79,-56.05,-33.36,0.0,0.0,0.0,0.0,0.0,0.0,0.0,0.0,1.08,0.0,
13.197,81.1564977578384,84.1895405061539,-15.32,4.12,-12.07,0.0,0.0,0.0,0.0,0.0,0.0,0.0,0.0,0.78,0.0,
13.221,80.88964977578384,84.83795405061538,-6.61,-13.9,-13.0,0.0,0.0,0.0,1.0,0.0,0.0,0.0,0.0,1.18,0.0,
13.245,81.03396497757838,86.01879540506155,-9.1,9.48,-6.34,0.0,0.0,0.0,1.0,0.0,0.0,0.0,0.0,1.08,0.0,
13.268,80.97639649775785,86.79387954050614,-12.55,7.48,-12.19,0.0,0.0,0.0,2.0,0.0,0.0,0.0,0.1,1.08,0.0,
13.293,81.28563964977579,87.36638795405062,-21.45,21.94,-7.76,0.0,0.0,0.0,3.0,0.0,0.0,0.0,0.49,0.98,0.0,
13.317,81.89256396497757,87.54963879540506,-16.74,29.78,-9.7,0.0,0.0,0.0,4.0,0.0,1.0,0.0,0.98,0.88,0.0,
13.341,82.66425639649776,87.81096387954051,-4.66,-14.96,-41.69,0.0,0.0,0.0,5.0,0.0,1.0,0.0,2.06,1.08,0.0,
13.366,83.09242563964978,87.12609638795405,-23.51,19.76,-20.17,0.0,0.0,0.0,7.0,1.0,2.0,0.0,3.43,1.67,0.0,
13.389,82.90124256396497,87.4896096387954,-14.79,5.84,-24.32,0.0,0.0,1.0,8.0,1.0,3.0,0.0,4.51,2.26,0.0,
13.414,82.3151242563965,86.90496096387955,-14.23,-8.08,-19.46,0.0,0.0,2.0,10.0,1.0,3.0,1.0,4.81,2.84,0.0,
13.438,82.26551242563966,86.76549609638795,-14.13,7.75,-16.66,0.0,0.0,2.0,12.0,2.0,3.0,1.0,4.32,4.91,0.0,
13.463,82.87255124256396,86.8325496096388,-15.01,11.21,-15.23,0.0,0.0,3.0,3.0,3.0,4.0,2.0,4.32,8.14,0.0,
13.488,83.3832551242564,86.88425496096389,-11.6,3.59,-14.77,0.0,0.0,4.0,7.0,0.0,5.0,2.0,3.83,12.65,0.0,
13.512,84.15432551242564,86.7004254960964,-6.34,-8.49,-14.76,0.0,0.0,5.0,9.0,3.0,5.0,3.0,2.84,17.27,0.0,
13.537,84.57343255124256,86.35804254960964,-3.52,-13.96,-13.66,0.0,0.0,5.0,11.0,4.0,6.0,3.0,1.86,20.11,0.0,
13.561,84.30034325512426,86.40480425496096,-1.39,-20.34,-7.63,0.0,0.0,5.0,13.0,4.0,6.0,2.0,0.49,21.88,0.0,
13.586,83.69703432551242,86.4904804254961,-0.49,-20.93,-7.47,0.0,0.0,4.0,14.0,4.0,6.0,2.0,0.0,21.88,0.0,
13.611,83.67270343255123,86.55304804254962,-5.95,-8.05,-6.08,0.0,0.0,4.0,14.0,4.0,6.0,2.0,0.0,20.8,0.0,
13.635,83.46327034325512,86.67630480425495,-7.18,-7.14,-6.92,0.0,0.0,4.0,16.0,4.0,6.0,2.0,0.0,20.11,0.0,
13.66,83.34332703432551,86.6526304804255,-6.98,-5.55,-6.13,0.0,0.0,4.0,14.0,5.0,6.0,2.0,0.0,20.5,0.0,
13.683,83.39433270343255,86.56926304804256,-5.2,-0.02,-4.57,0.0,0.0,5.0,15.0,5.0,6.0,2.0,0.0,22.17,0.0,
13.708,83.29143327034325,86.64192630480427,-4.3,-0.52,-2.06,0.0,0.0,5.0,15.0,5.0,6.0,2.0,0.0,24.13,0.0,
13.732,83.19114332703433,86.65819263048043,-6.97,-0.08,-1.39,0.0,0.0,5.0,16.0,5.0,6.0,2.0,0.39,25.31,0.0,
13.757,83.22611433270345,86.56981926304805,-8.24,-1.1,-4.05,0.0,0.0,5.0,16.0,6.0,6.0,3.0,0.69,26.78,0.0,
13.782,83.28361143327035,86.45298192630482,-4.6,-4.52,-2.85,0.0,0.0,6.0,17.0,6.0,6.0,3.0,0.98,28.65,0.0,
13.806,83.36136114332703,86.41429819263048,-3.7,-3.53,-3.66,0.0,0.0,6.0,17.0,6.0,6.0,3.0,1.28,29.72,0.0,
13.831,83.4231361143327,86.32042981926305,-2.66,-5.12,-1.11,0.0,0.0,5.0,18.0,6.0,6.0,2.0,1.47,29.63,0.0,
13.855,83.46531361143327,86.39204298192631,-4.31,-3.57,3.08,0.0,0.0,5.0,18.0,6.0,6.0,2.0,1.18,28.45,0.0,
13.879,83.40653136114332,86.48020429819262,-4.96,-4.59,1.55,0.0,0.0,5.0,19.0,6.0,6.0,2.0,0.98,27.08,0.0,
13.903,69.93665313611433,68.71402042981926,-2.18,-37.85,-41.28,0.0,0.0,5.0,20.0,5.0,6.0,2.0,1.08,25.51,0.0,
13.928,76.23966531361143,73.70540204298193,10.24,-6.73,-20.29,0.0,0.0,5.0,20.0,5.0,7.0,2.0,1.18,24.33,0.0,
13.953,78.18396653136114,76.1035402042982,-17.11,22.91,17.94,0.0,0.0,5.0,20.0,5.0,7.0,2.0,1.77,24.13,0.0,
13.977,78.6483966531361,78.01735402042983,-9.44,4.36,6.76,0.0,0.0,5.0,20.0,5.0,7.0,3.0,2.55,23.94,0.0,
14.002,78.80283966531361,79.29773540204297,-7.7,-5.26,4.34,0.0,0.0,5.0,21.0,5.0,7.0,3.0,3.24,23.94,0.0,
14.026,79.26828396653136,80.0737735402043,-9.62,-5.34,2.69,0.0,0.0,6.0,21.0,5.0,7.0,3.0,3.83,24.62,0.0,
14.051,79.76482839665313,80.86237735402044,-10.52,-4.0,-0.17,0.0,0.0,6.0,22.0,5.0,7.0,3.0,4.71,25.8,0.0,
14.074,80.39948283966531,81.53523773540203,-10.61,-6.69,5.84,0.0,0.0,6.0,22.0,5.0,7.0,3.0,5.59,27.08,0.0,
14.099,80.64294828396653,82.1065237735402,-13.48,-4.56,6.35,0.0,0.0,6.0,23.0,5.0,8.0,4.0,7.16,28.84,0.0,
14.124,80.83829482839666,82.61365237735403,-15.65,-16.29,3.38,0.0,0.0,7.0,24.0,6.0,8.0,4.0,9.03,31.2,0.0,
14.148,80.90282948283966,83.08736523773541,-21.35,-20.69,1.19,0.0,0.0,8.0,24.0,4.0,9.0,5.0,11.18,33.65,0.0,
14.173,80.74728294828398,83.14373652377355,-23.49,-29.23,-1.63,0.0,0.0,9.0,24.0,7.0,9.0,6.0,13.54,36.2,0.0,
14.197,80.59672829482841,83.25737365237735,-29.48,-20.65,1.52,0.0,0.0,9.0,22.0,7.0,10.0,6.0,16.48,38.65,0.0,
14.222,80.48267282948284,83.33173736523773,-36.53,-27.56,1.43,0.0,0.0,10.0,20.0,6.0,10.0,7.0,19.62,38.65,0.0,
14.246,79.8772672829483,83.27617373652377,-46.53,-28.61,-7.73,0.0,0.0,10.0,15.0,5.0,10.0,7.0,25.11,37.67,0.0,
14.272,77.25172672829483,81.57861737365238,-54.79,7.73,30.25,0.0,0.0,10.0,7.0,6.0,10.0,7.0,29.53,34.92,0.0,
14.297,76.9261726728295,80.04086173736525,-69.94,-0.28,-12.75,0.0,0.0,10.0,11.0,6.0,10.0,7.0,34.34,30.61,0.0,
14.321,77.09161726728294,79.87808617373652,-79.32,21.53,6.66,0.0,0.0,10.0,7.0,6.0,10.0,7.0,38.55,23.64,0.0,
14.346,78.1611617267283,79.37580861737364,-95.73,-2.37,10.88,0.0,0.0,11.0,2.0,3.0,11.0,7.0,41.79,16.58,0.0,
14.37,77.60211617267282,78.37158086173737,-96.11,16.73,16.15,0.0,0.0,11.0,0.0,6.0,11.0,7.0,43.16,10.59,0.0,
14.395,77.84321161726729,77.10115808617373,-124.15,7.49,3.34,0.0,0.0,11.0,0.0,2.0,11.0,6.0,40.81,5.69,0.0,
14.418,79.28932116172673,77.10011580861737,-123.03,0.22,-3.94,0.0,0.0,10.0,0.0,6.0,11.0,6.0,34.92,0.98,0.0,
14.443,80.25293211617267,75.79501158086174,-132.56,-7.91,-2.53,0.0,0.0,10.0,0.0,6.0,11.0,6.0,25.8,0.0,0.0,
14.468,80.26829321161726,73.58550115808617,-148.73,1.69,-20.87,0.0,0.0,9.0,0.0,5.0,10.0,5.0,16.48,0.0,0.0,
14.492,79.79282932116172,71.47455011580861,-146.07,-8.36,-24.73,0.0,0.0,7.0,0.0,4.0,10.0,3.0,12.07,0.0,0.0,
14.517,80.57328293211617,69.58045501158087,-139.1,30.65,-2.41,0.0,0.0,5.0,0.0,3.0,7.0,1.0,8.63,0.0,0.0,
14.54,81.15532829321161,66.75404550115809,-111.49,-1.42,15.98,0.0,0.0,3.0,0.0,2.0,4.0,1.0,5.1,0.29,0.0,
14.565,85.03853282932116,62.18740455011581,-65.56,1.57,6.24,0.0,0.0,0.0,0.0,0.0,1.0,1.0,1.86,1.67,0.0,
14.588,85.22885328293212,61.10974045501158,0.2,-7.57,12.22,0.0,0.0,0.0,0.0,0.0,0.0,1.0,0.0,551.13,0.0,
14.612,84.14988532829322,62.88297404550116,69.98,-30.89,-2.46,0.0,0.0,0.0,0.0,0.0,0.0,1.0,0.0,2.06,0.0,
14.636,83.03398853282933,65.49929740455012,99.08,-31.42,6.93,0.0,0.0,0.0,0.0,0.0,0.0,1.0,0.0,1.77,0.0,
14.66,80.89739885328292,67.99292974045501,127.31,-15.53,5.44,0.0,0.0,0.0,0.0,0.0,0.0,1.0,0.0,1.77,0.0,
14.684,79.1717398853283,71.2932929740455,141.12,-27.32,2.76,0.0,0.0,0.0,0.0,0.0,0.0,1.0,0.0,1.67,0.0,
14.707,77.83817398853283,74.50332929740455,139.89,-12.49,13.81,0.0,0.0,0.0,0.0,0.0,0.0,1.0,0.0,1.67,0.0,
14.731,77.0658173988533,77.10133292974045,124.35,2.61,23.61,0.0,0.0,0.0,0.0,0.0,0.0,1.0,0.0,1.67,0.0,
14.754,76.55658173988533,77.64913329297404,117.22,2.79,27.27,0.0,0.0,0.0,0.0,0.0,0.0,1.0,0.0,1.57,0.0,
14.778,76.43365817398853,77.2089133292974,129.89,-2.36,26.93,0.0,0.0,0.0,0.0,0.0,0.0,1.0,0.0,1.57,0.0,
14.802,76.25036581739886,77.10189133292974,131.75,-11.39,25.12,0.0,0.0,0.0,0.0,0.0,0.0,1.0,0.0,1.57,0.0,
14.826,76.09703658173987,76.47018913329298,117.08,-8.02,19.33,0.0,0.0,0.0,0.0,0.0,0.0,1.0,0.0,1.67,0.0,
14.85,75.50570365817399,75.14701891332929,94.76,-16.05,4.15,0.0,0.0,0.0,0.0,0.0,0.0,1.0,0.0,1.67,0.0,
14.873,75.59057036581738,73.32270189133294,58.88,26.32,-11.34,0.0,0.0,0.0,0.0,0.0,0.0,1.0,0.0,1.77,0.0,
14.898,75.70705703658173,71.4662701891333,40.98,52.35,-17.59,0.0,0.0,0.0,0.0,0.0,0.0,1.0,0.0,1.57,0.0,
14.921,77.46470570365818,68.92262701891333,46.11,54.52,-26.37,0.0,0.0,0.0,0.0,0.0,0.0,1.0,0.0,1.57,0.0,
14.945,77.70347057036582,67.16526270189134,38.08,27.95,-30.69,0.0,0.0,0.0,0.0,0.0,0.0,1.0,0.0,1.57,0.0,
14.968,77.73634705703657,66.29652627018913,22.75,1.24,-28.04,0.0,0.0,0.0,0.0,0.0,0.0,1.0,0.0,1.37,0.0,
14.992,77.39763470570365,66.4256526270189,7.5,-7.44,-17.33,0.0,0.0,0.0,0.0,0.0,0.0,1.0,0.0,1.37,0.0,
15.015,77.13876347057037,68.5625652627019,-3.21,-16.51,-8.15,0.0,0.0,0.0,0.0,0.0,0.0,1.0,0.0,1.37,0.0,
15.04,76.68087634705704,72.61925652627018,-0.8,-9.18,0.83,0.0,0.0,0.0,0.0,0.0,0.0,1.0,0.0,1.57,0.0,
15.064,75.8880876347057,76.47192565262702,12.87,-5.84,5.32,0.0,0.0,0.0,0.0,0.0,0.0,1.0,0.0,1.57,0.0,
15.087,75.71880876347058,79.3051925652627,26.16,-6.27,-3.98,0.0,0.0,0.0,0.0,0.0,0.0,1.0,0.0,1.57,0.0,
15.111,76.33188087634706,80.93851925652628,30.29,-4.33,-1.76,0.0,0.0,0.0,0.0,0.0,0.0,1.0,0.0,1.67,0.0,
15.134,77.14018808763471,81.59685192565263,17.62,2.31,0.04,0.0,0.0,0.0,0.0,0.0,0.0,1.0,0.0,1.57,0.0,
15.158,77.48201880876347,79.99768519256526,-1.52,2.01,7.57,0.0,0.0,0.0,0.0,0.0,0.0,1.0,0.0,1.57,0.0,
15.181,77.89420188087635,75.55376851925652,-19.11,10.31,22.4,0.0,0.0,0.0,0.0,0.0,0.0,1.0,0.0,1.57,0.0,
15.205,78.01642018808764,76.91837685192564,21.64,18.34,-12.11,0.0,0.0,0.0,1.0,0.0,1.0,1.0,0.0,2.94,0.0,
15.229,79.49564201880877,78.09883768519258,8.33,-0.88,-9.93,0.0,0.0,0.0,1.0,0.0,0.0,1.0,0.0,3.24,0.0,
15.253,78.58156420188088,80.74588376851926,0.92,15.8,-0.81,0.0,0.0,0.0,2.0,0.0,0.0,1.0,0.0,3.24,0.0,
15.277,78.63415642018808,81.63158837685192,-16.21,21.27,3.81,0.0,0.0,0.0,2.0,0.0,0.0,1.0,0.2,3.53,0.0,
15.3,79.16141564201881,81.9991588376852,-9.79,39.59,-0.95,0.0,0.0,0.0,2.0,0.0,0.0,1.0,0.39,3.83,0.0,
15.325,79.02514156420189,81.17191588376852,5.3,11.1,-19.69,0.0,0.0,0.0,3.0,0.0,0.0,1.0,0.59,3.63,0.0,
15.348,79.4615141564202,82.76319158837686,-7.37,20.24,3.1,0.0,0.0,0.0,3.0,0.0,1.0,1.0,1.28,3.43,0.0,
15.373,79.63115141564202,82.76031915883769,-0.52,27.5,-3.18,0.0,0.0,0.0,4.0,0.0,1.0,0.0,1.86,3.34,0.0,
15.396,80.7551151415642,84.29003191588376,-1.54,12.78,-1.11,0.0,0.0,0.0,5.0,0.0,1.0,0.0,2.45,3.04,0.0,
15.421,80.91251151415642,84.92900319158838,-2.54,7.04,-9.08,0.0,0.0,0.0,5.0,0.0,1.0,0.0,3.14,3.14,0.0,
15.444,81.60325115141566,85.65890031915883,-5.62,7.7,-3.47,0.0,0.0,0.0,6.0,0.0,2.0,0.0,3.53,3.24,0.0,
15.469,81.95132511514156,85.85789003191589,-5.69,3.05,-2.85,0.0,0.0,1.0,6.0,1.0,2.0,0.0,3.83,3.24,0.0,
15.493,82.13013251151416,85.8597890031916,-5.44,5.85,-2.08,0.0,0.0,1.0,7.0,1.0,2.0,0.0,4.12,3.24,0.0,
15.517,82.41801325115141,85.79697890031917,-7.55,-0.09,-1.24,0.0,0.0,1.0,7.0,1.0,2.0,0.0,4.41,3.43,0.0,
15.542,82.91480132511514,86.06069789003192,-3.99,2.21,-3.2,0.0,0.0,1.0,8.0,1.0,2.0,1.0,4.51,3.43,0.0,
15.565,82.93748013251151,86.05106978900318,-5.07,3.16,-5.0,0.0,0.0,1.0,9.0,1.0,3.0,1.0,4.61,3.43,0.0,
15.59,83.23674801325114,86.41910697890032,-6.4,3.18,-2.56,0.0,0.0,2.0,9.0,1.0,3.0,1.0,4.71,3.53,0.0,
15.613,83.15867480132512,86.35691069789003,-4.47,-0.47,-3.75,0.0,0.0,2.0,10.0,1.0,3.0,1.0,4.71,3.83,0.0,
15.638,83.30386748013251,86.39569106978901,-4.21,-2.07,-4.02,0.0,0.0,2.0,10.0,1.0,3.0,1.0,4.71,4.22,0.0,
15.662,83.58838674801326,86.3815691069789,-4.44,-0.15,-2.52,0.0,0.0,2.0,11.0,2.0,3.0,1.0,4.51,4.61,0.0,
15.686,83.74283867480132,86.4971569106979,-4.1,0.76,-2.62,0.0,0.0,2.0,11.0,2.0,4.0,1.0,4.41,4.81,0.0,
15.711,83.74028386748013,86.5357156910698,-4.41,-2.68,-3.6,0.0,0.0,2.0,11.0,2.0,4.0,1.0,4.32,5.0,0.0,
15.734,83.80302838674801,86.63857156910699,-5.97,-2.21,-4.18,0.0,0.0,2.0,12.0,2.0,4.0,1.0,4.12,5.3,0.0,
15.759,83.7373028386748,86.55885715691069,-4.87,-0.89,-3.73,0.0,0.0,3.0,12.0,2.0,4.0,2.0,3.83,5.79,0.0,
15.783,83.76673028386747,86.49688571569106,-4.5,-0.96,-2.39,0.0,0.0,3.0,0.0,2.0,4.0,2.0,3.63,6.18,0.0,
15.807,83.77867302838675,86.47268857156911,-3.98,-2.19,-1.69,0.0,0.0,3.0,1.0,2.0,4.0,2.0,3.43,6.57,0.0,
15.832,83.89686730283867,86.49726885715691,-3.75,-2.08,-1.42,0.0,0.0,3.0,1.0,2.0,4.0,2.0,3.43,6.87,0.0,
15.856,83.94468673028388,86.4817268857157,-2.79,-2.72,-0.58,0.0,0.0,3.0,2.0,2.0,4.0,2.0,3.53,7.06,0.0,
15.88,83.92246867302839,86.50717268857157,-3.06,-1.74,-0.35,0.0,0.0,3.0,2.0,2.0,4.0,2.0,3.34,6.97,0.0,
15.904,83.87524686730285,86.48271726885716,-2.98,-1.93,0.0,0.0,0.0,3.0,2.0,2.0,4.0,2.0,3.43,7.06,0.0,
15.928,83.89752468673029,86.48027172688572,-3.0,-1.66,-0.34,0.0,0.0,3.0,2.0,2.0,4.0,2.0,3.34,7.16,0.0,
15.952,83.99875246867303,86.40802717268858,-2.23,1.06,1.54,0.0,0.0,3.0,2.0,2.0,4.0,2.0,3.43,7.16,0.0,
15.976,83.99087524686729,86.40080271726886,-2.33,-0.1,0.41,0.0,0.0,3.0,2.0,2.0,4.0,2.0,3.63,7.26,0.0,
16.001,83.93608752468674,86.40008027172689,-1.63,-2.4,-0.12,0.0,0.0,3.0,1.0,2.0,4.0,2.0,3.73,6.97,0.0,
16.024,83.91260875246869,86.43600802717269,-1.82,-3.44,-0.4,0.0,0.0,3.0,0.0,2.0,4.0,2.0,3.92,6.67,0.0,
16.049,83.50526087524686,86.43960080271728,-1.53,4.38,2.46,0.0,0.0,3.0,12.0,2.0,4.0,2.0,3.83,6.38,0.0,
16.072,83.51852608752468,86.44896008027173,-1.3,-0.84,-0.23,0.0,0.0,3.0,12.0,2.0,4.0,1.0,4.02,5.98,0.0,
16.097,83.63685260875248,86.44989600802718,-1.17,-0.22,-1.44,0.0,0.0,3.0,11.0,2.0,4.0,1.0,4.22,5.69,0.0,
16.121,83.68468526087524,86.44098960080272,-1.05,1.4,0.2,0.0,0.0,2.0,11.0,2.0,4.0,1.0,4.41,5.49,0.0,
16.145,83.77946852608753,86.41309896008028,-0.42,-2.98,-0.09,0.0,0.0,2.0,11.0,2.0,3.0,1.0,4.51,5.3,0.0,
16.169,83.76194685260876,86.47330989600803,-0.91,1.4,0.69,0.0,0.0,2.0,11.0,2.0,3.0,1.0,4.71,5.1,0.0,
16.193,83.79619468526087,86.6143309896008,-0.9,0.79,-0.55,0.0,0.0,2.0,11.0,2.0,3.0,1.0,4.71,4.91,0.0,
16.218,83.77261946852609,86.87143309896008,-0.17,3.69,-2.5,0.0,0.0,2.0,10.0,2.0,3.0,1.0,4.71,4.51,0.0,
16.242,83.89626194685262,87.059143309896,-0.27,3.11,-0.34,0.0,0.0,2.0,10.0,2.0,3.0,1.0,4.91,4.22,0.0,
16.266,84.05262619468526,87.22191433098959,0.99,0.9,-0.73,0.0,0.0,2.0,10.0,2.0,3.0,1.0,4.91,4.12,0.0,
16.29,84.25726261946853,87.25619143309896,0.87,1.21,1.57,0.0,0.0,2.0,9.0,2.0,2.0,1.0,5.0,3.73,0.0,
16.314,84.23272626194685,87.2056191433099,0.53,0.24,1.25,0.0,0.0,2.0,9.0,1.0,2.0,0.0,5.0,3.34,0.0,
16.337,84.31127262619468,87.34456191433098,-0.15,-1.29,-1.63,0.0,0.0,1.0,9.0,1.0,2.0,0.0,4.91,2.75,0.0,
16.362,84.33712726261948,87.37645619143309,-2.73,0.07,-2.63,0.0,0.0,1.0,9.0,1.0,2.0,0.0,4.81,2.35,0.0,
16.387,84.41171272626195,87.39764561914332,-2.47,-1.21,-1.04,0.0,0.0,1.0,9.0,1.0,2.0,0.0,4.91,2.35,0.0,
16.41,84.45517127262619,87.39976456191434,-2.63,0.44,0.56,0.0,0.0,2.0,9.0,1.0,2.0,0.0,4.81,2.45,0.0,
16.435,84.48651712726262,87.41797645619143,-1.57,-0.47,0.4,0.0,0.0,1.0,9.0,1.0,2.0,0.0,4.81,2.55,0.0,
16.458,84.48965171272626,87.41079764561914,-2.58,-0.37,-0.37,0.0,0.0,1.0,8.0,1.0,2.0,0.0,4.81,2.45,0.0,
16.483,84.57996517127262,87.37407976456193,-3.15,0.79,-0.34,0.0,0.0,1.0,9.0,1.0,2.0,0.0,4.81,2.35,0.0,
16.506,84.70599651712726,87.4154079764562,-2.63,0.63,-0.14,0.0,0.0,1.0,9.0,1.0,2.0,0.0,5.0,2.45,0.0,
16.531,84.70959965171272,87.44654079764561,-2.98,0.44,-0.57,0.0,0.0,1.0,9.0,1.0,2.0,0.0,5.0,2.55,0.0,
16.555,84.76395996517127,87.49465407976456,-3.18,-0.39,-1.24,0.0,0.0,1.0,9.0,1.0,2.0,1.0,5.0,2.55,0.0,
16.579,84.83239599651714,87.51746540797646,-3.78,0.17,-1.03,0.0,0.0,1.0,9.0,1.0,2.0,1.0,5.1,2.55,0.0,
16.603,84.8482395996517,87.46574654079764,-4.01,-0.21,-0.97,0.0,0.0,1.0,9.0,1.0,2.0,1.0,5.0,2.55,0.0,
16.627,84.90382395996517,87.47857465407976,-4.14,-0.79,-1.62,0.0,0.0,2.0,9.0,2.0,2.0,1.0,5.1,2.65,0.0,
16.651,84.93638239599652,87.46185746540797,-4.29,-0.62,-1.6,0.0,0.0,2.0,9.0,2.0,2.0,1.0,5.2,2.65,0.0,
16.675,85.00263823959965,87.4691857465408,-5.38,-0.93,-2.04,0.0,0.0,2.0,9.0,2.0,2.0,1.0,5.1,2.65,0.0,
16.7,84.93726382395998,87.37991857465408,-4.99,-2.44,-1.63,0.0,0.0,2.0,9.0,2.0,2.0,1.0,5.1,2.84,0.0,
16.723,84.930726382396,87.34399185746541,-4.2,-1.03,-1.6,0.0,0.0,2.0,10.0,2.0,2.0,1.0,5.0,3.04,0.0,
16.748,84.9120726382396,87.32239918574653,-4.31,0.21,0.31,0.0,0.0,2.0,10.0,2.0,2.0,1.0,5.2,2.94,0.0,
16.772,84.91020726382395,87.33823991857466,-4.37,-1.24,-1.16,0.0,0.0,2.0,10.0,2.0,2.0,1.0,5.3,3.04,0.0,
16.796,84.9010207263824,87.33982399185747,-3.63,-2.0,-1.19,0.0,0.0,2.0,10.0,2.0,2.0,1.0,5.2,3.24,0.0,
16.821,84.90910207263823,87.28598239918576,-3.79,-2.39,-1.18,0.0,0.0,2.0,10.0,2.0,2.0,1.0,5.3,3.34,0.0,
16.844,84.92791020726384,87.28959823991858,-4.23,-1.2,-0.63,0.0,0.0,2.0,10.0,2.0,2.0,1.0,5.2,3.34,0.0,
16.869,84.93879102072638,87.28095982399186,-3.7,-1.7,-1.04,0.0,0.0,2.0,10.0,2.0,2.0,1.0,5.3,3.34,0.0,
16.893,84.89487910207264,87.30709598239919,-4.05,-1.61,-0.53,0.0,0.0,2.0,10.0,2.0,2.0,1.0,5.4,3.53,0.0,
16.917,84.86348791020725,87.30970959823992,-3.92,-1.53,-0.31,0.0,0.0,2.0,10.0,2.0,2.0,1.0,5.4,3.53,0.0,
16.942,84.86034879102073,87.264970959824,-3.48,-2.14,-0.59,0.0,0.0,2.0,10.0,2.0,2.0,1.0,5.4,3.73,0.0,
16.966,84.87803487910207,87.24249709598239,-4.04,-1.63,-0.11,0.0,0.0,2.0,10.0,2.0,2.0,1.0,5.49,3.73,0.0,
16.99,84.8258034879102,87.16824970959824,-3.77,-1.22,-0.2,0.0,0.0,2.0,10.0,2.0,2.0,1.0,5.49,3.73,0.0,
17.014,84.77558034879101,87.14282497095982,-3.78,-2.24,-0.52,0.0,0.0,2.0,10.0,2.0,2.0,1.0,5.49,3.83,0.0,
17.039,84.7885580348791,87.10428249709598,-3.98,-0.84,-0.22,0.0,0.0,2.0,10.0,2.0,2.0,1.0,5.49,3.92,0.0,
17.062,84.8258558034879,87.0464282497096,-3.5,-0.67,-0.06,0.0,0.0,2.0,11.0,2.0,2.0,1.0,5.49,4.02,0.0,
17.087,84.84758558034878,87.04064282497097,-3.15,0.03,0.32,0.0,0.0,2.0,11.0,2.0,2.0,1.0,5.4,4.02,0.0,
17.112,84.91275855803488,87.04006428249711,-2.88,-0.2,0.46,0.0,0.0,2.0,11.0,2.0,2.0,1.0,5.49,4.12,0.0,
17.135,84.91027585580349,87.02200642824971,-3.37,0.03,0.4,0.0,0.0,2.0,11.0,2.0,2.0,1.0,5.49,4.12,0.0,
17.16,84.95502758558035,86.99320064282497,-2.93,-1.08,0.18,0.0,0.0,2.0,11.0,2.0,2.0,1.0,5.59,4.12,0.0,
17.183,84.93250275855804,86.9633200642825,-2.87,-1.3,0.2,0.0,0.0,2.0,11.0,2.0,2.0,1.0,5.59,4.12,0.0,
17.208,84.9482502758558,86.95133200642826,-2.84,-0.02,0.48,0.0,0.0,2.0,11.0,2.0,2.0,1.0,5.59,4.02,0.0,
17.231,84.94982502758558,87.02213320064283,-2.32,-0.11,0.43,0.0,0.0,2.0,11.0,2.0,2.0,1.0,5.59,4.12,0.0,
17.256,85.02198250275856,86.99321332006429,-2.67,-0.05,0.45,0.0,0.0,2.0,11.0,2.0,2.0,1.0,5.59,4.02,0.0,
17.281,85.05619825027586,86.95432133200643,-3.15,-0.2,0.08,0.0,0.0,2.0,11.0,2.0,2.0,1.0,5.59,4.02,0.0,
17.304,85.04161982502758,86.95043213320065,-3.17,-0.92,0.03,0.0,0.0,2.0,11.0,2.0,2.0,1.0,5.69,4.02,0.0,
17.329,85.04016198250275,86.95904321332006,-2.8,-1.25,-0.19,0.0,0.0,2.0,11.0,2.0,2.0,1.0,5.59,4.02,0.0,
17.352,85.07601619825027,86.986904321332,-2.89,-0.37,0.05,0.0,0.0,2.0,11.0,2.0,2.0,1.0,5.59,4.02,0.0,
17.377,85.05260161982503,86.9986904321332,-3.16,-0.25,-0.14,0.0,0.0,2.0,11.0,2.0,2.0,1.0,5.59,4.02,0.0,
17.401,84.9962601619825,87.01786904321332,-2.98,-1.5,-0.42,0.0,0.0,2.0,11.0,2.0,2.0,1.0,5.59,4.02,0.0,
17.425,85.03562601619825,87.02878690432132,-3.34,-1.37,-0.62,0.0,0.0,2.0,11.0,2.0,2.0,1.0,5.59,4.12,0.0,
17.449,85.07556260161982,86.98487869043214,-3.41,-1.47,-0.89,0.0,0.0,2.0,11.0,2.0,2.0,1.0,5.69,4.12,0.0,
17.474,85.08855626016198,86.95348786904322,-3.41,-0.7,-0.26,0.0,0.0,2.0,11.0,2.0,2.0,1.0,5.49,4.22,0.0,
17.498,85.0718556260162,86.94134878690431,-3.29,-1.51,-0.56,0.0,0.0,2.0,11.0,2.0,2.0,1.0,5.49,4.22,0.0,
17.522,85.07018556260162,86.90413487869044,-3.22,-1.34,-0.53,0.0,0.0,2.0,11.0,2.0,2.0,1.0,5.49,4.32,0.0,
17.547,85.11501855626017,86.92741348786905,-3.43,-1.07,-0.27,0.0,0.0,2.0,11.0,2.0,2.0,1.0,5.49,4.32,0.0,
17.57,85.12850185562601,86.9477413487869,-3.5,-1.07,-0.77,0.0,0.0,2.0,11.0,2.0,2.0,1.0,5.59,4.22,0.0,
17.595,85.1568501855626,86.96777413487868,-3.17,-1.19,-0.84,0.0,0.0,2.0,11.0,2.0,2.0,1.0,5.49,4.22,0.0,
17.619,85.17768501855626,86.95177741348787,-3.19,-1.85,-0.94,0.0,0.0,2.0,11.0,2.0,2.0,1.0,5.59,4.22,0.0,
17.643,85.16176850185563,86.94117774134878,-3.55,-1.13,-0.6,0.0,0.0,2.0,11.0,2.0,2.0,1.0,5.59,4.22,0.0,
17.668,85.10617685018556,86.94011777413488,-3.56,-1.98,-0.57,0.0,0.0,2.0,11.0,2.0,2.0,1.0,5.49,4.12,0.0,
17.692,85.11861768501856,86.94901177741349,-3.72,-1.39,-0.42,0.0,0.0,2.0,11.0,2.0,2.0,1.0,5.49,4.12,0.0,
17.716,85.12886176850186,86.94090117774134,-3.7,-1.46,-0.4,0.0,0.0,2.0,11.0,2.0,2.0,1.0,5.49,4.22,0.0,
17.74,85.2108861768502,86.92209011777415,-4.02,-1.35,-0.92,0.0,0.0,2.0,11.0,2.0,2.0,1.0,5.4,4.22,0.0,
17.765,85.12008861768503,86.9112090117774,-3.96,-1.98,-1.12,0.0,0.0,2.0,11.0,2.0,2.0,1.0,5.49,4.41,0.0,
17.788,85.03900886176851,86.90112090117775,-3.78,-2.73,-1.02,0.0,0.0,2.0,11.0,2.0,2.0,1.0,5.4,4.51,0.0,
17.813,85.04890088617685,86.91811209011779,-4.04,-2.28,-0.95,0.0,0.0,2.0,11.0,2.0,2.0,1.0,5.4,4.61,0.0,
17.838,85.04989008861769,86.88381120901177,-3.93,-1.8,-1.06,0.0,0.0,2.0,11.0,2.0,2.0,1.0,5.4,4.71,0.0,
17.861,85.04098900886177,86.85338112090116,-3.66,-1.65,-0.63,0.0,0.0,2.0,12.0,2.0,2.0,1.0,5.49,4.91,0.0,
17.886,85.05809890088618,86.82333811209011,-3.6,-1.65,-0.99,0.0,0.0,2.0,12.0,2.0,2.0,1.0,5.4,4.91,0.0,
17.91,85.05980989008862,86.76633381120901,-3.92,-1.37,-0.68,0.0,0.0,2.0,12.0,2.0,2.0,1.0,5.49,5.1,0.0,
17.934,85.03298098900886,86.8236333811209,-3.59,-0.97,-0.66,0.0,0.0,2.0,12.0,2.0,3.0,1.0,5.4,5.1,0.0,
17.958,85.00329809890088,86.86536333811209,-3.37,-0.9,-0.08,0.0,0.0,2.0,12.0,2.0,3.0,1.0,5.3,5.2,0.0,
17.983,84.97332980989009,86.88753633381121,-3.31,-0.97,-0.32,0.0,0.0,2.0,0.0,2.0,3.0,1.0,5.3,5.2,0.0,
18.007,85.00633298098901,86.88075363338112,-3.34,-1.08,-0.34,0.0,0.0,2.0,0.0,2.0,3.0,1.0,5.3,5.4,0.0,
18.031,85.0186332980989,86.84407536333812,-3.45,-0.87,-0.39,0.0,0.0,2.0,0.0,2.0,3.0,1.0,5.4,5.4,0.0,
18.055,84.9928633298099,86.79540753633381,-3.47,-1.5,-0.41,0.0,0.0,2.0,0.0,2.0,3.0,1.0,5.4,5.49,0.0,
18.079,84.97228633298099,86.79054075363338,-3.42,-1.16,-0.4,0.0,0.0,2.0,0.0,2.0,3.0,1.0,5.3,5.4,0.0,
18.104,84.96122863329809,86.79905407536334,-3.16,-1.52,-0.37,0.0,0.0,2.0,1.0,2.0,3.0,1.0,5.3,5.4,0.0,
18.127,84.93312286332981,86.84490540753633,-3.23,-1.49,-0.58,0.0,0.0,2.0,1.0,2.0,3.0,1.0,5.3,5.49,0.0,
18.152,84.96631228633298,86.88549054075364,-3.34,-1.34,-0.6,0.0,0.0,2.0,1.0,2.0,3.0,1.0,5.3,5.49,0.0,
18.176,85.05063122863329,86.84454905407537,-3.62,-1.36,-0.79,0.0,0.0,2.0,1.0,2.0,3.0,1.0,5.3,5.49,0.0,
18.2,85.02306312286333,86.80445490540754,-3.82,-0.83,-0.31,0.0,0.0,2.0,1.0,2.0,3.0,1.0,5.3,5.49,0.0,
18.225,84.95730631228633,86.75544549054075,-3.3,-0.94,-0.37,0.0,0.0,2.0,1.0,2.0,3.0,1.0,5.3,5.59,0.0,
18.248,84.92373063122864,86.79554454905409,-3.21,-1.16,-0.18,0.0,0.0,2.0,2.0,2.0,3.0,1.0,5.2,5.59,0.0,
18.273,84.92037306312287,86.7455544549054,-3.59,-1.96,-0.77,0.0,0.0,2.0,2.0,2.0,3.0,1.0,5.3,5.69,0.0,
18.296,84.96503730631228,86.69555544549054,-3.85,-2.1,-0.85,0.0,0.0,2.0,2.0,2.0,3.0,1.0,5.2,5.69,0.0,
18.321,85.00550373063123,86.77155554454906,-4.03,-1.77,-1.26,0.0,0.0,2.0,2.0,2.0,3.0,1.0,5.3,5.79,0.0,
18.345,85.01855037306312,86.7341555544549,-4.03,-2.11,-1.17,0.0,0.0,2.0,2.0,2.0,3.0,1.0,5.1,5.98,0.0,
18.369,85.00185503730631,86.6854155554455,-3.74,-1.92,-1.35,0.0,0.0,2.0,2.0,2.0,3.0,1.0,5.1,6.08,0.0,
18.394,84.97318550373063,86.69854155554455,-3.85,-1.77,-0.99,0.0,0.0,2.0,3.0,2.0,3.0,1.0,5.1,6.18,0.0,
18.417,84.95231855037306,86.65485415555446,-3.73,-1.73,-0.85,0.0,0.0,2.0,3.0,2.0,3.0,1.0,5.1,6.28,0.0,
18.442,84.9142318550373,86.63248541555544,-3.71,-1.57,-0.93,0.0,0.0,3.0,3.0,2.0,3.0,1.0,5.1,6.38,0.0,
18.466,84.91042318550373,86.60324854155554,-4.14,-1.8,-1.13,0.0,0.0,3.0,3.0,2.0,3.0,1.0,5.1,6.38,0.0,
18.49,84.88304231855037,86.61832485415556,-3.82,-1.17,-0.65,0.0,0.0,3.0,4.0,2.0,3.0,1.0,5.1,6.57,0.0,
18.514,84.85330423185503,86.60183248541556,-3.45,-1.73,-0.8,0.0,0.0,3.0,4.0,2.0,3.0,1.0,5.2,6.38,0.0,
18.538,84.76033042318551,86.58218324854155,-3.88,-1.97,-1.18,0.0,0.0,3.0,4.0,2.0,3.0,1.0,5.2,6.38,0.0,
18.563,84.73303304231855,86.55321832485416,-3.57,-1.45,-0.96,0.0,0.0,3.0,4.0,2.0,3.0,1.0,5.2,6.47,0.0,
18.586,84.75730330423185,86.52332183248541,-3.57,-1.12,-0.87,0.0,0.0,3.0,4.0,2.0,3.0,1.0,5.2,6.67,0.0,
18.611,84.7507303304232,86.54733218324853,-3.49,-1.08,-0.62,0.0,0.0,3.0,4.0,2.0,3.0,1.0,5.2,6.67,0.0,
18.635,84.77707303304233,86.54973321832485,-3.52,-1.44,-0.47,0.0,0.0,3.0,4.0,2.0,3.0,1.0,5.3,6.67,0.0,
18.659,84.71670730330422,86.52297332183248,-3.4,-1.91,-0.83,0.0,0.0,3.0,5.0,2.0,3.0,1.0,5.3,6.67,0.0,
18.683,84.71967073033042,86.51129733218326,-3.47,-2.02,-0.55,0.0,0.0,3.0,5.0,2.0,3.0,1.0,5.2,6.77,0.0,
18.707,84.74696707303305,86.43812973321833,-2.97,-1.54,-1.11,0.0,0.0,3.0,5.0,2.0,3.0,1.0,5.1,6.67,0.0,
18.732,84.77669670730332,86.43081297332184,-2.84,-0.87,-0.9,0.0,0.0,3.0,5.0,2.0,3.0,1.0,5.2,6.57,0.0,
18.756,84.77966967073034,86.45708129733218,-3.05,-0.66,-0.69,0.0,0.0,3.0,5.0,2.0,3.0,1.0,5.2,6.67,0.0,
18.78,84.86096696707304,86.45070812973323,-3.44,-0.16,-0.92,0.0,0.0,3.0,5.0,2.0,3.0,1.0,5.2,6.57,0.0,
18.804,84.84209669670732,86.44107081297332,-2.97,-0.69,-0.44,0.0,0.0,3.0,5.0,2.0,3.0,1.0,5.2,6.67,0.0,
18.828,84.78620966967074,86.44010708129734,-3.22,-1.18,-0.28,0.0,0.0,3.0,5.0,2.0,3.0,1.0,5.3,6.77,0.0,
18.852,84.84362096696707,86.42201070812973,-3.08,-1.01,0.14,0.0,0.0,3.0,6.0,2.0,3.0,1.0,5.2,6.87,0.0,
18.876,84.8763620966967,86.43820107081298,-3.14,-1.01,-0.24,0.0,0.0,3.0,6.0,2.0,3.0,1.0,5.1,7.06,0.0,
18.9,84.87063620966968,86.4488201070813,-2.8,-2.19,-0.37,0.0,0.0,3.0,6.0,2.0,3.0,1.0,5.0,6.97,0.0,
18.925,84.86106362096696,86.44088201070814,-3.18,-0.88,-0.28,0.0,0.0,3.0,8.0,2.0,3.0,1.0,5.0,7.06,0.0,
18.949,84.87810636209669,86.44008820107082,-3.19,-1.05,-0.18,0.0,0.0,3.0,6.0,2.0,4.0,1.0,5.0,7.06,0.0,
18.973,84.88881063620967,86.45800882010707,-3.16,-1.11,-0.3,0.0,0.0,3.0,6.0,2.0,4.0,1.0,5.1,7.26,0.0,
18.997,84.89888106362098,86.43280088201071,-3.22,-1.15,-0.43,0.0,0.0,3.0,6.0,2.0,4.0,1.0,5.1,7.16,0.0,
19.021,84.89988810636211,86.44828008820107,-2.76,-1.19,-0.27,0.0,0.0,3.0,6.0,2.0,4.0,1.0,5.1,7.36,0.0,
19.046,84.8819888106362,86.4678280088201,-3.74,-2.67,-1.47,0.0,0.0,3.0,6.0,2.0,4.0,1.0,5.1,7.46,0.0,
19.069,84.88919888106362,86.42478280088201,-3.08,-0.4,0.17,0.0,0.0,3.0,7.0,2.0,4.0,1.0,5.0,7.55,0.0,
19.094,84.79991988810637,86.4114782800882,-2.98,-2.15,-0.28,0.0,0.0,3.0,7.0,2.0,4.0,1.0,5.0,7.65,0.0,
19.119,84.79999198881063,86.39214782800883,-3.0,-0.54,0.12,0.0,0.0,3.0,7.0,2.0,4.0,1.0,5.1,7.75,0.0,
19.142,84.89899919888106,86.39021478280088,-2.89,-0.05,0.29,0.0,0.0,3.0,7.0,2.0,4.0,1.0,5.1,7.65,0.0,
19.167,84.9358999198881,86.45302147828008,-2.92,-1.16,-0.21,0.0,0.0,3.0,7.0,2.0,4.0,1.0,5.3,7.75,0.0,
19.191,84.92158999198881,86.49530214782801,-3.21,-0.15,0.08,0.0,0.0,3.0,7.0,2.0,4.0,1.0,5.3,7.85,0.0,
19.215,84.95615899919888,86.48153021478281,-3.35,-0.96,-0.49,0.0,0.0,3.0,7.0,2.0,4.0,1.0,5.4,7.95,0.0,
19.239,84.98661589991988,86.48015302147829,-3.07,-1.21,-0.55,0.0,0.0,3.0,8.0,2.0,4.0,1.0,5.4,8.04,0.0,
19.264,84.98966158999198,86.48901530214782,-3.0,-1.47,-0.58,0.0,0.0,3.0,8.0,2.0,4.0,1.0,5.3,8.14,0.0,
19.288,84.9809661589992,86.5349015302148,-3.29,-0.87,-0.49,0.0,0.0,3.0,8.0,2.0,4.0,1.0,5.3,8.24,0.0,
19.312,85.01609661589993,86.52149015302147,-3.45,-0.3,-0.63,0.0,0.0,3.0,8.0,2.0,4.0,1.0,5.3,8.44,0.0,
19.337,84.99260966159,86.52914901530215,-3.48,-0.72,-0.88,0.0,0.0,3.0,8.0,2.0,4.0,1.0,5.3,8.63,0.0,
19.36,84.999260966159,86.44891490153022,-3.62,-0.68,-0.83,0.0,0.0,3.0,8.0,2.0,4.0,1.0,5.4,8.93,0.0,
19.385,85.0179260966159,86.42289149015302,-3.49,-0.72,-0.88,0.0,0.0,3.0,8.0,2.0,4.0,1.0,5.4,9.22,0.0,
19.409,85.0197926096616,86.4382891490153,-3.27,-0.63,-0.76,0.0,0.0,3.0,8.0,2.0,4.0,1.0,5.49,9.52,0.0,
19.434,84.96597926096615,86.45782891490153,-3.51,-0.27,-0.72,0.0,0.0,3.0,9.0,2.0,4.0,1.0,5.49,9.81,0.0,
19.458,84.99659792609661,86.45078289149016,-3.66,-1.47,-1.47,0.0,0.0,3.0,9.0,2.0,4.0,1.0,5.59,10.1,0.0,
19.482,84.96365979260966,86.42307828914902,-4.02,-1.86,-1.42,0.0,0.0,3.0,9.0,2.0,4.0,1.0,5.69,10.3,0.0,
19.507,84.96036597926096,86.3393078289149,-4.33,-1.39,-1.17,0.0,0.0,3.0,10.0,2.0,4.0,1.0,5.59,10.69,0.0,
19.531,85.0050365979261,86.39393078289149,-4.7,-2.11,-1.86,0.0,0.0,3.0,10.0,2.0,4.0,1.0,5.59,10.99,0.0,
19.556,85.02750365979261,86.38139307828915,-4.61,-3.4,-2.51,0.0,0.0,3.0,10.0,2.0,4.0,1.0,5.69,11.28,0.0,
19.58,85.01175036597925,86.32613930782891,-4.34,-2.38,-2.18,0.0,0.0,3.0,10.0,3.0,4.0,1.0,5.79,11.58,0.0,
19.604,85.01017503659793,86.3296139307829,-4.75,-2.49,-1.56,0.0,0.0,3.0,10.0,3.0,4.0,1.0,5.98,11.97,0.0,
19.629,85.0100175036598,86.3749613930783,-4.46,-3.34,-1.56,0.0,0.0,3.0,11.0,3.0,4.0,1.0,5.98,12.16,0.0,
19.653,85.01000175036597,86.31649613930783,-4.6,-4.18,-2.04,0.0,0.0,4.0,11.0,3.0,4.0,1.0,6.18,12.36,0.0,
19.678,84.92000017503659,86.27464961393078,-5.23,-4.37,-2.66,0.0,0.0,4.0,11.0,3.0,4.0,1.0,6.18,12.56,0.0,
19.702,84.86600001750365,86.21646496139307,-5.69,-3.57,-2.44,0.0,0.0,4.0,11.0,3.0,5.0,2.0,6.28,12.75,0.0,
19.727,84.78860000175037,86.18364649613932,-5.21,-3.53,-2.49,0.0,0.0,4.0,11.0,3.0,5.0,2.0,6.38,12.85,0.0,
19.751,84.74486000017502,86.09936464961393,-4.87,-3.11,-1.63,0.0,0.0,4.0,12.0,3.0,5.0,2.0,6.47,12.85,0.0,
19.776,84.66848600001751,86.1179364649614,-4.09,-2.44,-0.95,0.0,0.0,4.0,12.0,3.0,5.0,2.0,6.47,12.75,0.0,
19.8,84.59784860000175,86.05679364649613,-4.18,-1.33,-0.34,0.0,0.0,4.0,12.0,3.0,5.0,2.0,6.38,12.46,0.0,
19.824,84.56378486000017,86.03267936464962,-4.46,-1.29,-0.59,0.0,0.0,4.0,13.0,3.0,5.0,2.0,6.47,12.36,0.0,
19.849,84.56037848600002,86.00326793646497,-4.49,-2.6,-1.31,0.0,0.0,4.0,13.0,3.0,5.0,2.0,6.47,12.36,0.0,
19.873,84.5060378486,85.97332679364649,-4.93,-3.21,-1.49,0.0,0.0,4.0,13.0,3.0,5.0,2.0,6.57,12.56,0.0,
19.898,84.44660378485999,85.88933267936466,-3.94,-1.37,-1.34,0.0,0.0,4.0,13.0,3.0,5.0,2.0,6.47,12.65,0.0,
19.922,84.449660378486,85.82693326793647,-3.89,-1.94,-1.13,0.0,0.0,4.0,13.0,3.0,5.0,2.0,6.47,12.75,0.0,
19.947,84.42296603784861,85.77569332679364,-3.51,-1.21,-0.64,0.0,0.0,4.0,14.0,3.0,5.0,2.0,6.47,12.75,0.0,
19.972,84.46529660378485,85.76156933267937,-3.18,-0.4,-0.35,0.0,0.0,4.0,14.0,3.0,5.0,2.0,6.57,12.75,0.0,
19.995,84.46952966037848,85.75115693326794,-3.61,-0.31,-0.57,0.0,0.0,4.0,14.0,3.0,5.0,2.0,6.57,12.85,0.0,
20.02,84.42495296603785,85.6871156933268,-3.34,-1.18,-0.91,0.0,0.0,4.0,14.0,3.0,5.0,2.0,6.57,12.95,0.0,
20.044,84.41149529660377,85.66271156933267,-3.09,-0.6,-0.58,0.0,0.0,4.0,14.0,3.0,5.0,2.0,6.57,13.05,0.0,
20.069,84.46414952966038,85.66027115693326,-2.72,-0.42,-0.32,0.0,0.0,4.0,14.0,3.0,5.0,2.0,6.57,12.95,0.0,
20.093,84.51441495296604,85.66902711569334,-2.58,-0.32,-0.47,0.0,0.0,4.0,13.0,3.0,5.0,2.0,6.47,12.85,0.0,
20.118,84.48344149529662,85.65190271156933,-2.54,0.46,0.26,0.0,0.0,4.0,14.0,3.0,5.0,2.0,6.47,12.85,0.0,
20.142,84.54334414952966,85.65919027115693,-2.35,1.06,0.82,0.0,0.0,4.0,14.0,3.0,5.0,2.0,6.47,12.75,0.0,
20.166,84.61233441495297,85.6959190271157,-2.53,0.63,0.6,0.0,0.0,4.0,14.0,3.0,4.0,2.0,6.47,12.75,0.0,
20.191,84.6192334414953,85.69959190271157,-2.27,0.3,0.58,0.0,0.0,4.0,14.0,3.0,4.0,2.0,6.57,12.85,0.0,
20.215,84.67392334414953,85.70895919027114,-2.5,-1.05,0.32,0.0,0.0,4.0,13.0,3.0,4.0,2.0,6.47,12.75,0.0,
20.239,84.65239233441496,85.7638959190271,-2.22,0.16,0.53,0.0,0.0,4.0,14.0,3.0,4.0,2.0,6.38,12.65,0.0,
20.263,84.6772392334415,85.78738959190272,-2.02,0.02,0.85,0.0,0.0,4.0,13.0,3.0,4.0,2.0,6.38,12.65,0.0,
20.288,84.71572392334416,85.86173895919028,-2.15,-0.18,0.76,0.0,0.0,4.0,13.0,3.0,4.0,2.0,6.38,12.65,0.0,
20.312,84.71957239233441,85.84217389591903,-2.34,-0.58,0.47,0.0,0.0,4.0,13.0,3.0,4.0,1.0,6.28,12.65,0.0,
20.336,84.71995723923345,85.8672173895919,-2.65,-0.52,0.11,0.0,0.0,4.0,13.0,3.0,4.0,1.0,6.28,12.65,0.0,
20.361,84.70199572392335,85.93272173895919,-2.76,-1.56,0.03,0.0,0.0,4.0,12.0,3.0,4.0,1.0,6.28,12.65,0.0,
20.385,84.70019957239234,85.85827217389591,-2.86,-1.8,-0.4,0.0,0.0,4.0,13.0,3.0,4.0,1.0,6.08,12.65,0.0,
20.41,84.70901995723922,85.8688272173896,-2.98,-1.69,-0.4,0.0,0.0,4.0,13.0,3.0,4.0,1.0,6.18,12.65,0.0,
20.434,84.78190199572393,85.83388272173896,-3.14,-1.63,-0.29,0.0,0.0,4.0,13.0,3.0,4.0,1.0,6.18,12.65,0.0,
20.458,84.81619019957239,85.83038827217389,-3.04,-0.91,-0.17,0.0,0.0,4.0,13.0,3.0,4.0,1.0,6.08,12.56,0.0,
20.483,84.81061901995724,85.8570388272174,-3.03,-0.81,-0.08,0.0,0.0,4.0,13.0,3.0,4.0,1.0,6.08,12.46,0.0,
20.507,84.84606190199571,85.88670388272175,-3.31,-0.38,0.1,0.0,0.0,4.0,13.0,3.0,4.0,1.0,6.08,12.56,0.0,
20.532,84.87660619019957,85.92567038827218,-3.35,-1.05,-0.06,0.0,0.0,4.0,13.0,3.0,4.0,1.0,6.18,12.56,0.0,
20.556,84.90666061901996,85.87556703882721,-3.23,-1.89,-0.48,0.0,0.0,4.0,13.0,3.0,4.0,1.0,6.18,12.46,0.0,
20.581,84.85566606190199,85.90655670388273,-3.16,-1.93,-0.5,0.0,0.0,4.0,13.0,3.0,4.0,1.0,6.18,12.46,0.0,
20.605,84.89556660619021,85.88265567038827,-3.16,-1.93,-0.63,0.0,0.0,4.0,13.0,3.0,4.0,1.0,6.08,12.36,0.0,
20.629,84.88155666061901,85.86226556703883,-2.91,-1.53,-0.41,0.0,0.0,4.0,13.0,3.0,4.0,1.0,6.08,12.36,0.0,
20.654,84.8801556660619,85.86922655670388,-3.3,-0.98,-0.16,0.0,0.0,4.0,14.0,3.0,4.0,1.0,6.08,12.36,0.0,
20.678,84.8710155666062,85.82492265567039,-3.48,-0.91,-0.29,0.0,0.0,4.0,13.0,3.0,4.0,1.0,6.08,12.46,0.0,
20.703,84.80710155666061,85.79349226556705,-3.45,-2.66,-1.04,0.0,0.0,4.0,14.0,3.0,4.0,1.0,6.18,12.36,0.0,
20.727,84.72871015566606,85.7813492265567,-3.31,-2.75,-1.17,0.0,0.0,4.0,13.0,3.0,4.0,1.0,6.18,12.36,0.0,
20.752,84.7118710155666,85.80713492265566,-3.56,-1.7,-0.45,0.0,0.0,4.0,13.0,3.0,4.0,1.0,6.08,12.26,0.0,
20.776,84.61118710155665,85.84571349226556,-3.48,-1.72,-0.74,0.0,0.0,4.0,13.0,3.0,4.0,1.0,6.18,12.16,0.0,
20.801,84.58311871015566,85.81357134922655,-3.56,-1.94,-0.28,0.0,0.0,4.0,13.0,3.0,5.0,1.0,6.18,12.07,0.0,
20.825,84.58031187101557,85.77435713492265,-3.72,-1.44,0.15,0.0,0.0,4.0,13.0,3.0,5.0,1.0,6.18,11.87,0.0,
20.849,84.64303118710156,85.77043571349226,-3.6,-1.75,-0.11,0.0,0.0,4.0,14.0,3.0,5.0,1.0,6.08,11.87,0.0,
20.874,84.64930311871015,85.77004357134922,-3.71,-1.01,0.11,0.0,0.0,4.0,14.0,3.0,5.0,1.0,6.08,11.58,0.0,
20.898,84.60493031187102,85.79700435713492,-3.58,-2.13,-0.76,0.0,0.0,4.0,13.0,3.0,5.0,1.0,6.08,11.48,0.0,
20.923,84.5734930311871,85.78170043571349,-3.66,-2.02,-0.82,0.0,0.0,4.0,14.0,3.0,5.0,1.0,6.08,11.38,0.0,
20.947,84.5613493031187,85.78017004357135,-3.5,-2.62,-1.08,0.0,0.0,4.0,14.0,3.0,5.0,1.0,6.08,11.28,0.0,
20.971,84.56913493031186,85.74401700435713,-3.74,-1.65,-0.58,0.0,0.0,4.0,14.0,3.0,5.0,1.0,6.08,11.28,0.0,
20.996,84.50691349303118,85.74040170043571,-3.2,-1.32,-0.63,0.0,0.0,4.0,14.0,3.0,5.0,1.0,6.08,11.28,0.0,
21.02,84.47369134930311,85.70404017004358,-3.35,-1.4,-0.41,0.0,0.0,4.0,14.0,3.0,5.0,1.0,6.08,11.28,0.0,
21.045,84.44336913493031,85.74540401700435,-3.56,0.52,-0.05,0.0,0.0,4.0,14.0,3.0,5.0,1.0,6.08,11.38,0.0,
21.069,84.37733691349304,85.78554040170044,-3.16,-0.53,-0.23,0.0,0.0,4.0,14.0,3.0,5.0,1.0,6.18,11.77,0.0,
21.094,84.42473369134932,85.79855404017005,-3.55,-1.38,-0.94,0.0,0.0,4.0,14.0,3.0,5.0,2.0,6.28,12.07,0.0,
21.118,84.39347336913494,85.79085540401701,-3.41,-1.82,-1.47,0.0,0.0,4.0,14.0,3.0,5.0,2.0,6.38,12.46,0.0,
21.143,84.38134733691348,85.7990855404017,-3.45,-1.16,-1.41,0.0,0.0,4.0,14.0,3.0,5.0,2.0,6.38,12.75,0.0,
21.167,84.38013473369134,85.77290855404017,-3.27,-1.63,-0.99,0.0,0.0,4.0,14.0,3.0,5.0,2.0,6.47,13.44,0.0,
21.191,84.37101347336915,85.80629085540401,-3.56,-0.53,-0.58,0.0,0.0,4.0,14.0,3.0,5.0,2.0,6.57,13.83,0.0,
21.216,84.38810134733691,85.79162908554041,-3.02,-2.18,-1.11,0.0,0.0,4.0,14.0,3.0,5.0,2.0,6.67,14.13,0.0,
21.24,84.40781013473368,85.81716290855404,-3.02,-0.72,-0.21,0.0,0.0,4.0,14.0,3.0,5.0,2.0,6.67,14.32,0.0,
21.265,84.48178101347337,85.8197162908554,-3.12,-1.15,-0.37,0.0,0.0,4.0,14.0,3.0,5.0,2.0,6.57,14.52,0.0,
21.289,84.51617810134734,85.81997162908554,-3.02,-1.73,-0.12,0.0,0.0,4.0,14.0,3.0,5.0,2.0,6.67,14.81,0.0,
21.314,84.59161781013474,85.76599716290856,-2.88,-1.34,-0.02,0.0,0.0,4.0,14.0,3.0,5.0,2.0,6.67,14.81,0.0,
21.338,84.63516178101348,85.70659971629087,-3.05,-1.2,0.15,0.0,0.0,4.0,14.0,3.0,5.0,2.0,6.67,14.72,0.0,
21.362,84.63051617810135,85.74565997162908,-2.85,-0.82,0.26,0.0,0.0,4.0,14.0,3.0,5.0,2.0,6.77,14.42,0.0,
21.387,84.57605161781014,85.7765659971629,-2.86,-1.92,0.15,0.0,0.0,4.0,14.0,3.0,5.0,2.0,6.67,14.13,0.0,
21.411,84.54360516178103,85.7616565997163,-3.4,-1.24,0.08,0.0,0.0,4.0,14.0,3.0,5.0,2.0,6.77,13.83,0.0,
21.436,84.54036051617811,85.70616565997165,-2.77,-2.42,-0.73,0.0,0.0,4.0,14.0,3.0,5.0,2.0,6.67,13.44,0.0,
21.459,84.54003605161782,85.70061656599717,-2.97,-2.41,-0.21,0.0,0.0,4.0,14.0,3.0,5.0,1.0,6.67,13.05,0.0,
21.484,84.56700360516177,85.70906165659972,-3.25,-2.21,-0.19,0.0,0.0,4.0,14.0,3.0,5.0,1.0,6.47,12.75,0.0,
21.509,84.58770036051618,85.75490616565997,-3.5,-2.91,0.22,0.0,0.0,4.0,14.0,3.0,5.0,1.0,6.57,12.46,0.0,
21.533,84.59877003605162,85.741490616566,-3.48,-2.08,0.16,0.0,0.0,4.0,14.0,3.0,5.0,1.0,6.57,12.26,0.0,
21.558,84.57287700360516,85.7131490616566,-3.44,-2.37,0.13,0.0,0.0,4.0,14.0,3.0,5.0,1.0,6.47,12.07,0.0,
21.582,84.4982877003605,85.70131490616566,-3.07,-3.15,-0.77,0.0,0.0,4.0,14.0,3.0,5.0,1.0,6.47,11.87,0.0,
21.606,84.45482877003606,85.74513149061656,-3.27,-2.89,-0.47,0.0,0.0,4.0,14.0,3.0,5.0,1.0,6.47,11.67,0.0,
21.63,84.3964828770036,85.80351314906166,-3.39,-2.47,-0.28,0.0,0.0,4.0,14.0,3.0,5.0,1.0,6.38,11.58,0.0,
21.655,84.34564828770037,85.76435131490618,-3.6,-2.21,-0.12,0.0,0.0,4.0,14.0,3.0,5.0,1.0,6.38,11.48,0.0,
21.68,84.33156482877004,85.75143513149061,-3.68,-2.26,0.05,0.0,0.0,4.0,14.0,3.0,5.0,1.0,6.47,11.48,0.0,
21.704,84.375156482877,85.73214351314907,-3.9,-4.62,-0.03,0.0,0.0,4.0,14.0,3.0,5.0,2.0,6.47,11.48,0.0,
21.729,84.37051564828771,85.65821435131491,-3.99,-2.41,-0.22,0.0,0.0,4.0,14.0,3.0,5.0,2.0,6.67,11.58,0.0,
21.753,84.32505156482875,85.65082143513149,-4.22,-2.39,0.07,0.0,0.0,4.0,14.0,3.0,5.0,1.0,6.67,11.48,0.0,
21.777,84.24850515648288,85.61408214351316,-4.17,-2.76,0.16,0.0,0.0,4.0,14.0,3.0,5.0,1.0,6.67,11.48,0.0,
21.801,84.22285051564829,85.62840821435131,-4.07,-2.25,0.81,0.0,0.0,4.0,14.0,3.0,5.0,2.0,6.87,11.58,0.0,
21.826,84.18428505156484,85.65684082143513,-3.72,-2.89,0.8,0.0,0.0,4.0,14.0,3.0,5.0,2.0,6.97,11.58,0.0,
21.851,84.20742850515649,85.66868408214351,-3.66,-1.63,0.69,0.0,0.0,4.0,14.0,3.0,5.0,2.0,7.06,11.77,0.0,
21.875,84.19174285051565,85.57086840821435,-3.85,-3.52,0.35,0.0,0.0,4.0,14.0,3.0,5.0,2.0,7.16,11.87,0.0,
21.899,84.19017428505157,85.48008684082143,-3.69,-2.51,0.6,0.0,0.0,4.0,14.0,3.0,5.0,2.0,7.26,11.97,0.0,
21.923,84.15401742850517,85.46200868408215,-3.67,-2.26,1.15,0.0,0.0,4.0,14.0,3.0,5.0,2.0,7.26,11.97,0.0,
21.948,84.07840174285052,85.45120086840822,-2.83,-2.04,1.76,0.0,0.0,4.0,14.0,3.0,5.0,2.0,7.36,11.87,0.0,
21.972,84.12484017428505,85.53112008684083,-3.12,-2.03,2.95,0.0,0.0,4.0,14.0,3.0,5.0,2.0,7.46,11.67,0.0,
21.997,83.9764840174285,85.53011200868409,-2.43,-3.18,1.53,0.0,0.0,4.0,14.0,3.0,5.0,2.0,7.46,11.48,0.0,
22.021,83.92564840174285,85.40401120086841,-2.98,-3.46,2.32,0.0,0.0,4.0,13.0,3.0,5.0,2.0,7.55,10.99,0.0,
22.045,83.9205648401743,85.46340112008684,-2.38,-3.04,1.83,0.0,0.0,4.0,12.0,3.0,5.0,2.0,7.55,10.69,0.0,
22.07,83.88405648401744,85.39734011200868,-2.87,-4.05,2.24,0.0,0.0,4.0,11.0,3.0,5.0,1.0,7.55,10.3,0.0,
22.094,83.84440564840175,85.39073401120086,-2.34,-3.63,1.55,0.0,0.0,4.0,11.0,3.0,5.0,1.0,7.55,9.91,0.0,
22.118,83.82244056484018,85.41707340112009,-2.4,-4.06,2.15,0.0,0.0,4.0,10.0,3.0,5.0,1.0,7.46,9.32,0.0,
22.142,83.68524405648401,85.47370734011201,-2.15,-3.76,1.73,0.0,0.0,4.0,10.0,3.0,4.0,1.0,7.46,8.73,0.0,
22.166,83.62652440564841,85.61437073401119,-2.59,-3.27,2.3,0.0,0.0,4.0,8.0,3.0,4.0,1.0,7.26,8.14,0.0,
22.191,83.53965244056485,85.58343707340113,-2.36,-2.57,2.49,0.0,0.0,3.0,8.0,3.0,4.0,1.0,7.26,7.65,0.0,
22.214,83.52196524405647,85.68834370734012,-2.79,-1.03,2.94,0.0,0.0,3.0,7.0,3.0,4.0,1.0,7.26,7.16,0.0,
22.239,83.34919652440564,85.716834370734,-2.36,-5.14,1.5,0.0,0.0,3.0,6.0,2.0,4.0,1.0,7.16,6.77,0.0,
22.262,83.35891965244056,85.7466834370734,-2.49,-4.95,2.67,0.0,0.0,3.0,5.0,2.0,4.0,1.0,7.26,6.28,0.0,
22.287,83.27889196524406,85.77666834370734,-2.69,-3.49,2.95,0.0,0.0,3.0,5.0,2.0,4.0,1.0,7.16,5.98,0.0,
22.311,83.15388919652442,85.80666683437073,-3.37,-4.56,2.75,0.0,0.0,3.0,3.0,2.0,4.0,1.0,7.06,5.4,0.0,
22.335,83.06938891965244,85.79166668343709,-2.72,-3.82,2.94,0.0,0.0,3.0,2.0,2.0,4.0,1.0,7.06,5.1,0.0,
22.36,82.99793889196525,85.8351666683437,-2.34,-3.12,2.76,0.0,0.0,2.0,1.0,2.0,4.0,1.0,6.97,4.61,0.0,
22.383,82.89179388919652,85.89351666683437,-1.89,-2.8,4.13,0.0,0.0,2.0,0.0,2.0,3.0,0.0,6.87,4.32,0.0,
22.408,82.86317938891965,85.89035166668344,-1.22,-1.95,5.15,0.0,0.0,2.0,12.0,2.0,3.0,0.0,6.77,3.92,0.0,
22.431,82.88731793889197,85.95303516666833,-2.66,-3.02,2.92,0.0,0.0,2.0,11.0,2.0,3.0,0.0,6.77,3.63,0.0,
22.456,82.7727317938892,85.93230351666683,-2.97,-4.3,1.86,0.0,0.0,2.0,11.0,2.0,3.0,0.0,6.77,3.34,0.0,
22.479,82.77927317938892,85.92123035166668,-2.53,-2.51,3.21,0.0,0.0,2.0,11.0,1.0,3.0,0.0,6.77,3.04,0.0,
22.504,82.7349273179389,85.98312303516666,-2.89,-2.03,2.19,0.0,0.0,2.0,10.0,1.0,3.0,0.0,6.87,2.84,0.0,
22.529,82.6404927317939,86.01631230351666,-2.89,-3.05,2.35,0.0,0.0,2.0,10.0,1.0,3.0,0.0,6.77,2.75,0.0,
22.552,82.5770492731794,86.05563123035168,-2.98,-2.57,2.21,0.0,0.0,2.0,10.0,1.0,3.0,0.0,6.67,2.65,0.0,
22.577,82.52570492731795,86.07756312303516,-2.87,-1.76,2.09,0.0,0.0,2.0,10.0,1.0,3.0,0.0,6.67,2.55,0.0,
22.6,82.52957049273179,86.07975631230352,-3.18,-1.53,2.51,0.0,0.0,1.0,10.0,1.0,3.0,0.0,6.57,2.35,0.0,
22.625,82.56595704927318,86.06197563123035,-3.28,-1.02,3.02,0.0,0.0,1.0,9.0,1.0,2.0,0.0,6.57,2.16,0.0,
22.648,82.47959570492732,86.04219756312304,-2.87,-3.43,1.53,0.0,0.0,1.0,9.0,1.0,2.0,0.0,6.57,2.06,0.0,
22.673,82.48895957049272,86.11221975631231,-2.73,-1.18,2.52,0.0,0.0,1.0,9.0,1.0,2.0,0.0,6.47,1.86,0.0,
22.696,82.39089595704927,86.11022197563122,-2.31,-2.2,1.65,0.0,0.0,1.0,8.0,1.0,2.0,0.0,6.38,1.86,0.0,
22.721,82.38108959570492,86.12802219756311,-2.89,-2.11,2.05,0.0,0.0,1.0,8.0,1.0,2.0,0.0,6.38,1.77,0.0,
22.746,82.3441089595705,86.1028022197563,-3.0,-0.49,2.77,0.0,0.0,1.0,8.0,1.0,2.0,0.0,6.38,1.77,0.0,
22.769,82.34041089595706,86.06428022197564,-2.81,-0.47,2.78,0.0,0.0,1.0,8.0,1.0,2.0,0.0,6.38,1.67,0.0,
22.794,82.25904108959571,86.06042802219757,-2.9,-1.65,1.9,0.0,0.0,1.0,8.0,1.0,2.0,0.0,6.38,1.77,0.0,
22.817,82.27790410895958,86.07804280221976,-2.61,-3.3,1.1,0.0,0.0,1.0,8.0,1.0,2.0,0.0,6.38,1.77,0.0,
22.842,82.26179041089597,86.02580428022196,-3.59,-1.64,2.5,0.0,0.0,1.0,7.0,1.0,2.0,0.0,6.28,1.77,0.0,
22.865,82.1791790410896,86.0295804280222,-2.97,1.71,4.34,0.0,0.0,1.0,7.0,1.0,2.0,0.0,6.28,1.67,0.0,
22.89,82.14391790410896,86.12895804280221,-3.14,0.46,3.82,0.0,0.0,1.0,7.0,1.0,2.0,0.0,6.28,1.67,0.0,
22.914,82.0683917904109,86.09389580428022,-2.73,0.91,2.95,0.0,0.0,1.0,7.0,1.0,1.0,0.0,6.38,1.67,0.0,
22.937,82.0158391790411,86.09038958042802,-2.99,0.09,2.71,0.0,0.0,1.0,7.0,1.0,1.0,0.0,6.47,1.77,0.0,
22.962,81.9475839179041,86.1980389580428,-2.95,-1.71,3.11,0.0,0.0,0.0,6.0,1.0,1.0,0.0,6.47,1.67,0.0,
22.985,82.12075839179042,86.20880389580428,-4.07,-2.78,3.21,0.0,0.0,0.0,6.0,1.0,1.0,0.0,6.38,1.57,0.0,
23.009,82.08407583917904,86.19188038958042,-1.65,-4.68,3.18,0.0,0.0,0.0,5.0,1.0,1.0,0.0,6.28,1.57,0.0,
23.033,81.9814075839179,86.21718803895804,-2.5,-12.99,-6.92,0.0,0.0,0.0,5.0,1.0,1.0,0.0,5.98,1.57,0.0,
23.057,81.75514075839179,86.2557188038958,-4.93,-12.19,-2.92,0.0,0.0,0.0,5.0,1.0,1.0,0.0,5.59,1.57,0.0,
23.081,81.40851407583918,86.19657188038957,-7.49,-12.52,-4.98,0.0,0.0,0.0,4.0,0.0,1.0,0.0,5.2,1.77,0.0,
23.106,81.34685140758393,86.10965718803895,-8.48,-10.6,0.01,0.0,0.0,0.0,3.0,0.0,1.0,0.0,4.91,2.06,0.0,
23.13,81.22368514075839,86.1999657188039,-10.53,-14.29,-2.14,0.0,0.0,0.0,2.0,0.0,1.0,0.0,4.61,2.06,0.0,
23.154,80.97736851407583,86.20899657188039,-12.13,-15.5,0.42,0.0,0.0,0.0,2.0,0.0,1.0,0.0,4.02,2.06,0.0,
23.178,80.98873685140757,86.15589965718804,-10.55,6.05,10.1,0.0,0.0,0.0,1.0,0.0,1.0,0.0,3.43,1.96,0.0,
23.201,80.33287368514077,85.82658996571881,-14.02,21.89,18.29,0.0,0.0,0.0,0.0,0.0,0.0,0.0,2.65,2.35,0.0,
23.226,80.15928736851409,84.32665899657188,-4.77,-2.99,-3.44,0.0,0.0,0.0,0.0,0.0,1.0,0.0,1.37,2.45,0.0,
23.249,79.7819287368514,83.15066589965718,0.4,-6.92,-13.5,0.0,0.0,0.0,0.0,0.0,0.0,0.0,0.39,2.06,0.0,
23.273,79.69019287368513,82.26806658996571,-1.24,-1.89,-18.07,0.0,0.0,0.0,0.0,0.0,0.0,0.0,0.1,1.67,0.0,
23.298,79.27601928736851,81.39680665899657,-2.43,-4.24,-20.51,0.0,0.0,0.0,0.0,0.0,0.0,0.0,0.0,1.57,0.0,
23.321,78.63160192873686,81.12068066589967,-1.34,-16.82,-25.01,0.0,0.0,0.0,0.0,0.0,0.0,0.0,0.0,1.57,0.0,
23.345,78.02716019287368,81.03906806658998,-4.13,-17.53,-25.94,0.0,0.0,0.0,0.0,0.0,0.0,0.0,0.0,1.67,0.0,
23.368,77.66071601928738,80.931906806659,-3.97,-13.95,-21.37,0.0,0.0,0.0,0.0,0.0,1.0,0.0,0.0,1.67,0.0,
23.393,77.53407160192873,80.8671906806659,-2.75,-17.2,-24.13,0.0,0.0,0.0,0.0,0.0,1.0,0.0,0.0,1.77,0.0,
23.416,77.49440716019288,80.78871906806658,-1.9,-18.15,-24.5,0.0,0.0,0.0,0.0,0.0,1.0,0.0,0.0,1.67,0.0,
23.44,77.37344071601927,80.55587190680666,-0.59,-20.83,-30.34,0.0,0.0,0.0,0.0,0.0,1.0,0.0,0.0,1.67,0.0,
23.464,77.25334407160192,80.73958719068068,1.09,-23.29,-34.92,0.0,0.0,0.0,0.0,0.0,1.0,0.0,0.0,1.57,0.0,
23.488,77.16033440716019,81.29795871906808,-0.87,-20.61,-39.01,0.0,0.0,0.0,0.0,0.0,1.0,0.0,0.0,1.47,0.0,
23.512,76.90803344071601,81.69579587190681,-2.95,-12.18,-37.23,0.0,0.0,0.0,0.0,0.0,1.0,0.0,0.0,1.57,0.0,
23.535,76.50480334407159,82.04157958719068,-0.74,-8.27,-44.45,0.0,0.0,0.0,0.0,0.0,1.0,0.0,0.0,1.57,0.0,
23.56,76.32948033440717,82.42715795871906,1.36,-8.33,-54.88,0.0,0.0,0.0,0.0,0.0,1.0,0.0,0.0,1.67,0.0,
23.583,76.34794803344072,82.9337157958719,3.75,-7.61,-68.02,0.0,0.0,0.0,0.0,0.0,1.0,0.0,0.0,1.77,0.0,
23.607,76.48479480334407,83.62337157958719,3.45,-0.76,-72.56,0.0,0.0,0.0,0.0,0.0,1.0,0.0,0.0,1.86,0.0,
23.63,76.7054794803344,84.44833715795873,1.82,4.37,-78.38,0.0,0.0,0.0,0.0,0.0,1.0,0.0,0.0,1.77,0.0,
23.654,77.23154794803345,85.12483371579587,1.98,3.73,-80.47,0.0,0.0,0.0,0.0,0.0,1.0,0.0,0.0,1.77,0.0,
23.677,77.77915479480336,85.74148337157959,4.47,-2.27,-78.56,0.0,0.0,0.0,0.0,0.0,1.0,0.0,0.0,1.77,0.0,
23.701,78.26591547948033,86.44214833715796,5.01,-2.1,-68.57,0.0,0.0,0.0,0.0,0.0,1.0,0.0,0.0,1.67,0.0,
23.725,78.82759154794803,86.90821483371579,6.39,0.26,-59.09,0.0,0.0,0.0,0.0,0.0,1.0,0.0,0.0,1.67,0.0,
23.748,79.5857591547948,87.13482148337158,5.72,3.14,-51.18,0.0,0.0,0.0,0.0,0.0,1.0,0.0,0.0,1.67,0.0,
23.772,80.18357591547948,87.26548214833716,2.89,7.78,-43.61,0.0,0.0,0.0,0.0,0.0,1.0,0.0,0.0,1.77,-2627.61,
23.796,80.81935759154794,87.30554821483372,-5.04,9.7,-37.54,0.0,0.0,0.0,0.0,0.0,1.0,0.0,0.0,1.77,0.0,
23.82,81.52193575915479,87.51655482148337,-21.24,10.78,-35.26,0.0,0.0,0.0,0.0,0.0,1.0,0.0,0.0,1.67,0.0,
23.843,83.17619357591548,88.07765548214834,-33.35,-14.65,-42.34,0.0,0.0,0.0,0.0,0.0,3.0,0.0,0.0,1.67,0.0,
23.868,83.00861935759156,89.06976554821485,27.53,16.67,-0.65,0.0,0.0,0.0,0.0,0.0,1.0,0.0,0.0,1.57,0.0,
23.891,83.55886193575917,89.65497655482149,20.26,26.19,8.05,0.0,0.0,0.0,1.0,0.0,2.0,0.0,0.49,1.96,0.0,
23.916,82.75888619357592,89.09249765548216,21.66,3.69,8.06,0.0,0.0,0.0,2.0,0.0,2.0,0.0,1.08,2.55,0.0,
23.94,82.62488861935759,87.44324976554822,11.16,23.08,27.6,0.0,0.0,0.0,3.0,0.0,2.0,0.0,1.57,3.34,0.0,
23.964,81.89148886193576,86.75632497655484,17.41,20.68,23.42,0.0,0.0,0.0,4.0,0.0,2.0,0.0,2.84,3.83,0.0,
23.988,81.69214888619358,86.72363249765549,19.95,39.77,4.49,0.0,0.0,0.0,6.0,1.0,2.0,0.0,3.43,3.92,0.0,
24.012,82.73421488861935,86.48636324976555,12.33,19.11,-0.02,0.0,0.0,0.0,6.0,1.0,3.0,0.0,4.02,4.02,0.0,
24.036,83.41442148886192,86.67863632497655,3.47,19.64,-1.47,0.0,0.0,1.0,7.0,1.0,3.0,0.0,4.22,4.02,0.0,
24.06,83.68044214888619,86.11286363249765,2.03,13.54,-2.02,0.0,0.0,1.0,8.0,1.0,3.0,0.0,4.51,3.83,0.0,
24.084,84.13004421488863,85.91228636324976,1.64,17.1,-0.62,0.0,0.0,1.0,9.0,1.0,4.0,1.0,4.71,3.53,0.0,
24.109,84.29200442148887,85.73922863632497,3.49,16.16,-6.23,0.0,0.0,1.0,9.0,1.0,4.0,1.0,4.81,3.83,0.0,
24.132,84.47020044214888,85.69492286363248,4.25,14.33,-7.32,0.0,0.0,2.0,10.0,2.0,4.0,1.0,5.0,4.12,0.0,
24.157,84.83902004421488,85.90649228636325,1.39,13.5,-10.08,0.0,0.0,2.0,11.0,2.0,4.0,1.0,5.2,4.91,0.0,
24.18,85.12790200442149,85.72964922863632,-1.82,2.21,-18.28,0.0,0.0,2.0,12.0,2.0,4.0,1.0,5.49,6.08,0.0,
24.205,85.73279020044214,85.57696492286364,0.02,-3.87,-15.1,0.0,0.0,2.0,1.0,2.0,5.0,1.0,5.59,7.26,0.0,
24.229,85.98227902004422,85.03969649228637,1.89,-14.56,-18.56,0.0,0.0,3.0,3.0,2.0,5.0,2.0,5.89,8.63,0.0,
24.253,86.53822790200442,84.83296964922864,0.81,-2.21,-18.02,0.0,0.0,3.0,5.0,3.0,5.0,2.0,5.89,10.1,0.0,
24.278,86.49482279020043,85.11829696492286,2.5,-16.82,-21.42,0.0,0.0,3.0,7.0,3.0,6.0,2.0,5.69,11.38,0.0,
24.302,86.03148227902005,85.55182969649228,-1.5,-3.06,-14.66,0.0,0.0,3.0,10.0,3.0,6.0,2.0,5.59,12.65,0.0,
24.327,86.07514822790199,85.59518296964922,-3.28,-0.53,-14.03,0.0,0.0,3.0,11.0,3.0,6.0,2.0,5.69,14.52,0.0,
24.351,86.55651482279019,85.73451829696492,-1.87,-1.38,-12.37,0.0,0.0,3.0,11.0,3.0,6.0,2.0,5.89,16.28,0.0,
