time,pitch,roll,gyrx,gyry,gyrz,f1,f2,f3,f4,f5,f6,f7,g1,g2,g3
0.377,69.22,24.32,-1.0,0.0,0.0,0,0,0,0,1,0,0,0.00,0.20,0.00,
0.391,74.791,26.201,-4.0,2.0,-2.0,0,0,0,0,1,0,0,0.00,0.20,0.10,
0.404,80.1541,27.991100000000003,-6.0,3.0,-4.0,0,0,0,0,1,0,0,0.10,0.20,0.10,
0.417,84.98341,29.592109999999998,-6.0,1.0,-6.0,0,0,0,0,1,0,0,0.10,0.20,0.00,
0.431,89.246341,30.922211,-5.0,0.0,-8.0,0,0,0,0,1,0,0,0.00,0.10,0.00,
0.444,92.6696341,32.3332211,-3.0,-1.0,-7.0,0,0,0,0,1,0,0,0.00,0.00,0.10,
0.457,95.54996341,33.71632210999999,-1.0,-1.0,-3.0,0,0,0,0,1,0,0,0.10,0.00,0.00,
0.471,98.14199634100001,34.853632211,0.0,0.0,0.0,0,0,0,0,1,0,0,0.10,0.00,0.00,
0.484,100.3271996341,35.633363221100005,0.0,0.0,1.0,0,0,0,0,1,0,0,0.00,0.00,0.00,
0.497,102.24671996341,36.170336322109996,0.0,1.0,1.0,0,0,0,0,1,0,0,0.00,0.00,0.10,
0.51,103.75267199634101,36.629033632211,-2.0,1.0,1.0,0,0,0,0,1,0,0,0.00,0.00,0.10,
0.524,105.23526719963411,36.8909033632211,-4.0,2.0,0.0,0,0,0,0,1,0,0,0.00,0.00,0.10,
0.537,106.3375267199634,37.18709033632211,-4.0,0.0,-2.0,0,0,0,0,1,0,0,0.00,0.00,0.10,
0.55,107.26675267199634,37.41470903363221,-4.0,0.0,-3.0,0,0,0,0,1,0,0,0.00,0.10,0.10,
0.564,108.09767526719963,37.581470903363225,-4.0,0.0,-4.0,0,0,0,0,1,0,0,0.00,0.00,0.00,
0.577,108.87376752671996,37.65214709033632,-4.0,-1.0,-4.0,0,0,0,0,1,0,0,0.00,0.00,0.00,
0.59,109.500376752672,37.76721470903363,-4.0,0.0,-3.0,0,0,0,0,1,0,0,0.00,0.00,0.10,
0.604,110.0850376752672,37.88672147090336,-4.0,0.0,-2.0,0,0,0,0,1,0,0,0.00,0.00,0.20,
0.617,110.22450376752671,38.32167214709034,-2.0,1.0,0.0,0,0,0,0,1,0,0,0.00,0.00,0.10,
0.63,110.37345037675267,38.64416721470903,0.0,1.0,2.0,0,0,0,0,1,0,0,0.00,0.00,0.10,
0.644,110.27134503767527,38.955416721470904,1.0,1.0,3.0,0,0,0,0,1,0,0,0.00,0.00,0.10,
0.657,110.14413450376753,39.23854167214709,1.0,1.0,4.0,0,0,0,0,1,0,0,0.00,0.00,0.20,
0.67,110.27541345037676,39.347854167214706,1.0,0.0,3.0,0,0,0,0,1,0,0,0.00,0.00,0.20,
0.684,110.28854134503769,39.45778541672147,0.0,-2.0,2.0,0,0,0,0,1,0,0,0.00,0.00,0.10,
0.697,110.26285413450377,39.52277854167215,-2.0,-2.0,0.0,0,0,0,0,1,0,0,0.00,0.00,0.10,
0.71,110.08028541345038,39.65527785416722,-3.0,-1.0,-1.0,0,0,0,0,1,0,0,0.00,0.00,0.10,
0.724,109.81002854134505,39.758527785416724,-3.0,0.0,-3.0,0,0,0,0,1,0,0,0.00,0.00,0.20,
0.738,109.8010028541345,39.75985277854167,-2.0,0.0,-4.0,0,0,0,0,1,0,0,0.00,0.00,0.20,
0.751,109.94410028541344,39.66998527785416,0.0,-1.0,-5.0,0,0,0,0,1,0,0,0.00,0.00,0.20,
0.764,110.20141002854135,39.74199852778541,0.0,-3.0,-4.0,0,0,0,0,1,0,0,0.00,0.00,0.20,
0.778,110.46114100285413,39.95619985277854,1.0,-3.0,-1.0,0,0,0,0,1,0,0,0.00,0.00,0.29,
0.791,110.73011410028542,40.07661998527786,1.0,-3.0,0.0,0,0,0,0,1,0,0,0.10,0.00,0.29,
0.804,110.78401141002855,40.17866199852779,2.0,-1.0,1.0,0,0,0,0,1,0,0,0.10,0.00,0.20,
0.818,111.12240114100285,40.215866199852776,2.0,-1.0,0.0,0,0,0,0,1,0,0,0.00,0.00,0.20,
0.831,111.4172401141003,40.10258661998528,2.0,0.0,0.0,0,0,0,0,1,0,0,0.10,0.00,0.20,
0.844,111.68972401141002,40.02825866199853,1.0,-1.0,-2.0,0,0,0,0,1,0,0,0.00,0.10,0.29,
0.858,111.97797240114102,39.921825866199846,1.0,0.0,-2.0,0,0,0,0,1,0,0,0.00,0.00,0.20,
0.871,112.1147972401141,39.82118258661998,2.0,0.0,-3.0,0,0,0,0,1,0,0,0.00,0.00,0.29,
0.884,112.11947972401141,39.802118258662,2.0,0.0,-3.0,0,0,0,0,1,0,0,0.00,0.10,0.29,
0.898,112.10194797240113,39.7822118258662,2.0,0.0,-3.0,0,0,0,0,1,0,0,0.00,0.10,0.20,
0.911,112.1991947972401,39.83422118258662,0.0,0.0,-2.0,0,0,0,0,1,0,0,0.00,0.10,0.20,
0.925,112.29891947972402,39.85742211825866,0.0,1.0,-2.0,0,0,0,0,1,0,0,0.00,0.10,0.20,
0.939,112.36289194797241,39.85974221182587,0.0,0.0,-1.0,0,0,0,0,1,0,0,0.10,0.20,0.10,
0.952,112.23428919479724,39.904974221182584,0.0,0.0,-1.0,0,0,0,0,1,0,0,0.10,0.20,0.10,
0.965,112.01442891947971,40.03549742211826,0.0,0.0,-1.0,0,0,0,0,1,0,0,0.10,0.20,0.10,
0.978,111.81244289194797,40.17454974221182,1.0,1.0,0.0,0,0,0,0,1,0,0,0.10,0.20,0.10,
0.992,111.7562442891948,40.305454974221185,0.0,0.0,-1.0,0,0,0,0,1,0,0,0.00,0.20,0.10,
1.005,111.78662442891948,40.26454549742212,0.0,0.0,-1.0,0,0,0,0,1,0,0,0.00,0.29,0.20,
1.018,111.92466244289194,40.15245454974222,0.0,-2.0,-3.0,0,0,0,0,1,0,0,0.00,0.29,0.20,
1.033,112.0014662442892,40.09624545497422,-1.0,-1.0,-2.0,0,0,0,0,1,0,0,0.00,0.29,0.39,
1.046,112.01814662442891,40.15362454549742,-2.0,0.0,-2.0,0,0,0,0,1,0,0,0.10,0.39,0.20,
1.059,111.81281466244289,40.357362454549744,-2.0,0.0,0.0,0,0,0,0,1,0,0,0.00,0.39,0.20,
1.073,111.76528146624429,40.44073624545497,-2.0,0.0,0.0,0,0,0,0,1,0,0,0.00,0.39,0.20,
1.086,111.79652814662442,40.4670736245455,-1.0,0.0,0.0,0,0,0,0,1,0,0,0.00,0.39,0.29,
1.1,111.75465281466245,40.49670736245455,0.0,-1.0,0.0,0,0,0,0,1,0,0,0.00,0.29,0.20,
1.114,111.55246528146625,40.55367073624546,0.0,0.0,-1.0,0,0,0,0,1,0,0,0.00,0.39,0.10,
1.127,111.47824652814663,40.55036707362454,-2.0,0.0,-1.0,0,0,0,0,1,0,0,0.00,0.29,0.10,
1.14,111.41682465281467,40.48703670736245,-3.0,1.0,1.0,0,0,0,0,1,0,0,0.00,0.39,0.20,
1.154,111.55468246528146,40.31870367073624,-4.0,0.0,0.0,0,0,0,0,1,0,0,0.00,0.39,0.10,
1.167,111.71246824652815,40.14887036707363,-4.0,-2.0,0.0,0,0,0,0,1,0,0,0.00,0.49,0.20,
1.181,111.80024682465282,40.09588703670737,-3.0,-4.0,-2.0,0,0,0,0,1,0,0,0.00,0.29,0.20,
1.195,111.80902468246528,40.22558870367074,-3.0,-1.0,-3.0,0,0,0,0,1,0,0,0.00,0.29,0.20,
1.208,111.79190246824653,40.26555887036707,-3.0,0.0,-3.0,0,0,0,0,1,0,0,0.00,0.20,0.20,
1.221,111.85319024682465,40.33255588703671,-2.0,0.0,-3.0,0,0,0,0,1,0,0,0.10,0.20,0.20,
1.235,111.82331902468245,40.42925558870367,-2.0,0.0,-2.0,0,0,0,0,1,0,0,0.10,0.39,0.20,
1.249,111.80233190246824,40.609925558870366,-1.0,0.0,-1.0,0,0,0,0,1,0,0,0.10,0.29,0.20,
1.262,111.88123319024683,40.59199255588704,0.0,0.0,0.0,0,0,0,0,1,0,0,0.10,0.20,0.29,
1.275,111.84412331902469,40.6081992555887,0.0,0.0,0.0,0,0,0,0,1,0,0,0.10,0.29,0.20,
1.289,111.63341233190246,40.69981992555887,0.0,0.0,0.0,0,0,0,0,1,0,0,0.10,0.20,0.20,
1.302,111.71134123319024,40.70898199255589,-1.0,0.0,0.0,0,0,0,0,1,0,0,0.10,0.29,0.20,
1.315,111.86313412331901,40.71889819925559,0.0,0.0,0.0,0,0,0,0,1,0,0,0.00,0.29,0.20,
1.329,112.0043134123319,40.70188981992556,0.0,-1.0,-1.0,0,0,0,0,1,0,0,0.00,0.20,0.20,
1.343,111.94643134123318,40.799188981992565,0.0,0.0,-2.0,0,0,0,0,1,0,0,0.00,0.29,0.20,
1.356,111.81464313412332,40.94391889819926,0.0,1.0,-2.0,0,0,0,0,1,0,0,0.10,0.29,0.10,
1.37,111.63946431341235,40.95839188981993,0.0,1.0,-2.0,0,0,0,0,1,0,0,0.20,0.29,0.20,
1.383,111.78394643134123,40.851839188982,0.0,0.0,-2.0,0,0,0,0,1,0,0,0.10,0.39,0.20,
1.396,112.00539464313412,40.6611839188982,0.0,-1.0,-4.0,0,0,0,0,1,0,0,0.00,0.39,0.29,
1.41,112.03653946431342,40.63311839188982,0.0,0.0,-4.0,0,0,0,0,1,0,0,0.00,0.29,0.20,
1.424,111.85065394643135,40.81931183918899,-2.0,0.0,-2.0,0,0,0,0,1,0,0,0.10,0.39,0.20,
1.437,111.70606539464313,40.9729311839189,-3.0,1.0,0.0,0,0,0,0,1,0,0,0.10,0.39,0.20,
1.451,111.75460653946432,40.970293118391886,-2.0,2.0,1.0,0,0,0,0,1,0,0,0.10,0.39,0.10,
1.464,111.77746065394643,40.86202931183919,0.0,0.0,0.0,0,0,0,0,1,0,0,0.00,0.29,0.10,
1.477,111.86074606539465,40.86020293118392,0.0,0.0,-1.0,0,0,0,0,1,0,0,0.00,0.29,0.29,
1.49,111.90507460653946,40.959020293118385,0.0,-1.0,-1.0,0,0,0,0,1,0,0,0.00,0.29,0.29,
1.504,112.10750746065395,41.04090202931184,0.0,0.0,0.0,0,0,0,0,1,0,0,0.00,0.39,0.29,
1.517,112.24475074606539,41.23809020293118,1.0,0.0,-1.0,0,0,0,0,1,0,0,0.00,0.39,0.20,
1.531,112.58247507460653,41.33880902029312,4.0,1.0,-1.0,0,0,0,0,1,0,0,0.10,0.29,0.10,
1.545,112.69724750746065,41.573880902029316,8.0,1.0,-2.0,0,0,0,0,1,0,0,0.00,0.20,0.20,
1.558,112.58272475074607,41.85838809020293,10.0,2.0,-2.0,0,0,0,0,1,0,0,0.00,0.20,0.29,
1.571,112.31927247507461,42.11183880902029,10.0,3.0,0.0,0,0,0,0,1,0,0,0.10,0.29,0.20,
1.585,112.10392724750746,42.29918388090203,10.0,2.0,2.0,0,0,0,0,1,0,0,0.10,0.39,0.20,
1.598,111.92039272475076,42.57891838809021,11.0,0.0,2.0,0,0,0,0,1,0,0,0.10,0.39,0.20,
1.612,112.00103927247508,42.97589183880903,13.0,0.0,1.0,0,0,0,0,1,0,0,0.10,0.49,0.20,
1.626,111.9641039272475,43.600589183880906,18.0,0.0,-1.0,0,0,0,0,1,0,0,0.10,0.49,0.20,
1.639,111.87041039272475,44.51805891838809,23.0,0.0,-2.0,0,0,0,0,1,0,0,0.10,0.39,0.20,
1.652,111.67204103927249,45.61780589183881,29.0,0.0,-1.0,0,0,0,0,1,0,0,0.00,0.39,0.20,
1.666,111.50820410392724,46.52878058918389,35.0,-1.0,0.0,0,0,0,0,1,0,0,0.00,0.39,0.10,
1.68,111.36582041039273,47.195878058918396,39.0,-1.0,-1.0,0,0,0,0,2,0,0,0.10,0.59,0.10,
1.693,111.48658204103928,47.586587805891845,40.0,-1.0,-3.0,0,0,0,0,2,0,0,0.10,0.78,0.20,
1.707,111.47165820410393,48.11165878058918,40.0,0.0,-3.0,0,0,0,0,2,0,0,0.20,0.88,0.20,
1.72,111.6861658204104,48.82116587805891,40.0,2.0,-5.0,0,0,0,0,2,0,0,0.20,1.08,0.20,
1.734,112.51761658204104,50.49411658780589,44.0,0.0,-9.0,0,0,0,0,2,0,0,0.10,1.18,0.10,
1.747,113.6087616582041,52.78541165878059,52.0,0.0,-12.0,0,0,0,0,2,0,0,0.10,1.18,0.10,
1.761,114.57287616582042,54.544541165878066,61.0,3.0,-18.0,0,0,0,0,2,0,0,0.10,1.08,0.20,
1.774,114.97528761658204,55.84545411658781,67.0,7.0,-23.0,0,0,0,0,2,0,0,0.20,1.08,0.10,
1.788,114.7635287616582,56.39854541165878,69.0,15.0,-23.0,0,0,0,0,2,0,0,0.20,1.37,0.00,
1.802,114.46335287616583,55.99485454116588,65.0,20.0,-23.0,0,0,0,0,2,0,0,0.10,2.16,0.00,
1.816,114.58633528761658,54.96448545411659,57.0,19.0,-24.0,0,0,0,0,2,0,0,0.10,2.65,0.00,
1.829,115.42663352876166,54.07844854541166,47.0,15.0,-22.0,0,0,0,0,2,0,0,0.00,3.34,0.00,
1.843,116.14966335287616,54.04384485454117,38.0,9.0,-23.0,0,0,0,0,2,0,0,0.00,3.92,0.00,
1.857,117.00496633528762,54.886384485454116,36.0,10.0,-27.0,0,0,0,0,2,0,0,0.00,4.12,0.00,
1.87,117.38749663352877,55.39363844854541,38.0,16.0,-34.0,0,0,0,0,2,0,0,0.00,3.92,0.00,
1.884,117.44374966335288,55.61536384485454,39.0,17.0,-42.0,0,0,0,0,2,0,0,0.00,3.73,0.00,
1.898,117.36837496633528,55.790536384485456,39.0,25.0,-37.0,0,0,0,0,2,0,0,0.00,3.83,0.00,
1.911,117.26183749663353,55.60105363844854,40.0,24.0,-32.0,0,0,0,0,2,0,0,0.00,3.92,0.00,
1.925,116.91818374966334,55.77110536384485,40.0,23.0,-23.0,0,0,0,0,2,0,0,0.00,4.12,0.00,
1.939,115.92981837496633,55.779110536384486,39.0,22.0,-17.0,0,0,0,0,2,0,0,0.00,4.22,0.00,
1.952,114.85898183749663,56.562911053638445,37.0,21.0,-8.0,0,0,0,0,2,0,0,0.00,4.22,0.00,
1.967,114.35589818374966,58.027291105363844,36.0,17.0,1.0,0,0,0,0,2,0,0,0.00,4.22,0.00,
1.98,114.87258981837498,59.874729110536386,39.0,9.0,2.0,0,0,0,0,2,0,0,0.00,4.02,0.00,
1.993,115.85125898183749,61.71547291105364,44.0,0.0,-8.0,0,0,0,0,2,0,0,0.00,3.73,0.00,
2.007,116.24612589818375,63.55554729110536,49.0,-2.0,-24.0,0,0,0,0,2,0,0,0.00,3.53,0.00,
2.021,116.45661258981838,65.20655472911054,52.0,6.0,-32.0,0,0,0,0,2,0,0,0.00,3.53,0.00,
2.034,116.78366125898182,66.71265547291105,53.0,16.0,-37.0,0,0,0,0,2,0,0,0.00,3.83,0.00,
2.048,117.49136612589818,68.5372655472911,54.0,25.0,-40.0,0,0,0,0,2,0,0,0.00,4.02,0.00,
2.062,118.26413661258982,69.61072655472911,54.0,24.0,-41.0,0,0,0,0,2,0,0,0.00,4.22,0.00,
2.075,118.42241366125899,70.44707265547291,52.0,20.0,-44.0,0,0,0,0,2,0,0,0.00,4.32,0.00,
2.088,117.3402413661259,71.8267072655473,49.0,22.0,-34.0,0,0,0,0,2,0,0,0.00,4.41,0.00,
2.103,115.65702413661259,73.86367072655474,45.0,23.0,-20.0,0,0,0,0,2,0,0,0.00,4.81,0.00,
2.116,113.58970241366126,77.12736707265547,47.0,16.0,-3.0,0,0,0,0,2,0,0,0.00,4.61,0.00,
2.129,112.10497024136612,83.39373670726556,55.0,-47.0,4.0,0,0,0,0,2,0,0,0.00,4.41,0.00,
2.144,112.56849702413662,78.53037367072656,39.0,-27.0,39.0,0,0,0,0,2,0,0,0.00,5.89,0.00,
2.157,112.20084970241366,73.04003736707267,23.0,-14.0,-14.0,0,0,0,0,2,0,0,0.00,19.03,0.00,
2.171,110.46308497024135,69.12500373670727,1.0,-10.0,-3.0,0,0,0,0,1,0,0,0.00,23.45,0.00,
2.185,108.89430849702413,67.35650037367073,-4.0,-10.0,0.0,0,0,0,0,1,0,0,0.00,27.08,0.00,
2.198,109.94343084970241,69.80765003736707,0.0,-9.0,11.0,0,0,0,0,1,0,0,0.00,30.02,0.00,
2.212,112.72134308497024,74.87676500373671,0.0,-16.0,-3.0,0,0,0,0,1,0,0,0.00,27.96,0.00,
2.226,113.90813430849703,78.80367650037367,-1.0,-4.0,1.0,0,0,0,0,1,0,0,0.00,25.70,0.00,
2.239,114.1618134308497,79.26836765003736,-1.0,-21.0,12.0,0,0,0,0,1,0,0,0.00,24.13,0.00,
2.253,113.34118134308497,77.93783676500374,9.0,-2.0,6.0,0,0,0,0,1,0,0,0.00,23.05,0.00,
2.267,112.5661181343085,78.07478367650037,22.0,-3.0,7.0,0,0,0,0,1,0,0,0.00,22.07,0.00,
2.28,113.72161181343085,81.04047836765004,36.0,14.0,-9.0,0,0,0,0,1,0,0,0.00,17.46,0.00,
2.294,115.2591611813431,86.27804783676501,46.0,22.0,-19.0,0,0,0,0,1,0,0,0.00,14.13,0.00,
2.308,116.24991611813431,91.8958047836765,56.0,20.0,-28.0,0,0,0,0,1,0,0,0.00,11.09,0.00,
2.322,117.18599161181344,97.38958047836765,66.0,11.0,-30.0,0,0,0,0,1,0,0,0.00,8.83,0.00,
2.335,117.97259916118135,102.13295804783677,71.0,12.0,-30.0,0,0,0,0,1,0,0,0.00,6.87,0.00,
2.35,119.05925991611815,105.17229580478367,75.0,10.0,-34.0,0,0,0,0,1,0,0,0.00,6.67,0.00,
2.363,119.50092599161181,104.62122958047837,82.0,0.0,-26.0,0,0,0,0,1,0,0,0.00,7.16,0.00,
2.376,119.25709259916118,103.04512295804784,85.0,-13.0,-30.0,0,0,0,0,1,0,0,0.00,7.95,0.00,
2.391,118.74670925991612,100.48451229580479,86.0,-6.0,-33.0,0,0,0,0,1,0,0,0.00,10.50,0.00,
2.404,117.85867092599162,97.22245122958049,86.0,-1.0,-32.0,0,0,0,0,1,0,0,0.00,11.97,0.00,
2.418,116.32986709259916,93.06224512295805,80.0,4.0,-27.0,0,0,0,0,1,0,0,0.00,13.73,0.00,
2.432,115.57398670925991,88.2632245122958,74.0,-3.0,-25.0,0,0,0,0,1,0,0,0.00,15.70,0.00,
2.446,116.272398670926,83.3013224512296,59.0,-29.0,-4.0,0,0,0,0,1,0,0,0.00,22.27,0.00,
2.459,114.4432398670926,79.36713224512296,14.0,-52.0,-13.0,0,0,0,0,1,0,0,0.00,27.57,0.00,
2.473,112.35232398670925,78.10971322451229,9.0,1.0,-9.0,0,0,0,0,1,0,0,0.00,31.88,0.49,
2.487,112.15223239867092,81.37697132245123,6.0,15.0,-25.0,0,0,0,0,1,0,0,0.00,30.71,0.29,
2.5,113.18522323986708,86.86969713224512,19.0,-8.0,-29.0,0,0,0,0,1,0,0,0.00,18.64,0.20,
2.514,114.96252232398672,93.52096971322452,34.0,7.0,-21.0,0,0,0,0,1,0,0,0.00,14.22,0.29,
2.528,116.22025223239868,99.85609697132246,39.0,-25.0,-45.0,0,0,0,0,1,0,0,0.00,10.89,0.20,
2.542,116.66102522323986,105.72760969713225,49.0,-18.0,-46.0,0,0,0,0,1,0,0,0.00,7.95,0.39,
2.555,115.99410252232398,110.40976096971323,57.0,-28.0,-46.0,0,0,0,0,1,0,0,0.00,3.14,0.69,
2.57,115.63941025223238,115.41397609697133,56.0,-44.0,-38.0,0,0,0,0,1,0,0,0.00,1.57,0.88,
2.583,113.06594102522324,117.28239760969713,58.0,-76.0,-14.0,0,0,0,0,1,0,0,0.00,0.39,1.37,
2.597,111.18859410252233,116.88423976096972,58.0,-101.0,0.0,0,0,0,0,1,0,1,0.00,0.00,2.16,
2.612,108.70585941025223,116.55642397609697,22.0,-93.0,21.0,0,0,0,0,2,0,1,0.00,0.00,3.34,
2.625,107.89958594102524,108.8916423976097,20.0,-32.0,14.0,0,0,0,0,2,0,1,0.00,0.00,4.22,
2.639,107.98095859410252,100.34916423976098,5.0,-27.0,-10.0,0,0,0,0,2,0,1,0.00,0.00,5.49,
2.653,107.03509585941026,93.0959164239761,-5.0,-5.0,-21.0,0,0,0,0,1,0,1,0.00,1.86,6.28,
2.667,106.55350958594103,85.95359164239761,-13.0,4.0,-27.0,0,0,0,0,1,0,1,0.00,4.71,7.06,
2.68,105.2093509585941,80.05535916423977,-21.0,12.0,-14.0,0,0,0,0,1,0,1,0.00,5.69,6.97,
2.695,104.93093509585941,77.61153591642399,1.0,45.0,-14.0,0,0,0,0,1,0,1,0.00,6.97,6.18,
2.708,105.79409350958593,83.1811535916424,-4.0,21.0,-8.0,0,0,0,0,2,0,1,0.00,8.73,5.49,
2.722,106.07840935095858,87.93211535916423,-12.0,-4.0,-9.0,0,0,0,0,2,0,1,0.00,10.79,4.32,
2.736,105.90884093509585,89.47821153591643,-14.0,-8.0,4.0,0,0,0,0,2,0,1,0.00,16.38,4.22,
2.75,104.45188409350959,89.49782115359164,-14.0,12.0,3.0,0,0,0,0,2,0,1,0.00,19.62,4.32,
2.763,103.87418840935096,89.94078211535916,-8.0,9.0,0.0,0,0,0,0,2,0,1,0.00,22.27,4.22,
2.778,104.4914188409351,90.66907821153592,-8.0,14.0,-4.0,0,0,0,0,1,0,1,0.00,23.84,3.63,
2.791,105.6511418840935,91.2369078211536,-6.0,5.0,-3.0,0,0,0,0,1,0,1,0.00,23.84,3.34,
2.805,106.55911418840935,91.63569078211538,-3.0,7.0,0.0,0,0,0,0,1,0,1,0.00,23.25,3.24,
2.819,107.14491141884092,92.03556907821154,-4.0,-1.0,-3.0,0,0,0,0,1,0,1,0.00,23.05,3.24,
2.832,107.6354911418841,92.44455690782115,-5.0,-1.0,-3.0,0,0,0,0,1,0,1,0.00,23.15,3.24,
2.846,107.90054911418842,92.71045569078211,-5.0,-3.0,-4.0,0,0,0,0,2,0,1,0.00,24.23,3.34,
2.86,108.20605491141883,93.04304556907822,-4.0,-1.0,-3.0,0,0,0,0,2,0,1,0.00,24.82,3.24,
2.874,108.30860549114188,93.37330455690783,-3.0,-2.0,-4.0,0,0,0,0,2,0,1,0.00,25.31,3.34,
2.887,108.2918605491142,93.74833045569078,-3.0,0.0,-3.0,0,0,0,0,2,0,1,0.00,25.80,3.24,
2.902,108.21818605491141,93.95683304556908,-3.0,0.0,-2.0,0,0,0,0,2,0,1,0.00,26.09,3.24,
2.915,108.32781860549113,94.10368330455692,-3.0,1.0,-2.0,0,0,0,0,2,0,1,0.00,25.90,3.24,
2.929,108.61778186054912,94.10936833045568,-3.0,1.0,-3.0,0,0,0,0,2,0,1,0.00,25.80,3.24,
2.942,108.7637781860549,94.16393683304557,-3.0,0.0,-3.0,0,0,0,0,1,0,1,0.00,25.70,3.43,
2.957,108.77837781860549,94.33139368330455,-2.0,1.0,-2.0,0,0,0,0,1,0,1,0.00,25.60,3.53,
2.97,108.77983778186055,94.42013936833047,-2.0,0.0,-1.0,0,0,0,0,1,0,1,0.00,25.51,3.63,
2.983,108.95998377818606,94.51001393683305,-2.0,0.0,-1.0,0,0,0,0,1,0,1,0.00,25.51,3.63,
2.998,109.15799837781861,94.53700139368331,-2.0,-1.0,-1.0,0,0,0,0,1,0,1,0.00,25.60,3.83,
3.011,109.24979983778186,94.57570013936834,-2.0,-1.0,-1.0,0,0,0,0,1,0,1,0.00,25.31,3.92,
3.025,109.32197998377819,94.58857001393683,-2.0,-1.0,-1.0,0,0,0,0,1,0,1,0.00,25.21,3.92,
3.039,109.27519799837782,94.61685700139368,-2.0,-1.0,-1.0,0,0,0,0,1,0,1,0.00,25.11,3.92,
3.053,109.31551979983777,94.67368570013937,-2.0,-1.0,-1.0,0,0,0,0,1,0,1,0.00,25.11,4.02,
3.066,109.34655197998377,94.72436857001394,-2.0,0.0,-1.0,0,0,0,0,1,0,1,0.00,25.31,3.92,
3.081,109.37665519799836,94.76543685700139,-2.0,0.0,-1.0,0,0,0,0,1,0,1,0.00,25.41,3.92,
3.094,109.36166551979984,94.78754368570014,-2.0,-1.0,-1.0,0,0,0,0,1,0,1,0.00,25.60,3.92,
3.108,109.37816655197997,94.78975436857002,-2.0,0.0,-1.0,0,0,0,0,1,0,1,0.00,25.80,4.02,
3.122,109.307816655198,94.789975436857,-2.0,0.0,-1.0,0,0,0,0,1,0,1,0.00,25.90,4.12,
3.136,109.2647816655198,94.81699754368569,-2.0,0.0,-1.0,0,0,0,0,1,0,1,0.00,25.80,4.12,
3.149,109.25147816655198,94.72969975436857,-2.0,0.0,-1.0,0,0,0,0,1,0,1,0.00,25.70,4.02,
3.163,109.2321478166552,94.70296997543686,-2.0,0.0,-1.0,0,0,0,0,1,0,1,0.00,25.60,4.02,
3.177,109.24821478166552,94.78129699754369,-2.0,0.0,-1.0,0,0,0,0,1,0,1,0.00,25.60,4.02,
3.19,109.25882147816655,94.80712969975437,-1.0,0.0,-1.0,0,0,0,0,1,0,1,0.00,25.70,4.02,
3.205,109.32288214781666,94.77371296997543,-1.0,0.0,-1.0,0,0,0,0,1,0,1,0.00,25.60,4.02,
3.218,109.29328821478167,94.78837129699755,-2.0,0.0,-2.0,0,0,0,0,1,0,1,0.00,25.41,4.12,
3.231,109.20932882147817,94.82583712969975,-1.0,0.0,-1.0,0,0,0,0,1,0,1,0.00,25.31,4.22,
3.246,109.20993288214781,94.85658371296996,-1.0,0.0,-1.0,0,0,0,0,1,0,1,0.00,25.02,4.22,
3.259,109.22799328821478,94.814658371297,-1.0,0.0,-1.0,0,0,0,0,1,0,1,0.00,24.72,4.22,
3.273,109.24779932882147,94.9004658371297,-1.0,0.0,-1.0,0,0,0,0,1,0,1,0.00,24.43,4.22,
3.287,109.21377993288215,94.90904658371296,-1.0,0.0,-1.0,0,0,0,0,1,0,1,0.00,24.13,4.32,
3.3,109.23737799328822,94.91890465837129,-1.0,0.0,-1.0,0,0,0,0,1,0,1,0.00,23.84,4.32,
3.314,109.30273779932882,94.95589046583713,-1.0,0.0,-1.0,0,0,0,0,1,0,1,0.00,23.64,4.32,
3.328,109.31827377993287,94.95958904658372,-1.0,0.0,-1.0,0,0,0,0,1,0,1,0.00,23.45,4.32,
3.342,109.31082737799329,94.97795890465837,-1.0,0.0,-1.0,0,0,0,0,1,0,1,0.00,23.35,4.32,
3.355,109.27408273779933,95.06979589046584,-1.0,0.0,-1.0,0,0,0,0,1,0,1,0.00,23.15,4.41,
3.368,109.26140827377994,95.10597958904658,-1.0,0.0,0.0,0,0,0,0,1,0,1,0.00,22.96,4.41,
3.383,109.287140827378,95.12759795890466,-1.0,0.0,0.0,0,0,0,0,1,0,1,0.00,22.96,4.51,
3.396,109.2987140827378,95.12075979589046,-1.0,0.0,-1.0,0,0,0,0,1,0,1,0.00,22.76,4.51,
3.409,109.35387140827379,95.07507597958904,-1.0,0.0,-1.0,0,0,0,0,1,0,1,0.00,22.56,4.51,
3.424,109.35038714082737,95.05250759795891,-1.0,0.0,-1.0,0,0,0,0,1,0,1,0.00,22.27,4.51,
3.437,109.35003871408273,95.06825075979589,-2.0,0.0,-1.0,0,0,0,0,1,0,1,0.00,22.17,4.51,
3.451,109.33200387140828,95.0698250759796,-1.0,0.0,-1.0,0,0,0,0,1,0,1,0.00,22.17,4.51,
3.465,109.24920038714083,95.05198250759796,-1.0,0.0,0.0,0,0,0,0,1,0,1,0.00,22.27,4.61,
3.478,109.24992003871408,95.07719825075979,-1.0,0.0,-1.0,0,0,0,0,1,0,1,0.00,22.17,4.71,
3.492,109.32199200387142,95.09771982507598,-2.0,0.0,-1.0,0,0,0,0,1,0,1,0.00,22.07,4.71,
3.506,109.32919920038714,95.1267719825076,-1.0,0.0,-1.0,0,0,0,0,1,0,1,0.00,21.97,4.71,
3.52,109.3479199200387,95.18367719825076,-1.0,-1.0,0.0,0,0,0,0,1,0,1,0.00,21.88,4.61,
3.533,109.34979199200386,95.18036771982509,-1.0,0.0,0.0,0,0,0,0,1,0,1,0.00,21.78,4.51,
3.547,109.31397919920039,95.16203677198251,-1.0,-1.0,0.0,0,0,0,0,1,0,1,0.00,21.88,4.61,
3.561,109.28339791992003,95.12420367719825,-1.0,-1.0,-1.0,0,0,0,0,1,0,1,0.00,21.97,4.71,
3.574,109.253339791992,95.10242036771983,-2.0,-1.0,-1.0,0,0,0,0,1,0,1,0.00,22.17,4.51,
3.589,109.31333397919919,95.10924203677199,-2.0,0.0,-1.0,0,0,0,0,1,0,1,0.00,21.88,4.51,
3.602,109.33733339791992,95.0649242036772,-1.0,0.0,0.0,0,0,0,0,1,0,1,0.00,21.88,4.41,
3.616,109.26773333979199,95.06949242036772,-1.0,0.0,0.0,0,0,0,0,1,0,1,0.00,21.78,4.51,
3.63,109.2877733339792,95.06994924203677,-1.0,0.0,0.0,0,0,0,0,1,0,1,0.00,21.88,4.51,
3.643,109.26277733339792,95.08799492420368,-2.0,0.0,-1.0,0,0,0,0,1,0,1,0.00,21.78,4.61,
3.657,109.26027773333979,95.09879949242037,-2.0,0.0,0.0,0,0,0,0,1,0,1,0.00,21.68,4.61,
3.671,109.24202777333397,95.10887994924204,-2.0,0.0,-1.0,0,0,0,0,1,0,1,0.00,21.68,4.61,
3.684,109.2492027773334,95.16388799492421,-2.0,0.0,-1.0,0,0,0,0,1,0,1,0.00,21.78,4.61,
3.698,109.24992027773334,95.16038879949242,-1.0,0.0,0.0,0,0,0,0,1,0,1,0.00,21.78,4.71,
3.712,109.24099202777333,95.20503887994923,-1.0,0.0,-1.0,0,0,0,0,1,0,1,0.00,21.58,4.61,
3.725,109.29409920277733,95.18250388799493,-2.0,0.0,0.0,0,0,0,0,1,0,1,0.00,21.48,4.61,
3.739,109.26340992027774,95.1892503887995,-2.0,0.0,-1.0,0,0,0,0,1,0,1,0.00,21.39,4.71,
3.752,109.26934099202778,95.19892503887995,-2.0,0.0,0.0,0,0,0,0,1,0,1,0.00,21.39,4.71,
3.766,109.30593409920277,95.163892503888,-2.0,0.0,0.0,0,0,0,0,1,0,1,0.00,21.39,4.61,
3.78,109.30059340992028,95.1783892503888,-1.0,0.0,-1.0,0,0,0,0,1,0,1,0.00,21.48,4.71,
3.793,109.31805934099202,95.15283892503888,-2.0,0.0,0.0,0,0,0,0,1,0,1,0.00,21.48,4.71,
3.808,109.3198059340992,95.1682838925039,-2.0,0.0,-1.0,0,0,0,0,1,0,1,0.00,21.48,4.71,
3.821,109.31998059340991,95.1878283892504,-2.0,0.0,0.0,0,0,0,0,1,0,1,0.00,21.48,4.61,
3.834,109.30199805934099,95.12678283892504,-1.0,0.0,-1.0,0,0,0,0,1,0,1,0.00,21.48,4.71,
3.849,109.3091998059341,95.1656782838925,-2.0,0.0,-1.0,0,0,0,0,1,0,1,0.00,21.58,4.61,
3.862,109.3009199805934,95.16956782838926,-2.0,0.0,0.0,0,0,0,0,1,0,1,0.00,21.58,4.61,
3.875,109.25509199805934,95.15195678283894,-2.0,0.0,-1.0,0,0,0,0,1,0,1,0.00,21.58,4.71,
3.889,109.23250919980593,95.14119567828389,-1.0,0.0,-1.0,0,0,0,0,1,0,1,0.00,21.48,4.71,
3.903,109.25725091998059,95.09511956782839,-2.0,0.0,0.0,0,0,0,0,1,0,1,0.00,21.48,4.81,
3.916,109.26872509199806,95.06351195678283,-2.0,0.0,0.0,0,0,0,0,1,0,1,0.00,21.39,4.61,
3.93,109.2428725091998,95.05135119567828,-2.0,0.0,-1.0,0,0,0,0,1,0,1,0.00,21.39,4.71,
3.943,109.24028725091998,95.07713511956783,-2.0,0.0,-1.0,0,0,0,0,1,0,1,0.00,21.39,4.71,
3.957,109.303028725092,95.05271351195678,-2.0,0.0,-1.0,0,0,0,0,1,0,1,0.00,21.48,4.71,
3.971,109.36330287250921,95.08627135119568,-2.0,0.0,-1.0,0,0,0,0,1,0,1,0.00,21.58,4.81,
3.984,109.34233028725092,95.08062713511957,-2.0,0.0,-1.0,0,0,0,0,1,0,1,0.00,21.58,4.81,
3.998,109.3312330287251,95.08906271351196,-2.0,0.0,-1.0,0,0,0,0,1,0,1,0.00,21.48,4.71,
4.012,109.3211233028725,95.0899062713512,-1.0,0.0,-1.0,0,0,0,0,1,0,1,0.00,21.39,4.81,
4.025,109.31111233028724,95.08999062713512,-1.0,0.0,0.0,0,0,0,0,1,0,1,0.00,21.39,4.81,
4.039,109.31011123302872,95.08999906271352,-1.0,0.0,-1.0,0,0,0,0,1,0,1,0.00,21.29,4.81,
4.052,109.26501112330287,95.08099990627136,-1.0,0.0,0.0,0,0,0,0,1,0,1,0.00,21.19,4.91,
4.066,109.28750111233029,95.08909999062713,-1.0,0.0,-1.0,0,0,0,0,1,0,1,0.00,21.19,4.81,
4.08,109.28975011123303,95.11690999906271,-1.0,0.0,-1.0,0,0,0,0,1,0,1,0.00,21.19,4.81,
4.093,109.2179750111233,95.15569099990627,-1.0,0.0,-1.0,0,0,0,0,1,0,1,0.00,21.09,4.81,
4.108,109.23779750111233,95.19556909999064,-1.0,0.0,0.0,0,0,0,0,1,0,1,0.00,21.09,5.00,
4.121,109.26677975011123,95.19055690999906,-1.0,0.0,0.0,0,0,0,0,1,0,1,0.00,20.99,5.10,
4.134,109.28767797501112,95.16305569099991,-1.0,-1.0,-1.0,0,0,0,0,1,0,1,0.00,20.90,5.00,
4.149,109.26276779750111,95.16930556909999,-1.0,-1.0,-1.0,0,0,0,0,1,0,1,0.00,20.80,5.00,
4.162,109.27827677975012,95.20593055690999,-1.0,-1.0,-1.0,0,0,0,0,1,0,1,0.00,20.80,5.00,
4.176,109.270827677975,95.227593055691,-1.0,-1.0,-1.0,0,0,0,0,1,0,1,0.00,20.60,5.10,
4.19,109.1980827677975,95.2297593055691,-1.0,-1.0,-1.0,0,0,0,0,1,0,1,0.00,20.50,5.10,
4.204,109.17280827677975,95.2659759305569,-1.0,0.0,0.0,0,0,0,0,1,0,1,0.00,20.40,5.10,
4.217,109.18828082767797,95.24259759305568,-1.0,0.0,0.0,0,0,0,0,1,0,1,0.00,20.31,5.10,
4.231,109.16282808276779,95.22225975930557,-1.0,0.0,-1.0,0,0,0,0,1,0,1,0.00,20.21,5.20,
4.245,109.18728280827678,95.19322597593056,-1.0,0.0,-1.0,0,0,0,0,1,0,1,0.00,20.11,5.20,
4.258,109.20772828082768,95.17232259759305,-1.0,0.0,-1.0,0,0,0,0,1,0,1,0.00,20.01,5.10,
4.273,109.22777282808276,95.1522322597593,-1.0,0.0,-1.0,0,0,0,0,1,0,1,0.00,20.01,5.00,
4.286,109.28377728280827,95.16822322597594,-1.0,0.0,-1.0,0,0,0,0,1,0,1,0.00,19.91,5.20,
4.299,109.30737772828083,95.2148223225976,-1.0,0.0,0.0,0,0,0,0,1,0,1,0.00,19.72,5.30,
4.314,109.31873777282807,95.28248223225977,-1.0,-1.0,-1.0,0,0,0,0,1,0,1,0.00,19.62,5.30,
4.327,109.2748737772828,95.28924822322598,-1.0,0.0,0.0,0,0,0,0,1,0,1,0.00,19.52,5.30,
4.341,109.28848737772829,95.2809248223226,-1.0,-1.0,-1.0,0,0,0,0,1,0,1,0.00,19.33,5.40,
4.355,109.29884873777283,95.34309248223225,-1.0,0.0,-1.0,0,0,0,0,1,0,1,0.00,19.13,5.40,
4.368,109.29988487377729,95.34030924822324,-1.0,0.0,-1.0,0,0,0,0,1,0,1,0.00,19.03,5.40,
4.382,109.28198848737773,95.39403092482233,-1.0,-1.0,0.0,0,0,0,0,1,0,1,0.00,19.13,5.40,
4.396,109.28019884873777,95.40840309248223,-1.0,-1.0,-1.0,0,0,0,0,1,0,1,0.00,19.03,5.49,
4.41,109.31601988487377,95.37384030924824,-1.0,-1.0,0.0,0,0,0,0,1,0,1,0.00,18.93,5.40,
4.423,109.26560198848738,95.41538403092483,-2.0,-1.0,-1.0,0,0,0,0,1,0,1,0.00,18.84,5.49,
4.438,109.23356019884874,95.44653840309249,-1.0,-1.0,0.0,0,0,0,0,1,0,1,0.00,18.93,5.49,
4.451,109.18535601988489,95.45865384030925,-1.0,-1.0,0.0,0,0,0,0,1,0,1,0.00,18.93,5.49,
4.464,109.21653560198848,95.36086538403092,-1.0,0.0,0.0,0,0,0,0,1,0,1,0.00,18.93,5.49,
4.478,109.22865356019885,95.4320865384031,-1.0,0.0,0.0,0,0,0,0,1,0,1,0.00,18.84,5.49,
4.492,109.24786535601989,95.43020865384032,-2.0,0.0,0.0,0,0,0,0,1,0,1,0.00,18.74,5.59,
4.505,109.27678653560199,95.42102086538404,-2.0,0.0,-1.0,0,0,0,0,1,0,1,0.00,18.84,5.59,
4.519,109.2166786535602,95.4111020865384,-2.0,0.0,-1.0,0,0,0,0,1,0,1,0.00,18.84,5.49,
4.533,109.19266786535601,95.47311020865384,-2.0,0.0,-1.0,0,0,0,0,1,0,1,0.00,19.13,5.59,
4.547,109.1722667865356,95.46131102086538,-2.0,0.0,0.0,0,0,0,0,1,0,1,0.00,19.13,5.40,
4.56,109.18822667865356,95.47813110208654,-2.0,0.0,-1.0,0,0,0,0,1,0,1,0.00,19.33,5.49,
4.574,109.18982266786536,95.47081311020865,-2.0,0.0,-1.0,0,0,0,0,1,0,1,0.00,19.52,5.40,
4.588,109.16298226678653,95.43408131102088,-2.0,0.0,-1.0,0,0,0,0,1,0,1,0.00,19.52,5.49,
4.601,109.19629822667865,95.4034081311021,-2.0,0.0,-1.0,0,0,0,0,1,0,1,0.00,19.52,5.49,
4.616,109.19962982266786,95.34634081311022,-2.0,0.0,-1.0,0,0,0,0,1,0,1,0.00,19.52,5.40,
4.629,109.22696298226678,95.40363408131103,-2.0,0.0,-1.0,0,0,0,0,1,0,1,0.00,19.62,5.40,
4.642,109.21169629822668,95.4543634081311,-2.0,0.0,-1.0,0,0,0,0,1,0,1,0.00,19.72,5.40,
4.657,109.16516962982267,95.43243634081313,-2.0,0.0,-1.0,0,0,0,0,1,0,1,0.00,19.82,5.49,
4.67,109.21451696298226,95.3852436340813,-2.0,0.0,-1.0,0,0,0,0,1,0,1,0.00,19.91,5.49,
4.684,109.21945169629822,95.40752436340813,-2.0,0.0,-1.0,0,0,0,0,1,0,1,0.00,19.91,5.40,
4.698,109.21994516962982,95.42775243634082,-2.0,0.0,-1.0,0,0,0,0,1,0,1,0.00,19.91,5.40,
4.711,109.25599451696299,95.3757752436341,-2.0,0.0,-1.0,0,0,0,0,1,0,1,0.00,20.11,5.30,
4.725,109.2235994516963,95.3885775243634,-2.0,0.0,-1.0,0,0,0,0,1,0,1,0.00,20.11,5.30,
4.739,109.22935994516963,95.43485775243634,-2.0,0.0,-1.0,0,0,0,0,1,0,1,0.00,20.21,5.40,
4.753,109.24793599451696,95.41248577524362,-2.0,0.0,-1.0,0,0,0,0,1,0,1,0.00,20.31,5.20,
4.766,109.2677935994517,95.39224857752436,-2.0,0.0,-1.0,0,0,0,0,1,0,1,0.00,20.40,5.30,
4.78,109.24277935994517,95.39022485775243,-2.0,0.0,-1.0,0,0,0,0,1,0,1,0.00,20.50,5.30,
4.794,109.28527793599451,95.39002248577523,-2.0,0.0,-1.0,0,0,0,0,1,0,1,0.00,20.60,5.20,
4.807,109.20852779359944,95.36300224857752,-2.0,0.0,-1.0,0,0,0,0,1,0,1,0.00,20.70,5.30,
4.822,109.12885277935996,95.40530022485775,-2.0,0.0,-1.0,0,0,0,0,1,0,1,0.00,20.70,5.30,
4.835,109.156885277936,95.43653002248577,-2.0,0.0,-1.0,0,0,0,0,1,0,1,0.00,20.80,5.20,
4.849,109.1776885277936,95.43065300224859,-2.0,0.0,-1.0,0,0,0,0,1,0,1,0.00,20.70,5.20,
4.862,109.22476885277936,95.44806530022485,-2.0,0.0,-1.0,0,0,0,0,1,0,1,0.00,20.70,5.20,
4.876,109.20247688527793,95.44980653002249,-2.0,0.0,-1.0,0,0,0,0,1,0,1,0.00,20.90,5.20,
4.89,109.1912476885278,95.39598065300224,-2.0,0.0,-1.0,0,0,0,0,1,0,1,0.00,20.90,5.30,
4.903,109.10912476885278,95.43559806530023,-2.0,0.0,-1.0,0,0,0,0,1,0,1,0.00,20.90,5.20,
4.918,109.09191247688528,95.40355980653004,-2.0,0.0,-1.0,0,0,0,0,1,0,1,0.00,20.90,5.20,
4.931,109.14419124768854,95.42735598065302,-2.0,0.0,0.0,0,0,0,0,1,0,1,0.00,20.90,5.30,
4.944,109.18541912476886,95.4207355980653,-2.0,0.0,0.0,0,0,0,0,1,0,1,0.00,21.09,5.30,
4.959,109.1805419124769,95.39307355980652,-2.0,0.0,-1.0,0,0,0,0,1,0,1,0.00,20.99,5.20,
4.972,109.18905419124769,95.37230735598067,-2.0,0.0,-1.0,0,0,0,0,1,0,1,0.00,21.09,5.30,
4.985,109.17190541912477,95.36123073559807,-2.0,0.0,-1.0,0,0,0,0,1,0,1,0.00,21.09,5.30,
5.0,109.08919054191247,95.3781230735598,-2.0,0.0,-1.0,0,0,0,0,1,0,1,0.00,21.29,5.30,
5.013,109.04491905419125,95.41581230735598,-2.0,0.0,0.0,0,0,0,0,1,0,1,0.00,21.48,5.30,
5.027,109.00449190541913,95.3745812307356,-3.0,0.0,0.0,0,0,0,0,1,0,1,0.00,21.58,5.20,
5.041,109.0904491905419,95.30745812307356,-2.0,0.0,-1.0,0,0,0,0,1,0,1,0.00,21.68,5.10,
5.054,109.12604491905418,95.33674581230737,-2.0,0.0,-1.0,0,0,0,0,1,0,1,0.00,21.78,5.20,
5.068,109.21960449190541,95.32167458123072,-2.0,1.0,-1.0,0,0,0,0,1,0,1,0.00,21.97,5.10,
5.082,109.22896044919054,95.30216745812307,-2.0,0.0,-1.0,0,0,0,0,1,0,1,0.00,22.07,5.00,
5.096,109.26589604491906,95.30021674581229,-2.0,0.0,-1.0,0,0,0,0,1,0,1,0.00,22.07,5.10,
5.109,109.26058960449191,95.24602167458121,-2.0,0.0,-1.0,0,0,0,0,1,0,1,0.00,22.27,5.00,
5.123,109.26905896044919,95.25860216745812,-2.0,0.0,-1.0,0,0,0,0,1,0,1,0.00,22.37,5.00,
5.137,109.28790589604492,95.25986021674582,-2.0,0.0,-1.0,0,0,0,0,1,0,1,0.00,22.37,5.00,
5.15,109.3077905896045,95.23298602167459,-2.0,0.0,-1.0,0,0,0,0,1,0,1,0.00,22.37,5.00,
5.165,109.31877905896044,95.28429860216747,-2.0,0.0,-1.0,0,0,0,0,1,0,1,0.00,22.37,4.91,
5.178,109.29287790589605,95.27142986021674,-2.0,0.0,-1.0,0,0,0,0,1,0,1,0.00,22.46,4.91,
5.191,109.31728779058959,95.25214298602168,-2.0,0.0,0.0,0,0,0,0,1,0,1,0.00,22.56,4.91,
5.206,109.28372877905896,95.27721429860217,-2.0,0.0,-1.0,0,0,0,0,1,0,1,0.00,22.66,4.91,
5.219,109.27137287790589,95.30672142986023,-2.0,0.0,-1.0,0,0,0,0,1,0,1,0.00,22.66,4.81,
5.233,109.26113728779059,95.28267214298603,-2.0,0.0,-1.0,0,0,0,0,1,0,1,0.00,22.86,4.81,
5.246,109.28711372877906,95.29826721429859,-2.0,0.0,-1.0,0,0,0,0,1,0,1,0.00,22.86,4.81,
5.26,109.3347113728779,95.27282672142985,-2.0,0.0,-1.0,0,0,0,0,1,0,1,0.00,22.76,4.81,
5.274,109.33947113728779,95.21628267214298,-2.0,0.0,-1.0,0,0,0,0,1,0,1,0.00,22.86,4.81,
5.287,109.35794711372878,95.2016282672143,-2.0,0.0,0.0,0,0,0,0,1,0,1,0.00,22.86,4.71,
5.301,109.35979471137288,95.20016282672144,-2.0,0.0,-1.0,0,0,0,0,1,0,1,0.00,22.96,4.71,
5.315,109.3959794711373,95.22701628267215,-2.0,0.0,-1.0,0,0,0,0,1,0,1,0.00,23.05,4.81,
5.328,109.39059794711373,95.25670162826722,-2.0,0.0,-1.0,0,0,0,0,1,0,1,0.00,23.05,4.71,
5.343,109.40805979471136,95.24167016282672,-2.0,0.0,-1.0,0,0,0,0,1,0,1,0.00,23.25,4.81,
5.356,109.42780597947115,95.19516701628268,-2.0,0.0,-1.0,0,0,0,0,1,0,1,0.00,23.25,4.81,
5.37,109.4657805979471,95.21751670162827,-2.0,0.0,-1.0,0,0,0,0,1,0,1,0.00,23.15,4.81,
5.384,109.45157805979471,95.23775167016282,-2.0,0.0,-1.0,0,0,0,0,1,0,1,0.00,23.15,4.71,
5.397,109.44115780597946,95.27577516701629,-2.0,0.0,-1.0,0,0,0,0,1,0,1,0.00,23.25,4.61,
5.411,109.48511578059794,95.28857751670164,-2.0,0.0,-1.0,0,0,0,0,1,0,1,0.00,23.25,4.61,
5.425,109.48951157805979,95.28085775167017,-2.0,0.0,-1.0,0,0,0,0,1,0,1,0.00,23.25,4.61,
5.439,109.41795115780597,95.27108577516701,-2.0,0.0,-1.0,0,0,0,0,1,0,1,0.00,23.35,4.61,
5.452,109.4467951157806,95.30610857751671,-2.0,0.0,-1.0,0,0,0,0,1,0,1,0.00,23.25,4.61,
5.466,109.44967951157807,95.26461085775168,-2.0,0.0,0.0,0,0,0,0,1,0,1,0.00,23.25,4.61,
5.48,109.50396795115782,95.25146108577518,-2.0,0.0,-1.0,0,0,0,0,1,0,1,0.00,23.25,4.71,
5.493,109.48239679511579,95.23214610857752,-2.0,0.0,-1.0,0,0,0,0,1,0,1,0.00,23.25,4.61,
5.507,109.40823967951158,95.17621461085776,-2.0,0.0,-1.0,0,0,0,0,1,0,1,0.00,23.25,4.61,
5.52,109.39182396795117,95.21562146108579,-2.0,0.0,-1.0,0,0,0,0,1,0,1,0.00,23.15,4.71,
5.534,109.36318239679512,95.21956214610859,-2.0,0.0,-1.0,0,0,0,0,1,0,1,0.00,23.25,4.71,
5.548,109.38731823967952,95.27395621461086,-2.0,0.0,-1.0,0,0,0,0,1,0,1,0.00,23.35,4.61,
5.561,109.42573182396796,95.27939562146109,-2.0,0.0,-1.0,0,0,0,0,1,0,1,0.00,23.35,4.71,
5.575,109.44757318239681,95.26193956214611,-2.0,0.0,-1.0,0,0,0,0,1,0,1,0.00,23.35,4.61,
5.588,109.41375731823967,95.29619395621461,-2.0,0.0,-1.0,0,0,0,0,1,0,1,0.00,23.35,4.71,
5.602,109.36537573182397,95.29961939562145,-2.0,0.0,-1.0,0,0,0,0,1,0,1,0.00,23.45,4.81,
5.616,109.35153757318238,95.25496193956215,-2.0,0.0,-1.0,0,0,0,0,1,0,1,0.00,23.35,4.71,
5.629,109.37715375731823,95.28649619395622,-2.0,0.0,-1.0,0,0,0,0,1,0,1,0.00,23.45,4.71,
5.643,109.4067153757318,95.22664961939563,-2.0,0.0,-1.0,0,0,0,0,1,0,1,0.00,23.54,4.71,
5.657,109.42767153757319,95.19366496193956,-2.0,0.0,-1.0,0,0,0,0,1,0,1,0.00,23.54,4.71,
5.67,109.44776715375733,95.12736649619396,-2.0,0.0,0.0,0,0,0,0,1,0,1,0.00,23.45,4.61,
5.685,109.43177671537573,95.1657366496194,-2.0,0.0,-1.0,0,0,0,0,1,0,1,0.00,23.54,4.61,
5.698,109.44817767153758,95.24157366496195,-2.0,0.0,-1.0,0,0,0,0,1,0,1,0.00,23.54,4.61,
5.711,109.44081776715375,95.2311573664962,-2.0,0.0,0.0,0,0,0,0,1,0,1,0.00,23.64,4.71,
5.726,109.48508177671536,95.20311573664962,-2.0,0.0,-1.0,0,0,0,0,1,0,1,0.00,23.64,4.61,
5.739,109.48950817767152,95.17331157366496,-2.0,0.0,-1.0,0,0,0,0,1,0,1,0.00,23.64,4.71,
5.753,109.51695081776715,95.1883311573665,-2.0,0.0,-1.0,0,0,0,0,1,0,1,0.00,23.64,4.61,
5.767,109.55569508177672,95.15383311573666,-2.0,0.0,-1.0,0,0,0,0,1,0,1,0.00,23.84,4.71,
5.78,109.57756950817767,95.18638331157368,-2.0,0.0,-1.0,0,0,0,0,1,0,1,0.00,23.84,4.71,
5.794,109.57075695081777,95.22563833115737,-2.0,0.0,-1.0,0,0,0,0,1,0,1,0.00,23.84,4.71,
5.808,109.59707569508177,95.19356383311575,-2.0,0.0,-1.0,0,0,0,0,1,0,1,0.00,23.74,4.71,
5.822,109.57270756950817,95.14535638331158,-2.0,0.0,0.0,0,0,0,0,1,0,1,0.00,23.74,4.71,
5.835,109.57027075695082,95.12253563833116,-2.0,0.0,-1.0,0,0,0,0,1,0,1,0.00,23.64,4.61,
5.849,109.56102707569508,95.12025356383312,-2.0,0.0,-1.0,0,0,0,0,1,0,1,0.00,23.74,4.71,
5.863,109.54210270756951,95.09302535638331,-2.0,0.0,-1.0,0,0,0,0,1,0,1,0.00,23.74,4.71,
5.876,109.54021027075696,95.10830253563833,-2.0,0.0,-1.0,0,0,0,0,1,0,1,0.00,23.74,4.71,
5.89,109.51302102707571,95.07383025356384,-2.0,0.0,-1.0,0,0,0,0,1,0,1,0.00,23.74,4.71,
5.904,109.51930210270757,95.07938302535638,-2.0,0.0,-1.0,0,0,0,0,1,0,1,0.00,23.64,4.71,
5.917,109.41193021027077,95.07993830253564,-2.0,0.0,-1.0,0,0,0,0,1,0,1,0.00,23.64,4.71,
5.932,109.41019302102707,95.07099383025357,-2.0,0.0,-1.0,0,0,0,0,1,0,1,0.00,23.54,4.61,
5.945,109.4370193021027,95.09709938302535,-2.0,0.0,-1.0,0,0,0,0,1,0,1,0.00,23.45,4.71,
5.959,109.42170193021028,95.09970993830254,-2.0,0.0,-1.0,0,0,0,0,1,0,1,0.00,23.45,4.71,
5.972,109.38417019302102,95.13597099383026,-2.0,0.0,-1.0,0,0,0,0,1,0,1,0.00,23.45,4.71,
5.986,109.40741701930209,95.15759709938303,-2.0,0.0,-1.0,0,0,0,0,1,0,1,0.00,23.35,4.81,
6.0,109.4367417019302,95.1597597099383,-2.0,0.0,-1.0,0,0,0,0,1,0,1,0.00,23.45,4.81,
6.013,109.48467417019302,95.15997597099383,-2.0,0.0,-1.0,0,0,0,0,1,0,1,0.00,23.45,4.81,
6.027,109.4714674170193,95.15999759709939,-2.0,0.0,-1.0,0,0,0,0,1,0,1,0.00,23.45,4.71,
6.041,109.49714674170193,95.16899975970995,-2.0,0.0,-1.0,0,0,0,0,1,0,1,0.00,23.45,4.81,
6.054,109.5087146741702,95.124899975971,-2.0,0.0,-1.0,0,0,0,0,1,0,1,0.00,23.45,4.81,
6.068,109.52787146741701,95.1204899975971,-2.0,0.0,-1.0,0,0,0,0,1,0,1,0.00,23.45,4.81,
6.081,109.51178714674171,95.13804899975972,-2.0,0.0,-1.0,0,0,0,0,1,0,1,0.00,23.54,4.81,
6.095,109.49217871467417,95.13080489997597,-2.0,0.0,-1.0,0,0,0,0,1,0,1,0.00,23.64,4.81,
6.109,109.47221787146741,95.1570804899976,-2.0,0.0,-1.0,0,0,0,0,1,0,1,0.00,23.64,4.81,
6.122,109.50622178714676,95.15070804899976,-2.0,0.0,-1.0,0,0,0,0,1,0,1,0.00,23.74,4.81,
6.136,109.51862217871466,95.16807080489998,-2.0,0.0,-1.0,0,0,0,0,1,0,1,0.00,23.64,4.81,
6.15,109.51086221787148,95.16080708049,-2.0,0.0,-1.0,0,0,0,0,1,0,1,0.00,23.64,4.81,
6.163,109.51008622178716,95.14208070804901,-2.0,0.0,-1.0,0,0,0,0,1,0,1,0.00,23.64,4.81,
6.176,109.47400862217872,95.1132080708049,-2.0,0.0,-1.0,0,0,0,0,1,0,1,0.00,23.74,4.71,
6.191,109.51540086221786,95.14632080708049,-2.0,0.0,-1.0,0,0,0,0,1,0,1,0.00,23.74,4.81,
6.204,109.55554008622178,95.18563208070805,-2.0,0.0,-1.0,0,0,0,0,1,0,1,0.00,23.74,4.91,
6.217,109.55055400862217,95.1175632080708,-2.0,0.0,-1.0,0,0,0,0,1,0,1,0.00,23.74,4.81,
6.232,109.53205540086222,95.12875632080708,-2.0,0.0,-1.0,0,0,0,0,1,0,1,0.00,23.94,4.81,
6.245,109.53020554008621,95.12087563208071,-2.0,0.0,-1.0,0,0,0,0,1,0,1,0.00,23.94,4.71,
6.258,109.56602055400862,95.12908756320807,-2.0,0.0,-1.0,0,0,0,0,1,0,1,0.00,24.03,4.71,
6.272,109.54260205540088,95.1569087563208,-2.0,0.0,-1.0,0,0,0,0,1,0,1,0.00,24.13,4.81,
6.286,109.58526020554008,95.08769087563208,-2.0,0.0,-1.0,0,0,0,0,1,0,1,0.00,24.13,4.81,
6.299,109.562526020554,95.14376908756321,-2.0,0.0,-1.0,0,0,0,0,1,0,1,0.00,24.03,4.81,
6.312,109.5692526020554,95.15837690875632,-2.0,0.0,-1.0,0,0,0,0,1,0,1,0.00,24.03,4.81,
6.327,109.57892526020554,95.16883769087563,-2.0,0.0,-1.0,0,0,0,0,1,0,1,0.00,23.94,4.81,
6.34,109.61589252602056,95.17888376908756,-2.0,0.0,-1.0,0,0,0,0,1,0,0,0.00,23.94,4.91,
6.353,109.59258925260205,95.12588837690876,-2.0,0.0,-1.0,0,0,0,0,1,0,1,0.00,24.03,4.81,
6.367,109.6442589252602,95.09358883769087,-2.0,0.0,-1.0,0,0,0,0,1,0,1,0.00,24.03,4.81,
6.381,109.68542589252603,95.11735888376909,-2.0,0.0,-1.0,0,0,0,0,1,0,1,0.00,23.94,4.81,
6.394,109.6355425892526,95.11073588837691,-2.0,0.0,-1.0,0,0,0,0,1,0,1,0.00,24.03,4.81,
6.408,109.60355425892526,95.1280735888377,-2.0,0.0,-1.0,0,0,0,0,1,0,1,0.00,24.03,4.81,
6.422,109.58235542589253,95.19280735888377,-2.0,0.0,-1.0,0,0,0,0,1,0,1,0.00,24.13,4.71,
6.435,109.57123554258925,95.19028073588838,-2.0,0.0,-1.0,0,0,0,0,1,0,1,0.00,24.13,4.61,
6.449,109.57012355425893,95.18102807358883,-2.0,0.0,-1.0,0,0,0,0,1,0,1,0.00,24.03,4.61,
6.462,109.60601235542589,95.10810280735889,-2.0,0.0,-1.0,0,0,0,0,1,0,1,0.00,24.03,4.71,
6.476,109.59160123554258,95.09181028073588,-2.0,0.0,-1.0,0,0,0,0,1,0,1,0.00,24.03,4.71,
6.49,109.59016012355426,95.11718102807359,-2.0,0.0,0.0,0,0,0,0,1,0,1,0.00,23.94,4.71,
6.503,109.66201601235542,95.19171810280736,-2.0,0.0,-1.0,0,0,0,0,1,0,1,0.00,23.84,4.71,
6.517,109.65120160123554,95.15417181028074,-2.0,0.0,-1.0,0,0,0,0,1,0,1,0.00,23.84,4.61,
6.531,109.58712016012355,95.14141718102807,-2.0,0.0,-1.0,0,0,0,0,1,0,1,0.00,23.84,4.71,
6.544,109.57171201601236,95.16714171810281,-2.0,0.0,-1.0,0,0,0,0,1,0,1,0.00,23.94,4.71,
6.557,109.58817120160123,95.18771417181028,-2.0,0.0,-1.0,0,0,0,0,1,0,1,0.00,23.94,4.61,
6.572,109.59881712016012,95.13577141718103,-2.0,0.0,0.0,0,0,0,0,1,0,1,0.00,23.94,4.61,
6.585,109.61788171201601,95.0945771417181,-2.0,0.0,-1.0,0,0,0,0,1,0,1,0.00,24.03,4.61,
6.598,109.5927881712016,95.1444577141718,-2.0,0.0,-1.0,0,0,0,0,1,0,1,0.00,23.94,4.61,
6.612,109.59927881712017,95.11344577141719,-2.0,0.0,-1.0,0,0,0,0,1,0,1,0.00,24.03,4.71,
6.626,109.67192788171202,95.15534457714172,-2.0,0.0,-1.0,0,0,0,0,1,0,1,0.00,23.94,4.71,
6.639,109.74219278817121,95.09653445771417,-2.0,0.0,-1.0,0,0,0,0,1,0,1,0.00,23.94,4.71,
6.652,109.67721927881712,95.09965344577142,-2.0,0.0,0.0,0,0,0,0,1,0,1,0.00,24.03,4.61,
6.667,109.61672192788171,95.14496534457714,-2.0,0.0,0.0,0,0,0,0,1,0,1,0.00,24.03,4.71,
6.68,109.61967219278817,95.11349653445771,-2.0,0.0,0.0,0,0,0,0,1,0,1,0.00,24.03,4.71,
6.693,109.64696721927882,95.10134965344577,-2.0,0.0,0.0,0,0,0,0,1,0,1,0.00,24.03,4.61,
6.707,109.64969672192788,95.11813496534458,-2.0,0.0,-1.0,0,0,0,0,1,0,1,0.00,24.13,4.61,
6.721,109.72196967219278,95.18281349653446,-2.0,0.0,0.0,0,0,0,0,1,0,0,0.00,24.03,4.51,
6.734,109.71119696721927,95.16228134965345,-2.0,0.0,0.0,0,0,0,0,1,0,0,0.00,23.94,4.51,
6.748,109.73711969672192,95.15122813496535,-2.0,0.0,0.0,0,0,0,0,1,0,0,0.00,23.94,4.41,
6.761,109.7217119696722,95.19512281349654,-2.0,0.0,-1.0,0,0,0,0,1,0,0,0.00,23.84,4.41,
6.774,109.70217119696721,95.13651228134965,-2.0,0.0,-1.0,0,0,0,0,1,0,0,0.00,24.03,4.41,
6.789,109.69121711969672,95.15765122813497,-2.0,0.0,-1.0,0,0,0,0,1,0,0,0.00,23.94,4.41,
6.802,109.66312171196967,95.1687651228135,-2.0,-1.0,-2.0,0,0,0,0,1,0,0,0.00,23.74,4.32,
6.816,109.66031217119696,95.16087651228135,-2.0,-1.0,-1.0,0,0,0,0,1,0,0,0.00,23.45,4.12,
6.83,109.6870312171197,95.16908765122814,-3.0,-1.0,-1.0,0,0,0,0,1,0,0,0.00,22.96,4.02,
6.843,109.67170312171197,95.17890876512281,-3.0,-1.0,0.0,0,0,0,0,1,0,0,0.00,22.27,3.92,
6.857,109.6791703121712,95.10789087651229,-3.0,-1.0,-1.0,0,0,0,0,1,0,0,0.00,21.97,3.73,
6.871,109.7069170312171,95.08278908765124,-3.0,-1.0,0.0,0,0,0,0,1,0,0,0.00,21.88,3.73,
6.884,109.6826917031217,95.02627890876512,-3.0,0.0,-1.0,0,0,0,0,1,0,0,0.00,21.88,3.63,
6.898,109.65326917031217,95.02962789087651,-3.0,0.0,-1.0,0,0,0,0,1,0,0,0.00,22.46,3.63,
6.912,109.59632691703122,95.00296278908765,-4.0,0.0,-1.0,0,0,0,0,1,0,0,0.00,22.66,3.53,
6.925,109.56363269170312,94.99129627890876,-4.0,0.0,-1.0,0,0,0,0,1,0,0,0.00,22.66,3.43,
6.939,109.56036326917031,95.00812962789087,-4.0,0.0,-1.0,0,0,0,0,1,0,0,0.00,22.56,3.24,
6.952,109.48803632691704,94.95581296278908,-4.0,0.0,-1.0,0,0,0,0,0,0,0,0.00,21.97,3.14,
6.966,109.48080363269172,95.03158129627892,-4.0,0.0,0.0,0,0,0,0,1,0,0,0.00,21.68,2.94,
6.979,109.50708036326918,94.90415812962789,-5.0,0.0,0.0,0,0,0,0,1,0,0,0.00,21.29,2.84,
6.993,109.40170803632692,95.0084158129628,-5.0,0.0,0.0,0,0,0,0,1,0,0,0.00,21.09,2.75,
7.007,109.3641708036327,94.91984158129628,-5.0,0.0,0.0,0,0,0,0,0,0,0,0.00,20.90,2.55,
7.02,109.55841708036327,94.80298415812963,-5.0,0.0,0.0,0,0,0,0,0,0,0,0.00,20.50,2.55,
7.033,109.68584170803632,94.77329841581295,-6.0,0.0,0.0,0,0,0,0,0,0,0,0.00,20.21,2.45,
7.047,109.60858417080362,94.6803298415813,-5.0,1.0,0.0,0,0,0,0,0,0,0,0.00,20.01,2.26,
7.061,109.53785841708036,94.64403298415813,-5.0,2.0,-1.0,0,0,0,0,0,0,0,0.00,20.01,2.35,
7.074,109.53978584170804,94.48740329841581,-6.0,3.0,0.0,0,0,0,0,0,0,0,0.00,20.50,2.16,
7.088,109.6209785841708,94.40874032984159,-6.0,4.0,-1.0,0,0,0,0,0,0,0,0.00,21.19,2.16,
7.101,109.76409785841709,94.30187403298416,-6.0,3.0,-2.0,0,0,0,0,0,0,0,0.00,22.07,2.06,
7.115,109.8684097858417,94.28218740329842,-7.0,3.0,-2.0,0,0,0,0,0,0,0,0.00,23.15,2.06,
7.129,109.82484097858416,94.38821874032985,-10.0,2.0,-2.0,0,0,0,0,0,0,0,0.00,24.33,2.06,
7.142,109.56848409785843,94.04782187403299,-11.0,3.0,-5.0,0,0,0,0,0,0,0,0.00,27.47,1.86,
7.156,109.34484840978583,93.6807821874033,-9.0,5.0,-5.0,0,0,0,0,0,0,0,0.00,29.33,1.77,
7.17,109.32248484097857,93.69807821874032,-7.0,6.0,-3.0,0,0,0,0,0,0,0,0.00,31.10,1.57,
7.183,109.68024848409786,94.05980782187403,-6.0,4.0,-1.0,0,0,0,0,0,0,0,0.00,32.47,1.47,
7.197,109.92302484840978,94.3029807821874,-8.0,2.0,0.0,0,0,0,0,0,0,0,0.00,33.94,1.37,
7.211,110.02830248484098,93.90429807821874,-8.0,2.0,0.0,0,0,0,0,0,0,0,0.00,34.34,1.28,
7.224,110.0658302484841,93.40542980782187,-6.0,0.0,-4.0,0,0,0,0,0,0,0,0.00,34.83,1.08,
7.238,109.8805830248484,93.18454298078218,-4.0,-1.0,-4.0,0,0,0,0,0,0,0,0.00,35.32,0.88,
7.251,109.92505830248484,93.23445429807822,-2.0,-5.0,-5.0,0,0,0,0,0,0,0,0.00,35.90,0.98,
7.265,110.00150583024848,93.68044542980782,-2.0,-8.0,0.0,0,0,0,0,0,0,0,0.00,36.49,0.88,
7.279,109.92815058302484,93.39204454298078,-2.0,-9.0,-2.0,0,0,0,0,1,0,0,0.00,35.90,0.78,
7.292,109.78581505830248,92.90420445429808,0.0,-10.0,-9.0,0,0,0,0,1,0,0,0.00,34.83,0.69,
7.307,109.30358150583025,92.1894204454298,0.0,-7.0,-14.0,0,0,0,0,0,0,0,0.00,33.35,0.59,
7.32,109.12035815058302,92.04594204454298,5.0,-7.0,-12.0,0,0,0,0,0,0,0,0.00,30.02,0.59,
7.333,109.39003581505831,92.9585942044543,8.0,-4.0,-5.0,0,0,0,0,0,0,0,0.00,29.63,0.69,
7.348,109.43500358150582,93.68885942044543,8.0,-6.0,3.0,0,0,0,0,0,0,0,0.00,30.12,0.78,
7.361,108.83650035815057,93.96888594204455,6.0,-12.0,0.0,0,0,0,0,0,0,0,0.00,31.10,0.78,
7.374,108.55165003581504,93.76288859420445,7.0,-7.0,3.0,0,0,0,0,0,0,0,0.00,33.06,0.78,
7.388,109.0721650035815,93.15728885942045,8.0,-9.0,1.0,0,0,0,0,0,0,0,0.00,33.75,0.78,
7.402,109.75421650035814,93.04272888594204,10.0,-15.0,-5.0,0,0,0,0,1,0,0,0.00,34.43,0.69,
7.415,110.12842165003582,93.49927288859419,9.0,-25.0,-7.0,0,0,0,0,1,0,0,0.00,34.63,0.69,
7.43,110.19284216500358,94.41792728885942,9.0,-24.0,-7.0,0,0,0,0,1,0,0,0.00,34.53,0.69,
7.443,109.88428421650035,94.47379272888595,10.0,-26.0,-3.0,0,0,0,0,1,0,0,0.00,36.79,0.78,
7.456,108.84542842165003,94.5243792728886,13.0,-27.0,-4.0,0,0,0,0,1,0,0,0.00,39.63,0.78,
7.471,107.985542842165,95.51943792728885,12.0,-22.0,-3.0,0,0,0,0,1,0,0,0.00,43.26,0.98,
7.485,107.06255428421649,96.85194379272887,5.0,-25.0,0.0,0,0,0,0,1,0,1,0.00,47.48,1.37,
7.498,106.25025542842164,97.12919437927289,4.0,-18.0,0.0,0,0,0,0,1,0,1,0.00,54.84,1.57,
7.513,106.02502554284217,97.38191943792728,3.0,-14.0,1.0,0,0,0,0,1,0,1,0.00,56.80,1.67,
7.526,106.01150255428422,97.10119194379273,4.0,-15.0,-1.0,0,0,0,0,1,0,1,0.00,58.08,1.57,
7.54,105.71315025542843,96.93811919437928,5.0,-13.0,-1.0,0,0,0,1,2,0,1,0.00,58.86,1.77,
7.554,105.91731502554285,96.83181191943791,2.0,-15.0,-6.0,0,0,0,1,2,0,1,0.00,60.72,1.86,
7.568,105.95573150255427,96.65018119194379,1.0,-15.0,-7.0,0,0,0,1,2,0,1,0.00,62.29,2.06,
7.581,105.97757315025542,96.61401811919437,0.0,-22.0,-9.0,0,0,0,1,2,0,1,0.00,64.35,2.06,
7.596,105.75475731502556,96.70040181191943,4.0,-22.0,-9.0,0,0,0,1,2,0,1,0.00,67.10,2.26,
7.609,105.54347573150255,97.15904018119193,0.0,-21.0,-11.0,0,0,0,1,2,0,1,0.00,74.16,2.45,
7.623,105.03634757315025,97.14190401811919,-1.0,-15.0,-11.0,1,0,0,1,2,0,1,0.00,77.40,2.65,
7.638,104.85063475731502,97.14019040181192,-1.0,-18.0,-12.0,1,0,0,1,2,0,1,0.00,80.54,2.75,
7.651,104.77806347573149,96.76201904018119,1.0,-16.0,-14.0,1,0,0,1,2,0,1,0.20,83.68,2.84,
7.665,105.26580634757315,96.46320190401812,2.0,-14.0,-14.0,1,0,0,1,2,0,1,0.59,90.15,2.94,
7.678,104.9005806347573,96.9193201904018,2.0,-17.0,-16.0,1,0,0,1,2,0,1,0.88,94.18,3.14,
7.693,104.09005806347574,96.90193201904019,2.0,-11.0,-17.0,1,0,0,1,2,0,1,1.18,99.67,3.53,
7.707,103.57700580634756,96.87319320190403,1.0,-10.0,-17.0,1,0,0,1,2,0,1,2.16,106.44,3.63,
7.72,102.99470058063477,97.1673193201904,0.0,-7.0,-17.0,2,0,0,1,2,0,1,2.65,119.98,3.63,
7.735,102.65747005806348,97.27773193201904,0.0,-5.0,-15.0,2,0,0,2,2,0,1,3.14,127.14,3.83,
7.748,102.31774700580635,97.6037731932019,-3.0,-6.0,-16.0,2,0,0,2,1,0,1,3.73,133.81,4.12,
7.762,102.21177470058063,97.62737731932019,-4.0,-4.0,-15.0,2,0,0,2,1,0,1,5.40,144.21,4.02,
7.777,102.32717747005807,97.44073773193202,-3.0,-4.0,-13.0,2,0,0,2,1,0,1,6.28,148.33,3.92,
7.791,102.52771774700581,97.54807377319321,-3.0,-7.0,-15.0,2,0,0,2,1,0,1,7.16,151.96,3.83,
7.804,102.43977177470059,97.45080737731932,-2.0,-7.0,-14.0,2,0,0,1,1,0,1,7.85,155.10,3.92,
7.819,102.42197717747005,97.47708073773192,0.0,-4.0,-14.0,2,0,0,2,1,0,1,8.44,160.39,3.92,
7.833,102.24019771774701,97.34470807377318,1.0,1.0,-14.0,2,0,0,2,1,0,1,9.32,162.45,4.02,
7.846,101.9340197717747,97.26847080737733,5.0,6.0,-10.0,2,0,0,2,1,0,1,9.81,163.34,4.32,
7.861,101.98440197717747,97.48584708073773,3.0,3.0,-12.0,2,0,0,2,2,0,1,10.59,162.75,4.81,
7.874,101.95344019771775,97.78658470807378,0.0,0.0,-13.0,2,0,0,2,2,0,2,11.28,156.96,5.10,
7.888,101.91434401977176,98.05965847080738,-1.0,-3.0,-12.0,2,0,0,2,2,0,2,12.36,153.92,5.20,
7.903,101.84743440197718,98.27596584708073,-2.0,-4.0,-9.0,2,0,0,2,2,0,2,12.75,152.64,5.30,
7.917,101.76874344019772,98.54059658470807,-3.0,-6.0,-7.0,2,0,0,2,2,0,2,12.95,152.84,5.30,
7.93,101.78787434401977,98.3600596584708,-2.0,-6.0,-5.0,2,0,0,2,2,0,1,13.15,154.51,5.20,
7.945,101.71778743440197,98.07200596584708,0.0,-2.0,-5.0,2,0,0,2,2,0,2,12.85,154.61,5.10,
7.959,101.60277874344021,98.07920059658471,1.0,0.0,-4.0,2,0,0,2,2,0,2,12.46,154.02,5.10,
7.972,101.59127787434403,98.13392005965848,2.0,1.0,-2.0,2,0,0,2,2,0,2,11.67,151.96,5.49,
7.987,101.53612778743441,98.10339200596584,4.0,2.0,-1.0,2,0,0,2,2,0,2,10.99,144.01,5.89,
8.0,101.65661277874344,98.10033920059658,7.0,5.0,0.0,2,0,0,2,2,0,2,9.81,138.91,6.18,
8.014,101.53366127787433,98.05503392005966,7.0,5.0,-3.0,2,0,0,2,3,0,2,9.42,132.93,6.57,
8.028,101.44936612778744,98.44650339200595,3.0,-3.0,-1.0,2,0,0,3,3,0,3,9.12,125.86,8.24,
8.042,101.44093661277876,98.8276503392006,0.0,-4.0,0.0,2,0,0,3,3,0,3,8.83,111.44,8.83,
8.056,101.42209366127788,98.91076503392006,0.0,-5.0,0.0,2,0,0,3,3,0,3,8.53,106.83,8.93,
8.07,101.5012093661278,98.892076503392,0.0,-5.0,1.0,2,0,0,3,3,0,3,7.75,103.69,8.93,
8.084,101.40112093661278,98.90820765033921,-1.0,-6.0,1.0,2,0,0,3,3,0,3,7.36,101.04,9.03,
8.097,101.30111209366127,98.88282076503393,-1.0,-4.0,1.0,2,0,0,3,3,0,3,6.87,95.94,9.12,
8.112,101.30011120936612,98.79928207650339,0.0,0.0,3.0,2,0,0,3,3,0,3,6.28,93.49,9.22,
8.125,101.23701112093661,98.76392820765034,0.0,1.0,2.0,2,0,0,3,3,0,3,5.10,91.04,9.22,
8.139,101.14970111209365,98.98539282076504,-1.0,1.0,2.0,1,0,0,2,3,0,3,4.61,88.29,9.81,
8.153,101.00597011120935,99.13353928207651,-3.0,3.0,3.0,1,0,0,2,3,0,3,4.22,82.01,10.10,
8.167,101.10859701112093,99.08535392820764,-1.0,6.0,5.0,1,0,0,2,3,0,3,3.73,79.66,10.20,
8.18,101.24485970111209,98.90053539282077,0.0,9.0,7.0,1,0,0,2,3,0,3,3.34,77.60,10.20,
8.195,101.5644859701112,98.65705353928207,0.0,10.0,5.0,1,0,0,2,3,0,3,2.84,75.05,10.89,
8.208,101.73144859701112,98.93870535392821,-3.0,8.0,3.0,1,0,0,2,3,0,3,2.65,68.77,11.48,
8.222,101.65814485970112,98.96687053539283,-2.0,10.0,4.0,1,0,0,2,3,0,3,2.45,66.32,11.58,
8.236,101.83081448597011,98.88868705353929,0.0,12.0,5.0,1,0,0,2,3,0,3,2.16,64.55,11.28,
8.25,102.11808144859701,98.97986870535392,1.0,16.0,7.0,1,0,0,2,3,0,3,1.96,62.59,11.28,
8.264,102.4888081448597,98.9709868705354,3.0,17.0,8.0,1,0,0,2,3,0,3,1.96,56.51,11.48,
8.278,102.84988081448597,99.09609868705354,3.0,19.0,8.0,1,0,0,2,3,0,3,1.86,53.07,12.07,
8.292,102.7779880814486,99.17160986870536,4.0,19.0,10.0,1,0,0,2,3,0,3,1.86,49.93,12.75,
8.305,102.94179880814485,99.28716098687053,2.0,21.0,10.0,1,0,0,2,3,0,3,1.96,47.19,14.52,
8.32,103.2551798808145,99.17271609868705,2.0,20.0,10.0,1,0,0,2,3,0,3,2.35,43.07,15.21,
8.334,103.60151798808144,99.1882716098687,2.0,22.0,7.0,1,0,0,2,3,0,3,2.55,41.10,15.70,
8.347,103.67215179880816,98.96482716098687,4.0,18.0,6.0,1,0,0,2,3,0,4,2.75,38.85,15.99,
8.361,104.31821517988082,98.9784827160987,4.0,19.0,6.0,1,0,0,2,3,0,4,2.65,36.10,16.48,
8.375,104.75182151798808,99.11484827160987,3.0,16.0,4.0,0,0,0,2,3,0,4,2.45,29.72,16.68,
8.389,105.22718215179881,99.263484827161,1.0,15.0,0.0,0,0,0,2,3,0,4,2.35,27.17,16.68,
8.402,105.58071821517989,99.5303484827161,0.0,13.0,2.0,0,0,0,2,3,0,4,2.26,25.11,16.78,
8.417,105.92207182151797,99.76403484827162,-2.0,11.0,2.0,0,0,0,2,3,0,4,2.16,23.94,17.17,
8.43,105.9922071821518,99.65240348482716,0.0,9.0,3.0,0,0,0,2,3,0,4,2.16,23.74,17.46,
8.444,105.96322071821517,99.42524034848272,1.0,9.0,1.0,1,0,0,2,3,0,4,2.06,24.23,17.56,
8.458,106.32032207182152,99.56452403484826,0.0,8.0,0.0,1,0,0,2,3,0,4,2.06,24.03,17.76,
8.472,106.50903220718216,99.74945240348481,0.0,6.0,1.0,1,0,0,2,3,0,4,2.16,23.45,18.34,
8.485,106.50090322071821,99.70494524034848,0.0,6.0,2.0,1,0,0,2,3,1,4,2.26,22.86,18.64,
8.5,106.59909032207182,99.85349452403486,-1.0,4.0,2.0,1,0,0,3,3,1,4,2.26,22.86,18.84,
8.513,106.87890903220718,99.8953494524035,-2.0,3.0,2.0,1,0,0,3,3,1,4,2.35,22.86,19.13,
8.527,106.70889090322072,99.62053494524035,0.0,2.0,2.0,1,0,0,3,3,1,4,2.45,23.15,19.62,
8.541,106.84488909032207,99.49405349452404,1.0,7.0,0.0,1,0,0,3,3,1,4,2.75,23.84,20.01,
8.555,107.13748890903221,99.4904053494524,2.0,9.0,0.0,1,0,0,3,3,1,4,2.84,23.35,20.50,
8.568,107.47274889090322,99.69704053494524,0.0,6.0,-2.0,1,0,0,3,3,1,4,2.94,22.17,20.99,
8.583,108.14527488909032,99.84370405349452,1.0,1.0,0.0,1,0,0,3,3,1,4,2.94,20.80,21.68,
8.596,108.23952748890903,99.87637040534945,2.0,3.0,0.0,1,0,0,3,3,1,4,2.84,19.03,22.07,
8.61,108.28495274889092,99.96063704053495,4.0,0.0,-1.0,0,0,0,3,3,1,4,2.75,18.15,22.37,
8.624,108.52349527488909,100.0770637040535,4.0,0.0,-2.0,0,0,0,3,3,1,4,2.75,17.07,22.66,
8.638,108.70034952748891,100.10670637040535,3.0,-1.0,-2.0,0,0,0,3,3,1,4,2.84,16.19,23.84,
8.652,108.52003495274889,100.26267063704054,3.0,0.0,-4.0,0,0,0,3,3,1,4,2.84,14.32,24.43,
8.666,108.2860034952749,100.35026706370405,2.0,0.0,-4.0,0,0,0,3,3,1,4,2.84,13.73,24.82,
8.68,108.33460034952749,100.5750267063704,1.0,2.0,-3.0,0,0,0,3,3,1,4,2.75,13.15,25.21,
8.693,108.37546003495275,100.77750267063703,0.0,2.0,-5.0,0,0,0,3,3,1,4,2.84,12.56,26.00,
8.708,108.33454600349528,101.0497502670637,-2.0,1.0,-3.0,1,0,0,3,3,1,4,2.84,12.16,26.19,
8.722,108.26745460034954,101.34697502670637,-5.0,0.0,-1.0,1,0,0,3,3,1,4,2.84,12.36,26.29,
8.735,108.33274546003496,101.34069750267064,-6.0,0.0,1.0,1,0,0,3,3,1,4,2.75,12.95,26.19,
8.75,108.2672745460035,101.12406975026705,-6.0,0.0,0.0,1,0,0,3,3,1,4,2.75,13.83,26.09,
8.764,108.11672745460034,101.00340697502669,-5.0,0.0,0.0,1,0,0,3,3,1,4,2.75,15.99,25.90,
8.777,108.06567274546003,100.89234069750268,-4.0,1.0,1.0,1,0,0,3,3,1,4,2.65,17.27,25.90,
8.792,108.204567274546,100.71023406975026,-2.0,-1.0,-2.0,1,0,0,3,3,1,4,2.75,18.25,26.00,
8.806,108.1824567274546,100.47602340697503,-1.0,0.0,-3.0,1,0,0,3,3,1,4,2.75,18.93,26.09,
8.82,108.14424567274547,100.42560234069751,0.0,-1.0,-3.0,1,0,0,2,3,1,4,2.55,19.52,26.19,
8.834,108.21242456727454,100.33956023406975,1.0,-3.0,-6.0,1,0,0,2,3,1,4,2.45,19.33,26.19,
8.848,108.03924245672745,100.34895602340697,2.0,-3.0,-8.0,1,0,0,3,3,1,4,2.35,18.93,26.68,
8.862,107.94992424567275,100.39489560234071,2.0,-4.0,-8.0,1,0,0,3,4,1,4,2.06,17.46,26.78,
8.876,108.01299242456727,100.56148956023408,1.0,-4.0,-7.0,1,0,0,3,4,1,4,1.96,16.68,27.17,
8.89,107.84829924245672,101.0821489560234,0.0,-3.0,-5.0,1,0,0,2,4,1,4,1.96,15.89,27.57,
8.904,107.60682992424567,101.44021489560234,-2.0,-2.0,-1.0,1,0,0,3,4,1,4,1.96,15.50,28.35,
8.919,107.53768299242456,101.64702148956023,-5.0,-1.0,2.0,1,0,0,2,4,1,4,1.96,15.60,28.45,
8.932,107.53076829924245,101.64970214895604,-6.0,-1.0,3.0,1,0,0,2,4,1,4,1.96,16.28,28.45,
8.946,107.46707682992424,101.46997021489561,-6.0,0.0,5.0,1,0,0,2,4,1,4,1.96,17.27,28.35,
8.961,107.41570768299242,101.37999702148956,-5.0,0.0,5.0,1,0,0,2,4,1,4,2.06,18.74,28.15,
8.974,107.40157076829925,101.24499970214896,-4.0,0.0,6.0,1,0,0,2,4,1,4,2.16,21.97,28.15,
8.988,107.46315707682992,101.08749997021489,-3.0,0.0,5.0,1,0,0,2,4,1,4,2.35,23.25,28.25,
9.003,107.37931570768299,100.9187499970215,-3.0,1.0,4.0,1,0,0,2,3,1,4,2.55,24.23,28.25,
9.016,107.4789315707683,100.76687499970214,-3.0,0.0,4.0,1,0,0,2,3,1,4,2.75,25.11,27.96,
9.03,107.54289315707683,100.62568749997021,-3.0,1.0,3.0,1,0,0,2,3,1,4,2.75,26.59,27.86,
9.043,107.63028931570769,100.40456874999703,-3.0,1.0,0.0,1,0,0,2,3,1,4,3.14,27.17,27.57,
9.058,107.66602893157076,100.2294568749997,-1.0,1.0,-1.0,1,0,0,2,3,1,4,3.34,27.66,27.37,
9.072,107.75960289315707,100.19394568749998,-1.0,1.0,-1.0,1,0,0,2,4,1,4,3.43,28.15,27.66,
9.086,107.7959602893157,100.24439456875001,0.0,0.0,0.0,1,0,0,2,4,1,4,3.63,28.45,27.96,
9.1,107.81759602893156,100.321439456875,-1.0,0.0,0.0,1,0,0,3,4,1,4,3.92,28.55,28.35,
9.114,107.83775960289316,100.41914394568751,-1.0,0.0,0.0,1,0,0,3,4,1,4,4.02,28.55,28.65,
9.127,107.82177596028932,100.45591439456875,-1.0,0.0,0.0,1,0,0,3,4,1,4,4.02,28.45,28.74,
9.142,107.83817759602894,100.43259143945689,-1.0,0.0,0.0,1,0,0,3,4,1,4,4.12,28.45,28.94,
9.156,107.8308177596029,100.49325914394569,-2.0,0.0,0.0,1,0,0,3,4,1,4,4.22,28.55,29.14,
9.169,107.7940817759603,100.58032591439458,-4.0,1.0,0.0,1,0,0,3,4,1,4,4.32,28.84,29.33,
9.184,107.76340817759603,100.61603259143946,-4.0,3.0,0.0,1,0,0,3,4,1,4,4.51,30.02,29.33,
9.198,107.76034081775961,100.59260325914394,-5.0,2.0,2.0,1,0,0,3,4,1,4,4.61,30.90,29.33,
9.211,107.77803408177597,100.4372603259144,-4.0,3.0,2.0,1,0,0,3,4,1,4,4.81,31.88,29.23,
9.226,107.85180340817759,100.30472603259145,-3.0,3.0,1.0,1,0,0,3,4,1,4,5.30,32.77,29.04,
9.239,107.98518034081776,100.20147260325915,-2.0,3.0,0.0,1,0,0,3,4,1,4,5.59,34.34,29.14,
9.253,108.00751803408178,100.23614726032591,-1.0,1.0,0.0,1,0,0,3,4,1,5,5.79,34.53,29.23,
9.268,108.12675180340818,100.2486147260326,-1.0,1.0,0.0,1,0,0,3,4,2,5,6.08,34.53,29.33,
9.281,108.19267518034083,100.20486147260327,-1.0,1.0,0.0,1,0,0,3,4,2,5,6.18,34.53,29.63,
9.295,108.16326751803408,100.21848614726034,-1.0,1.0,0.0,2,0,0,3,4,2,5,6.28,34.34,29.72,
9.31,108.15132675180341,100.27384861472603,-1.0,1.0,0.0,2,0,0,3,4,2,5,6.28,34.14,29.82,
9.323,108.19513267518035,100.3423848614726,-2.0,1.0,0.0,2,0,0,3,4,2,5,6.38,33.94,29.82,
9.337,108.24451326751803,100.43023848614726,-3.0,1.0,0.0,2,0,0,3,4,2,5,6.57,33.84,29.72,
9.352,108.28545132675181,100.45702384861472,-3.0,1.0,0.0,2,0,0,3,4,2,5,6.77,34.34,29.72,
9.365,108.35254513267517,100.47770238486147,-4.0,2.0,0.0,2,0,0,3,4,2,5,6.87,34.92,29.63,
9.379,108.40425451326752,100.45277023848615,-4.0,1.0,1.0,2,0,0,3,4,2,5,7.16,35.81,29.63,
9.393,108.46342545132676,100.38727702384861,-3.0,1.0,1.0,2,0,0,3,4,2,5,7.36,36.69,29.33,
9.407,108.55934254513267,100.30872770238486,-2.0,1.0,1.0,2,0,0,3,4,2,5,7.75,38.26,29.33,
9.421,108.62293425451325,100.2108727702385,-2.0,0.0,1.0,2,0,0,3,4,2,5,8.04,38.95,29.43,
9.435,108.77329342545133,100.13808727702386,-2.0,0.0,0.0,2,0,0,3,4,2,5,8.14,39.44,29.53,
9.449,108.71632934254512,100.07680872770239,-2.0,0.0,0.0,2,0,0,3,4,2,5,8.24,40.02,29.72,
9.463,108.6926329342545,100.05268087277024,-2.0,0.0,0.0,2,0,0,3,4,2,5,8.63,40.91,29.92,
9.477,108.69926329342545,100.05026808727702,-2.0,0.0,0.0,2,0,0,3,4,2,5,8.73,41.40,29.92,
9.491,108.75392632934255,100.07702680872771,-2.0,0.0,0.0,2,0,0,3,4,2,5,8.73,41.59,30.12,
9.504,108.82239263293425,100.05270268087277,-2.0,0.0,0.0,2,0,0,3,4,2,5,8.83,41.69,30.12,
9.519,108.82023926329343,100.04127026808727,-2.0,0.0,0.0,2,0,0,3,4,2,5,8.93,41.89,30.12,
9.533,108.81102392632934,100.05812702680873,-2.0,0.0,0.0,2,0,0,3,4,2,5,9.03,42.08,30.21,
9.546,108.78310239263293,100.10481270268087,-1.0,0.0,0.0,2,0,0,3,4,2,4,9.03,42.18,30.41,
9.561,108.82531023926329,100.08248127026809,-1.0,0.0,0.0,2,0,0,3,4,2,4,9.12,42.28,30.51,
9.575,108.77553102392633,100.0802481270268,-1.0,0.0,-1.0,2,0,0,3,4,2,4,9.12,42.48,30.61,
9.588,108.75255310239262,100.09802481270268,-1.0,0.0,-1.0,2,0,0,3,4,2,5,9.22,42.38,30.71,
9.603,108.74125531023925,100.12680248127027,-1.0,-1.0,0.0,2,0,0,3,4,2,5,9.22,42.28,30.90,
9.617,108.75812553102392,100.13868024812703,-1.0,-1.0,0.0,2,0,0,3,4,2,5,9.22,41.79,31.00,
9.63,108.8318125531024,100.1578680248127,-1.0,-2.0,0.0,2,0,0,3,4,2,5,9.22,41.69,31.10,
9.645,108.86618125531024,100.21378680248128,-1.0,-1.0,0.0,2,0,0,3,4,2,5,8.93,41.50,31.10,
9.659,108.81561812553102,100.16537868024812,-1.0,-2.0,0.0,2,0,0,3,4,2,5,8.93,41.59,31.29,
9.673,108.7745618125531,100.17853786802482,-1.0,-1.0,0.0,2,0,0,3,4,2,5,8.93,42.18,31.29,
9.687,108.77045618125531,100.13485378680248,-1.0,-1.0,0.0,2,0,0,3,4,2,5,8.93,42.28,31.49,
9.701,108.75204561812552,100.17548537868025,-1.0,-1.0,0.0,2,0,0,3,4,2,5,9.03,42.48,31.49,
9.715,108.71420456181255,100.23354853786802,-1.0,-1.0,0.0,2,0,0,3,4,2,5,8.83,42.67,31.69,
9.73,108.62942045618126,100.1943548537868,-2.0,-1.0,0.0,2,0,0,3,4,2,5,8.73,43.16,31.69,
9.743,108.56694204561813,100.18143548537869,-2.0,-1.0,0.0,2,0,0,3,4,2,4,8.63,43.46,31.69,
9.757,108.5516942045618,100.18014354853787,-2.0,-1.0,0.0,2,0,0,3,4,2,4,8.44,43.65,31.69,
9.772,108.52316942045617,100.2160143548538,-2.0,-1.0,1.0,2,0,0,3,4,2,4,8.44,43.95,31.59,
9.785,108.50231694204562,100.18360143548539,-2.0,-1.0,1.0,2,0,0,3,4,2,4,8.44,44.93,31.49,
9.799,108.58123169420458,100.17136014354854,-2.0,-1.0,1.0,2,0,0,3,4,2,4,8.44,45.62,31.49,
9.814,108.60712316942045,100.15213601435485,-2.0,-1.0,0.0,2,0,0,3,4,2,4,8.44,46.21,31.69,
9.828,108.60071231694204,100.12321360143548,-2.0,-1.0,0.0,2,0,0,3,4,2,4,8.53,46.89,31.69,
9.841,108.51907123169421,100.11132136014355,-2.0,-1.0,0.0,2,0,0,2,4,2,4,8.44,48.07,31.59,
9.856,108.46590712316942,100.06513213601436,-2.0,-2.0,0.0,2,0,0,2,4,2,4,8.44,48.46,31.59,
9.87,108.44259071231694,100.11451321360144,-1.0,-2.0,0.0,2,0,0,3,4,2,4,8.34,48.85,31.59,
9.883,108.48525907123168,100.08345132136014,-1.0,-2.0,0.0,2,0,0,3,4,2,4,8.24,49.05,31.59,
9.897,108.45352590712316,100.07134513213602,-1.0,-2.0,0.0,2,0,0,3,4,2,4,8.04,49.15,31.49,
9.912,108.44135259071231,100.0611345132136,-1.0,-1.0,0.0,2,0,0,3,4,2,4,7.85,49.25,31.39,
9.926,108.42213525907123,100.05111345132136,-1.0,0.0,0.0,2,0,0,3,4,2,4,7.65,49.25,31.39,
9.939,108.32121352590713,100.05911134513214,-1.0,0.0,0.0,2,0,0,3,4,2,4,7.46,49.25,31.39,
9.954,108.3921213525907,100.09591113451322,-1.0,-1.0,0.0,2,0,0,3,4,2,4,7.36,49.15,31.49,
9.968,108.41721213525906,100.10859111345133,-2.0,-1.0,0.0,2,0,0,3,4,2,4,7.36,48.95,31.59,
9.981,108.4917212135259,100.11885911134513,-1.0,-1.0,0.0,2,0,0,3,4,2,4,7.26,48.66,31.59,
9.996,108.5081721213526,100.12888591113452,-1.0,-1.0,-1.0,2,0,0,3,4,2,4,6.97,48.46,31.49,
10.01,108.45581721213526,100.12088859111346,-2.0,0.0,-1.0,2,0,0,3,4,2,4,6.97,48.46,31.49,
10.024,108.39658172121352,100.08408885911135,-1.0,-1.0,-1.0,2,0,0,3,4,2,4,6.87,48.46,31.39,
10.038,108.37265817212135,100.03540888591114,-1.0,0.0,-1.0,2,0,0,3,4,2,4,6.77,48.36,31.49,
10.052,108.37026581721213,100.0125408885911,-1.0,0.0,-1.0,2,0,0,2,4,2,4,6.57,48.07,31.59,
10.066,108.3970265817212,100.05525408885912,-1.0,-1.0,-1.0,2,0,0,2,4,2,4,6.57,47.77,31.69,
10.081,108.41770265817212,100.0685254088859,-1.0,-1.0,-1.0,2,0,0,3,4,2,4,6.57,47.38,31.78,
10.095,108.3657702658172,100.01585254088859,-1.0,-1.0,-1.0,2,0,0,2,4,2,5,6.38,46.79,31.88,
10.109,108.41457702658172,100.00158525408885,-1.0,-1.0,-1.0,2,0,0,3,4,2,5,6.38,46.60,31.88,
10.124,108.36545770265818,100.09015852540888,-1.0,-1.0,-1.0,2,0,0,3,4,2,5,6.38,46.21,31.98,
10.137,108.32454577026581,100.12601585254089,-1.0,-1.0,0.0,2,0,0,3,4,2,5,6.28,45.91,32.18,
10.151,108.32945457702658,100.1476015852541,-1.0,-1.0,0.0,2,0,0,3,4,2,5,6.18,45.52,32.27,
10.166,108.32094545770265,100.19476015852541,-1.0,-1.0,0.0,2,0,0,3,4,2,4,6.18,45.32,32.27,
10.18,108.39209454577026,100.24447601585254,-1.0,-1.0,0.0,2,0,0,3,4,2,4,6.08,45.13,32.47,
10.194,108.39020945457702,100.23144760158526,-2.0,0.0,0.0,2,0,0,3,4,2,4,6.08,45.03,32.47,
10.208,108.3990209454577,100.23014476015854,-2.0,-1.0,0.0,2,0,0,3,4,2,4,5.98,45.22,32.47,
10.222,108.33690209454576,100.12201447601586,-2.0,-1.0,0.0,2,0,0,3,4,2,4,5.89,45.52,32.47,
10.236,108.29469020945459,100.13820144760159,-2.0,-1.0,0.0,2,0,0,3,4,2,4,5.89,45.81,32.27,
10.251,108.22746902094545,100.18482014476017,-2.0,-1.0,0.0,2,0,0,2,4,2,4,5.79,46.50,32.27,
10.265,108.24774690209453,100.18948201447603,-2.0,-1.0,0.0,2,0,0,2,4,2,4,5.69,46.89,32.27,
10.278,108.18677469020946,100.1899482014476,-2.0,-1.0,0.0,2,0,0,2,4,2,4,5.59,47.28,32.18,
10.293,108.13567746902093,100.17199482014476,-2.0,-1.0,0.0,2,0,0,2,4,2,4,5.49,47.48,32.18,
10.307,108.1125677469021,100.13419948201448,-2.0,-1.0,0.0,2,0,0,2,4,2,4,5.49,47.77,32.27,
10.321,108.11925677469021,100.13041994820145,-2.0,-1.0,0.0,2,0,0,2,4,2,4,5.40,47.87,32.27,
10.336,108.12892567746901,100.14804199482015,-2.0,-1.0,0.0,2,0,0,2,4,2,4,5.30,47.97,32.18,
10.349,108.10289256774689,100.18580419948202,-2.0,-1.0,0.0,2,0,0,2,4,2,4,5.20,48.46,32.18,
10.363,108.05528925677469,100.15358041994821,-2.0,-1.0,0.0,2,0,0,2,4,2,4,5.10,48.85,32.27,
10.378,108.04152892567747,100.17735804199482,-2.0,-1.0,0.0,2,0,0,2,4,2,4,5.10,49.25,32.27,
10.392,108.03115289256775,100.11673580419948,-2.0,-1.0,0.0,2,0,0,2,4,2,4,5.20,49.74,32.27,
10.406,108.04811528925677,100.15567358041994,-2.0,-1.0,0.0,2,0,0,2,4,2,4,5.30,50.82,32.37,
10.42,108.06781152892566,100.096567358042,-2.0,-1.0,0.0,2,0,0,2,4,2,4,5.30,51.21,32.37,
10.434,108.05178115289257,100.1266567358042,-2.0,-1.0,0.0,2,0,0,2,4,2,4,5.40,51.70,32.47,
10.448,108.04117811528926,100.08466567358042,-2.0,-1.0,0.0,2,0,0,2,4,2,4,5.49,51.99,32.37,
10.463,107.98611781152893,100.07146656735804,-2.0,-1.0,0.0,2,0,0,2,4,2,4,5.59,52.29,32.27,
10.477,107.96261178115289,100.0431466567358,-2.0,-1.0,0.0,2,0,0,2,4,2,4,5.59,52.58,32.27,
10.49,107.91526117811529,100.07631466567358,-2.0,-2.0,0.0,2,0,0,2,4,2,4,5.59,52.78,32.18,
10.505,107.91952611781153,100.11563146656736,-2.0,-2.0,0.0,2,0,0,2,4,2,4,5.40,53.27,31.88,
10.519,107.91995261178116,100.13756314665673,-2.0,-1.0,1.0,2,0,0,2,4,2,4,5.20,53.46,31.69,
10.533,107.88399526117811,100.11275631466567,-3.0,-1.0,1.0,2,0,0,2,4,2,4,5.10,53.86,31.49,
10.548,107.94339952611782,100.11027563146656,-2.0,0.0,0.0,2,0,0,2,4,2,4,5.10,54.45,31.10,
10.561,107.94033995261178,100.01102756314665,-2.0,0.0,0.0,2,0,0,2,4,2,4,5.00,55.72,30.90,
10.575,107.92203399526117,99.98310275631466,-2.0,0.0,0.0,2,0,0,2,4,2,4,5.00,56.11,30.90,
10.59,107.91120339952612,99.95331027563147,-2.0,0.0,0.0,2,0,0,2,4,2,4,5.00,56.51,30.80,
10.603,107.93712033995261,99.95033102756314,-2.0,0.0,0.0,2,0,0,2,4,2,4,5.00,56.70,30.71,
10.617,107.97571203399526,99.93203310275632,-2.0,0.0,0.0,2,0,0,2,4,2,4,5.00,57.58,30.51,
10.632,107.97957120339953,99.93920331027563,-2.0,0.0,0.0,2,0,0,2,4,2,4,5.00,57.88,30.51,
10.645,107.92595712033994,99.97592033102757,-2.0,0.0,0.0,2,0,0,2,4,2,4,5.10,58.17,30.51,
10.659,107.92059571203399,99.98859203310275,-2.0,0.0,0.0,2,0,0,2,4,2,4,5.20,58.37,30.41,
10.673,107.87505957120341,99.96285920331027,-2.0,0.0,0.0,2,0,0,2,4,2,4,5.10,59.35,30.41,
10.687,107.83450595712034,100.02328592033103,-2.0,0.0,0.0,2,0,0,2,4,2,4,5.20,59.64,30.51,
10.701,107.80345059571202,100.02032859203311,-2.0,0.0,0.0,2,0,0,2,4,2,4,5.20,59.84,30.51,
10.716,107.89034505957122,100.09203285920331,-2.0,0.0,0.0,2,0,0,2,4,2,4,5.20,60.14,30.41,
10.729,107.96203450595712,100.10820328592033,-2.0,0.0,0.0,2,0,0,2,4,2,4,5.30,60.43,30.51,
10.743,107.98720345059571,100.08282032859204,-2.0,0.0,0.0,2,0,0,2,4,2,4,5.30,60.63,30.51,
10.758,108.02572034505957,100.0622820328592,-2.0,0.0,-1.0,2,0,0,2,4,2,4,5.20,60.82,30.41,
10.771,108.02057203450596,100.06022820328592,-2.0,0.0,0.0,2,0,0,2,4,2,4,5.20,61.51,30.41,
10.785,108.00205720345059,100.0150228203286,-2.0,0.0,0.0,2,0,0,2,4,2,4,5.20,61.90,30.31,
10.8,108.02720572034507,99.99250228203286,-2.0,0.0,0.0,2,0,0,2,4,2,4,5.30,62.20,30.21,
10.814,108.10172057203451,99.96325022820328,-2.0,1.0,0.0,2,0,0,2,4,2,4,5.40,62.39,30.21,
10.827,108.10917205720345,99.94232502282033,-2.0,0.0,0.0,2,0,0,2,4,2,4,5.40,62.78,30.21,
10.842,108.10091720572034,99.96723250228203,-2.0,0.0,0.0,2,0,0,2,4,2,4,5.40,62.88,30.31,
10.855,108.10009172057202,99.9967232502282,-2.0,0.0,0.0,2,0,0,2,4,2,4,5.59,63.08,30.51,
10.869,108.13600917205721,100.04467232502282,-2.0,0.0,0.0,2,0,0,2,4,2,4,5.69,63.27,30.51,
10.884,108.11260091720573,100.02246723250228,-2.0,0.0,0.0,2,0,0,2,4,2,4,5.89,63.67,30.61,
10.898,108.06526009172057,99.99324672325022,-2.0,0.0,0.0,2,0,0,2,4,2,4,5.98,63.86,30.71,
10.911,108.03352600917206,99.98132467232502,-2.0,0.0,-1.0,2,0,0,2,4,2,4,6.08,63.86,30.71,
10.926,108.04835260091721,99.91713246723249,-2.0,0.0,-1.0,2,0,0,2,4,2,4,6.18,63.77,30.71,
10.94,108.10383526009173,99.91071324672325,-2.0,0.0,-1.0,2,0,0,2,4,2,4,6.08,63.57,30.80,
10.953,108.08238352600918,99.91907132467232,-2.0,0.0,0.0,2,0,0,2,4,2,4,6.18,63.57,30.80,
10.968,108.03523835260091,99.87490713246724,-2.0,1.0,-1.0,2,0,0,2,4,2,4,6.28,63.77,30.80,
10.982,107.9495238352601,99.85249071324671,-2.0,1.0,0.0,2,0,0,2,4,2,4,6.47,64.16,30.90,
10.995,107.94095238352601,99.82324907132467,-2.0,1.0,0.0,2,0,0,2,4,2,4,6.67,65.14,31.00,
11.01,108.0030952383526,99.85632490713246,-2.0,1.0,0.0,2,0,0,2,4,2,4,6.87,65.43,31.10,
11.024,108.12630952383526,99.87763249071324,-2.0,1.0,0.0,2,0,0,2,4,2,4,7.06,65.63,31.29,
11.037,108.19263095238354,99.87976324907132,-2.0,1.0,0.0,2,0,0,2,4,2,4,7.36,65.53,31.29,
11.052,108.25326309523837,99.85297632490713,-2.0,0.0,-1.0,2,0,0,2,4,2,4,7.46,65.73,31.39,
11.066,108.23232630952384,99.88629763249071,-2.0,2.0,-1.0,2,0,0,2,4,2,4,7.65,65.83,31.59,
11.079,108.27523263095237,99.80862976324906,-2.0,2.0,-1.0,2,0,0,2,4,2,4,7.75,65.83,31.88,
11.094,108.34252326309523,99.89086297632491,-2.0,2.0,-1.0,2,0,0,2,4,2,4,7.85,65.63,31.78,
11.108,108.47525232630952,99.92608629763251,-2.0,3.0,-1.0,2,0,0,2,4,2,4,8.24,65.43,31.88,
11.121,108.54252523263094,99.98360862976325,-2.0,2.0,-1.0,2,0,0,2,4,2,4,8.44,65.24,31.98,
11.136,108.62125252326308,99.94436086297632,-2.0,2.0,-1.0,2,0,0,2,4,2,4,8.63,65.14,32.08,
11.15,108.6561252523263,99.92243608629762,-2.0,1.0,0.0,2,0,0,2,4,2,4,8.63,64.84,32.18,
11.164,108.77661252523262,99.90224360862977,-2.0,0.0,0.0,2,0,0,2,4,2,4,8.83,64.94,32.27,
11.177,108.77066125252325,99.85522436086296,-2.0,0.0,0.0,2,0,0,2,4,2,4,8.83,65.04,32.18,
11.192,108.79706612525233,99.7965224360863,-2.0,0.0,0.0,2,0,0,2,4,2,4,8.83,65.24,32.08,
11.205,108.74570661252523,99.75465224360863,-2.0,0.0,-1.0,2,0,0,2,4,2,4,8.83,65.43,31.98,
11.219,108.76757066125252,99.75046522436087,-2.0,0.0,-1.0,2,0,0,2,4,2,4,8.83,65.73,31.78,
11.234,108.71575706612525,99.72304652243609,-2.0,0.0,-1.0,2,0,0,2,4,2,4,8.83,65.83,31.69,
11.248,108.76457570661252,99.75630465224361,-2.0,0.0,-1.0,2,0,0,2,4,2,4,8.83,65.83,31.69,
11.261,108.83245757066125,99.73263046522436,-2.0,0.0,-1.0,2,0,0,2,4,2,4,8.83,65.83,31.59,
11.276,108.87524575706612,99.81126304652243,-2.0,0.0,-1.0,2,0,0,2,4,2,4,8.83,65.83,31.69,
11.29,108.91552457570661,99.82812630465223,-2.0,0.0,-1.0,2,0,0,2,4,2,4,8.73,65.83,31.59,
11.303,108.93755245757066,99.82981263046521,-2.0,0.0,-1.0,2,0,0,2,4,2,4,8.73,65.92,31.49,
11.318,108.90375524575707,99.80298126304652,-2.0,0.0,0.0,2,0,0,2,4,2,4,8.73,66.61,31.59,
11.332,108.8733755245757,99.80929812630465,-2.0,0.0,0.0,2,0,0,2,4,2,4,8.83,67.00,31.59,
11.345,108.87933755245757,99.80992981263047,-2.0,0.0,-1.0,2,0,0,2,4,2,4,8.83,67.20,31.69,
11.36,108.89793375524576,99.85499298126304,-2.0,0.0,-1.0,2,0,0,2,4,2,4,8.83,67.59,31.69,
11.374,108.92679337552458,99.84149929812631,-2.0,-1.0,0.0,2,0,0,2,4,2,4,8.93,67.59,31.69,
11.387,108.88467933755246,99.90314992981263,-2.0,-1.0,-1.0,2,0,0,2,4,2,4,8.93,67.79,31.69,
11.402,108.84446793375524,99.89131499298125,-2.0,-1.0,0.0,2,0,0,2,4,2,4,8.93,67.89,31.49,
11.416,108.84044679337552,99.90813149929812,-2.0,0.0,0.0,2,0,0,2,4,2,4,8.83,68.08,31.49,
11.43,108.79504467933755,99.87381314992982,-2.0,0.0,0.0,2,0,0,2,4,2,4,8.63,68.18,31.49,
11.444,108.78150446793376,99.92438131499298,-2.0,-1.0,0.0,2,0,0,2,4,2,4,8.53,68.28,31.39,
11.458,108.76215044679337,99.9114381314993,-2.0,-1.0,0.0,2,0,0,2,4,2,4,8.53,68.47,31.10,
11.472,108.72421504467934,99.85614381314993,-2.0,0.0,0.0,2,0,0,2,4,2,4,8.53,69.16,31.10,
11.486,108.70242150446794,99.841614381315,-2.0,0.0,-1.0,2,0,0,2,4,2,4,8.44,69.45,31.10,
11.5,108.70924215044678,99.8401614381315,-2.0,0.0,-1.0,2,0,0,2,4,2,4,8.34,69.55,31.10,
11.514,108.74592421504468,99.82201614381314,-2.0,0.0,-1.0,2,0,0,2,4,2,4,8.44,69.45,31.00,
11.528,108.82159242150446,99.76620161438132,-2.0,-1.0,-1.0,2,0,0,2,4,2,4,8.34,68.96,31.10,
11.542,108.85615924215045,99.76062016143814,-2.0,-1.0,-1.0,2,0,0,2,4,2,4,8.24,68.87,31.10,
11.556,108.83261592421505,99.81406201614381,-2.0,-2.0,-1.0,2,0,0,2,4,2,4,8.24,68.67,30.90,
11.571,108.7492615924215,99.77440620161437,-2.0,-2.0,-1.0,2,0,0,2,4,2,5,8.24,68.67,30.80,
11.585,108.72292615924215,99.79744062016142,-2.0,-1.0,-1.0,2,0,0,2,4,2,4,8.14,68.38,30.80,
11.598,108.6752926159242,99.75474406201614,-2.0,-1.0,-1.0,2,0,0,2,4,2,4,7.95,68.28,30.80,
11.613,108.63452926159242,99.69647440620162,-2.0,-2.0,-2.0,2,0,0,2,4,2,4,7.75,68.18,30.41,
11.627,108.55845292615923,99.72664744062017,-2.0,-2.0,-2.0,2,0,0,2,4,1,4,7.36,67.69,30.31,
11.641,108.58684529261593,99.74766474406202,-3.0,-1.0,-2.0,2,0,0,2,4,1,4,7.26,67.30,30.12,
11.656,108.67968452926159,99.7767664744062,-3.0,-2.0,-1.0,2,0,0,2,4,1,4,6.97,67.10,29.72,
11.669,108.76096845292616,99.78867664744062,-4.0,-2.0,-1.0,2,0,0,2,4,1,4,6.67,67.10,29.04,
11.683,108.7060968452926,99.74486766474405,-4.0,-1.0,0.0,2,0,0,2,4,1,4,5.89,67.98,28.45,
11.698,108.68260968452927,99.6864867664744,-3.0,-2.0,0.0,2,0,0,2,4,1,4,5.30,69.16,27.86,
11.712,108.56326096845292,99.57264867664743,-2.0,-1.0,0.0,2,0,0,2,4,1,4,4.91,70.34,26.68,
11.725,108.5603260968453,99.57926486766473,-2.0,-2.0,0.0,2,0,0,2,4,1,4,4.61,71.61,26.49,
11.74,108.49703260968452,99.58892648676647,-1.0,-1.0,0.0,2,0,0,2,4,1,4,4.22,72.59,26.29,
11.754,108.47270326096846,99.57189264867665,-1.0,0.0,0.0,2,0,0,2,4,1,4,4.22,72.59,26.29,
11.767,108.52427032609685,99.62418926486767,-1.0,-1.0,0.0,2,0,0,2,4,1,4,4.12,72.50,26.49,
11.782,108.60142703260968,99.65641892648677,-1.0,0.0,0.0,2,0,0,2,4,1,4,4.22,72.50,26.59,
11.796,108.54614270326097,99.72264189264868,-1.0,0.0,0.0,2,0,0,2,4,1,4,4.32,72.79,26.68,
11.809,108.4506142703261,99.72026418926487,-2.0,0.0,0.0,2,0,0,2,4,1,4,4.51,73.38,26.78,
11.824,108.2970614270326,99.68402641892649,-2.0,1.0,0.0,2,0,0,2,4,1,4,4.71,74.26,27.08,
11.838,108.29970614270326,99.66240264189265,-2.0,2.0,1.0,2,0,0,2,4,1,4,5.10,76.32,27.37,
11.851,108.31797061427032,99.66024026418927,-2.0,1.0,1.0,2,0,0,2,4,1,4,5.30,77.11,27.37,
11.866,108.32879706142703,99.63302402641892,-2.0,1.0,1.0,2,0,0,2,4,1,5,5.98,77.79,27.57,
11.88,108.45587970614271,99.61230240264189,-2.0,1.0,1.0,2,0,0,2,4,1,5,6.28,78.38,27.86,
11.893,108.49558797061428,99.67323024026419,-2.0,2.0,1.0,2,0,0,2,4,1,5,6.57,79.56,27.96,
11.908,108.55355879706143,99.60732302402641,-1.0,2.0,1.0,2,0,0,2,4,1,5,6.87,80.25,28.06,
11.921,108.64935587970614,99.53773230240265,-1.0,2.0,1.0,2,0,0,2,4,1,5,7.36,80.83,28.35,
11.935,108.76693558797061,99.65677323024026,-2.0,0.0,0.0,2,0,0,2,4,1,5,7.75,81.32,28.55,
11.95,108.82369355879706,99.74067732302403,-4.0,-1.0,0.0,2,0,0,2,4,1,5,8.04,82.11,28.55,
11.963,108.6313693558797,99.78506773230241,-4.0,0.0,1.0,2,0,0,2,4,1,5,8.34,82.60,28.35,
11.977,108.50413693558795,99.51050677323025,-3.0,0.0,0.0,2,0,0,2,4,1,5,8.44,83.38,27.96,
11.992,108.4554136935588,99.35705067732303,-3.0,1.0,-1.0,2,0,0,2,4,1,5,8.73,83.97,26.68,
12.005,108.54954136935588,99.3147050677323,-3.0,4.0,-2.0,2,0,0,2,4,1,5,8.83,84.76,26.19,
12.019,108.70295413693559,99.31047050677323,-3.0,5.0,-2.0,2,0,0,2,4,1,5,8.93,84.95,25.90,
12.034,108.78129541369356,99.28304705067733,-3.0,5.0,-2.0,2,0,0,2,4,1,5,9.03,85.15,25.51,
12.048,108.96012954136935,99.28030470506773,-4.0,4.0,-2.0,2,0,0,2,4,1,5,9.03,85.25,25.31,
12.061,109.09501295413693,99.35203047050678,-4.0,2.0,-2.0,2,0,0,2,4,1,5,9.03,86.13,25.11,
12.076,109.13550129541369,99.38620304705069,-5.0,1.0,0.0,2,0,0,2,4,1,5,8.83,87.01,24.82,
12.09,109.12155012954138,99.17362030470508,-4.0,0.0,-1.0,2,0,0,2,4,1,5,8.73,88.49,23.84,
12.103,109.03915501295414,99.04436203047052,-2.0,3.0,-2.0,2,0,0,2,4,1,5,8.34,90.55,23.35,
12.118,109.12991550129541,98.97743620304706,-1.0,3.0,-3.0,2,0,0,2,4,1,5,8.14,94.18,23.05,
12.132,109.24699155012954,99.00674362030472,0.0,2.0,-3.0,2,0,0,2,4,1,5,8.14,94.57,23.05,
12.145,109.33969915501294,99.05467436203048,0.0,0.0,-3.0,2,0,0,2,4,1,5,8.34,94.18,23.64,
12.16,109.3399699155013,99.18546743620306,0.0,0.0,-2.0,2,0,0,2,4,1,5,8.34,92.90,24.23,
12.174,109.28599699155014,99.28854674362032,0.0,2.0,-3.0,2,0,0,2,4,1,5,8.34,92.61,24.92,
12.187,109.24459969915502,99.43385467436204,0.0,4.0,-2.0,2,0,0,2,4,1,6,8.34,92.70,25.80,
12.201,109.2044599699155,99.50238546743621,0.0,5.0,0.0,2,0,0,2,5,1,6,8.53,93.69,27.76,
12.215,109.32644599699155,99.42823854674363,0.0,5.0,-3.0,2,0,0,2,5,1,6,8.83,97.12,28.84,
12.229,109.56364459969916,99.44782385467437,-1.0,5.0,-4.0,2,0,0,2,5,2,6,9.52,98.98,29.92,
12.243,109.69536445996991,99.47678238546744,-2.0,5.0,-4.0,3,0,0,2,5,2,6,9.71,100.85,31.10,
12.258,109.70853644599698,99.53367823854676,-3.0,6.0,-5.0,3,0,0,2,5,2,6,10.10,103.10,33.35,
12.271,109.6828536445997,99.55736782385468,-3.0,3.0,-6.0,3,0,0,2,5,2,7,10.69,109.58,34.24,
12.285,109.82428536445998,99.36173678238546,-2.0,3.0,-4.0,3,0,0,2,5,2,7,12.36,113.21,35.22,
12.3,109.92842853644599,99.40517367823854,-1.0,6.0,-5.0,3,0,0,2,5,2,7,13.24,116.35,37.47,
12.314,109.7858428536446,99.49051736782386,-2.0,9.0,-3.0,3,0,0,3,5,2,7,14.03,118.41,38.75,
12.328,109.69958428536447,99.58005173678238,-2.0,8.0,-2.0,3,0,0,3,5,2,7,15.11,121.64,40.42,
12.343,109.50195842853645,99.63400517367823,-1.0,9.0,0.0,3,0,0,3,5,2,7,17.85,122.53,42.08,
12.357,109.88719584285366,99.7024005173678,-1.0,7.0,0.0,3,0,0,3,5,2,7,19.52,122.53,44.83,
12.37,110.33971958428536,99.72724005173679,-1.0,6.0,1.0,3,0,0,3,5,2,8,20.90,118.90,45.71,
12.385,110.36697195842855,99.78372400517368,-1.0,6.0,0.0,3,0,0,4,5,2,8,22.37,116.25,46.21,
12.399,110.56769719584285,99.82537240051735,-2.0,5.0,0.0,3,0,0,4,5,2,7,24.43,113.60,46.60,
12.413,110.69576971958428,99.75753724005173,-2.0,6.0,0.0,3,0,0,4,5,2,7,25.02,111.25,46.79,
12.428,110.84357697195843,99.70575372400518,-2.0,5.0,-1.0,3,0,0,4,5,2,7,25.11,106.24,46.50,
12.442,110.84035769719584,99.73657537240051,-2.0,3.0,0.0,3,0,0,4,5,2,7,25.21,103.30,46.21,
12.455,110.93003576971958,99.74865753724005,-3.0,5.0,-3.0,3,0,0,4,5,2,7,25.51,100.06,45.42,
12.47,110.87600357697195,99.85786575372401,-4.0,7.0,-4.0,2,0,0,4,5,2,7,25.80,93.98,44.93,
12.484,110.97860035769719,99.9407865753724,-7.0,7.0,-2.0,2,0,0,4,5,2,7,26.59,91.43,44.34,
12.498,111.16886003576971,100.06607865753725,-7.0,7.0,-1.0,2,0,0,4,5,2,6,27.66,89.37,43.56,
12.513,111.33188600357697,100.09660786575373,-7.0,8.0,-2.0,2,0,0,4,5,2,6,31.20,87.90,40.52,
12.527,111.56418860035771,99.96466078657537,-7.0,9.0,-1.0,2,0,0,4,5,2,6,33.26,86.43,39.04,
12.54,111.65941886003577,99.96946607865753,-7.0,7.0,-1.0,2,0,0,4,5,2,6,35.32,86.13,37.77,
12.555,111.78594188600358,99.78094660786576,-6.0,4.0,0.0,2,0,0,4,4,2,6,37.28,86.13,36.40,
12.569,111.97859418860035,99.64509466078658,-4.0,1.0,0.0,2,0,0,4,4,2,5,41.01,86.33,35.90,
12.583,112.30385941886004,99.47850946607865,-2.0,1.0,-1.0,2,0,0,4,4,2,5,42.67,86.72,35.71,
12.598,112.210385941886,99.51585094660786,-1.0,1.0,-3.0,2,0,0,4,4,2,5,44.15,86.33,35.90,
12.611,112.1560385941886,99.4565850946608,-1.0,2.0,-2.0,2,0,0,4,4,2,5,45.52,85.64,36.98,
12.625,111.96160385941886,99.48665850946608,-1.0,1.0,-2.0,2,0,0,4,4,2,5,47.97,83.68,37.47,
12.64,111.98716038594188,99.48966585094661,-1.0,2.0,-1.0,2,0,0,4,4,2,6,49.15,82.31,38.06,
12.654,112.18771603859417,99.48996658509466,0.0,0.0,-1.0,2,0,0,4,4,3,6,50.13,80.83,38.75,
12.667,112.42377160385941,99.50799665850948,0.0,0.0,-1.0,2,0,0,4,4,3,6,50.91,79.07,39.63,
12.682,112.55537716038594,99.52779966585095,1.0,-2.0,-1.0,2,0,0,5,4,3,6,51.40,75.14,39.93,
12.696,112.6855377160386,99.5567799665851,1.0,-3.0,-1.0,2,0,0,5,4,3,6,51.31,73.38,40.42,
12.71,112.66255377160387,99.64967799665851,1.0,-3.0,-1.0,2,0,0,5,4,3,6,51.01,71.91,40.61,
12.725,112.6872553771604,99.63196779966586,0.0,-4.0,-1.0,2,0,0,5,4,3,6,50.62,70.53,41.20,
12.738,112.66272553771604,99.63019677996658,0.0,-4.0,-1.0,2,0,0,4,4,3,6,49.64,69.06,41.10,
12.752,112.4082725537716,99.63901967799666,0.0,-4.0,-1.0,2,0,0,4,4,3,6,49.05,68.77,41.20,
12.767,112.35582725537715,99.56790196779966,0.0,-3.0,-2.0,2,0,0,4,4,3,6,48.66,68.67,41.69,
12.781,112.2785827255377,99.56979019677996,0.0,-3.0,-3.0,2,0,0,4,4,3,6,48.56,68.47,41.99,
12.795,112.10885827255376,99.67797901967799,0.0,-3.0,-2.0,2,0,0,5,4,3,6,48.56,67.10,42.38,
12.809,112.10088582725537,99.6797979019678,0.0,-2.0,-2.0,2,0,0,5,4,3,6,48.56,65.83,42.77,
12.823,112.09108858272553,99.73397979019677,0.0,-3.0,-2.0,2,0,0,5,4,3,6,48.66,64.45,43.56,
12.837,111.97310885827255,99.84739797901968,0.0,-3.0,-2.0,2,0,0,5,4,3,6,48.56,61.51,44.15,
12.852,111.86231088582724,99.88573979790196,0.0,-1.0,-1.0,2,0,0,5,5,3,6,48.46,60.33,44.64,
12.866,111.89623108858272,99.88057397979019,0.0,-2.0,-2.0,2,0,0,4,5,3,6,48.56,59.15,45.22,
12.879,111.80962310885828,99.87105739797903,0.0,-1.0,-3.0,2,0,0,4,5,3,6,48.66,58.37,46.70,
12.894,111.81896231088581,99.9601057397979,1.0,-2.0,-3.0,2,0,0,4,5,3,6,48.85,56.51,47.68,
12.908,111.92789623108857,100.00501057397979,0.0,-4.0,-4.0,2,0,0,4,5,3,6,49.54,55.23,48.66,
12.922,111.83078962310884,99.99150105739798,0.0,-7.0,-4.0,2,0,0,4,5,3,6,49.74,53.66,50.52,
12.937,111.81207896231089,100.0081501057398,0.0,-10.0,-5.0,2,0,0,4,4,3,6,49.74,50.13,51.70,
12.951,111.68420789623109,99.89281501057397,1.0,-11.0,-7.0,2,0,0,4,4,3,6,49.74,48.17,52.97,
12.965,111.5094207896231,99.89028150105739,3.0,-12.0,-9.0,2,0,0,4,4,3,6,49.15,45.81,54.35,
12.979,111.1139420789623,99.95302815010574,6.0,-12.0,-9.0,2,0,0,4,4,3,6,48.56,43.26,57.49,
12.993,110.87639420789623,99.83330281501057,9.0,-13.0,-11.0,2,0,0,4,4,3,6,47.68,37.08,59.35,
13.007,110.69963942078962,99.78533028150106,13.0,-17.0,-12.0,2,0,0,5,4,3,6,46.60,33.26,61.51,
13.022,110.39396394207895,99.73553302815012,19.0,-19.0,-13.0,1,0,0,5,4,4,6,43.16,29.04,66.51,
13.036,110.34539639420791,99.793553302815,25.0,-24.0,-15.0,1,0,0,5,4,4,6,40.81,19.91,69.36,
13.05,110.11553963942079,99.92535533028149,32.0,-23.0,-18.0,1,0,0,5,4,4,6,37.87,15.21,72.50,
13.065,109.63355396394208,98.84053553302815,37.0,-25.0,-21.0,0,0,0,5,4,4,6,31.20,10.59,75.73,
13.08,109.79235539639421,99.92905355330282,42.0,-18.0,-33.0,0,0,0,5,4,4,6,27.86,6.38,82.21,
13.093,107.15323553963943,101.25290535533028,41.0,14.0,-31.0,0,0,0,5,4,4,6,24.72,0.00,85.25,
13.108,106.04332355396394,101.89829053553302,45.0,9.0,-32.0,0,0,0,5,4,4,6,21.97,0.00,88.00,
13.122,105.6083323553964,102.9168290535533,50.0,4.0,-21.0,0,0,0,5,4,4,6,18.64,0.00,92.02,
13.136,105.29483323553964,104.20668290535532,52.0,1.0,-15.0,0,0,0,5,4,4,6,16.68,0.00,93.59,
13.151,105.65948332355397,96.10966829053552,52.0,32.0,-25.0,0,0,0,5,4,4,7,14.13,0.00,94.96,
13.164,105.2999483323554,94.64296682905356,50.0,22.0,-32.0,0,0,0,6,4,4,7,11.38,0.00,96.14,
13.178,105.33599483323555,95.68429668290536,56.0,18.0,-22.0,0,0,0,6,4,4,7,7.06,0.00,97.61,
13.193,105.38459948332356,97.18342966829053,57.0,35.0,-24.0,0,0,0,6,4,4,7,5.49,0.00,97.61,
13.207,105.43445994833235,98.49434296682905,63.0,29.0,-31.0,0,0,0,6,4,4,7,3.92,0.00,96.82,
13.22,106.14144599483323,99.6874342966829,72.0,33.0,-30.0,0,0,0,6,4,4,7,2.55,0.00,95.16,
13.235,107.61614459948333,101.33674342966827,74.0,38.0,-43.0,0,0,0,6,4,4,7,1.18,0.00,88.58,
13.249,108.63661445994833,102.28467434296682,80.0,24.0,-46.0,0,0,0,6,4,4,7,0.00,0.00,83.19,
13.262,108.86466144599484,103.92746743429667,81.0,20.0,-31.0,0,0,0,5,3,4,7,0.00,0.00,75.93,
13.277,110.39946614459947,106.24274674342968,94.0,25.0,-31.0,0,0,0,5,3,3,6,0.00,0.00,53.66,
13.291,111.15594661445995,108.40027467434297,91.0,29.0,-27.0,0,0,0,5,3,2,5,0.00,0.00,39.93,
13.305,111.789594661446,109.63302746743429,85.0,31.0,-12.0,0,0,0,4,2,1,4,0.00,0.00,28.25,
13.319,113.74295946614458,110.17030274674343,73.0,35.0,-22.0,0,0,0,3,1,1,2,0.00,0.00,21.48,
13.333,116.28729594661445,109.43203027467433,54.0,30.0,-29.0,0,0,0,2,0,0,0,0.00,0.00,15.50,
13.346,119.19672959466143,110.56420302746743,38.0,29.0,-48.0,0,0,0,0,0,0,0,0.00,0.00,12.95,
13.361,121.01767295946614,111.04642030274674,20.0,20.0,-45.0,0,0,0,0,0,0,0,0.00,0.00,10.69,
13.374,121.7397672959466,105.29864203027468,4.0,-33.0,-41.0,0,0,0,0,0,0,0,0.10,0.00,8.83,
13.387,122.37897672959465,100.76386420302748,-20.0,-70.0,-40.0,0,0,0,0,0,0,0,0.20,0.00,7.16,
13.402,121.40789767295946,95.72938642030275,-47.0,-93.0,-38.0,0,0,0,0,0,0,0,0.29,0.00,6.97,
13.415,118.24178976729594,91.13093864203029,-73.0,-111.0,-47.0,0,0,0,0,0,0,0,0.20,0.00,6.47,
13.429,113.73117897672961,86.90909386420303,-97.0,-106.0,-52.0,0,0,0,0,0,0,0,0.10,0.00,5.89,
13.443,110.09411789767296,83.9669093864203,-111.0,-88.0,-45.0,0,0,0,0,0,0,0,0.29,0.00,5.30,
13.457,106.5984117897673,81.98069093864203,-125.0,-67.0,-35.0,0,0,0,0,0,0,0,0.49,0.00,4.51,
13.47,103.78284117897672,80.08106909386422,-134.0,-58.0,-17.0,0,0,0,0,0,0,0,0.49,0.00,4.22,
13.485,101.39528411789766,78.40610690938641,-139.0,-53.0,-4.0,0,0,0,0,0,0,0,0.49,0.00,3.92,
13.498,99.46452841178977,76.91561069093865,-141.0,-49.0,7.0,0,0,0,0,0,0,0,0.29,0.00,3.73,
13.512,97.78645284117897,75.77656106909387,-143.0,-45.0,12.0,0,0,0,0,0,0,0,0.29,0.00,3.43,
13.526,96.5116452841179,75.09565610690939,-146.0,-37.0,16.0,0,0,0,0,0,0,0,0.20,0.00,3.34,
13.539,95.66416452841177,74.64056561069094,-149.0,-28.0,16.0,0,0,0,0,0,0,0,0.20,0.00,3.14,
13.553,95.03041645284117,74.5950565610691,-150.0,-18.0,16.0,0,0,0,0,0,0,0,0.10,0.00,2.94,
13.566,94.7960416452841,74.97750565610691,-147.0,-11.0,14.0,0,0,0,0,0,0,0,0.10,0.00,2.75,
13.58,94.78160416452842,75.63675056561068,-140.0,0.0,10.0,0,0,0,0,0,0,0,0.10,0.00,2.65,
13.593,94.78016041645284,77.04367505656107,-127.0,4.0,10.0,0,0,0,0,0,0,0,0.00,0.00,2.55,
13.607,94.86101604164529,78.97536750565611,-118.0,13.0,14.0,0,0,0,0,0,0,0,0.00,0.00,2.45,
13.621,95.24710160416454,81.09453675056561,-108.0,15.0,17.0,0,0,0,0,0,0,0,0.00,0.00,2.45,
13.634,95.69971016041644,83.16945367505656,-99.0,17.0,21.0,0,0,0,0,0,0,0,0.00,0.00,2.16,
13.647,96.18597101604163,85.14094536750565,-89.0,23.0,24.0,0,0,0,0,0,0,0,0.00,0.00,1.96,
13.662,96.83759710160416,87.07509453675057,-73.0,32.0,27.0,0,0,0,0,0,0,0,0.00,0.00,1.86,
13.675,97.39775971016041,88.82550945367505,-52.0,40.0,30.0,0,0,0,0,0,0,0,0.00,0.00,1.57,
13.688,98.08377597101604,90.6835509453675,-33.0,50.0,33.0,0,0,0,0,0,0,0,0.00,0.00,1.28,
13.702,98.8633775971016,93.11035509453674,-36.0,53.0,34.0,0,0,0,0,0,0,0,0.00,0.00,1.08,
13.716,99.34633775971017,95.27003550945368,-41.0,74.0,42.0,0,0,0,0,0,0,0,0.00,0.00,0.78,
13.729,102.39163377597103,101.24600355094536,27.0,82.0,132.0,0,0,0,0,0,0,0,0.00,0.00,0.20,
13.743,100.62616337759712,104.24660035509453,-17.0,136.0,155.0,0,0,0,0,0,0,0,0.00,0.00,0.00,
13.757,98.82061633775972,98.21066003550945,-106.0,250.0,-45.0,0,0,0,0,0,0,0,0.00,0.00,0.00,
13.771,97.90206163377596,98.25506600355095,-41.0,-153.0,31.0,0,0,0,0,0,0,0,0.00,0.00,0.00,
13.785,97.6392061633776,101.4545066003551,-24.0,126.0,100.0,0,0,0,0,0,0,0,0.00,0.00,0.00,
13.798,102.96792061633776,103.88945066003551,-24.0,26.0,43.0,0,0,0,0,0,0,0,0.00,0.00,0.00,
13.812,103.26679206163377,105.33894506600355,-26.0,-41.0,-4.0,0,0,0,0,0,0,0,0.00,0.00,0.00,
13.826,104.61067920616338,107.16689450660036,-26.0,32.0,11.0,0,0,0,0,0,0,0,0.00,0.00,0.00,
13.84,106.35606792061633,108.14168945066002,-36.0,0.0,-12.0,0,0,0,0,0,0,0,0.00,0.00,0.00,
13.853,107.79060679206162,109.27416894506601,-39.0,14.0,-30.0,0,0,0,0,0,0,0,0.00,0.00,0.00,
13.868,108.78006067920616,110.25141689450659,-35.0,23.0,-36.0,0,0,0,0,0,0,0,0.00,0.00,0.00,
13.881,109.28400606792061,111.87014168945066,-28.0,12.0,-42.0,0,0,0,0,0,0,0,0.00,0.00,0.00,
13.895,109.64040060679206,113.97601416894507,-15.0,25.0,-35.0,0,0,0,0,0,0,0,0.00,0.00,0.00,
13.908,111.9890400606792,114.9246014168945,14.0,6.0,4.0,0,0,0,0,0,0,0,0.00,0.00,0.00,
13.922,114.32090400606792,118.37646014168945,29.0,-15.0,-3.0,0,0,0,0,0,0,0,0.00,0.00,0.00,
13.936,114.77009040060679,119.22564601416893,47.0,-12.0,-15.0,0,0,0,0,0,0,0,0.00,0.49,0.00,
13.949,115.43600904006068,118.0145646014169,49.0,4.0,-10.0,0,0,0,0,0,0,0,0.00,1.86,0.00,
13.964,115.06160090400607,114.41045646014169,36.0,11.0,-6.0,0,0,0,0,0,0,0,0.00,3.43,0.00,
13.977,115.31216009040061,109.36104564601416,29.0,-3.0,-1.0,0,0,0,0,0,0,0,0.00,5.40,0.00,
13.991,115.21121600904007,103.6991045646014,14.0,5.0,6.0,0,0,0,0,0,0,0,0.00,10.20,0.00,
14.005,115.82212160090401,99.27191045646013,18.0,1.0,-13.0,0,0,0,0,0,0,0,0.00,13.64,0.00,
14.018,113.6152121600904,97.83019104564602,33.0,-19.0,-12.0,0,0,0,0,0,0,0,0.00,17.66,0.00,
14.032,111.36052121600903,96.58801910456461,63.0,5.0,-26.0,0,0,0,0,0,0,0,0.00,23.54,0.00,
14.046,109.1460521216009,96.40980191045647,68.0,26.0,-33.0,0,0,0,0,0,0,0,0.00,33.75,0.00,
14.059,108.26760521216009,97.17498019104565,61.0,20.0,-25.0,0,0,0,0,0,0,0,0.00,64.26,0.00,
14.073,108.86376052121601,97.98949801910457,54.0,30.0,-5.0,0,0,0,0,0,0,0,0.00,75.64,0.00,
14.087,110.27337605212162,99.15994980191046,46.0,12.0,-1.0,0,0,0,0,0,0,0,0.00,82.31,0.00,
14.101,110.59433760521215,99.70899498019104,39.0,2.0,9.0,0,0,0,0,0,0,0,0.00,85.45,0.00,
14.114,110.93243376052122,99.4668994980191,34.0,-1.0,17.0,0,0,0,0,0,0,0,0.00,87.41,0.29,
14.128,111.23624337605212,98.46168994980191,26.0,2.0,9.0,0,0,0,0,0,0,0,0.00,89.47,0.69,
14.141,111.32062433760521,97.3981689949802,26.0,4.0,4.0,0,0,0,0,0,0,0,0.00,92.70,1.08,
14.155,111.85106243376052,96.68881689949802,29.0,8.0,-2.0,0,0,0,0,1,0,0,0.00,96.04,1.77,
14.169,112.49810624337606,97.0138816899498,29.0,7.0,1.0,0,0,0,0,1,0,0,0.00,102.12,2.16,
14.183,111.2038106243376,96.94738816899498,26.0,3.0,5.0,0,0,0,0,1,0,0,0.00,106.05,2.94,
14.196,110.12938106243377,97.1477388168995,20.0,-4.0,4.0,0,0,0,0,1,0,0,0.00,111.05,3.92,
14.211,109.50893810624336,97.32977388168995,14.0,12.0,6.0,1,0,0,0,2,0,0,0.20,116.74,6.47,
14.224,109.03289381062434,97.22197738816898,10.0,13.0,2.0,1,0,0,0,2,0,1,1.47,127.63,7.85,
14.238,109.29128938106243,97.14819773881689,11.0,20.0,1.0,1,0,0,0,2,0,1,2.75,132.44,9.42,
14.253,110.40612893810625,97.01481977388168,10.0,18.0,-3.0,1,0,0,1,3,0,2,4.22,136.56,10.69,
14.266,111.98461289381062,97.46048197738817,10.0,17.0,-9.0,1,0,0,1,3,0,3,6.77,139.79,12.46,
14.28,113.03346128938107,97.64904819773882,8.0,4.0,-9.0,1,0,0,1,4,0,3,7.46,144.31,13.44,
14.295,113.3543461289381,97.92890481977388,6.0,-8.0,-11.0,1,0,0,1,4,0,4,7.85,147.64,14.81,
14.309,113.2334346128938,97.86689048197738,6.0,-18.0,-13.0,2,0,0,1,4,0,5,7.85,151.86,16.78,
14.323,112.79834346128939,97.85168904819773,5.0,-17.0,-11.0,2,0,0,1,4,0,5,7.26,156.18,22.27,
14.338,112.70983434612894,97.96716890481977,6.0,-20.0,-8.0,2,0,0,1,4,0,6,6.97,164.61,25.31,
14.352,112.16098343461289,97.93371689048199,4.0,-10.0,-9.0,2,0,0,1,4,0,6,6.57,168.34,28.25,
14.365,111.49409834346129,98.14637168904821,2.0,-7.0,-4.0,2,0,0,1,5,0,7,6.38,171.58,34.04,
14.38,110.84240983434613,98.42863716890481,0.0,-2.0,-2.0,2,0,0,1,5,0,7,6.08,177.76,37.28,
14.394,110.6242409834346,98.45686371689047,-1.0,0.0,-1.0,2,0,0,1,5,0,7,6.18,180.50,41.50,
14.408,110.44942409834347,98.28868637168904,0.0,3.0,-1.0,2,0,0,1,5,0,7,6.67,182.07,46.11,
14.423,110.80094240983435,98.0468686371689,0.0,1.0,-1.0,2,0,0,1,5,0,7,7.26,181.78,52.09,
14.436,111.27709424098343,98.13968686371689,-2.0,-5.0,-5.0,2,0,0,1,5,0,8,8.63,175.80,53.56,
14.45,111.40570942409835,98.09496868637169,-3.0,-5.0,-5.0,2,0,0,1,5,0,8,8.93,171.48,55.33,
14.465,111.14857094240985,98.09949686863716,-4.0,-7.0,-6.0,2,0,0,1,5,0,8,8.44,167.65,60.43,
14.479,110.90685709424099,98.15394968686371,-3.0,-5.0,-4.0,2,0,0,1,5,0,8,7.85,164.71,62.88,
14.493,110.7476857094241,98.21339496868637,-4.0,-2.0,-4.0,2,0,0,1,5,0,8,6.77,159.41,64.65,
14.508,110.62376857094242,98.21033949686863,-5.0,0.0,-3.0,2,0,0,1,5,0,8,6.28,157.06,65.73,
14.521,114.09437685709425,100.79303394968686,-8.0,-55.0,139.0,2,0,0,1,5,0,8,5.89,155.49,66.32,
14.536,114.06343768570943,100.85330339496869,-7.0,-6.0,-20.0,2,0,0,1,5,0,8,5.49,156.18,65.63,
14.551,113.94334376857094,100.49933033949686,-6.0,9.0,0.0,2,0,0,1,5,0,8,4.81,158.53,64.16,
14.564,113.72433437685709,102.9119330339497,-3.0,15.0,1.0,2,0,0,1,5,0,8,4.71,161.77,59.25,
14.578,113.2974334376857,101.94719330339497,-1.0,0.0,1.0,2,0,0,1,5,0,8,4.81,164.81,56.90,
14.593,113.04774334376857,101.2747193303395,-1.0,2.0,0.0,2,0,0,1,5,0,8,5.10,168.24,55.33,
14.607,112.74377433437685,100.67647193303395,-2.0,0.0,-4.0,2,0,0,1,5,0,8,6.18,168.73,54.74,
14.621,112.59637743343768,99.98664719330338,-3.0,0.0,-2.0,2,0,0,1,5,0,8,6.57,169.12,54.45,
14.636,111.80763774334376,99.75566471933034,-4.0,8.0,-5.0,2,0,0,1,5,0,8,6.97,170.69,54.05,
14.649,112.89876377433438,100.10156647193304,-3.0,7.0,-9.0,2,0,0,1,5,0,8,7.36,171.48,53.56,
14.663,109.39887637743344,98.9841566471933,-11.0,50.0,-19.0,2,0,0,1,5,0,8,8.14,171.38,53.07,
14.678,109.21088763774334,98.52141566471933,-2.0,6.0,0.0,2,0,0,1,5,0,8,8.73,170.69,51.01,
14.692,109.03008876377434,98.50214156647193,-5.0,18.0,-1.0,2,0,0,2,5,0,8,9.71,167.95,47.68,
14.706,109.45300887637742,98.3472141566472,-3.0,23.0,1.0,2,0,0,2,5,0,8,11.48,166.18,41.69,
14.721,110.20630088763775,98.13372141566472,-3.0,22.0,0.0,2,0,0,2,5,0,7,16.87,163.73,28.65,
14.735,110.97463008876377,97.98637214156648,-1.0,20.0,0.0,2,0,0,2,4,0,7,19.72,160.10,25.21,
14.749,111.87946300887639,97.99863721415664,-1.0,16.0,1.0,2,0,0,3,4,1,6,22.56,150.58,23.15,
14.763,112.46494630088763,97.91886372141566,-2.0,9.0,0.0,2,0,0,3,4,1,6,25.51,146.07,22.17,
14.777,112.71249463008876,97.74888637214157,-2.0,6.0,-2.0,2,0,0,3,4,1,5,31.49,142.25,21.48,
14.791,112.92624946300887,97.71388863721415,-1.0,3.0,-1.0,2,0,0,3,4,1,5,34.24,137.14,21.58,
14.806,113.0286249463009,97.85438886372143,0.0,2.0,0.0,2,0,0,3,4,1,5,36.59,135.48,22.07,
14.82,113.1828624946301,97.85043888637213,0.0,1.0,1.0,2,0,0,3,4,1,5,38.75,134.59,22.56,
14.833,113.270286249463,97.7240438886372,0.0,0.0,0.0,2,0,0,3,4,1,5,42.48,134.10,22.76,
14.848,113.3780286249463,97.69340438886373,0.0,0.0,0.0,2,0,0,4,4,1,5,43.85,133.02,22.96,
14.862,113.46080286249463,97.70834043888637,0.0,0.0,-1.0,2,0,0,4,4,1,5,44.93,131.94,23.15,
14.876,113.48708028624945,97.91683404388863,-1.0,-1.0,-1.0,2,0,0,4,4,1,5,45.91,129.98,23.54,
14.891,113.66970802862494,98.06368340438887,-3.0,-3.0,-1.0,2,0,0,4,4,1,4,47.09,124.88,23.74,
14.905,113.4989708028625,97.95236834043888,-3.0,-3.0,0.0,1,0,0,4,4,1,4,47.28,123.02,23.94,
14.919,113.55389708028625,97.7252368340439,-2.0,-2.0,0.0,1,0,0,4,4,1,4,47.38,122.13,24.13,
14.932,113.71238970802862,97.59452368340439,0.0,-3.0,1.0,1,0,0,4,4,2,4,47.58,122.04,24.33,
14.947,113.88123897080287,97.55445236834043,1.0,-6.0,1.0,2,0,0,4,4,2,4,47.28,122.23,24.62,
14.961,113.88912389708028,97.52344523683405,3.0,-9.0,2.0,2,0,0,4,4,2,4,47.09,122.33,24.82,
14.976,113.65591238970802,97.6913445236834,5.0,-12.0,5.0,2,0,0,3,4,2,4,46.70,122.33,25.21,
14.99,113.0475912389708,97.72613445236834,5.0,-9.0,5.0,2,0,0,3,4,2,4,46.40,122.43,25.41,
15.003,112.78875912389708,97.82861344523684,6.0,-8.0,6.0,2,0,0,4,4,2,4,45.81,122.82,26.00,
15.017,112.69987591238971,97.94686134452368,6.0,-8.0,10.0,2,0,0,4,4,2,4,45.52,122.82,26.49,
15.032,112.64598759123898,97.99468613445237,6.0,-11.0,9.0,2,0,0,4,4,2,4,45.03,122.23,27.66,
15.046,112.3165987591239,97.89146861344523,4.0,-8.0,5.0,2,0,0,4,4,2,4,44.44,120.47,28.15,
15.06,112.23865987591239,97.95314686134452,3.0,-7.0,4.0,2,0,0,3,4,2,4,42.48,119.09,28.65,
15.075,112.27586598759125,98.07631468613445,3.0,-8.0,3.0,2,0,0,3,4,2,4,41.40,117.23,28.94,
15.088,112.22558659875912,98.16963146861346,1.0,-8.0,2.0,2,0,0,3,4,2,4,40.02,114.88,29.23,
15.102,112.14855865987592,98.30496314686134,0.0,-8.0,2.0,2,0,0,3,4,2,4,38.36,110.46,29.23,
15.117,112.03285586598759,98.34549631468613,0.0,-8.0,1.0,2,0,0,3,4,2,3,35.12,109.09,29.23,
15.131,112.00328558659875,98.29554963146862,0.0,-8.0,1.0,2,0,0,3,4,2,3,33.65,108.11,29.04,
15.145,112.01832855865987,98.28155496314686,2.0,-9.0,1.0,2,0,0,3,4,2,3,32.27,107.22,29.04,
15.159,112.02883285586599,98.29815549631468,3.0,-11.0,2.0,2,0,0,3,4,2,3,31.00,104.77,29.14,
15.173,111.96688328558659,98.27281554963146,3.0,-13.0,0.0,2,0,0,3,4,2,3,28.55,103.30,29.33,
15.187,111.89768832855866,98.31528155496315,5.0,-15.0,2.0,2,0,0,2,4,2,3,27.37,101.83,30.02,
15.202,111.76476883285586,98.41852815549632,6.0,-17.0,3.0,2,0,0,2,4,2,3,26.19,98.69,30.41,
15.216,111.58947688328558,98.55485281554962,6.0,-19.0,3.0,2,0,0,2,4,2,3,24.72,96.92,30.71,
15.23,111.17594768832855,98.68548528155496,6.0,-19.0,3.0,2,0,0,2,4,2,3,21.68,95.06,31.10,
15.245,110.66659476883285,98.6805485281555,6.0,-18.0,2.0,2,0,0,2,4,2,3,20.21,93.29,31.29,
15.258,110.12065947688329,98.73405485281555,5.0,-16.0,2.0,2,0,0,2,4,2,3,18.74,89.47,31.29,
15.272,109.64306594768833,98.84740548528156,4.0,-13.0,2.0,2,0,0,2,4,2,3,17.46,87.21,31.29,
15.287,109.40630659476882,99.11974054852817,3.0,-12.0,0.0,2,0,0,2,4,2,3,15.11,84.56,31.29,
15.301,109.1756306594769,99.20097405485282,2.0,-10.0,0.0,2,0,0,2,4,2,3,13.93,1129.62,31.20,
15.315,108.9635630659477,99.1550974054853,1.0,-9.0,-1.0,2,0,0,2,4,2,3,12.95,0.00,31.20,
15.329,108.84335630659477,99.20450974054853,1.0,-8.0,-2.0,2,0,0,2,4,2,3,12.07,74.46,31.10,
15.343,108.71433563065948,99.30845097405484,1.0,-8.0,-2.0,2,0,0,2,4,2,3,10.50,72.10,31.00,
15.357,108.59343356306594,99.40884509740549,1.0,-7.0,-3.0,1,0,0,2,4,2,3,9.81,67.89,30.90,
15.372,108.50034335630659,99.44588450974055,0.0,-6.0,-3.0,1,0,0,2,4,2,3,9.22,65.83,30.90,
15.385,108.38303433563065,99.45858845097405,0.0,-5.0,-3.0,1,0,0,2,4,2,3,8.73,63.67,30.80,
15.399,108.38930343356307,99.53185884509742,0.0,-3.0,-3.0,1,0,0,2,4,2,3,7.65,61.41,30.80,
15.414,108.33593034335631,99.61118588450974,0.0,-3.0,-4.0,1,0,0,2,4,2,3,7.06,57.19,30.71,
15.428,108.24959303433562,99.62811858845097,0.0,-2.0,-4.0,1,0,0,2,4,3,3,6.67,55.23,30.71,
15.441,108.32195930343356,99.72881185884509,0.0,-3.0,-3.0,1,0,0,2,4,3,3,6.28,53.37,30.71,
15.456,108.35619593034335,99.72088118588451,0.0,-4.0,-3.0,1,0,0,2,4,3,3,5.89,51.50,30.90,
15.47,108.30561959303434,99.82808811858845,0.0,-4.0,-3.0,1,0,0,2,4,3,3,5.20,47.68,30.80,
15.483,108.23756195930343,99.86580881185886,0.0,-2.0,-3.0,1,0,0,2,4,3,3,4.91,46.01,30.80,
15.498,108.13175619593035,99.95058088118589,0.0,-3.0,-2.0,1,0,0,2,4,3,3,4.71,44.64,30.71,
15.512,107.99517561959303,100.05805808811859,0.0,-3.0,-1.0,1,0,0,2,4,3,3,4.51,42.08,30.71,
15.526,107.99051756195931,100.07780580881186,0.0,-2.0,-1.0,1,0,0,2,4,3,3,4.22,41.10,30.71,
15.54,107.90005175619592,100.1157805808812,0.0,-2.0,-1.0,1,0,0,2,4,3,3,4.12,40.22,30.80,
15.554,107.82800517561958,100.14657805808812,0.0,0.0,-1.0,1,0,0,2,4,3,3,4.12,39.34,31.10,
15.568,107.89280051756197,100.18565780580882,0.0,0.0,-2.0,1,0,0,2,4,3,3,4.02,37.47,31.20,
15.583,107.9442800517562,100.2255657805809,0.0,-1.0,-2.0,1,0,0,2,4,4,4,4.02,36.49,31.49,
15.596,107.95842800517562,100.2295565780581,0.0,-1.0,-2.0,1,0,0,2,4,4,4,4.12,35.71,31.78,
15.61,107.97784280051756,100.27495565780582,0.0,-1.0,-2.0,1,0,0,2,4,4,4,4.02,34.92,32.08,
15.625,108.01578428005176,100.27049556578058,0.0,-2.0,-2.0,1,0,0,2,4,4,4,3.92,33.65,32.37,
15.639,107.93857842800519,100.28804955657807,0.0,-2.0,-2.0,1,0,0,2,4,4,4,3.92,33.16,32.57,
15.653,107.84085784280052,100.3258049556578,0.0,-1.0,-3.0,1,0,0,2,4,4,4,3.83,32.57,32.77,
15.667,107.75008578428005,100.3655804955658,0.0,-1.0,-3.0,1,0,0,2,4,4,4,3.73,31.88,32.96,
15.681,107.714008578428,100.45055804955658,-1.0,0.0,-2.0,1,0,0,2,4,4,4,3.63,30.21,32.86,
15.695,107.6924008578428,100.51305580495566,-1.0,0.0,-2.0,1,0,0,2,4,4,4,3.53,29.53,32.86,
15.71,107.87924008578429,100.59130558049556,-2.0,3.0,-3.0,1,0,0,2,4,4,4,3.43,28.84,32.77,
15.724,108.06892400857843,100.61713055804955,-2.0,2.0,-3.0,1,0,0,2,4,4,4,3.34,27.66,32.57,
15.737,108.18689240085786,100.65571305580495,-1.0,1.0,-3.0,1,0,0,2,4,4,4,3.24,27.17,32.57,
15.752,108.1716892400858,100.70457130558049,-1.0,0.0,-2.0,1,0,0,2,4,4,4,3.24,26.78,32.67,
15.766,108.1971689240086,100.82645713055805,-2.0,0.0,-1.0,1,0,0,2,4,4,4,3.34,26.49,32.77,
15.78,108.15471689240087,100.8566457130558,-1.0,0.0,0.0,1,0,0,2,4,4,4,3.24,26.29,32.86,
15.795,108.1954716892401,100.94966457130556,-1.0,0.0,0.0,1,0,0,2,4,4,4,3.43,26.39,32.96,
15.808,108.18154716892401,100.90496645713056,-1.0,-1.0,0.0,1,0,0,2,4,4,4,3.53,26.49,33.16,
15.822,108.0901547168924,100.88249664571305,-1.0,-1.0,0.0,1,0,0,3,4,4,4,3.63,26.68,33.26,
15.837,108.01801547168924,100.8172496645713,-1.0,-1.0,-1.0,1,0,0,3,4,4,4,3.63,26.88,33.35,
15.851,107.94780154716892,100.81072496645713,-1.0,0.0,-1.0,1,0,0,3,4,4,4,3.63,26.88,33.45,
15.865,107.92278015471689,100.88207249664572,-2.0,0.0,-2.0,1,0,0,3,4,4,4,3.83,26.68,33.84,
15.879,107.93827801547168,100.83520724966456,-2.0,0.0,-2.0,1,0,0,3,4,4,4,3.92,26.39,33.94,
15.893,107.93082780154718,100.84852072496645,-3.0,0.0,-2.0,1,0,0,3,4,4,4,4.02,26.39,34.04,
15.907,107.85808278015472,100.81385207249664,-2.0,0.0,-2.0,1,0,0,3,4,4,4,4.12,26.29,34.14,
15.922,107.87780827801546,100.76538520724968,-3.0,0.0,-2.0,1,0,0,3,4,4,4,4.41,26.49,34.43,
15.935,107.96978082780154,100.78753852072498,-3.0,0.0,-1.0,1,0,0,3,4,4,4,4.61,27.08,34.43,
15.949,108.00597808278016,100.7987538520725,-3.0,0.0,-1.0,1,0,0,3,4,4,4,4.71,27.37,34.43,
15.964,108.01859780827802,100.79087538520726,-3.0,0.0,-1.0,1,0,0,3,4,4,4,4.81,27.76,34.63,
15.978,107.9838597808278,100.78108753852072,-2.0,0.0,-1.0,1,0,0,3,4,4,4,5.00,28.15,34.73,
15.992,108.04338597808278,100.78010875385206,-2.0,-1.0,-1.0,1,0,0,3,4,4,4,5.00,29.14,34.73,
16.007,108.04933859780829,100.7260108753852,-2.0,-1.0,-1.0,1,0,0,3,4,4,4,5.00,29.43,34.73,
16.02,108.03193385978084,100.68460108753852,-2.0,-1.0,-1.0,1,0,0,3,4,4,4,5.00,29.72,34.92,
16.034,108.03019338597808,100.65346010875386,-3.0,-1.0,-1.0,1,0,0,3,4,4,4,5.00,30.41,34.92,
16.049,108.05701933859781,100.6683460108754,-3.0,-1.0,0.0,1,0,0,3,4,4,4,4.81,30.90,34.92,
16.063,108.00570193385978,100.66083460108753,-3.0,-1.0,0.0,2,0,0,3,4,4,4,4.71,31.59,34.53,
16.077,107.91957019338598,100.57908346010873,-3.0,0.0,0.0,2,0,0,3,4,4,4,4.61,32.27,34.43,
16.092,107.8659570193386,100.60690834601088,-3.0,0.0,0.0,2,0,0,3,4,4,4,4.41,33.84,34.24,
16.105,107.86959570193387,100.5376908346011,-3.0,-1.0,0.0,2,0,0,3,4,4,4,4.22,34.53,34.14,
16.119,107.8159595701934,100.49476908346011,-3.0,-1.0,-1.0,2,0,0,3,4,4,4,4.12,35.12,33.75,
16.134,107.80159595701933,100.50847690834601,-3.0,-1.0,0.0,2,0,0,3,4,4,4,4.02,36.10,33.75,
16.148,107.76415959570194,100.5728476908346,-3.0,-1.0,-1.0,2,0,0,3,4,4,4,3.83,36.40,33.45,
16.162,107.7604159595702,100.54328476908347,-3.0,-1.0,-1.0,2,0,0,3,4,4,4,3.73,36.69,33.35,
16.177,107.742041595957,100.50432847690834,-3.0,-1.0,-1.0,2,0,0,3,4,4,4,3.63,36.98,33.06,
16.19,107.7312041595957,100.48243284769083,-2.0,0.0,-1.0,2,0,0,3,4,4,4,3.53,37.67,32.86,
16.204,107.73012041595958,100.48024328476909,-3.0,0.0,-1.0,2,0,0,3,4,4,4,3.34,37.77,32.77,
16.219,107.72101204159597,100.47102432847691,-2.0,0.0,-1.0,2,0,0,3,4,4,4,3.24,37.87,32.27,
16.233,107.7741012041596,100.40710243284771,-2.0,0.0,-1.0,2,0,0,3,4,4,4,3.14,37.96,32.08,
16.247,107.76141012041597,100.45471024328477,-2.0,0.0,-1.0,2,0,0,3,4,4,4,3.04,37.87,31.78,
16.261,107.7241410120416,100.45947102432848,-2.0,0.0,-1.0,2,0,0,3,4,4,4,2.75,37.67,31.69,
16.275,107.65741410120417,100.52294710243285,-2.0,0.0,-1.0,2,0,0,3,4,4,4,2.65,37.57,31.49,
16.289,107.57874141012041,100.49329471024329,-2.0,0.0,-1.0,2,0,0,3,4,4,4,2.45,37.28,31.20,
16.304,107.57987414101204,100.40932947102434,-3.0,-1.0,-1.0,2,0,0,3,4,4,4,2.45,37.18,31.00,
16.318,107.5979874141012,100.42793294710245,-2.0,0.0,-1.0,2,0,0,3,4,4,4,2.26,37.18,30.90,
16.331,107.65379874141013,100.43879329471025,-2.0,-1.0,0.0,2,0,0,3,4,4,4,2.16,37.28,30.80,
16.346,107.569379874141,100.29587932947103,-2.0,0.0,-1.0,2,0,0,3,4,4,4,2.16,37.47,30.80,
16.36,107.50693798741409,100.2815879329471,-1.0,0.0,-1.0,2,0,0,3,4,4,4,2.06,37.47,30.80,
16.374,107.50969379874141,100.28015879329472,-1.0,0.0,-1.0,2,0,0,3,4,4,4,1.86,37.47,30.80,
16.389,107.45596937987413,100.28901587932948,-1.0,0.0,-1.0,1,0,0,3,4,4,4,1.86,37.18,30.90,
16.402,107.48659693798741,100.34390158793295,-1.0,0.0,-1.0,1,0,0,3,4,4,4,1.86,36.40,30.80,
16.416,107.52565969379874,100.40339015879329,-2.0,0.0,-1.0,1,0,0,3,4,4,4,1.86,36.00,30.80,
16.431,107.61956596937988,100.43633901587933,-2.0,0.0,-1.0,2,0,0,3,4,4,4,1.67,35.81,30.80,
16.445,107.61995659693798,100.43963390158794,-1.0,0.0,-1.0,2,0,0,3,4,4,4,1.77,35.51,31.00,
16.459,107.6109956596938,100.4489633901588,-1.0,0.0,-1.0,2,0,0,3,4,4,4,1.67,35.41,31.10,
16.473,107.64609956596938,100.46789633901588,-1.0,0.0,-1.0,2,0,0,3,4,4,4,1.77,35.22,31.20,
16.487,107.69460995659693,100.53278963390159,-1.0,0.0,-2.0,2,0,0,3,4,4,4,2.06,35.02,31.49,
16.501,107.65446099565969,100.53027896339016,-1.0,0.0,-2.0,1,0,0,3,4,4,4,2.16,34.24,31.69,
16.516,107.68644609956597,100.57502789633902,-1.0,0.0,-2.0,1,0,0,3,4,4,4,2.26,33.84,31.88,
16.53,107.6266446099566,100.5615027896339,-1.0,-1.0,-2.0,1,0,0,3,4,4,4,2.26,33.35,32.08,
16.544,107.61166446099566,100.62315027896338,-1.0,0.0,-1.0,1,0,0,3,4,4,4,2.16,32.77,32.18,
16.558,107.61916644609957,100.69231502789634,-1.0,0.0,-1.0,1,0,0,3,4,4,5,2.16,32.18,32.37,
16.572,107.63791664460996,100.72623150278964,-1.0,0.0,-1.0,1,0,0,3,4,4,5,2.16,31.88,32.47,
16.586,107.621791664461,100.70262315027897,-1.0,0.0,-1.0,1,0,0,3,4,4,5,2.06,31.49,32.57,
16.601,107.62917916644611,100.6822623150279,-1.0,0.0,-1.0,1,0,0,3,4,4,5,2.16,31.00,32.86,
16.615,107.66591791664462,100.6442262315028,-1.0,0.0,-1.0,1,0,0,3,4,4,5,2.16,30.71,33.06,
16.628,107.67859179166446,100.61342262315029,-1.0,0.0,-1.0,1,0,0,3,4,4,5,2.16,30.61,33.06,
16.643,107.68885917916646,100.56534226231503,-1.0,0.0,-1.0,1,0,0,3,4,4,5,2.26,30.21,33.35,
16.657,107.65388591791665,100.6235342262315,-1.0,0.0,-1.0,1,0,0,3,4,4,5,2.35,29.72,33.45,
16.671,107.63238859179167,100.64735342262315,-1.0,0.0,-1.0,1,0,0,3,4,4,5,2.16,29.53,33.55,
16.686,107.63923885917917,100.69473534226232,-1.0,-1.0,-1.0,1,0,0,3,4,4,5,2.06,29.43,33.65,
16.699,107.63092388591792,100.71747353422623,-1.0,-1.0,-1.0,1,0,0,3,4,4,5,2.16,29.33,33.75,
16.713,107.57609238859179,100.71974735342262,-1.0,-1.0,-1.0,1,0,0,3,4,4,5,966.09,29.33,33.84,
16.728,107.56160923885918,100.71097473534226,-1.0,-1.0,-1.0,1,0,0,3,4,4,5,81.52,29.23,33.94,
16.742,107.51516092388592,100.69209747353422,-1.0,-1.0,-1.0,1,0,0,3,4,4,5,2.16,29.14,34.14,
16.756,107.49251609238858,100.75320974735342,-1.0,-1.0,-1.0,1,0,0,3,4,4,5,2.16,29.04,34.24,
16.771,107.40925160923886,100.79532097473535,-1.0,-1.0,0.0,1,0,0,3,4,4,5,2.26,28.94,34.24,
16.785,107.37392516092389,100.83553209747353,-1.0,-1.0,0.0,1,0,0,3,4,4,5,2.26,28.74,34.53,
16.799,107.38839251609238,100.84855320974735,-1.0,0.0,-1.0,1,0,0,3,4,4,5,2.35,28.84,34.63,
16.814,107.43483925160923,100.84985532097474,-1.0,0.0,-1.0,1,0,0,3,4,4,5,2.35,28.65,34.73,
16.827,107.53848392516092,100.90398553209748,-2.0,-1.0,-1.0,1,0,0,3,4,4,5,2.26,28.55,34.73,
16.841,107.51284839251609,100.85539855320974,-2.0,-1.0,-1.0,1,0,0,3,4,4,5,2.35,28.45,34.92,
16.856,107.51928483925161,100.81453985532097,-2.0,0.0,-2.0,1,0,0,3,4,4,5,2.35,28.45,34.83,
16.87,107.51992848392516,100.8734539855321,-2.0,0.0,-2.0,1,0,0,3,4,4,5,2.26,28.35,34.73,
16.884,107.54699284839252,100.89734539855321,-2.0,0.0,-1.0,1,0,0,3,4,4,5,2.16,28.15,34.63,
16.899,107.54969928483925,100.97173453985532,-2.0,0.0,-1.0,1,0,0,3,4,4,5,2.16,28.15,34.73,
16.912,107.60396992848392,100.97017345398554,-2.0,0.0,-1.0,1,0,0,3,4,4,5,2.06,28.06,34.53,
16.926,107.61839699284839,100.95201734539856,-2.0,0.0,-1.0,1,0,0,3,4,4,5,2.06,27.96,34.43,
16.941,107.62883969928484,100.93220173453986,-2.0,0.0,-1.0,1,0,0,3,4,4,5,1.96,27.86,34.34,
16.955,107.58488396992848,100.93022017345399,-2.0,0.0,-1.0,1,0,0,3,4,4,5,2.06,27.86,34.24,
16.968,107.56248839699285,100.9210220173454,-2.0,0.0,-1.0,1,0,0,3,4,4,5,1.96,28.06,34.14,
16.983,107.50624883969928,100.89310220173454,-2.0,0.0,-1.0,1,0,0,3,4,4,5,1.86,27.96,34.04,
16.997,107.48262488396992,100.85431022017346,-2.0,0.0,-1.0,1,0,0,3,4,4,5,1.77,28.15,33.75,
17.011,107.44426248839699,100.83243102201735,-2.0,0.0,-1.0,1,0,0,3,4,4,5,1.77,28.25,33.65,
17.026,107.4674262488397,100.82124310220173,-2.0,0.0,-1.0,1,0,0,3,4,4,5,1.67,28.25,33.55,
17.04,107.49674262488396,100.78412431022016,-2.0,0.0,-1.0,1,0,0,3,4,4,5,1.57,28.25,33.45,
17.053,107.5176742624884,100.81641243102202,-2.0,0.0,-1.0,1,0,0,3,4,4,5,1.57,28.25,33.16,
17.068,107.46576742624883,100.7836412431022,-2.0,0.0,-1.0,1,0,0,3,4,4,5,1.67,28.35,33.16,
17.082,107.47857674262488,100.77136412431021,-2.0,0.0,-1.0,1,0,0,3,4,4,5,1.57,28.45,33.06,
17.096,107.48885767426249,100.77013641243101,-2.0,0.0,-1.0,1,0,0,3,4,4,5,1.67,28.55,33.06,
17.111,107.52588576742625,100.7790136412431,-2.0,0.0,-1.0,1,0,0,3,4,4,5,1.57,28.65,33.06,
17.124,107.52958857674263,100.7979013641243,-2.0,0.0,-1.0,1,0,0,3,4,4,5,1.57,28.65,32.96,
17.138,107.52095885767426,100.80879013641243,-2.0,0.0,-1.0,1,0,0,3,4,4,5,1.67,28.74,32.86,
17.153,107.51109588576742,100.80087901364124,-2.0,0.0,-1.0,1,0,0,3,4,4,5,1.57,28.65,32.86,
17.167,107.55510958857674,100.81808790136412,-2.0,0.0,-1.0,1,0,0,3,4,4,5,1.47,28.65,32.86,
17.18,107.54151095885767,100.79280879013642,-2.0,0.0,-1.0,1,0,0,3,4,4,5,1.37,28.65,32.77,
17.195,107.51315109588576,100.83528087901364,-2.0,0.0,-1.0,1,0,0,3,4,4,5,1.28,28.55,32.67,
17.209,107.51931510958858,100.85752808790136,-2.0,0.0,0.0,1,0,0,3,4,4,5,1.28,28.55,32.67,
17.223,107.50193151095885,100.86875280879013,-2.0,0.0,0.0,1,0,0,3,4,4,5,1.18,28.35,32.57,
17.238,107.53619315109589,100.85187528087901,-2.0,0.0,0.0,1,0,0,3,4,4,5,1.08,28.35,32.57,
17.251,107.50361931510959,100.8591875280879,-2.0,0.0,0.0,1,0,0,3,4,4,5,1.08,28.35,32.67,
17.265,107.49136193151095,100.86891875280878,-2.0,0.0,0.0,1,0,0,3,4,4,5,1.18,28.15,32.67,
17.28,107.45413619315109,100.83389187528087,-2.0,0.0,0.0,1,0,0,3,4,4,5,1.08,28.15,32.67,
17.293,107.3964136193151,100.80338918752808,-1.0,0.0,-1.0,1,0,0,3,4,4,5,1.08,28.25,32.67,
17.307,107.4176413619315,100.8003389187528,-2.0,0.0,-1.0,1,0,0,3,4,4,5,1.08,28.35,32.77,
17.321,107.41976413619315,100.82703389187527,-1.0,0.0,-1.0,1,0,0,3,4,4,5,1.08,28.35,32.77,
17.336,107.43797641361931,100.88370338918753,-2.0,0.0,0.0,1,0,0,3,4,4,5,1.18,28.15,32.86,
17.349,107.43079764136193,100.88037033891875,-2.0,0.0,0.0,1,0,0,3,4,4,5,1.18,28.15,32.77,
17.363,107.4300797641362,100.88003703389188,-2.0,0.0,0.0,1,0,0,3,4,4,5,1.18,28.06,32.96,
17.378,107.45700797641362,100.88900370338919,-2.0,0.0,0.0,1,0,0,3,4,4,5,1.37,28.15,32.86,
17.392,107.50470079764136,100.89890037033892,-2.0,0.0,0.0,1,0,0,3,4,4,5,1.37,28.25,32.86,
17.405,107.55447007976413,100.8908900370339,-2.0,0.0,-1.0,1,0,0,3,4,4,5,1.47,28.15,32.86,
17.42,107.59544700797642,100.8540890037034,-2.0,0.0,-1.0,1,0,0,3,4,4,5,1.47,28.15,32.96,
17.434,107.63554470079764,100.89540890037034,-2.0,0.0,-1.0,1,0,0,3,4,4,5,1.47,28.15,32.86,
17.448,107.57655447007977,100.88154089003703,-2.0,0.0,-1.0,1,0,0,3,4,4,5,1.47,28.06,32.77,
17.463,107.59765544700798,100.8441540890037,-2.0,0.0,-1.0,1,0,0,3,4,4,5,1.57,28.06,32.96,
17.476,107.5997655447008,100.79541540890038,-1.0,0.0,-1.0,1,0,0,3,4,4,5,1.57,27.96,33.06,
17.49,107.61797655447008,100.82654154089003,-2.0,0.0,-1.0,1,0,0,3,4,4,5,1.47,27.96,33.06,
17.505,107.61079765544702,100.838654154089,-1.0,0.0,-1.0,1,0,0,3,4,4,5,1.47,27.76,33.16,
17.519,107.6280797655447,100.8488654154089,-2.0,0.0,-1.0,1,0,0,3,4,4,5,1.47,27.66,33.16,
17.533,107.66580797655448,100.78688654154088,-1.0,0.0,-1.0,1,0,0,3,4,4,5,1.47,27.37,33.16,
17.547,107.66958079765546,100.79868865415409,-1.0,0.0,-1.0,1,0,0,3,4,4,5,1.67,27.27,33.26,
17.561,107.66095807976555,100.8268688654154,-1.0,0.0,-1.0,1,0,0,3,4,4,5,1.67,27.37,33.45,
17.575,107.54309580797656,100.84768688654154,-1.0,0.0,-1.0,1,0,0,3,4,4,5,1.67,27.27,33.65,
17.59,107.52230958079765,100.83176868865415,-1.0,0.0,-1.0,1,0,0,3,4,4,5,1.77,26.88,33.75,
17.603,107.52923095807976,100.81217686886541,-1.0,0.0,-2.0,1,0,0,3,4,4,5,1.67,26.49,33.84,
17.617,107.46692309580797,100.81921768688653,-1.0,0.0,-2.0,1,0,0,3,4,4,5,1.77,26.19,34.04,
17.632,107.5056923095808,100.90992176868866,-1.0,0.0,-1.0,1,0,0,3,4,4,5,1.67,25.80,34.14,
17.646,107.56356923095808,100.99999217686887,-1.0,0.0,-2.0,1,0,0,3,4,4,5,1.57,25.21,34.34,
17.66,107.58735692309581,101.03599921768689,-1.0,0.0,-1.0,1,0,0,3,4,4,5,1.77,24.92,34.43,
17.674,107.60773569230957,101.0035999217687,-1.0,0.0,-1.0,1,0,0,3,4,4,5,1.67,24.72,34.63,
17.688,107.58277356923095,101.02735999217687,-2.0,0.0,-1.0,1,0,0,3,4,4,5,1.77,24.62,34.53,
17.702,107.55327735692309,101.06573599921768,-1.0,0.0,-1.0,1,0,0,3,4,4,5,1.86,24.62,34.63,
17.717,107.5053277356923,101.07857359992175,-1.0,0.0,-1.0,1,0,0,3,4,4,5,1.86,24.52,34.63,
17.731,107.49153277356923,101.07085735999217,-1.0,0.0,-1.0,1,0,0,3,4,4,5,1.86,24.52,34.63,
17.744,107.53515327735693,101.06108573599923,-1.0,0.0,-1.0,1,0,0,3,4,4,5,1.96,24.33,34.63,
17.759,107.58451532773569,101.06910857359992,-1.0,-1.0,-1.0,1,0,0,3,4,4,5,1.86,24.23,34.63,
17.773,107.61645153277357,101.06091085736,-1.0,0.0,-1.0,1,0,0,3,4,4,5,1.77,24.13,34.63,
17.787,107.58364515327736,101.10509108573599,-2.0,0.0,-1.0,1,0,0,3,4,4,5,1.86,24.03,34.63,
17.802,107.58936451532773,101.08250910857359,-1.0,0.0,-1.0,1,0,0,3,4,4,5,1.67,23.94,34.53,
17.816,107.52693645153278,101.06225091085736,-2.0,0.0,-1.0,1,0,0,3,4,4,5,1.77,23.84,34.53,
17.829,107.49369364515327,101.06922509108573,-1.0,-1.0,-1.0,1,0,0,3,4,4,5,1.67,23.74,34.43,
17.844,107.45436936451532,101.05192250910856,-1.0,0.0,-1.0,1,0,0,3,4,4,5,1.67,23.74,34.53,
17.858,107.47743693645153,101.01419225091087,-1.0,0.0,-1.0,1,0,0,3,4,4,5,965.99,23.74,34.53,
17.872,107.52474369364515,101.0374192250911,-1.0,0.0,-1.0,1,0,0,3,4,4,5,81.52,23.54,34.53,
17.887,107.58347436936451,101.07574192250911,-1.0,0.0,-1.0,1,0,0,3,4,4,5,1.57,23.45,34.53,
17.901,107.58934743693645,101.0705741922509,-2.0,0.0,-1.0,1,0,0,3,4,4,5,1.57,23.25,34.53,
17.914,107.61693474369365,101.15105741922508,-2.0,0.0,-1.0,1,0,0,3,4,4,5,1.57,23.35,34.63,
17.929,107.63769347436937,101.1951057419225,-2.0,0.0,-1.0,1,0,0,3,4,4,5,1.57,23.45,34.73,
17.943,107.57676934743694,101.19951057419225,-2.0,0.0,-1.0,1,0,0,3,4,4,5,1.57,23.45,34.73,
17.957,107.54367693474369,101.17295105741923,-2.0,0.0,-1.0,1,0,0,3,4,4,5,1.47,23.64,34.63,
17.972,107.53136769347437,101.20629510574192,-2.0,0.0,-1.0,1,0,0,3,4,4,5,1.57,23.64,34.73,
17.985,107.54813676934744,101.1556295105742,-2.0,0.0,-1.0,1,0,0,3,4,4,5,1.57,23.74,34.73,
17.999,107.52281367693475,101.15056295105742,-1.0,0.0,-1.0,1,0,0,3,4,4,5,1.67,23.74,34.73,
18.014,107.53828136769347,101.16805629510574,-1.0,0.0,-1.0,1,0,0,3,4,4,5,1.57,23.54,34.73,
18.028,107.60282813676935,101.16980562951056,-1.0,0.0,-1.0,1,0,0,3,4,4,5,1.47,23.45,34.73,
18.042,107.58228281367694,101.18798056295105,-1.0,0.0,-1.0,1,0,0,3,4,4,5,1.47,23.45,34.63,
18.056,107.5802282813677,101.1987980562951,-1.0,-1.0,-1.0,1,0,0,3,4,4,5,1.57,23.15,34.63,
18.07,107.54402282813678,101.22687980562951,-1.0,0.0,-1.0,1,0,0,3,4,4,5,1.47,23.05,34.63,
18.084,107.54040228281367,101.19368798056294,-1.0,0.0,-1.0,1,0,0,3,4,4,5,1.47,22.96,34.73,
18.099,107.41404022828138,101.1273687980563,-1.0,0.0,-1.0,1,0,0,3,4,4,5,1.47,22.86,34.73,
18.113,107.39240402282813,101.11173687980562,-1.0,0.0,-1.0,1,0,0,3,4,4,5,1.37,22.66,34.83,
18.127,107.39924040228283,101.12817368798056,-1.0,0.0,-1.0,1,0,0,3,4,4,5,1.47,22.46,34.83,
18.141,107.39092404022827,101.14781736879806,-1.0,0.0,-1.0,1,0,0,3,4,4,5,1.47,22.37,34.92,
18.155,107.43509240402283,101.1407817368798,-1.0,0.0,-1.0,1,0,0,3,4,4,5,1.47,22.07,34.92,
18.169,107.38550924040227,101.18507817368797,-1.0,0.0,-1.0,1,0,0,3,4,4,5,1.47,21.97,34.83,
18.184,107.41655092404022,101.17150781736879,-1.0,0.0,-1.0,1,0,0,3,4,4,5,1.57,21.88,34.92,
18.197,107.40165509240403,101.18815078173688,-1.0,0.0,-1.0,1,0,0,3,4,4,5,1.47,21.88,35.02,
18.211,107.4541655092404,101.1808150781737,-1.0,0.0,-1.0,1,0,0,3,4,4,5,1.57,21.58,35.02,
18.226,107.43241655092405,101.20708150781736,-1.0,0.0,-1.0,1,0,0,3,4,4,5,1.47,21.58,35.02,
18.24,107.37624165509241,101.29070815078174,-1.0,-1.0,-1.0,1,0,0,3,4,4,5,1.47,21.58,35.02,
18.254,107.38862416550924,101.28107081507818,-1.0,0.0,-1.0,1,0,0,3,4,4,5,1.47,21.39,35.02,
18.269,107.36286241655091,101.20810708150782,-1.0,0.0,-1.0,1,0,0,3,4,4,5,1.47,21.29,34.92,
18.282,107.35128624165509,101.19181070815078,-2.0,0.0,-2.0,1,0,0,3,4,4,5,1.47,21.29,34.92,
18.296,107.3231286241655,101.23518107081507,-2.0,0.0,-1.0,1,0,0,3,4,4,5,1.37,21.09,35.12,
18.311,107.30231286241654,101.23051810708151,-2.0,0.0,-2.0,1,0,0,3,4,4,5,1.37,20.99,35.12,
18.325,107.30923128624165,101.24805181070815,-2.0,0.0,-1.0,1,0,0,3,4,4,5,1.57,20.99,35.22,
18.339,107.29192312862418,101.23180518107081,-2.0,1.0,-1.0,1,0,0,3,4,4,5,1.57,20.90,35.22,
18.353,107.25419231286241,101.22118051810708,-2.0,0.0,-1.0,1,0,0,3,4,4,5,1.47,20.90,35.12,
18.367,107.26841923128623,101.2561180518107,-1.0,0.0,-1.0,1,0,0,3,4,4,5,1.57,20.99,35.22,
18.381,107.29684192312861,101.26861180518107,-2.0,0.0,-1.0,1,0,0,3,4,4,5,1.57,20.99,35.22,
18.396,107.30868419231287,101.2608611805181,-2.0,0.0,-1.0,1,0,0,3,4,4,5,1.57,21.09,35.22,
18.41,107.3638684192313,101.3050861180518,-2.0,0.0,-1.0,1,0,0,3,4,4,5,1.67,20.99,35.32,
18.423,107.40538684192312,101.29150861180518,-2.0,0.0,-1.0,1,0,0,3,4,4,5,1.67,20.90,35.32,
18.438,107.4365386841923,101.30815086118052,-2.0,0.0,-1.0,1,0,0,3,4,4,5,1.47,20.80,35.32,
18.452,107.41265386841923,101.37281508611805,-2.0,0.0,-1.0,1,0,0,3,4,4,5,1.57,20.80,35.32,
18.466,107.44626538684192,101.35228150861181,-2.0,0.0,-1.0,1,0,0,3,4,4,5,1.57,20.99,35.22,
18.481,107.52162653868419,101.35922815086118,-2.0,0.0,0.0,1,0,0,3,4,4,5,1.47,21.19,35.22,
18.494,107.52016265386841,101.35092281508612,-2.0,0.0,-1.0,1,0,0,3,4,4,5,1.57,21.39,35.12,
18.508,107.47501626538684,101.34109228150861,-2.0,0.0,0.0,1,0,0,3,4,4,5,1.57,21.58,35.02,
18.523,107.48850162653868,101.35810922815087,-2.0,0.0,0.0,1,0,0,3,4,4,5,1.57,21.58,34.92,
18.537,107.52585016265387,101.34181092281509,-2.0,0.0,-1.0,1,0,0,3,4,4,5,1.47,21.78,34.92,
18.55,107.46658501626538,101.38518109228151,-2.0,0.0,0.0,1,0,0,3,4,4,5,1.47,21.78,35.02,
18.565,107.41565850162654,101.36251810922815,-2.0,0.0,-1.0,1,0,0,3,4,4,5,1.47,21.97,35.02,
18.579,107.43756585016266,101.35125181092282,-2.0,0.0,-1.0,1,0,0,3,4,4,5,1.57,22.07,35.02,
18.593,107.45775658501626,101.32312518109228,-2.0,0.0,-1.0,1,0,0,3,4,3,5,1.47,21.97,34.83,
18.607,107.44177565850163,101.36531251810923,-2.0,0.0,0.0,1,0,0,3,4,3,5,1.37,21.97,34.63,
18.621,107.39517756585016,101.27953125181092,-2.0,0.0,0.0,1,0,0,3,4,3,5,1.37,21.78,34.43,
18.635,107.44451775658501,101.2979531251811,-2.0,0.0,-1.0,1,0,0,3,4,3,5,1.37,21.68,34.34,
18.65,107.4404517756585,101.27279531251811,-2.0,0.0,-1.0,1,0,0,3,4,3,5,1.37,21.68,34.14,
18.663,107.45804517756585,101.25227953125182,-2.0,0.0,-1.0,1,0,0,3,4,3,5,1.18,21.58,33.94,
18.677,107.45080451775658,101.28622795312518,-2.0,0.0,-1.0,1,0,0,3,4,3,5,1.18,21.48,33.75,
18.692,107.41408045177565,101.25362279531251,-3.0,0.0,-1.0,1,0,0,3,4,3,5,1.18,21.58,33.65,
18.706,107.42840804517758,101.28636227953125,-2.0,0.0,-1.0,1,0,0,3,4,3,5,1.18,21.68,33.45,
18.72,107.44784080451775,101.27163622795312,-2.0,0.0,-1.0,1,0,0,3,4,3,5,0.98,21.68,33.26,
18.734,107.51278408045178,101.25216362279531,-2.0,0.0,-1.0,1,0,0,3,4,3,5,0.88,21.58,33.16,
18.748,107.48327840804518,101.27721636227953,-2.0,0.0,-1.0,1,0,0,3,4,3,5,0.88,21.58,33.06,
18.762,107.57932784080452,101.27072163622795,-2.0,0.0,-1.0,1,0,0,3,4,3,5,0.88,21.48,32.86,
18.777,107.54393278408045,101.2790721636228,-2.0,0.0,-1.0,1,0,0,3,4,3,5,0.69,21.48,32.77,
18.791,107.51339327840805,101.29790721636228,-2.0,0.0,-1.0,1,0,0,3,4,3,5,0.69,21.29,32.57,
18.804,107.5193393278408,101.25479072163623,-2.0,0.0,-1.0,1,0,0,3,4,3,5,0.59,21.29,32.37,
18.819,107.51993393278408,101.28647907216362,-2.0,0.0,-1.0,1,0,0,3,4,3,5,0.59,21.29,32.18,
18.833,107.51099339327841,101.26264790721636,-2.0,0.0,-1.0,1,0,0,3,4,3,5,0.49,21.29,32.08,
18.847,107.48309933932784,101.24226479072163,-2.0,0.0,-1.0,1,0,0,3,4,3,4,0.39,21.29,31.98,
18.862,107.45330993393279,101.24022647907216,-2.0,0.0,-1.0,1,0,0,3,4,3,4,0.29,21.29,31.78,
18.875,107.47733099339328,101.24902264790721,-2.0,0.0,-1.0,1,0,0,3,4,3,4,0.20,21.29,31.69,
18.889,107.46173309933933,101.28590226479072,-2.0,0.0,-1.0,1,0,0,3,4,3,4,0.20,21.29,31.49,
18.904,107.54117330993392,101.30759022647908,-2.0,0.0,0.0,1,0,0,3,4,3,4,0.10,21.19,31.39,
18.918,107.6571173309934,101.28275902264791,-2.0,0.0,0.0,1,0,0,2,4,3,4,0.00,21.09,31.10,
18.931,107.64171173309934,101.27127590226479,-2.0,0.0,-1.0,1,0,0,2,4,3,4,0.00,21.09,30.90,
18.946,107.58617117330994,101.27912759022648,-2.0,0.0,-1.0,1,0,0,2,4,3,4,0.00,21.09,30.71,
18.96,107.58061711733099,101.27991275902265,-2.0,0.0,-1.0,1,0,0,2,4,3,4,0.00,20.99,30.51,
18.974,107.6070617117331,101.20799127590226,-2.0,0.0,-1.0,1,0,0,2,4,3,4,0.00,20.80,30.21,
18.989,107.62770617117332,101.20079912759022,-2.0,0.0,-1.0,1,0,0,2,4,2,4,0.00,20.90,30.12,
19.002,107.66577061711733,101.18207991275904,-2.0,0.0,-1.0,1,0,0,2,4,2,4,0.00,20.70,29.92,
19.016,107.69657706171174,101.20720799127591,-2.0,0.0,0.0,1,0,0,2,4,2,4,0.00,20.70,29.72,
19.031,107.65465770617118,101.13772079912758,-3.0,0.0,-1.0,1,0,0,2,4,2,4,0.00,20.70,29.63,
19.045,107.69546577061712,101.10377207991274,-2.0,0.0,-1.0,1,0,0,2,4,2,4,0.00,20.99,29.43,
19.058,107.63654657706171,101.07337720799127,-2.0,0.0,-1.0,1,0,0,2,4,2,4,0.00,21.09,29.43,
19.073,107.63065465770617,101.10633772079912,-2.0,0.0,-1.0,1,0,0,2,4,2,4,0.00,21.19,29.14,
19.087,107.64806546577061,101.0736337720799,-3.0,0.0,-2.0,1,0,0,2,4,2,4,0.00,20.99,29.04,
