time,pitch,roll,gyrx,gyry,gyrz,f1,f2,f3,f4,f5,f6,f7,g1,g2,g3
0.344,9.94,47.61,-5.42,-0.53,-1.29,0.0,0.0,0.0,1.0,0.0,0.0,0.0,0.1,0.0,347.67,
0.367,13.54,64.27799999999999,-3.76,0.19,0.11,0.0,0.0,0.0,1.0,0.0,0.0,0.0,0.0,0.0,0.59,
0.391,16.96,80.12880000000001,-3.22,-0.73,-0.91,0.0,0.0,0.0,1.0,0.0,0.0,0.0,0.0,0.0,0.59,
0.414,19.875999999999998,93.68388,-4.3,2.56,-1.89,0.0,0.0,0.0,1.0,0.0,0.0,0.0,0.0,0.0,0.49,
0.438,22.570600000000002,105.290388,-1.5,3.24,-0.95,0.0,0.0,0.0,1.0,0.0,0.0,0.0,0.0,0.0,0.39,
0.461,25.27006,115.2980388,1.19,-5.3,6.31,0.0,0.0,0.0,1.0,0.0,0.0,0.0,0.0,0.0,0.39,
0.485,26.872006000000003,123.74180388,-2.7,-10.27,5.21,0.0,0.0,0.0,1.0,0.0,0.0,0.0,0.0,0.0,0.39,
0.509,28.6432006,130.634180388,-8.02,-2.44,-0.11,0.0,0.0,0.0,1.0,0.0,0.0,0.0,0.0,0.0,0.49,
0.533,30.269320060000002,136.54341803879998,-8.48,4.86,-5.99,0.0,0.0,0.0,1.0,0.0,0.0,0.0,0.0,0.0,0.29,
0.557,31.439932006,141.63434180387998,-5.03,2.14,-5.07,0.0,0.0,0.0,1.0,0.0,0.0,0.0,0.0,0.0,0.29,
0.58,31.862993200600002,145.98643418038802,-4.07,-1.76,1.66,0.0,0.0,0.0,1.0,0.0,0.0,0.0,0.0,0.0,0.49,
0.604,32.27429932006,149.6526434180388,-5.08,4.3,-0.83,0.0,0.0,0.0,1.0,0.0,0.0,0.0,0.0,0.0,0.59,
0.627,33.359429932005995,152.80026434180388,-4.05,3.15,-2.34,0.0,0.0,0.0,1.0,0.0,0.0,0.0,0.0,0.0,0.29,
0.651,34.5839429932006,155.46402643418037,-0.71,-3.91,5.09,0.0,0.0,0.0,1.0,0.0,0.0,0.0,0.0,0.0,0.59,
0.674,34.75139429932006,157.90840264341807,2.63,-4.27,7.11,0.0,0.0,0.0,1.0,0.0,0.0,0.0,0.0,0.0,0.49,
0.698,34.97513942993201,160.0248402643418,-0.63,1.3,1.82,0.0,0.0,0.0,1.0,0.0,0.0,0.0,0.0,0.0,0.49,
0.721,36.1225139429932,161.70348402643418,-1.58,0.76,1.61,0.0,0.0,0.0,1.0,0.0,0.0,0.0,0.0,0.0,0.49,
0.745,36.543251394299325,163.26634840264342,-0.09,-5.31,4.86,0.0,0.0,0.0,1.0,0.0,0.0,0.0,0.0,0.0,0.69,
0.769,35.89232513942993,164.73663484026434,-3.67,-7.1,3.87,0.0,0.0,0.0,1.0,0.0,0.0,0.0,0.0,0.0,0.59,
0.792,35.701232513943,165.64866348402643,-11.11,-1.47,-2.9,0.0,0.0,0.0,1.0,0.0,0.0,0.0,0.0,0.0,0.49,
0.817,36.0691232513943,166.37886634840265,-7.05,-1.3,-1.66,0.0,0.0,0.0,1.0,0.0,0.0,0.0,0.0,0.0,0.39,
0.84,36.249912325139434,167.12688663484028,-1.94,-6.53,2.21,0.0,0.0,0.0,1.0,0.0,0.0,0.0,0.0,0.0,0.59,
0.864,36.37599123251395,167.62468866348402,-3.3,-6.42,2.85,0.0,0.0,0.0,1.0,0.0,0.0,0.0,0.0,0.0,0.59,
0.887,36.82059912325139,168.0074688663484,-1.93,0.45,-1.28,0.0,0.0,0.0,1.0,0.0,0.0,0.0,0.0,0.0,0.69,
0.911,37.47705991232514,168.43274688663485,-0.43,2.36,-1.18,0.0,0.0,0.0,1.0,0.0,0.0,0.0,0.0,0.0,0.59,
0.934,37.56970599123252,168.8082746886635,-0.36,-0.26,0.86,0.0,0.0,0.0,1.0,0.0,0.0,0.0,0.0,0.0,0.69,
0.958,36.67897059912325,169.43982746886635,-1.7,0.32,-3.04,0.0,0.0,0.0,1.0,0.0,0.0,0.0,0.0,0.0,0.49,
0.982,37.37289705991233,169.62898274688663,-4.17,-0.11,0.25,0.0,0.0,0.0,1.0,0.0,0.0,0.0,0.0,0.0,0.49,
1.005,37.68528970599123,169.86389827468864,-2.46,-6.23,4.24,0.0,0.0,0.0,1.0,0.0,0.0,0.0,0.0,0.0,0.59,
1.029,37.824528970599125,170.01338982746887,-7.07,-2.26,-1.25,0.0,0.0,0.0,1.0,0.0,0.0,0.0,0.0,0.0,0.59,
1.053,38.000452897059915,170.0913389827469,-7.46,5.54,-6.02,0.0,0.0,0.0,1.0,0.0,0.0,0.0,0.0,0.0,0.59,
1.077,38.27004528970599,170.18013389827468,-3.67,3.92,-3.43,0.0,0.0,0.0,1.0,0.0,0.0,0.0,0.0,0.0,0.59,
1.1,38.2520045289706,170.3600133898275,-1.09,0.12,0.93,0.0,0.0,0.0,1.0,0.0,0.0,0.0,0.0,0.0,0.78,
1.124,38.12420045289706,170.51300133898275,-1.04,0.66,1.47,0.0,0.0,0.0,1.0,0.0,0.0,0.0,0.0,0.0,0.78,
1.147,38.37242004528971,170.59130013389827,-2.54,0.55,-1.09,0.0,0.0,0.0,1.0,0.0,0.0,0.0,0.1,0.0,0.69,
1.171,38.20824200452897,170.64413001338983,-4.69,-0.4,-1.55,0.0,0.0,0.0,1.0,0.0,0.0,0.0,0.0,0.0,0.69,
1.195,37.84082420045289,170.60441300133897,-6.95,3.05,-4.13,0.0,0.0,0.0,1.0,0.0,0.0,0.0,0.0,0.0,0.78,
1.218,37.97508242004529,170.61844130013392,-9.23,3.88,-6.04,0.0,0.0,0.0,1.0,0.0,0.0,0.0,0.0,0.0,0.59,
1.242,37.556508242004526,170.7368441300134,-12.44,0.03,-6.02,0.0,0.0,0.0,1.0,0.0,0.0,0.0,0.0,0.0,0.59,
1.265,38.171650824200455,170.46968441300135,-11.6,1.49,-6.65,0.0,0.0,0.0,1.0,0.0,0.0,0.0,0.0,0.0,0.59,
1.29,38.71916508242005,170.28096844130013,-9.51,6.82,-8.85,0.0,0.0,0.0,1.0,0.0,0.0,0.0,0.0,0.0,0.69,
1.313,38.845916508242006,170.29809684413001,-7.52,6.6,-7.4,0.0,0.0,0.0,1.0,0.0,0.0,0.0,0.0,0.0,0.78,
1.337,39.1825916508242,170.254809684413,-8.79,-1.3,-4.21,0.0,0.0,0.0,1.0,0.0,0.0,0.0,0.0,0.0,0.69,
1.36,39.27025916508242,170.1694809684413,-4.92,-9.75,6.36,0.0,0.0,0.0,1.0,0.0,0.0,0.0,0.0,0.0,0.78,
1.384,39.66602591650825,169.98994809684413,-1.02,-1.62,2.91,0.0,0.0,0.0,1.0,0.0,0.0,0.0,0.0,0.0,0.69,
1.408,39.79560259165083,170.0619948096844,-4.85,1.98,-0.9,0.0,0.0,0.0,1.0,0.0,0.0,0.0,0.0,0.0,0.59,
1.431,39.94356025916508,169.93419948096843,-7.78,0.64,-2.66,0.0,0.0,0.0,1.0,0.0,0.0,0.0,0.0,0.0,0.78,
1.456,39.66135602591651,169.9484199480968,-5.97,2.76,-2.66,0.0,0.0,0.0,1.0,0.0,0.0,0.0,0.0,0.0,0.59,
1.479,39.06613560259165,170.00384199480968,-2.33,2.26,-3.23,0.0,0.0,0.0,1.0,0.0,0.0,0.0,0.0,0.0,0.69,
1.503,39.663613560259165,170.00038419948098,0.06,-3.72,2.55,0.0,0.0,0.0,1.0,0.0,0.0,0.0,0.0,0.0,0.69,
1.526,39.786361356025914,169.98203841994808,3.84,-6.57,5.9,0.0,0.0,0.0,1.0,0.0,0.0,0.0,0.0,0.0,0.78,
1.55,39.88863613560259,169.84520384199482,5.76,-2.05,4.49,0.0,0.0,0.0,1.0,0.0,0.0,0.0,0.0,0.0,0.69,
1.573,38.99886361356025,170.11052038419948,1.66,1.69,-1.16,0.0,0.0,0.0,1.0,0.0,0.0,0.0,0.0,0.0,0.69,
1.597,38.972886361356025,170.28105203841994,-1.15,-5.76,1.18,0.0,0.0,0.0,1.0,0.0,0.0,0.0,0.0,0.0,0.69,
1.62,39.5462886361356,170.154105203842,-1.2,-8.66,5.46,0.0,0.0,0.0,1.0,0.0,0.0,0.0,0.0,0.0,0.69,
1.644,39.900628863613555,169.9344105203842,-5.43,0.95,0.79,0.0,0.0,0.0,1.0,0.0,0.0,0.0,0.0,0.0,0.88,
1.668,40.16106288636136,169.8854410520384,-10.16,9.34,-8.53,0.0,0.0,0.0,1.0,0.0,0.0,0.0,0.1,0.0,0.59,
1.691,40.83510628863613,169.79054410520382,-20.77,6.8,-9.51,0.0,0.0,0.0,1.0,0.0,0.0,0.0,0.0,0.0,0.59,
1.715,41.631510628863616,169.3580544105204,-29.34,4.47,-7.24,0.0,0.0,0.0,1.0,0.0,0.0,0.0,0.1,0.0,0.69,
1.739,43.15115106288636,168.64880544105202,-29.59,8.89,-12.16,0.0,0.0,0.0,1.0,0.0,0.0,0.0,0.0,0.0,0.78,
1.763,47.749115106288635,167.7678805441052,-21.83,27.82,-18.63,0.0,0.0,0.0,1.0,0.0,0.0,0.0,0.0,0.0,0.78,
1.786,55.76891151062886,165.8617880544105,-33.08,9.29,29.92,0.0,0.0,0.0,0.0,0.0,0.0,0.0,0.0,0.0,0.69,
1.81,71.8888911510629,166.72417880544106,-54.92,-36.62,47.9,0.0,0.0,0.0,0.0,0.0,0.0,0.0,0.0,0.0,0.78,
1.835,81.23188911510628,164.30841788054408,-57.6,1.42,100.11,0.0,0.0,0.0,0.0,0.0,0.0,0.0,0.0,0.0,0.69,
1.858,79.34018891151062,163.45484178805444,-68.78,34.74,80.9,0.0,0.0,0.0,0.0,0.0,0.0,0.0,0.0,0.0,0.78,
1.882,79.18701889115106,159.89548417880545,-17.77,79.52,63.92,0.0,0.0,0.0,0.0,0.0,0.0,0.0,0.0,0.0,0.59,
1.905,82.9427018891151,160.16954841788055,-17.69,31.31,76.21,0.0,0.0,0.0,0.0,0.0,0.0,0.0,0.0,0.0,0.39,
1.93,89.1322701889115,160.44895484178804,-45.02,-18.28,104.13,0.0,0.0,0.0,0.0,0.0,0.0,0.0,0.0,0.0,0.39,
1.953,93.28822701889115,160.0358954841788,-27.75,-32.74,149.12,0.0,0.0,0.0,0.0,0.0,0.0,0.0,0.0,0.0,0.98,
1.977,95.60282270188911,158.40158954841786,-57.45,6.56,110.76,0.0,0.0,0.0,0.0,0.0,0.0,0.0,0.0,0.0,0.88,
2.001,97.6882822701889,155.8351589548418,-59.73,29.56,85.16,0.0,0.0,0.0,0.0,0.0,0.0,0.0,0.0,0.0,0.59,
2.025,104.9528282270189,155.02051589548418,-26.47,59.44,172.15,0.0,0.0,0.0,0.0,0.0,0.0,0.0,0.0,0.0,0.88,
2.049,107.55128282270189,155.23605158954842,-40.73,10.23,141.31,0.0,0.0,0.0,0.0,0.0,0.0,0.0,0.0,0.0,0.39,
2.073,109.8451282822702,154.48360515895484,-79.05,-31.65,162.27,0.0,0.0,0.0,0.0,0.0,0.0,0.0,0.0,0.0,0.39,
2.097,103.97251282822701,155.06536051589546,-52.96,-3.74,13.18,0.0,0.0,0.0,0.0,0.0,0.0,0.0,0.0,0.1,0.0,
2.12,100.68525128282269,154.03453605158953,-64.73,39.15,49.03,0.0,0.0,0.0,0.0,0.0,0.0,0.0,0.0,0.0,0.0,
2.145,100.25752512828225,152.19445360515897,-24.4,119.82,-16.57,0.0,0.0,0.0,0.0,0.0,0.0,0.0,0.0,0.0,0.0,
2.168,104.03975251282822,151.9114453605159,-24.98,147.39,-5.75,0.0,0.0,0.0,0.0,0.0,0.0,0.0,0.0,0.0,0.0,
2.193,108.21597525128283,151.4151445360516,67.37,93.39,54.51,0.0,0.0,0.0,0.0,0.0,0.0,0.0,0.0,0.0,0.59,
2.216,116.57159752512828,153.02151445360516,9.33,69.98,57.4,0.0,0.0,0.0,0.0,0.0,0.0,0.0,0.0,0.0,1.28,
2.24,122.30315975251283,153.4071514453605,-69.21,13.11,54.5,0.0,0.0,0.0,0.0,0.0,0.0,0.0,0.0,0.0,4.12,
2.264,125.22531597525128,152.58171514453608,-71.79,-2.37,27.16,0.0,0.0,0.0,0.0,0.0,0.0,0.0,0.1,0.0,3.34,
2.288,127.43453159752514,151.70717151445362,-59.71,18.28,30.45,0.0,0.0,0.0,0.0,0.0,0.0,0.0,0.0,0.0,2.06,
2.312,128.90645315975252,150.92671715144536,-42.37,20.44,34.45,0.0,0.0,0.0,0.0,0.0,0.0,0.0,0.0,0.0,0.39,
2.335,129.94464531597527,149.84967171514455,-62.84,9.89,-3.11,0.0,0.0,0.0,0.0,0.0,0.0,0.0,0.1,0.0,0.39,
2.36,129.31946453159753,147.84296717151446,-50.75,19.15,51.8,0.0,0.0,0.0,0.0,0.0,0.0,0.0,0.29,0.0,0.0,
2.383,132.55094645315975,146.53529671715145,-56.82,18.55,28.02,0.0,0.0,0.0,0.0,0.0,0.0,0.0,0.29,0.0,0.1,
2.407,135.88909464531596,143.80352967171515,-46.09,6.93,65.73,0.0,0.0,0.0,0.0,0.0,0.0,0.0,0.29,0.0,0.1,
2.43,138.19390946453157,141.0373529671715,-73.47,-10.8,94.51,0.0,0.0,0.0,0.0,0.0,0.0,0.0,0.29,0.0,0.0,
2.455,140.23339094645317,137.35873529671716,-57.9,-54.71,154.48,0.0,0.0,0.0,0.0,0.0,0.0,0.0,0.29,0.0,0.0,
2.479,141.9583390946453,131.4468735296717,-53.4,-65.15,154.21,0.0,0.0,0.0,0.0,0.0,0.0,0.0,0.29,0.0,0.0,
2.503,142.74283390946457,128.46168735296715,-66.71,-151.32,163.44,0.0,0.0,0.0,0.0,0.0,0.0,0.0,0.39,0.0,0.0,
2.527,141.61528339094647,127.63216873529672,-123.89,-250.13,250.13,0.0,0.0,0.0,0.0,0.0,0.0,0.0,0.49,0.0,0.0,
2.551,137.24552833909462,119.55721687352967,-112.92,-107.81,195.3,0.0,0.0,0.0,0.0,0.0,0.0,0.0,0.49,0.0,0.1,
2.576,132.54255283390947,114.72672168735296,-71.46,95.28,-17.3,0.0,0.0,0.0,0.0,0.0,0.0,0.0,0.29,0.0,0.2,
2.599,131.79325528339095,113.23567216873528,-87.43,-5.11,2.63,0.0,0.0,0.0,0.0,0.0,0.0,0.0,0.0,0.0,0.39,
2.623,129.7563255283391,110.94456721687352,-130.63,-78.69,95.6,0.0,0.0,0.0,0.0,0.0,0.0,0.0,0.0,0.0,0.49,
2.648,125.9616325528339,108.78945672168734,-88.98,-43.57,45.02,0.0,0.0,0.0,0.0,0.0,0.0,0.0,0.0,0.0,0.1,
2.671,124.5291632552834,107.57494567216872,-75.62,32.71,7.05,0.0,0.0,0.0,0.0,0.0,0.0,0.0,0.1,0.29,0.78,
2.695,121.27191632552834,109.59549456721686,-160.28,-202.97,-159.96,0.0,0.0,0.0,0.0,0.0,0.0,0.0,0.59,3.83,0.29,
2.719,119.33519163255285,111.65154945672168,-1.05,-47.63,146.5,0.0,0.0,0.0,1.0,0.0,0.0,0.0,0.98,2.84,0.0,
2.744,116.34251916325529,113.73815494567218,-10.18,0.23,-84.33,0.0,0.0,0.0,1.0,0.0,0.0,0.0,1.28,1.86,0.0,
2.767,114.47725191632553,115.80081549456722,-14.16,35.37,-54.44,0.0,0.0,0.0,1.0,0.0,0.0,0.0,1.18,1.96,0.69,
2.791,113.87672519163254,116.82608154945672,-12.53,-36.59,24.12,0.0,0.0,0.0,1.0,0.0,0.0,0.0,1.18,1.77,0.49,
2.816,113.56467251916325,116.02860815494567,-3.14,-5.11,22.18,0.0,0.0,0.0,1.0,0.0,0.0,0.0,1.37,2.45,0.59,
2.839,115.07246725191632,111.16986081549456,1.54,1.15,79.21,0.0,0.0,0.0,1.0,0.0,0.0,0.0,1.28,1.86,0.78,
2.863,116.06024672519163,105.56298608154945,-5.44,-40.27,-2.83,0.0,0.0,0.0,1.0,0.0,0.0,0.0,0.49,0.88,1.18,
2.886,114.87202467251915,102.60829860815495,12.09,16.14,-8.21,0.0,0.0,0.0,1.0,0.0,0.0,0.0,0.69,0.59,0.49,
2.911,114.38420246725192,99.15382986081549,9.35,-21.71,22.32,0.0,0.0,0.0,1.0,0.0,0.0,0.0,1.08,0.2,0.69,
2.934,115.79342024672519,95.85638298608154,-8.27,4.82,3.5,0.0,0.0,0.0,1.0,0.0,0.0,0.0,1.28,0.0,0.69,
2.958,115.70934202467252,97.07463829860814,0.94,-0.63,-45.04,0.0,0.0,0.0,1.0,0.0,0.0,0.0,1.67,0.0,0.2,
2.981,115.62893420246726,100.20246382986082,35.76,21.14,-25.16,0.0,0.0,0.0,1.0,0.0,0.0,0.0,1.86,0.78,0.0,
3.005,113.29889342024673,98.13024638298609,-5.85,-35.1,103.89,0.0,0.0,0.0,2.0,0.0,0.0,0.0,1.86,2.55,1.08,
3.03,112.37288934202466,95.0520246382986,24.37,-45.85,-61.4,0.0,0.0,0.0,2.0,0.0,0.0,0.0,1.18,4.51,1.96,
3.053,113.08128893420246,95.76120246382986,17.26,59.73,-26.27,0.0,0.0,0.0,2.0,0.0,0.0,0.0,1.28,4.32,0.78,
3.077,114.14212889342025,96.41712024638298,7.87,-24.46,15.85,0.0,0.0,0.0,1.0,0.0,0.0,0.0,1.37,3.53,1.57,
3.1,115.00421288934203,95.6457120246383,14.79,-3.5,20.44,0.0,0.0,0.0,2.0,0.0,0.0,0.0,1.28,3.24,1.18,
3.124,114.5684212889342,95.08257120246382,20.35,-15.4,-2.62,0.0,0.0,0.0,2.0,0.0,0.0,0.0,1.37,3.34,0.2,
3.148,114.15584212889341,94.36025712024639,3.62,-13.62,17.85,0.0,0.0,0.0,1.0,0.0,0.0,0.0,1.57,3.43,0.0,
3.172,114.42958421288934,93.17202571202463,-7.37,-1.05,11.97,0.0,0.0,0.0,1.0,0.0,0.0,0.0,1.47,3.24,0.98,
3.195,115.36595842128894,91.38820257120246,-13.15,2.32,14.11,0.0,0.0,0.0,1.0,0.0,0.0,0.0,1.37,2.45,0.39,
3.219,115.30659584212889,91.79482025712025,-0.56,-1.42,-14.66,0.0,0.0,0.0,2.0,0.0,0.0,0.0,1.37,1.77,0.0,
3.243,113.67165958421288,93.52748202571202,5.83,-8.02,5.79,0.0,0.0,0.0,2.0,0.0,0.0,0.0,1.67,2.26,0.0,
3.266,113.3011659584213,93.96174820257121,-14.66,-5.75,29.96,0.0,0.0,0.0,2.0,0.0,0.0,0.0,1.77,2.65,0.0,
3.291,113.67811659584213,92.15117482025713,-11.5,8.22,-19.71,0.0,0.0,0.0,2.0,0.0,0.0,0.0,1.67,2.84,0.39,
3.314,115.02081165958421,91.3761174820257,-7.16,11.86,-9.79,0.0,0.0,0.0,2.0,0.0,0.0,0.0,1.47,2.55,0.69,
3.338,114.68708116595842,91.81161174820258,7.24,-9.71,2.24,0.0,0.0,0.0,2.0,0.0,0.0,0.0,1.67,2.45,0.1,
3.361,114.71670811659584,92.72816117482026,3.75,-4.01,-7.89,0.0,0.0,0.0,2.0,0.0,0.0,0.0,1.67,3.04,0.0,
3.385,114.06267081165957,92.69381611748203,-4.89,14.4,23.37,0.0,0.0,0.0,2.0,0.0,0.0,0.0,1.86,3.63,0.2,
3.408,114.43826708116596,92.0603816117482,1.95,1.49,-19.67,0.0,0.0,0.0,2.0,0.0,0.0,0.0,1.77,3.92,0.49,
3.432,114.58382670811659,92.51003816117482,3.74,13.09,7.56,0.0,0.0,0.0,3.0,0.0,0.0,0.0,1.57,4.22,0.29,
3.456,114.80538267081165,92.36600381611747,1.34,-5.5,3.55,0.0,0.0,0.0,3.0,0.0,0.0,0.0,1.57,5.2,0.1,
3.479,114.83653826708117,92.52260038161174,0.7,8.4,-2.52,0.0,0.0,0.0,3.0,0.0,0.0,0.0,1.47,5.98,0.29,
3.503,114.9926538267081,92.61026003816117,-4.25,-1.28,-3.11,0.0,0.0,0.0,3.0,0.0,0.0,0.0,1.57,6.47,0.29,
3.527,114.99026538267081,92.2770260038161,-4.02,2.01,4.38,0.0,0.0,0.0,3.0,0.0,0.0,0.0,1.37,6.67,0.49,
3.551,115.08002653826708,92.26170260038161,-2.39,-0.75,-5.99,0.0,0.0,0.0,3.0,0.0,0.0,0.0,1.47,6.77,0.29,
3.574,115.08000265382671,92.13417026003816,-4.04,0.45,1.73,0.0,0.0,0.0,3.0,0.0,0.0,0.0,1.47,6.67,0.39,
3.598,115.04400026538266,92.01341702600381,-2.85,0.07,-2.56,0.0,0.0,0.0,3.0,0.0,0.0,0.0,1.37,6.57,0.29,
3.621,115.21140002653827,92.01934170260037,-2.94,2.1,1.27,0.0,0.0,0.0,3.0,0.0,0.0,0.0,1.47,6.77,0.29,
3.645,115.07514000265382,92.05593417026003,-2.5,-1.63,-3.67,0.0,0.0,0.0,3.0,0.0,0.0,0.0,1.47,4.61,0.39,
3.668,115.14251400026538,92.068593417026,-3.43,3.48,0.0,0.0,0.0,0.0,3.0,0.0,0.0,0.0,1.47,4.41,0.39,
3.692,115.33825140002654,92.1508593417026,-2.63,0.8,-2.42,0.0,0.0,0.0,3.0,0.0,0.0,0.0,1.47,4.32,0.59,
3.716,115.44782514000265,92.26708593417027,-4.95,-1.05,-2.03,0.0,0.0,0.0,3.0,0.0,0.0,0.0,1.47,4.12,0.59,
3.739,115.31478251400026,92.03570859341704,-4.69,3.46,0.32,0.0,0.0,0.0,3.0,0.0,0.0,0.0,1.37,3.92,0.39,
3.763,115.60747825140002,91.93157085934172,-1.47,2.01,-7.95,0.0,0.0,0.0,2.0,0.0,0.0,0.0,1.37,3.63,0.49,
3.786,115.73574782514,92.26315708593417,-1.93,0.44,-1.28,0.0,0.0,0.0,2.0,0.0,0.0,0.0,1.37,3.53,0.49,
3.81,115.829574782514,92.32331570859341,-4.13,-0.38,1.32,0.0,0.0,0.0,2.0,0.0,0.0,0.0,1.37,4.02,0.39,
3.833,115.7849574782514,92.15833157085935,-4.99,-0.09,-3.12,0.0,0.0,0.0,2.0,0.0,0.0,0.0,1.37,4.51,0.39,
3.858,115.81649574782514,91.97083315708593,-8.35,1.21,-4.88,0.0,0.0,0.0,2.0,0.0,0.0,0.0,1.37,4.51,0.39,
3.881,115.81064957478252,92.0960833157086,-6.36,2.53,-4.7,0.0,0.0,0.0,2.0,0.0,0.0,0.0,1.37,4.41,0.59,
3.905,116.02606495747824,91.81160833157087,-9.31,-1.56,-2.17,0.0,0.0,0.0,2.0,0.0,0.0,0.0,1.37,4.32,0.59,
3.929,115.88560649574782,91.64816083315708,-11.07,-2.79,-9.1,0.0,0.0,0.0,2.0,0.0,0.0,0.0,1.28,4.22,0.49,
3.952,115.90756064957478,91.2088160833157,-14.27,0.71,-0.53,0.0,0.0,0.0,2.0,0.0,0.0,0.0,1.37,4.12,0.49,
3.976,115.80175606495749,90.40888160833157,-15.1,-5.45,-12.61,0.0,0.0,0.0,2.0,0.0,0.0,0.0,1.37,4.02,0.78,
4.0,115.91717560649575,90.43688816083315,-18.24,-0.82,-13.5,0.0,0.0,0.0,2.0,0.0,0.0,0.0,1.37,3.92,0.69,
4.024,116.05471756064956,90.79068881608332,-15.87,-4.56,-5.04,0.0,0.0,0.0,2.0,0.0,0.0,0.0,1.37,3.92,0.59,
4.047,115.98747175606496,90.36706888160833,-22.9,-8.85,-0.79,0.0,0.0,0.0,2.0,0.0,0.0,0.0,1.37,3.92,0.59,
4.072,115.63874717560648,90.50470688816084,-30.23,-8.73,-19.89,0.0,0.0,0.0,2.0,0.0,0.0,0.0,1.37,3.83,0.69,
4.096,115.65787471756065,90.82447068881608,-19.65,1.26,2.95,0.0,0.0,0.0,2.0,0.0,0.0,0.0,1.47,3.53,0.49,
4.119,115.74078747175606,89.9474470688816,-18.53,-7.79,6.73,0.0,0.0,0.0,1.0,0.0,0.0,0.0,1.57,2.84,0.1,
4.143,115.4430787471756,88.47374470688816,-21.09,-19.79,3.28,0.0,0.0,0.0,1.0,0.0,0.0,0.0,1.37,2.16,0.78,
4.166,115.27830787471757,86.94037447068882,-26.16,5.76,-3.21,0.0,0.0,0.0,1.0,0.0,0.0,0.0,1.47,1.47,1.37,
4.191,115.54983078747176,86.11203744706887,-12.98,12.49,-9.46,0.0,0.0,0.0,1.0,0.0,0.0,0.0,1.28,0.98,0.78,
4.214,116.05398307874717,85.8222037447069,-14.6,-5.04,-6.43,0.0,0.0,0.0,1.0,0.0,0.0,0.0,1.18,0.69,0.2,
4.238,116.38339830787471,86.52222037447069,-8.56,-9.21,0.16,0.0,0.0,0.0,1.0,0.0,0.0,0.0,1.28,0.88,0.0,
4.261,116.41633983078748,87.94222203744707,2.89,-12.77,-8.24,0.0,0.0,0.0,2.0,0.0,0.0,0.0,1.47,0.88,0.2,
4.285,116.31163398307875,89.42522220374471,12.37,-3.62,5.7,0.0,0.0,0.0,2.0,0.0,0.0,0.0,1.57,0.78,0.1,
4.308,115.62616339830788,90.50952222037446,20.05,-2.72,19.02,0.0,0.0,0.0,2.0,0.0,0.0,0.0,1.77,0.78,0.1,
4.333,115.94461633983079,89.68195222203744,-1.75,-5.85,19.37,0.0,0.0,0.0,2.0,0.0,0.0,0.0,1.77,1.08,0.59,
4.357,114.98646163398307,89.59019522220375,5.38,10.37,-3.25,0.0,0.0,0.0,2.0,0.0,0.0,0.0,1.47,1.86,0.98,
4.38,115.54764616339831,89.31101952222038,-3.64,0.17,1.7,0.0,0.0,0.0,2.0,0.0,0.0,0.0,1.47,2.26,0.88,
4.404,115.56776461633982,89.34610195222203,-0.86,4.38,0.9,0.0,0.0,0.0,2.0,0.0,0.0,0.0,1.28,2.45,0.78,
4.427,115.66877646163398,89.1516101952222,2.86,-1.66,2.56,0.0,0.0,0.0,2.0,0.0,0.0,0.0,1.28,2.45,0.69,
4.451,115.5078776461634,89.09616101952223,6.32,1.02,3.95,0.0,0.0,0.0,3.0,0.0,0.0,0.0,1.18,2.55,0.69,
4.474,115.50978776461633,89.05461610195222,7.48,2.37,0.73,0.0,0.0,0.0,3.0,0.0,0.0,0.0,1.28,2.94,0.59,
4.498,115.53697877646164,89.09546161019522,6.56,2.25,1.46,0.0,0.0,0.0,3.0,0.0,0.0,0.0,1.28,3.14,0.78,
4.521,115.63869787764617,89.09954616101952,7.64,2.02,0.0,0.0,0.0,0.0,3.0,0.0,0.0,0.0,1.28,3.14,0.69,
4.544,115.72986978776461,89.25295461610196,8.34,0.6,1.2,0.0,0.0,0.0,3.0,0.0,0.0,0.0,1.28,3.04,0.78,
4.568,115.73898697877645,89.2502954616102,6.25,1.72,-0.15,0.0,0.0,0.0,3.0,0.0,0.0,0.0,1.28,3.04,0.78,
4.591,115.77589869787764,89.44802954616101,7.65,-0.76,0.45,0.0,0.0,0.0,3.0,0.0,0.0,0.0,1.28,3.04,0.69,
4.615,115.70758986978777,89.53980295461609,4.28,1.08,0.55,0.0,0.0,0.0,3.0,0.0,0.0,0.0,1.37,2.94,0.78,
4.638,115.81775898697877,89.6929802954616,2.27,-0.65,-0.73,0.0,0.0,0.0,3.0,0.0,0.0,0.0,1.18,2.94,0.69,
4.662,115.81077589869787,89.90629802954616,1.93,-0.6,0.76,0.0,0.0,0.0,3.0,0.0,0.0,0.0,1.28,2.94,0.49,
4.685,115.86407758986978,90.01762980295462,1.02,-0.66,-0.49,0.0,0.0,0.0,3.0,0.0,0.0,0.0,1.18,2.94,0.49,
4.709,115.89640775898698,90.19076298029546,1.37,-0.2,-0.79,0.0,0.0,0.0,3.0,0.0,0.0,0.0,1.18,2.84,0.49,
4.733,115.8456407758987,90.35207629802956,0.4,-0.67,-0.08,0.0,0.0,0.0,3.0,0.0,0.0,0.0,1.18,2.84,0.49,
4.757,115.88556407758986,90.45820762980296,0.72,0.32,-0.17,0.0,0.0,0.0,3.0,0.0,0.0,0.0,1.18,2.94,0.59,
4.781,115.86255640775899,90.5768207629803,0.37,-0.32,-0.69,0.0,0.0,0.0,3.0,0.0,0.0,0.0,1.08,2.84,0.59,
4.804,115.8602556407759,90.61568207629804,-1.23,-0.09,-0.66,0.0,0.0,0.0,3.0,0.0,0.0,0.0,1.18,2.84,0.59,
4.828,115.9860255640776,90.7545682076298,-1.44,0.58,-0.44,0.0,0.0,0.0,3.0,0.0,0.0,0.0,1.18,2.84,0.69,
4.851,116.04360255640775,90.86745682076298,-1.24,-1.12,-0.19,0.0,0.0,0.0,3.0,0.0,0.0,0.0,1.18,2.84,0.69,
4.875,116.06736025564076,90.9417456820763,-0.47,-0.93,0.05,0.0,0.0,0.0,3.0,0.0,0.0,0.0,1.28,2.75,0.69,
4.898,116.09673602556407,90.97617456820763,-0.76,-1.61,-0.64,0.0,0.0,0.0,3.0,0.0,0.0,0.0,1.28,2.75,0.69,
4.922,116.2166736025564,91.04261745682075,-0.98,-0.85,0.81,0.0,0.0,0.0,3.0,0.0,0.0,0.0,1.18,2.75,0.49,
4.945,116.17466736025564,91.09426174568208,-1.24,-1.44,-0.25,0.0,0.0,0.0,3.0,0.0,0.0,0.0,1.18,2.84,0.39,
4.97,116.20646673602556,91.18942617456821,-1.47,-0.82,0.18,0.0,0.0,0.0,3.0,0.0,0.0,0.0,1.18,2.75,0.59,
4.994,116.19164667360255,91.31594261745683,-1.56,-0.53,0.02,0.0,0.0,0.0,3.0,0.0,0.0,0.0,1.18,2.84,0.59,
5.017,116.17216466736025,91.33759426174568,-1.53,-0.53,0.4,0.0,0.0,0.0,3.0,0.0,0.0,0.0,1.28,2.94,0.59,
5.041,116.16121646673602,91.36675942617457,-1.84,0.53,0.34,0.0,0.0,0.0,3.0,0.0,0.0,0.0,1.28,2.94,0.59,
5.064,116.1691216466736,91.39667594261746,-1.65,1.39,0.44,0.0,0.0,0.0,3.0,0.0,0.0,0.0,1.37,3.24,0.49,
5.088,116.19691216466735,91.44466759426174,-1.92,0.27,-0.67,0.0,0.0,0.0,3.0,0.0,0.0,0.0,1.47,3.53,0.59,
5.111,116.27169121646673,91.53046675942619,-3.08,1.62,0.87,0.0,0.0,0.0,3.0,0.0,0.0,0.0,1.47,3.63,0.69,
5.135,116.29716912164668,91.61104667594263,-2.92,-0.05,-0.61,0.0,0.0,0.0,3.0,0.0,0.0,0.0,1.57,3.73,0.69,
5.158,116.32671691216467,91.64610466759427,-3.14,-0.19,0.79,0.0,0.0,0.0,3.0,0.0,0.0,0.0,1.57,3.73,0.69,
5.182,116.28467169121646,91.65861046675943,-2.84,-1.37,-0.05,0.0,0.0,0.0,3.0,0.0,0.0,0.0,1.47,3.73,0.59,
5.206,116.29846716912165,91.68686104667594,-2.62,-1.33,0.56,0.0,0.0,0.0,3.0,0.0,0.0,0.0,1.57,3.63,0.59,
5.229,116.23684671691217,91.7076861046676,-2.97,-1.37,0.26,0.0,0.0,0.0,3.0,0.0,0.0,0.0,1.57,3.63,0.59,
5.254,116.31168467169121,91.69176861046677,-2.81,-0.12,0.54,0.0,0.0,0.0,3.0,0.0,0.0,0.0,1.47,3.53,0.59,
5.277,116.33716846716912,91.71717686104668,-3.15,-1.39,0.13,0.0,0.0,0.0,3.0,0.0,0.0,0.0,1.57,3.43,0.49,
5.301,116.38471684671691,91.74671768610467,-3.16,-0.89,0.24,0.0,0.0,0.0,3.0,0.0,0.0,0.0,1.47,3.34,0.69,
5.324,116.41647168467169,91.80367176861047,-2.95,-0.56,0.29,0.0,0.0,0.0,3.0,0.0,0.0,0.0,1.47,3.24,0.59,
5.348,116.39264716846716,91.79136717686104,-2.22,-1.6,-0.11,0.0,0.0,0.0,3.0,0.0,0.0,0.0,1.57,3.24,0.59,
5.371,116.40826471684672,91.82613671768611,-2.78,-0.71,0.73,0.0,0.0,0.0,3.0,0.0,0.0,0.0,1.47,3.24,0.49,
5.395,116.43682647168467,91.82961367176861,-3.21,-1.4,-0.23,0.0,0.0,0.0,3.0,0.0,0.0,0.0,1.37,3.24,0.59,
5.419,116.38568264716847,91.83896136717686,-3.43,-0.31,0.73,0.0,0.0,0.0,3.0,0.0,0.0,0.0,1.47,3.14,0.78,
5.442,116.38056826471684,91.8038961367177,-3.44,-0.47,-0.5,0.0,0.0,0.0,3.0,0.0,0.0,0.0,1.47,3.14,0.59,
5.467,116.41605682647169,91.79138961367177,-3.31,-0.94,-0.16,0.0,0.0,0.0,3.0,0.0,0.0,0.0,1.57,3.24,0.59,
5.49,116.47360568264718,91.78113896136718,-3.24,-1.02,0.23,0.0,0.0,0.0,3.0,0.0,0.0,0.0,1.47,3.14,0.69,
5.514,116.51536056826471,91.76211389613673,-3.13,-0.47,-0.01,0.0,0.0,0.0,3.0,0.0,0.0,0.0,1.47,3.24,0.78,
5.537,116.60053605682647,91.75121138961367,-3.05,-1.47,0.08,0.0,0.0,0.0,3.0,0.0,0.0,0.0,1.47,3.24,0.69,
5.561,116.63605360568265,91.75912113896138,-3.09,-0.85,-0.21,0.0,0.0,0.0,3.0,0.0,0.0,0.0,1.47,3.04,0.69,
5.584,116.67560536056828,91.72391211389613,-3.24,-1.44,0.11,0.0,0.0,0.0,3.0,0.0,0.0,0.0,1.37,3.14,0.59,
5.608,116.67956053605684,91.70239121138961,-2.85,-0.34,0.3,0.0,0.0,0.0,3.0,0.0,0.0,0.0,1.37,3.14,0.59,
5.632,116.68895605360568,91.70023912113896,-3.0,-1.51,-0.91,0.0,0.0,0.0,3.0,0.0,0.0,0.0,1.37,3.04,0.69,
5.656,116.65389560536057,91.70902391211389,-3.18,-0.41,0.69,0.0,0.0,0.0,3.0,0.0,0.0,0.0,1.37,3.14,0.78,
5.68,116.66838956053606,91.66490239121138,-3.01,-1.24,-0.22,0.0,0.0,0.0,3.0,0.0,0.0,0.0,1.47,3.04,0.78,
5.703,116.6608389560536,91.60649023912113,-3.22,-1.37,0.27,0.0,0.0,0.0,3.0,0.0,0.0,0.0,1.37,3.14,0.78,
5.727,116.62408389560537,91.62764902391211,-3.1,-0.54,0.4,0.0,0.0,0.0,3.0,0.0,0.0,0.0,1.47,2.94,0.59,
5.75,116.60240838956054,91.60276490239121,-3.08,-0.77,0.05,0.0,0.0,0.0,3.0,0.0,0.0,0.0,1.47,3.04,0.69,
5.774,116.63624083895606,91.61827649023914,-3.18,-0.41,0.08,0.0,0.0,0.0,3.0,0.0,0.0,0.0,1.28,3.04,0.69,
5.797,116.6576240838956,91.64682764902392,-3.45,-0.75,0.07,0.0,0.0,0.0,3.0,0.0,0.0,0.0,1.37,3.14,0.69,
5.821,116.61476240838955,91.6856827649024,-3.39,-0.79,-0.03,0.0,0.0,0.0,3.0,0.0,0.0,0.0,1.37,3.04,0.69,
5.844,116.62847624083895,91.70756827649024,-3.22,-0.89,0.08,0.0,0.0,0.0,3.0,0.0,0.0,0.0,1.37,3.04,0.69,
5.869,116.5938476240839,91.67375682764902,-3.37,-0.82,0.27,0.0,0.0,0.0,3.0,0.0,0.0,0.0,1.47,3.04,0.69,
5.893,116.64438476240841,91.6613756827649,-3.21,-0.87,0.08,0.0,0.0,0.0,3.0,0.0,0.0,0.0,1.37,3.14,0.59,
5.916,116.64043847624083,91.6241375682765,-3.24,-0.6,-0.09,0.0,0.0,0.0,3.0,0.0,0.0,0.0,1.37,3.14,0.59,
5.94,116.68504384762409,91.63841375682765,-3.34,-0.76,0.02,0.0,0.0,0.0,3.0,0.0,0.0,0.0,1.37,3.14,0.69,
5.963,116.6715043847624,91.67584137568278,-3.4,-0.51,0.3,0.0,0.0,0.0,3.0,0.0,0.0,0.0,1.37,3.24,0.78,
5.987,116.67915043847626,91.66158413756827,-3.21,-0.73,-0.15,0.0,0.0,0.0,3.0,0.0,0.0,0.0,1.28,3.14,0.69,
6.01,116.68891504384763,91.70515841375683,-3.4,-1.08,-0.11,0.0,0.0,0.0,3.0,0.0,0.0,0.0,1.37,3.14,0.69,
6.034,116.72589150438476,91.67351584137569,-3.23,-0.79,0.32,0.0,0.0,0.0,3.0,0.0,0.0,0.0,1.37,3.14,0.69,
6.057,116.80158915043847,91.67035158413756,-3.45,-1.12,0.36,0.0,0.0,0.0,3.0,0.0,0.0,0.0,1.37,3.04,0.59,
6.082,116.79115891504385,91.58903515841375,-3.11,-1.33,0.11,0.0,0.0,0.0,3.0,0.0,0.0,0.0,1.37,3.04,0.59,
6.106,116.79011589150439,91.61690351584139,-3.7,-0.21,0.34,0.0,0.0,0.0,3.0,0.0,0.0,0.0,1.37,3.04,0.1,
6.129,116.81701158915043,91.62869035158414,-3.75,-1.28,-0.14,0.0,0.0,0.0,3.0,0.0,0.0,0.0,1.37,3.04,0.1,
6.153,116.81070115891504,91.67486903515842,-3.57,-0.37,0.22,0.0,0.0,0.0,3.0,0.0,0.0,0.0,1.37,3.04,0.2,
6.176,116.8280701158915,91.68848690351584,-3.47,-1.18,-0.24,0.0,0.0,0.0,3.0,0.0,0.0,0.0,1.37,3.04,0.2,
6.2,116.82080701158914,91.63584869035158,-3.64,-0.42,0.25,0.0,0.0,0.0,3.0,0.0,0.0,0.0,1.37,3.04,0.2,
6.223,116.86508070115892,91.62158486903516,-3.68,-0.4,0.04,0.0,0.0,0.0,3.0,0.0,0.0,0.0,1.37,3.04,0.1,
6.247,116.8875080701159,91.62915848690352,-3.37,-0.68,0.09,0.0,0.0,0.0,3.0,0.0,0.0,0.0,1.37,2.94,0.2,
6.27,116.88075080701158,91.62991584869035,-3.11,-0.98,0.37,0.0,0.0,0.0,3.0,0.0,0.0,0.0,1.37,2.94,0.2,
6.294,116.88907508070116,91.55799158486903,-3.27,-0.86,0.27,0.0,0.0,0.0,3.0,0.0,0.0,0.0,1.37,3.04,0.1,
6.319,116.82690750807011,91.5777991584869,-3.37,-1.4,0.04,0.0,0.0,0.0,3.0,0.0,0.0,0.0,1.28,3.04,0.29,
6.342,116.85669075080702,91.5887799158487,-3.15,-0.93,0.59,0.0,0.0,0.0,3.0,0.0,0.0,0.0,1.28,2.94,0.39,
6.366,116.8596690750807,91.57187799158487,-2.97,-1.44,-0.09,0.0,0.0,0.0,3.0,0.0,0.0,0.0,1.37,2.84,0.2,
6.389,116.90496690750805,91.55218779915847,-3.15,-1.15,0.11,0.0,0.0,0.0,3.0,0.0,0.0,0.0,1.28,2.94,0.2,
6.413,116.89149669075081,91.50521877991585,-3.05,-0.98,0.08,0.0,0.0,0.0,4.0,0.0,0.0,0.0,1.37,2.94,0.29,
6.436,116.90814966907507,91.52752187799159,-3.28,-0.8,0.09,0.0,0.0,0.0,3.0,0.0,0.0,0.0,1.28,3.04,0.29,
6.46,116.9098149669075,91.54775218779915,-3.22,-0.68,0.24,0.0,0.0,0.0,3.0,0.0,0.0,0.0,1.28,3.04,0.29,
6.483,116.93698149669075,91.54977521877991,-2.92,-1.11,0.24,0.0,0.0,0.0,4.0,0.0,0.0,0.0,1.37,2.94,0.29,
6.507,116.93069814966908,91.49597752187799,-3.03,-0.89,0.52,0.0,0.0,0.0,4.0,0.0,0.0,0.0,1.28,2.94,0.39,
6.531,116.9840698149669,91.48159775218781,-3.3,-0.6,0.6,0.0,0.0,0.0,4.0,0.0,0.0,0.0,1.37,3.04,0.29,
6.555,116.98940698149669,91.43515977521878,-3.1,-0.9,0.04,0.0,0.0,0.0,4.0,0.0,0.0,0.0,1.37,3.04,0.29,
6.579,117.04394069814967,91.48451597752187,-3.17,-0.32,0.38,0.0,0.0,0.0,4.0,0.0,0.0,0.0,1.28,3.04,0.29,
6.602,117.00439406981496,91.46245159775218,-3.41,-0.95,0.24,0.0,0.0,0.0,4.0,0.0,0.0,0.0,1.28,3.14,0.39,
6.626,117.0094394069815,91.44224515977523,-3.37,-0.47,0.29,0.0,0.0,0.0,4.0,0.0,0.0,0.0,1.37,3.14,0.39,
6.649,117.04594394069815,91.41322451597753,-3.21,-1.54,-0.36,0.0,0.0,0.0,4.0,0.0,0.0,0.0,1.28,3.04,0.29,
6.673,117.04059439406983,91.38332245159776,-3.15,-0.54,0.33,0.0,0.0,0.0,4.0,0.0,0.0,0.0,1.28,3.14,0.39,
6.696,117.03105943940697,91.38033224515978,-3.12,-1.43,0.27,0.0,0.0,0.0,4.0,0.0,0.0,0.0,1.37,3.14,0.49,
6.72,117.01210594394071,91.38903322451598,-3.16,-0.81,0.38,0.0,0.0,0.0,4.0,0.0,0.0,0.0,1.28,3.04,0.49,
6.744,117.01021059439408,91.3719033224516,-2.96,-0.6,0.47,0.0,0.0,0.0,4.0,0.0,0.0,0.0,1.28,3.04,0.39,
6.767,117.0460210594394,91.37019033224516,-3.02,-0.73,0.57,0.0,0.0,0.0,4.0,0.0,0.0,0.0,1.37,3.14,0.39,
6.792,117.05860210594393,91.37001903322452,-3.04,-1.32,0.24,0.0,0.0,0.0,4.0,0.0,0.0,0.0,1.37,3.24,0.39,
6.815,117.0868602105944,91.36100190332246,-2.89,-0.79,0.37,0.0,0.0,0.0,4.0,0.0,0.0,0.0,1.37,3.14,0.49,
6.839,117.05368602105943,91.29710019033224,-3.08,-1.29,0.33,0.0,0.0,0.0,4.0,0.0,0.0,0.0,1.37,3.14,0.49,
6.862,117.05936860210593,91.34471001903323,-3.14,-0.66,0.56,0.0,0.0,0.0,4.0,0.0,0.0,0.0,1.37,3.14,0.49,
6.886,117.08693686021059,91.34047100190332,-3.0,-1.37,0.11,0.0,0.0,0.0,4.0,0.0,0.0,0.0,1.37,3.24,0.49,
6.909,117.12569368602105,91.35804710019033,-3.23,-0.84,0.63,0.0,0.0,0.0,4.0,0.0,0.0,0.0,1.28,3.24,0.39,
6.933,117.0935693686021,91.38680471001904,-3.01,-0.95,0.05,0.0,0.0,0.0,4.0,0.0,0.0,0.0,1.37,3.24,0.49,
6.957,117.1263569368602,91.40768047100191,-3.13,-0.85,0.34,0.0,0.0,0.0,4.0,0.0,0.0,0.0,1.37,3.14,0.59,
6.98,117.15663569368601,91.3647680471002,-3.09,-0.55,0.36,0.0,0.0,0.0,4.0,0.0,0.0,0.0,1.37,3.34,0.49,
7.004,117.1236635693686,91.38747680471002,-3.3,-1.02,0.66,0.0,0.0,0.0,4.0,0.0,0.0,0.0,1.37,3.34,0.49,
7.027,117.12936635693686,91.317747680471,-3.47,-0.95,0.49,0.0,0.0,0.0,4.0,0.0,0.0,0.0,1.37,3.43,0.39,
7.051,117.08493663569368,91.2927747680471,-3.38,-0.58,0.35,0.0,0.0,0.0,4.0,0.0,0.0,0.0,1.37,3.43,0.49,
7.075,117.17049366356937,91.3352774768047,-3.34,-0.86,0.45,0.0,0.0,0.0,4.0,0.0,0.0,0.0,1.37,3.43,0.49,
7.099,117.17904936635694,91.26752774768048,-3.21,-1.02,-0.05,0.0,0.0,0.0,4.0,0.0,0.0,0.0,1.37,3.34,0.59,
7.122,117.20690493663568,91.26075277476805,-3.42,-0.94,0.04,0.0,0.0,0.0,4.0,0.0,0.0,0.0,1.37,3.43,0.49,
7.146,117.22769049366357,91.2510752774768,-3.32,-0.44,-0.1,0.0,0.0,0.0,4.0,0.0,0.0,0.0,1.37,3.43,0.49,
7.17,117.25676904936635,91.23210752774767,-3.57,-0.24,0.24,0.0,0.0,0.0,4.0,0.0,0.0,0.0,1.37,3.34,0.39,
7.193,117.26867690493663,91.22121075277477,-3.82,-1.18,-0.27,0.0,0.0,0.0,4.0,0.0,0.0,0.0,1.28,3.24,0.59,
7.217,117.30586769049367,91.23812107527748,-4.09,-0.7,-0.12,0.0,0.0,0.0,4.0,0.0,0.0,0.0,1.28,3.24,0.59,
7.24,117.41758676904938,91.19481210752774,-4.16,-0.09,-0.01,0.0,0.0,0.0,3.0,0.0,0.0,0.0,1.28,3.14,0.39,
7.265,117.43775867690493,91.16348121075276,-3.69,-1.16,-0.24,0.0,0.0,0.0,3.0,0.0,0.0,0.0,1.28,3.04,0.69,
7.288,117.43977586769049,91.16934812107527,-3.5,-1.26,-0.25,0.0,0.0,0.0,3.0,0.0,0.0,0.0,1.28,2.94,0.69,
7.312,117.43097758676906,91.16093481210753,-4.14,-1.21,-0.22,0.0,0.0,0.0,3.0,0.0,0.0,0.0,1.28,2.84,0.78,
7.335,117.48409775867691,91.17809348121077,-3.82,-0.32,0.2,0.0,0.0,0.0,3.0,0.0,0.0,0.0,1.18,2.75,0.59,
7.359,117.45340977586768,91.19780934812107,-4.02,-1.9,-0.06,0.0,0.0,0.0,3.0,0.0,0.0,0.0,1.18,2.55,0.69,
7.383,117.45034097758676,91.2087809348121,-4.29,-0.08,0.63,0.0,0.0,0.0,3.0,0.0,0.0,0.0,1.18,2.65,0.59,
7.406,117.44103409775867,91.1648780934812,-4.07,-0.93,-0.62,0.0,0.0,0.0,3.0,0.0,0.0,0.0,1.08,2.55,0.59,
7.431,117.47610340977586,91.14248780934811,-4.18,-0.9,0.2,0.0,0.0,0.0,3.0,0.0,0.0,0.0,1.18,2.45,0.69,
7.454,117.4346103409776,91.09524878093481,-4.19,-0.88,-0.11,0.0,0.0,0.0,3.0,0.0,0.0,0.0,1.18,2.45,0.59,
7.478,117.42146103409776,91.03652487809349,-4.38,-0.93,1.11,0.0,0.0,0.0,3.0,0.0,0.0,0.0,1.18,2.45,0.59,
7.501,117.44714610340978,91.02165248780933,-4.89,-0.54,0.25,0.0,0.0,0.0,3.0,0.0,0.0,0.0,1.18,2.45,0.69,
7.525,117.52171461034098,90.96616524878092,-4.77,-0.73,0.86,0.0,0.0,0.0,3.0,0.0,0.0,0.0,1.18,2.26,0.78,
7.548,117.4931714610341,90.99661652487809,-5.37,-1.24,0.17,0.0,0.0,0.0,3.0,0.0,0.0,0.0,1.18,2.26,0.78,
7.572,117.51731714610341,90.97266165248782,-6.53,-0.65,0.63,0.0,0.0,0.0,3.0,0.0,0.0,0.0,1.08,2.26,0.69,
7.596,117.58273171461035,90.97026616524879,-8.82,-0.2,1.82,0.0,0.0,0.0,3.0,0.0,0.0,0.0,1.08,2.16,0.78,
7.619,117.57127317146103,90.86202661652487,-7.79,-1.81,0.44,0.0,0.0,0.0,3.0,0.0,0.0,0.0,0.98,2.06,0.88,
7.643,117.5521273171461,90.75220266165249,-8.66,-0.27,2.21,0.0,0.0,0.0,3.0,0.0,0.0,0.0,0.98,1.96,0.88,
7.667,117.59521273171461,90.63322026616525,-9.63,-1.51,0.92,0.0,0.0,0.0,3.0,0.0,0.0,0.0,0.98,1.86,0.69,
7.691,117.53652127317146,90.42332202661653,-10.08,-0.15,1.92,0.0,0.0,0.0,2.0,0.0,0.0,0.0,0.98,1.57,0.69,
7.714,117.46765212731714,90.26733220266166,-8.64,0.03,1.98,0.0,0.0,0.0,2.0,0.0,0.0,0.0,0.88,1.57,0.78,
7.738,117.56876521273172,90.06273322026617,-6.3,0.56,1.35,0.0,0.0,0.0,2.0,0.0,0.0,0.0,0.88,1.37,0.78,
7.761,117.57887652127317,89.97927332202661,-4.59,-0.41,0.58,0.0,0.0,0.0,2.0,0.0,0.0,0.0,0.88,1.28,0.88,
7.785,117.58888765212731,89.92592733220266,-3.76,-0.27,0.85,0.0,0.0,0.0,2.0,0.0,0.0,0.0,0.78,1.18,0.69,
7.809,117.38288876521273,89.99259273322026,-7.56,-4.96,3.85,0.0,0.0,0.0,2.0,0.0,0.0,0.0,0.88,1.18,0.59,
7.832,117.36228887652126,89.81925927332202,-5.22,3.65,1.89,0.0,0.0,0.0,2.0,0.0,0.0,0.0,0.69,0.98,0.59,
7.856,117.44122888765212,89.7839259273322,-1.64,-7.45,0.24,0.0,0.0,0.0,2.0,0.0,0.0,0.0,0.69,0.88,0.69,
7.879,117.4851228887652,89.76239259273322,-4.98,0.4,4.01,0.0,0.0,0.0,2.0,0.0,0.0,0.0,0.69,0.78,0.69,
7.903,117.62451228887652,89.70623925927333,-2.7,-0.03,-1.1,0.0,0.0,0.0,2.0,0.0,0.0,0.0,0.69,0.78,0.69,
7.926,117.63845122888765,89.70062392592733,-3.73,1.18,2.66,0.0,0.0,0.0,2.0,0.0,0.0,0.0,0.69,0.69,0.69,
7.95,117.73884512288878,89.60106239259272,-1.79,0.44,-0.24,0.0,0.0,0.0,2.0,0.0,0.0,0.0,0.69,0.78,0.69,
7.973,117.75788451228888,89.56410623925927,-1.73,0.19,1.94,0.0,0.0,0.0,2.0,0.0,0.0,0.0,0.69,0.78,0.78,
7.997,117.7867884512289,89.48841062392594,-0.76,1.59,0.11,0.0,0.0,0.0,2.0,0.0,0.0,0.0,0.78,0.78,0.78,
8.02,117.81667884512288,89.48984106239259,-1.31,1.68,0.93,0.0,0.0,0.0,2.0,0.0,0.0,0.0,0.88,0.78,0.69,
8.044,117.80166788451228,89.46298410623925,-2.07,0.98,1.37,0.0,0.0,0.0,2.0,0.0,0.0,0.0,0.88,0.88,0.59,
8.068,117.81816678845122,89.48729841062392,-0.31,4.11,2.12,0.0,0.0,0.0,2.0,0.0,0.0,0.0,0.98,0.88,0.59,
8.091,117.89181667884513,89.49872984106239,2.65,1.5,1.61,0.0,0.0,0.0,2.0,0.0,0.0,0.0,0.98,0.98,0.59,
8.115,118.03418166788451,89.54487298410623,2.34,4.43,2.52,0.0,0.0,0.0,1.0,0.0,0.0,0.0,0.98,1.08,0.69,
8.138,118.17441816678844,89.67548729841063,5.82,3.5,-0.03,0.0,0.0,0.0,1.0,0.0,0.0,0.0,0.98,1.18,0.78,
8.162,118.14344181667884,89.67054872984106,10.14,5.4,-0.08,0.0,0.0,0.0,1.0,0.0,0.0,0.0,0.98,1.18,0.59,
8.185,118.27534418166789,89.68805487298411,14.85,5.4,-1.34,0.0,0.0,0.0,1.0,0.0,0.0,0.0,1.08,1.18,0.49,
8.21,118.5045344181668,89.82480548729842,21.08,4.15,-7.6,0.0,0.0,0.0,1.0,0.0,0.0,0.0,0.98,1.08,0.78,
8.233,118.64445344181668,90.53148054872985,30.84,12.03,-7.37,0.0,0.0,0.0,1.0,0.0,0.0,0.0,0.78,0.88,0.78,
8.257,119.14444534418166,91.63714805487298,31.52,-2.5,-4.65,0.0,0.0,0.0,1.0,0.0,0.0,0.0,0.69,0.69,0.59,
8.281,119.05044453441818,92.61171480548731,46.63,9.64,-7.56,0.0,0.0,0.0,1.0,0.0,0.0,0.0,0.49,0.59,0.39,
8.304,119.40104445344181,93.59117148054872,39.6,7.95,-4.4,0.0,0.0,0.0,2.0,0.0,0.0,0.0,0.39,0.88,0.39,
8.329,119.49910444534419,94.57111714805487,16.36,-7.38,2.54,0.0,0.0,0.0,3.0,0.0,0.0,0.0,0.29,1.96,0.1,
8.352,119.18491044453442,94.92111171480548,15.57,6.82,15.57,0.0,0.0,0.0,4.0,0.0,0.0,0.0,0.39,9.91,0.0,
8.376,119.88249104445345,95.69411117148054,10.3,8.76,-6.04,1.0,0.0,0.0,5.0,0.0,0.0,0.0,0.29,12.16,0.0,
8.4,120.10524910444535,96.28441111714805,-3.11,-7.15,4.99,1.0,0.0,0.0,5.0,0.0,0.0,0.0,0.1,14.03,0.0,
8.424,119.92052491044454,96.2534411117148,6.89,4.18,8.07,2.0,0.0,0.0,5.0,0.0,0.0,0.0,0.0,15.79,0.0,
8.449,120.14505249104445,96.65534411117147,-1.11,-2.07,-5.55,2.0,0.0,0.0,5.0,0.0,0.0,0.0,0.0,16.48,0.0,
8.472,119.97850524910444,96.88453441111714,-10.33,-0.69,7.84,2.0,0.0,0.0,6.0,0.0,0.0,0.0,0.0,17.07,0.0,
8.497,120.33985052491045,96.93445344111171,-10.57,0.52,-2.76,3.0,0.0,0.0,6.0,0.0,1.0,0.0,0.0,17.95,0.0,
8.52,119.88998505249106,96.79544534411117,-16.47,-9.88,-1.82,3.0,0.0,0.0,6.0,0.0,1.0,0.0,0.0,19.33,0.0,
8.545,120.0339985052491,96.34054453441112,-20.02,-1.48,9.39,3.0,0.0,0.0,7.0,0.0,1.0,0.0,0.0,21.48,0.0,
8.569,119.7333998505249,95.95305445344111,-12.13,0.39,-1.5,3.0,0.0,0.0,7.0,0.0,1.0,0.0,0.0,24.03,0.0,
8.593,119.8023399850525,95.57230544534411,-15.89,0.02,0.82,3.0,0.0,0.0,7.0,0.0,1.0,0.0,0.0,26.09,0.0,
8.617,119.77323399850523,95.36323054453442,-19.45,-3.16,4.3,3.0,0.0,0.0,7.0,0.0,1.0,0.0,0.0,27.47,0.78,
8.641,119.95932339985052,95.04532305445343,-22.79,-4.93,2.09,3.0,0.0,0.0,8.0,0.0,1.0,0.0,0.0,28.45,0.88,
8.666,119.88793233998504,94.88753230544535,-23.42,-8.6,2.96,3.0,0.0,0.0,8.0,0.0,1.0,0.0,0.0,29.14,0.59,
8.69,120.00679323399851,94.46675323054454,-17.32,-1.43,6.79,3.0,0.0,0.0,8.0,0.0,1.0,0.0,0.0,30.21,0.98,
8.714,119.99167932339985,94.18167532305446,-7.48,-6.47,4.99,3.0,0.0,0.0,8.0,0.0,2.0,0.0,0.0,30.71,1.67,
8.738,120.13416793233999,93.96416753230545,-3.96,-1.43,5.05,3.0,0.0,0.0,8.0,0.0,2.0,0.0,0.0,30.31,1.57,
8.763,119.914416793234,93.85241675323054,2.64,-7.43,1.93,3.0,0.0,0.0,8.0,0.0,2.0,0.0,0.0,29.43,0.88,
8.786,119.8834416793234,93.81424167532305,5.42,-1.73,2.73,3.0,0.0,0.0,8.0,0.0,2.0,0.0,0.0,28.25,0.49,
8.811,119.70034416793234,93.8554241675323,3.98,-8.82,1.81,3.0,0.0,0.0,8.0,0.0,2.0,0.0,0.0,26.98,0.49,
8.835,119.49303441679322,93.81454241675323,6.49,-5.32,4.73,3.0,0.0,0.0,8.0,0.0,2.0,0.0,0.0,25.51,0.1,
8.859,119.51730344167932,93.77445424167533,3.7,-4.02,-3.51,3.0,0.0,0.0,8.0,0.0,2.0,0.0,0.0,23.94,0.0,
8.883,119.27673034416793,93.83344542416754,3.45,-5.82,-0.55,3.0,0.0,0.0,8.0,0.0,2.0,0.0,0.0,22.46,0.0,
8.907,119.17167303441678,93.85734454241675,-0.06,-5.72,0.63,3.0,0.0,0.0,8.0,0.0,1.0,0.0,0.0,20.99,0.29,
8.931,119.06216730344167,93.93173445424168,-1.9,-2.22,-1.92,3.0,0.0,0.0,8.0,0.0,1.0,0.0,0.0,19.62,1.28,
8.955,118.94321673034418,93.93917344542417,-4.87,-5.9,-4.14,3.0,0.0,0.0,8.0,0.0,1.0,0.0,0.0,18.25,1.37,
8.979,118.81432167303441,93.98491734454241,-2.63,-1.99,1.33,3.0,0.0,0.0,7.0,0.0,1.0,0.0,0.0,17.07,1.37,
9.004,118.71143216730344,93.89049173445424,-2.28,-0.13,-3.68,2.0,0.0,0.0,7.0,0.0,1.0,0.0,0.0,16.19,2.26,
9.027,118.73714321673035,93.97104917344544,-2.04,1.92,0.89,2.0,0.0,0.0,7.0,0.0,1.0,0.0,0.0,15.21,2.45,
9.052,118.75771432167303,93.98810491734454,-3.84,-0.39,-3.81,2.0,0.0,0.0,6.0,0.0,1.0,0.0,0.0,14.42,1.96,
9.075,118.8767714321673,94.21481049173445,-6.7,3.74,-3.86,2.0,0.0,0.0,6.0,0.0,1.0,0.0,0.0,13.73,1.77,
9.1,118.89767714321673,94.19248104917344,-9.35,-0.47,0.22,1.0,0.0,0.0,6.0,0.0,1.0,0.0,0.0,13.05,1.18,
9.123,118.85476771432167,94.03724810491734,-8.93,5.73,-3.05,1.0,0.0,0.0,6.0,0.0,1.0,0.0,0.0,12.85,0.98,
9.148,119.04847677143216,93.98572481049175,-5.6,6.81,-1.56,1.0,0.0,0.0,6.0,0.0,1.0,0.0,0.0,12.75,1.47,
9.171,119.15784767714321,94.05257248104918,-4.39,4.72,-0.39,1.0,0.0,0.0,6.0,0.0,0.0,0.0,0.0,12.46,1.47,
9.195,119.22278476771432,94.11325724810493,-2.56,5.54,-0.72,1.0,0.0,0.0,5.0,0.0,0.0,0.0,0.0,11.87,1.57,
9.22,119.50827847677144,94.2543257248105,-0.79,3.3,-2.67,0.0,0.0,0.0,5.0,0.0,0.0,0.0,0.0,11.38,1.28,
9.243,119.67182784767715,94.30443257248105,-3.03,1.98,-1.52,0.0,0.0,0.0,5.0,0.0,0.0,0.0,0.0,10.99,1.08,
9.268,119.7061827847677,94.46244325724811,-0.9,6.6,0.63,0.0,0.0,0.0,5.0,0.0,0.0,0.0,0.0,10.69,1.37,
9.291,119.89861827847676,94.45124432572482,-2.89,3.37,-2.61,0.0,0.0,0.0,4.0,0.0,0.0,0.0,0.0,10.4,1.37,
9.315,120.07986182784768,94.55812443257248,0.9,15.59,1.27,0.0,0.0,0.0,4.0,0.0,0.0,0.0,0.0,10.1,1.47,
9.339,120.45798618278477,94.70381244325725,1.19,9.08,0.66,0.0,0.0,0.0,4.0,0.0,0.0,0.0,0.1,9.61,0.98,
9.363,120.50479861827847,94.70938124432571,-1.49,-1.59,-0.82,0.0,0.0,0.0,4.0,0.0,0.0,0.0,0.2,9.32,0.39,
9.387,120.62647986182785,94.69193812443257,-1.08,3.52,0.96,0.0,0.0,0.0,4.0,0.0,0.0,0.0,0.29,9.03,0.1,
9.41,120.65664798618278,94.71719381244326,0.56,6.51,-1.56,0.0,0.0,0.0,4.0,0.0,0.0,0.0,0.39,9.03,0.0,
9.434,120.71366479861827,94.77371938124433,-2.22,2.39,-2.03,0.0,0.0,0.0,4.0,0.0,0.0,0.0,0.49,8.93,0.2,
9.458,120.80036647986182,94.78837193812444,-4.22,4.79,0.27,0.0,0.0,0.0,4.0,0.0,0.0,0.0,0.78,8.93,0.1,
9.482,120.85403664798618,94.59183719381244,-5.04,0.37,-3.73,0.0,0.0,0.0,4.0,0.0,0.0,0.0,0.69,9.03,0.39,
9.505,120.86840366479862,94.46418371938125,-5.24,3.63,3.9,0.0,0.0,0.0,3.0,0.0,0.0,0.0,0.88,9.03,0.49,
9.529,120.95084036647985,94.45141837193813,-7.08,-4.79,-6.17,0.0,0.0,0.0,4.0,0.0,0.0,0.0,0.88,9.03,0.39,
9.552,121.05808403664798,94.36014183719381,-10.34,2.51,2.84,0.0,0.0,0.0,4.0,0.0,0.0,0.0,0.88,9.32,0.2,
9.577,121.15880840366479,94.21601418371938,-13.93,-7.95,-3.99,0.0,0.0,0.0,4.0,0.0,0.0,0.0,0.69,9.81,0.0,
9.601,121.27688084036647,94.25560141837194,-12.19,-4.74,-4.54,0.0,0.0,0.0,5.0,0.0,0.0,0.0,0.39,10.5,0.0,
9.625,121.26168808403665,94.04356014183719,-12.98,-0.93,-2.6,0.0,0.0,0.0,5.0,0.0,0.0,0.0,0.2,11.38,0.0,
9.649,121.30516880840366,93.80635601418372,-12.11,-8.25,3.19,0.0,0.0,0.0,5.0,0.0,0.0,0.0,0.0,12.46,0.0,
9.673,121.31851688084036,93.85463560141838,-13.34,-8.68,-2.01,0.0,0.0,0.0,6.0,0.0,0.0,0.0,0.0,13.34,0.0,
9.697,121.17585168808404,93.67046356014185,-13.53,-5.23,3.08,0.0,0.0,0.0,6.0,0.0,0.0,0.0,0.0,14.42,0.0,
9.721,121.12558516880841,93.39104635601419,-13.98,-8.92,-3.61,1.0,0.0,0.0,7.0,0.0,0.0,0.0,0.0,15.6,0.0,
9.745,121.12055851688085,93.24610463560143,-9.32,-2.68,-0.26,1.0,0.0,0.0,7.0,0.0,0.0,0.0,0.0,16.68,0.0,
9.769,121.07505585168808,93.15961046356014,-9.45,-7.51,-2.44,1.0,0.0,0.0,7.0,0.0,0.0,0.0,0.0,17.56,0.0,
9.794,120.76450558516882,92.73696104635602,-9.08,-7.24,3.53,2.0,0.0,0.0,7.0,0.0,0.0,0.0,0.0,18.34,0.0,
9.818,120.54445055851689,92.5506961046356,-5.65,-4.18,-0.78,2.0,0.0,0.0,8.0,0.0,0.0,0.0,0.0,19.23,0.0,
9.842,120.50444505585169,92.57706961046355,-7.37,-4.74,-0.68,2.0,0.0,0.0,8.0,0.0,0.0,0.0,0.0,19.82,0.0,
9.866,120.47344450558516,92.31870696104636,-7.78,-0.69,0.57,2.0,0.0,0.0,8.0,0.0,0.0,0.0,0.0,20.4,0.0,
9.89,120.40734445055853,92.18487069610464,-4.29,-0.55,-1.25,2.0,0.0,0.0,8.0,0.0,0.0,0.0,0.0,20.8,0.0,
9.914,120.43673444505585,92.15348706961046,-5.05,-1.44,0.82,2.0,0.0,0.0,8.0,0.0,0.0,0.0,0.0,21.19,0.0,
9.938,120.42167344450559,92.13234870696104,-4.55,-2.46,-0.56,2.0,0.0,0.0,8.0,0.0,0.0,0.0,0.0,21.58,0.0,
9.962,120.41116734445056,92.0852348706961,-4.45,-0.58,0.88,2.0,0.0,0.0,8.0,0.0,0.0,0.0,0.0,21.97,0.0,
9.987,120.34711673444507,91.93652348706962,-4.55,-1.47,0.51,3.0,0.0,0.0,8.0,0.0,0.0,0.0,0.0,22.37,0.0,
10.01,120.31371167344452,91.90365234870697,-4.72,-1.01,0.73,3.0,0.0,0.0,9.0,0.0,0.0,0.0,0.0,22.86,0.0,
10.035,120.22037116734444,91.82836523487069,-5.08,-1.2,0.51,3.0,0.0,0.0,9.0,0.0,0.0,0.0,0.0,23.15,0.0,
10.059,120.19303711673444,91.62283652348707,-4.47,-0.17,1.47,3.0,0.0,0.0,9.0,0.0,0.0,0.0,0.0,23.54,0.0,
10.083,120.08230371167345,91.54828365234872,-5.74,-1.33,-1.14,3.0,0.0,0.0,9.0,0.0,0.0,0.0,0.0,24.33,0.0,
10.107,119.93623037116734,91.19882836523487,-4.92,2.46,1.99,3.0,0.0,0.0,9.0,0.0,0.0,0.0,0.0,24.92,0.0,
10.131,119.96662303711673,91.1818828365235,-4.81,-0.24,-1.95,2.0,0.0,0.0,9.0,0.0,0.0,0.0,0.0,25.9,0.29,
10.156,119.96066230371167,91.15318828365236,-5.85,0.13,-0.26,2.0,0.0,0.0,9.0,0.0,0.0,0.0,0.0,26.68,0.1,
10.18,120.02306623037117,91.17731882836524,-5.1,0.82,-4.18,2.0,0.0,0.0,8.0,0.0,0.0,0.0,0.0,27.27,0.1,
10.204,120.09230662303712,91.17073188283652,-4.07,-0.57,-1.44,2.0,0.0,0.0,8.0,0.0,0.0,0.0,0.0,27.86,0.39,
10.228,120.17123066230371,91.20607318828365,-4.79,-0.6,-0.56,2.0,0.0,0.0,8.0,0.0,0.0,0.0,0.0,28.35,0.29,
10.253,120.20612306623036,91.18260731882837,-5.17,0.11,-0.35,2.0,0.0,0.0,9.0,0.0,0.0,0.0,0.0,28.84,0.1,
10.276,120.29961230662305,91.11726073188282,-4.69,-1.07,-0.38,2.0,0.0,0.0,9.0,0.0,0.0,0.0,0.0,29.23,0.0,
10.301,120.48896123066231,91.37172607318828,-6.18,-1.26,-0.12,2.0,0.0,0.0,9.0,0.0,0.0,0.0,0.0,29.53,0.0,
10.326,120.59789612306623,91.43317260731884,-5.83,-2.15,-1.95,2.0,0.0,0.0,9.0,0.0,0.0,0.0,0.0,29.72,0.0,
10.349,120.45578961230662,91.28631726073188,-5.94,-1.51,1.26,3.0,0.0,0.0,9.0,0.0,0.0,0.0,0.0,30.12,0.0,
10.374,120.32457896123067,91.02863172607319,-6.54,-1.0,2.34,3.0,0.0,0.0,9.0,0.0,0.0,0.0,0.0,30.21,0.0,
10.397,120.15845789612307,90.76886317260731,-6.18,-2.11,2.12,3.0,0.0,0.0,9.0,0.0,1.0,0.0,0.0,30.51,0.0,
10.422,120.1148457896123,90.61688631726072,-5.5,-0.5,-0.07,3.0,0.0,0.0,9.0,0.0,1.0,0.0,0.0,30.8,0.0,
10.446,120.16448457896124,90.66468863172608,-5.46,-1.29,-1.85,3.0,0.0,0.0,9.0,0.0,1.0,0.0,0.0,30.9,0.0,
10.47,120.19644845789612,90.58846886317261,-4.13,-1.49,-0.41,3.0,0.0,0.0,9.0,0.0,1.0,0.0,0.0,31.0,0.0,
10.494,120.27164484578962,90.65284688631725,-3.07,-0.95,1.19,3.0,0.0,0.0,9.0,0.0,1.0,0.0,0.0,31.2,0.0,
10.519,120.31516448457896,90.61428468863173,-2.03,-1.94,0.62,3.0,0.0,0.0,9.0,0.0,1.0,0.0,0.0,31.2,0.0,
10.543,120.27451644845789,90.60142846886316,-2.31,-1.44,1.18,3.0,0.0,0.0,9.0,0.0,1.0,0.0,0.0,31.1,0.0,
10.567,120.27945164484579,90.60914284688633,-3.13,-2.4,0.65,3.0,1.0,0.0,9.0,0.0,1.0,0.0,0.0,30.9,0.0,
10.591,120.20794516448458,90.55591428468864,-3.41,-1.78,1.09,3.0,1.0,0.0,9.0,0.0,1.0,0.0,0.0,30.71,0.0,
10.615,120.22779451644847,90.53259142846886,-3.79,-2.37,-0.35,3.0,1.0,0.0,10.0,0.0,1.0,0.0,0.0,30.71,0.0,
10.64,120.28377945164485,90.65625914284689,-4.9,-1.31,0.29,3.0,1.0,0.0,9.0,0.0,1.0,0.0,0.0,30.61,0.0,
10.663,120.30737794516449,90.63262591428469,-6.55,-0.97,-2.46,3.0,1.0,0.0,10.0,0.0,1.0,0.0,0.0,31.0,0.1,
10.688,120.37273779451644,90.55826259142847,-6.06,-0.83,-1.63,4.0,1.0,0.0,10.0,0.0,1.0,0.0,0.0,31.49,0.1,
10.713,120.35227377945164,90.50582625914285,-5.31,-1.07,-0.03,4.0,1.0,0.0,10.0,0.0,1.0,0.0,0.0,31.88,0.0,
10.737,120.40422737794516,90.46458262591429,-4.87,-1.15,0.34,4.0,1.0,0.0,10.0,0.0,1.0,0.0,0.0,32.27,0.0,
10.761,120.39142273779451,90.38845826259143,-4.15,-1.02,0.25,4.0,1.0,0.0,10.0,0.0,1.0,0.0,0.0,32.67,0.0,
10.785,120.39014227377945,90.32684582625913,-3.53,-0.97,-0.05,4.0,1.0,0.0,10.0,0.0,1.0,0.0,0.0,32.86,0.0,
10.81,120.41701422737795,90.36568458262593,-3.0,0.25,0.31,4.0,1.0,0.0,10.0,0.0,1.0,0.0,0.0,32.96,0.0,
10.833,120.4017014227378,90.32456845826259,-2.37,-0.6,-0.42,4.0,1.0,0.0,10.0,0.0,1.0,0.0,0.0,33.16,0.0,
10.858,120.36417014227378,90.27545684582626,-1.78,-0.66,0.02,4.0,1.0,0.0,10.0,0.0,1.0,0.0,0.0,33.06,0.0,
10.883,120.36041701422738,90.24354568458261,-1.25,-0.84,-0.64,4.0,1.0,0.0,10.0,0.0,1.0,0.0,0.0,33.06,0.0,
10.907,120.36904170142274,90.26735456845826,-0.68,-0.84,-0.67,4.0,1.0,0.0,10.0,0.0,1.0,0.0,0.0,32.67,0.0,
10.931,120.36990417014229,90.28773545684584,-1.27,-0.78,0.11,4.0,1.0,0.0,10.0,0.0,1.0,0.0,0.0,32.37,0.1,
10.955,120.37899041701422,90.34377354568458,-1.46,-0.54,-0.18,4.0,1.0,0.0,10.0,0.0,1.0,0.0,0.0,32.08,0.29,
10.98,120.42489904170144,90.34037735456846,-1.32,-0.46,-0.08,4.0,1.0,0.0,9.0,0.0,1.0,0.0,0.0,31.59,0.39,
11.003,120.40248990417015,90.39403773545686,-0.89,-1.17,-0.69,3.0,0.0,0.0,9.0,0.0,1.0,0.0,0.0,31.1,1.37,
11.028,120.39124899041701,90.3724037735457,-1.38,-0.72,0.21,3.0,0.0,0.0,9.0,0.0,1.0,0.0,0.0,30.71,1.08,
11.053,120.4441248990417,90.45124037735457,-1.33,-0.89,-0.03,3.0,0.0,0.0,9.0,0.0,1.0,0.0,0.0,30.31,0.69,
11.076,120.50341248990416,90.54912403773545,-1.76,-0.82,-0.36,3.0,0.0,0.0,9.0,0.0,1.0,0.0,0.0,29.92,0.69,
11.101,120.53634124899042,90.54991240377355,-1.72,-0.77,0.69,3.0,0.0,0.0,9.0,0.0,1.0,0.0,0.0,29.63,0.59,
11.125,120.53963412489904,90.55899124037735,-1.92,-1.91,-0.09,3.0,0.0,0.0,9.0,0.0,1.0,0.0,0.0,29.23,0.69,
11.149,120.57596341248991,90.56889912403773,-2.3,-0.45,1.18,3.0,0.0,0.0,9.0,0.0,1.0,0.0,0.0,28.74,0.2,
11.173,120.59759634124899,90.65988991240378,-2.53,-1.75,-0.47,3.0,0.0,0.0,9.0,0.0,1.0,0.0,0.0,28.25,0.29,
11.198,120.63575963412491,90.67798899124038,-2.05,-0.6,0.47,3.0,0.0,0.0,9.0,0.0,1.0,0.0,0.0,27.66,0.2,
11.222,120.6755759634125,90.69779889912405,-2.23,-1.03,0.18,3.0,0.0,0.0,9.0,0.0,1.0,0.0,0.0,27.37,0.1,
11.246,120.66155759634124,90.77177988991241,-2.32,-0.78,0.5,3.0,0.0,0.0,9.0,0.0,1.0,0.0,0.0,27.17,0.29,
11.27,120.66915575963412,90.77917798899124,-2.5,-1.09,0.5,3.0,0.0,0.0,9.0,0.0,0.0,0.0,0.0,26.98,0.1,
11.294,120.64291557596341,90.73491779889913,-3.02,-1.31,0.04,3.0,0.0,0.0,8.0,0.0,0.0,0.0,0.0,26.68,0.39,
11.319,120.59529155759634,90.7754917798899,-2.89,-0.79,1.1,3.0,0.0,0.0,9.0,0.0,0.0,0.0,0.0,26.59,0.29,
11.342,120.58152915575964,90.788549177989,-2.54,-1.1,0.14,3.0,0.0,0.0,9.0,0.0,0.0,0.0,0.0,26.39,0.39,
11.367,120.58015291557597,90.80785491779889,-2.46,-0.65,0.7,3.0,0.0,0.0,9.0,0.0,0.0,0.0,0.0,26.29,0.29,
11.39,120.5800152915576,90.81878549177989,-2.86,-1.11,-0.18,3.0,0.0,0.0,9.0,0.0,0.0,0.0,0.0,26.09,0.39,
11.415,120.57100152915575,90.80187854917799,-2.95,-1.13,0.69,3.0,0.0,0.0,9.0,0.0,0.0,0.0,0.0,26.0,0.29,
11.44,120.59710015291556,90.8631878549178,-3.27,-1.82,0.12,3.0,0.0,0.0,9.0,0.0,0.0,0.0,0.0,25.9,0.39,
11.463,120.63571001529156,90.85131878549177,-3.55,-1.15,0.07,3.0,0.0,0.0,9.0,0.0,0.0,0.0,0.0,25.8,0.39,
11.488,120.63957100152916,90.84113187854918,-4.22,-1.81,-0.57,3.0,0.0,0.0,9.0,0.0,0.0,0.0,0.0,25.7,0.2,
11.511,120.70295710015291,90.81311318785491,-4.39,-1.36,0.69,3.0,0.0,0.0,9.0,0.0,0.0,0.0,0.0,25.6,0.29,
11.536,120.6552957100153,90.75631131878549,-4.76,-1.86,0.85,3.0,0.0,0.0,9.0,0.0,0.0,0.0,0.0,25.51,0.49,
11.56,120.64152957100154,90.72363113187855,-5.41,-1.81,0.76,3.0,0.0,0.0,9.0,0.0,0.0,0.0,0.0,25.6,0.59,
11.584,120.64915295710016,90.65736311318786,-5.52,-1.99,0.76,3.0,0.0,0.0,9.0,0.0,0.0,0.0,0.0,25.7,0.69,
11.609,120.57791529571,90.56973631131879,-5.25,-2.06,0.5,3.0,0.0,0.0,9.0,0.0,1.0,0.0,0.0,25.7,0.2,
11.632,120.59779152957098,90.53397363113189,-5.19,-1.52,0.42,3.0,0.0,0.0,9.0,0.0,1.0,0.0,0.0,25.7,0.0,
11.657,120.5637791529571,90.4673973631132,-4.3,-1.53,0.27,3.0,0.0,0.0,9.0,0.0,1.0,0.0,0.0,25.8,0.0,
11.681,120.55137791529572,90.42473973631132,-3.76,-1.1,0.41,3.0,0.0,0.0,9.0,0.0,1.0,0.0,0.0,25.9,0.0,
11.705,120.56813779152957,90.40247397363115,-3.01,-0.75,0.39,3.0,0.0,0.0,9.0,0.0,1.0,0.0,0.0,26.09,0.0,
11.729,120.54281377915297,90.37324739736313,-2.56,-1.13,-0.09,3.0,0.0,0.0,9.0,0.0,1.0,0.0,0.0,26.19,0.0,
11.754,120.52228137791529,90.4153247397363,-2.52,-0.78,-0.03,3.0,0.0,0.0,9.0,0.0,1.0,0.0,0.0,26.29,0.0,
11.778,120.57422813779154,90.41953247397363,-2.87,-0.8,0.29,3.0,0.0,0.0,9.0,0.0,1.0,0.0,0.0,26.39,0.0,
11.802,120.57042281377915,90.44695324739736,-2.43,-0.92,0.07,3.0,0.0,0.0,9.0,0.0,1.0,0.0,0.0,26.39,0.1,
11.826,120.54304228137792,90.44069532473974,-2.44,-0.87,0.19,3.0,0.0,0.0,9.0,0.0,1.0,0.0,0.0,26.59,0.29,
11.85,120.5853042281378,90.46706953247397,-2.32,-0.72,0.5,3.0,0.0,0.0,9.0,0.0,1.0,0.0,0.0,26.59,0.2,
11.875,120.64353042281378,90.4427069532474,-2.27,-0.85,0.21,3.0,0.0,0.0,9.0,0.0,1.0,0.0,0.0,26.49,0.29,
11.898,120.71235304228136,90.44027069532474,-2.45,-0.69,-0.02,3.0,0.0,0.0,9.0,0.0,1.0,0.0,0.0,26.49,0.2,
11.923,120.68323530422815,90.42202706953248,-2.61,-1.05,-0.18,3.0,0.0,0.0,9.0,0.0,1.0,0.0,0.0,26.49,0.29,
11.948,120.61732353042282,90.47420270695325,-3.07,-1.37,0.35,3.0,0.0,0.0,9.0,0.0,1.0,0.0,0.0,26.59,0.29,
11.971,120.64673235304228,90.48842027069533,-3.05,-1.12,-0.15,3.0,0.0,0.0,9.0,0.0,1.0,0.0,0.0,26.49,0.39,
11.996,120.65867323530422,90.52584202706953,-3.35,-0.78,0.56,3.0,0.0,0.0,9.0,0.0,1.0,0.0,0.0,26.59,0.2,
12.019,120.64186732353042,90.57458420270696,-3.21,-1.64,0.14,3.0,0.0,0.0,9.0,0.0,1.0,0.0,0.0,26.59,0.29,
12.044,120.64918673235304,90.6064584202707,-3.48,-0.99,0.54,3.0,0.0,0.0,9.0,0.0,1.0,0.0,0.0,26.59,0.39,
12.068,120.63191867323529,90.54664584202708,-3.45,-1.27,-0.45,3.0,0.0,0.0,9.0,0.0,1.0,0.0,0.0,26.68,0.0,
12.092,120.69319186732353,90.5856645842027,-3.56,-0.21,0.24,3.0,0.0,0.0,9.0,0.0,1.0,0.0,0.0,26.98,0.0,
12.116,120.78031918673236,90.55356645842028,-3.34,-0.72,0.37,3.0,0.0,0.0,9.0,0.0,1.0,0.0,0.0,27.27,0.0,
12.14,120.80703191867323,90.52335664584203,-2.88,-1.31,-0.36,3.0,0.0,0.0,9.0,0.0,1.0,0.0,0.0,27.47,0.0,
12.165,120.74670319186731,90.55633566458421,-3.31,-1.11,0.05,3.0,0.0,0.0,9.0,0.0,1.0,0.0,0.0,27.76,0.0,
12.189,120.74967031918672,90.57763356645842,-2.89,-0.95,-0.01,3.0,0.0,0.0,9.0,0.0,1.0,0.0,0.0,27.96,0.0,
12.213,120.73196703191869,90.57976335664584,-2.8,-1.38,-0.45,3.0,0.0,0.0,9.0,0.0,1.0,0.0,0.0,28.06,0.0,
12.237,120.71219670319186,90.52597633566458,-3.97,-1.35,0.83,3.0,0.0,0.0,9.0,0.0,1.0,0.0,0.0,28.06,0.0,
12.262,120.73721967031918,90.49359763356645,-3.71,-1.5,0.5,3.0,0.0,0.0,10.0,0.0,1.0,0.0,0.0,28.06,0.2,
12.285,120.66772196703191,90.45435976335665,-3.25,-1.47,1.25,3.0,0.0,0.0,10.0,0.0,1.0,0.0,0.0,27.96,0.2,
12.31,120.68777219670318,90.39643597633567,-3.02,-1.39,0.78,3.0,0.0,0.0,10.0,0.0,1.0,0.0,0.0,27.86,0.2,
12.335,120.64477721967032,90.39964359763357,-2.17,-1.08,0.58,3.0,0.0,0.0,10.0,0.0,1.0,0.0,0.0,27.66,0.29,
12.358,120.59547772196703,90.26496435976337,0.43,-0.58,-1.82,3.0,0.0,0.0,10.0,0.0,1.0,0.0,0.0,27.37,0.39,
12.383,120.5905477721967,90.35949643597635,0.54,2.78,-1.76,3.0,0.0,0.0,10.0,0.0,1.0,0.0,0.0,27.76,0.2,
12.407,120.70705477721967,90.32394964359763,4.24,2.33,-3.65,3.0,0.0,0.0,10.0,0.0,1.0,0.0,0.0,28.45,0.0,
12.431,120.74570547772196,90.40139496435975,8.31,2.13,-2.31,3.0,0.0,0.0,10.0,0.0,0.0,0.0,0.0,29.23,0.0,
12.455,120.8665705477722,90.45413949643597,9.54,5.34,-3.69,3.0,0.0,0.0,9.0,0.0,0.0,0.0,0.0,30.02,0.0,
12.479,121.19365705477722,90.92741394964361,6.11,2.85,-6.63,3.0,0.0,0.0,8.0,0.0,0.0,0.0,0.59,30.41,0.39,
12.504,121.46036570547771,91.20874139496436,3.82,2.87,-4.84,2.0,0.0,0.0,8.0,0.0,0.0,0.0,1.37,30.61,1.37,
12.527,121.56803657054776,91.56087413949643,4.2,1.63,-2.37,2.0,0.0,0.0,7.0,0.0,0.0,0.0,2.06,30.61,1.67,
12.552,121.67780365705477,91.83008741394966,3.89,-0.89,-0.88,2.0,0.0,0.0,7.0,0.0,0.0,0.0,2.45,30.12,1.37,
12.575,121.65278036570548,92.00100874139497,3.53,-0.41,2.09,2.0,0.0,0.0,7.0,0.0,0.0,0.0,2.94,29.04,0.78,
12.6,121.68627803657054,92.1441008741395,2.37,-3.49,2.35,2.0,0.0,0.0,6.0,0.0,0.0,0.0,3.14,27.47,1.18,
12.623,121.51862780365705,92.29341008741396,-3.91,-4.5,1.89,1.0,0.0,0.0,6.0,0.0,0.0,0.0,3.53,25.6,2.55,
12.648,121.60986278036572,92.9473410087414,-20.51,-9.82,-1.66,1.0,0.0,0.0,6.0,0.0,0.0,0.0,3.83,23.74,4.12,
12.673,121.59198627803659,92.83273410087413,-39.5,-21.13,4.73,1.0,0.0,0.0,6.0,0.0,0.0,0.0,3.43,22.96,2.94,
12.696,121.18519862780366,92.49727341008742,-66.63,-25.75,8.52,0.0,0.0,0.0,6.0,0.0,0.0,0.0,2.55,23.25,2.55,
12.721,120.94651986278036,92.13072734100874,-102.85,-39.19,18.02,0.0,0.0,0.0,6.0,0.0,0.0,0.0,1.47,25.21,7.55,
12.745,120.06765198627804,91.42807273410088,-116.75,-50.5,52.41,0.0,0.0,0.0,5.0,0.0,0.0,0.0,0.69,25.21,16.78,
12.769,117.28876519862781,89.11680727341009,-145.85,-23.34,61.47,0.0,0.0,0.0,2.0,0.0,0.0,0.0,0.0,22.76,13.05,
12.793,116.15587651986279,85.99668072734102,-113.73,38.4,50.6,0.0,0.0,0.0,0.0,0.0,1.0,0.0,0.0,17.95,7.46,
12.818,115.55658765198628,86.1256680727341,-8.63,125.0,60.63,0.0,0.0,0.0,0.0,0.0,1.0,0.0,0.0,9.71,8.73,
12.841,121.32865876519863,88.83856680727341,51.21,186.08,51.64,0.0,0.0,0.0,0.0,0.0,0.0,0.0,0.0,4.02,5.2,
12.865,124.29086587651986,91.82785668072734,-66.89,-19.94,25.29,0.0,0.0,0.0,0.0,0.0,0.0,0.0,0.0,2.16,2.06,
12.89,122.64308658765198,90.84878566807274,-78.64,-73.31,32.23,0.0,0.0,0.0,0.0,0.0,0.0,0.0,0.0,1.77,0.0,
12.913,120.97530865876521,94.20687856680728,41.95,10.02,-14.75,0.0,0.0,0.0,0.0,0.0,0.0,0.0,0.0,6.18,0.0,
12.938,121.56453086587652,98.56568785668073,55.85,48.65,-27.09,0.0,0.0,0.0,0.0,0.0,0.0,0.0,0.0,1.37,0.0,
12.961,119.47245308658765,102.97956878566808,21.79,-55.83,1.67,0.0,0.0,0.0,0.0,0.0,0.0,0.0,0.0,2.35,0.0,
12.985,116.04124530865876,105.6619568785668,46.69,-87.17,42.66,0.0,0.0,0.0,0.0,0.0,0.0,0.0,0.0,1.67,0.2,
13.009,110.47812453086587,102.96019568785668,20.64,-44.44,-72.92,0.0,0.0,0.0,0.0,0.0,0.0,0.0,0.0,1.28,0.39,
13.033,106.62781245308658,109.31401956878567,250.13,14.85,221.88,0.0,0.0,0.0,0.0,0.0,0.0,0.0,0.0,0.98,0.49,
13.058,111.66078124530866,115.79040195687857,24.95,-63.57,6.08,0.0,0.0,0.0,0.0,0.0,0.0,0.0,0.0,0.88,0.59,
13.081,108.95107812453088,116.11404019568786,76.23,-36.17,-83.01,0.0,0.0,0.0,0.0,0.0,0.0,0.0,0.0,0.78,0.39,
13.106,107.61810781245309,113.37440401956877,107.33,6.75,-25.07,0.0,0.0,0.0,0.0,0.0,0.0,0.0,0.0,0.59,0.1,
13.129,107.4668107812453,113.06444040195687,89.67,0.82,-6.09,0.0,0.0,0.0,0.0,0.0,0.0,0.0,0.0,0.39,0.29,
13.153,108.52268107812452,112.21444404019569,92.33,6.46,-31.24,0.0,0.0,0.0,0.0,0.0,0.0,0.0,0.0,0.39,0.29,
13.176,109.32126810781244,111.06744440401957,90.85,1.48,-48.96,0.0,0.0,0.0,0.0,0.0,0.0,0.0,0.0,0.39,0.29,
13.201,109.99512681078124,109.69274444040197,76.76,-13.64,-36.22,0.0,0.0,0.0,0.0,0.0,0.0,0.0,0.0,0.0,0.59,
13.224,110.59351268107811,108.0972744440402,59.73,-21.57,-39.28,0.0,0.0,0.0,0.0,0.0,0.0,0.0,0.0,0.0,0.49,
13.248,110.89635126810781,105.81372744440402,43.06,-5.31,-28.62,0.0,0.0,0.0,0.0,0.0,0.0,0.0,0.0,0.0,0.49,
13.273,111.27763512681078,102.4983727444404,42.46,8.08,-30.72,0.0,0.0,0.0,0.0,0.0,0.0,0.0,0.0,0.0,0.49,
13.296,112.14376351268106,98.61183727444404,80.26,48.44,-26.63,0.0,0.0,0.0,0.0,0.0,0.0,0.0,0.0,0.0,0.59,
13.32,113.1393763512681,94.9741837274444,87.33,-13.73,-61.61,0.0,0.0,0.0,0.0,0.0,0.0,0.0,0.0,0.0,0.39,
13.343,114.24693763512681,91.70341837274444,54.91,-24.38,6.24,0.0,0.0,0.0,0.0,0.0,0.0,0.0,0.0,0.0,0.0,
13.368,115.13169376351269,87.92034183727444,32.92,-28.98,17.21,0.0,0.0,0.0,0.0,0.0,0.0,0.0,0.0,0.0,0.59,
13.391,116.21016937635127,83.61803418372745,1.95,2.82,48.83,0.0,0.0,0.0,0.0,0.0,0.0,0.0,0.0,0.0,0.69,
13.415,117.63201693763513,78.97580341837273,-34.58,7.53,68.69,0.0,0.0,0.0,0.0,0.0,0.0,0.0,0.0,0.0,0.69,
13.438,121.2572016937635,77.58458034183728,-42.98,-12.07,-4.74,0.0,0.0,0.0,0.0,0.0,0.0,0.0,0.0,0.0,0.59,
13.463,117.18272016937635,83.41245803418374,-54.76,-34.89,-85.82,0.0,0.0,0.0,0.0,0.0,0.0,0.0,0.0,0.49,1.37,
13.487,117.38727201693763,84.40924580341837,-161.18,61.19,160.16,0.0,0.0,0.0,0.0,0.0,0.0,0.0,0.0,0.29,2.26,
13.511,114.71672720169377,85.05792458034185,-148.35,79.17,3.12,0.0,0.0,0.0,0.0,0.0,0.0,0.0,0.0,0.0,1.67,
13.535,119.18367272016938,81.24379245803418,-134.72,150.1,89.73,0.0,0.0,0.0,0.0,0.0,0.0,0.0,0.0,0.0,1.28,
13.558,120.21536727201693,81.24937924580341,-125.86,-71.92,20.97,0.0,0.0,0.0,0.0,0.0,0.0,0.0,0.0,0.0,1.67,
13.583,117.9335367272017,81.53793792458033,-27.27,183.33,30.56,0.0,0.0,0.0,1.0,0.0,0.0,0.0,0.0,0.39,3.73,
13.606,127.38935367272018,69.21879379245803,-24.75,27.81,-55.89,0.0,0.0,0.0,4.0,0.0,0.0,0.0,0.39,10.89,0.0,
13.631,122.16993536727203,73.3598793792458,-68.65,-207.78,-93.62,0.0,0.0,0.0,5.0,0.0,0.0,0.0,2.84,22.76,0.0,
13.656,127.1019935367272,78.19298793792458,52.2,147.13,132.74,1.0,0.0,0.0,6.0,0.0,0.0,0.0,3.53,26.49,0.0,
13.68,126.67719935367272,81.35829879379246,-18.07,-171.66,-112.77,2.0,0.0,0.0,7.0,0.0,0.0,0.0,3.34,28.84,0.0,
13.705,125.46471993536727,83.15982987937925,1.16,75.37,45.43,2.0,0.0,0.0,8.0,0.0,0.0,0.0,3.04,27.96,0.0,
13.728,124.66847199353673,84.46498298793793,7.86,-43.81,-40.12,3.0,1.0,0.0,8.0,0.0,0.0,0.0,2.84,27.47,0.0,
13.753,123.65284719935367,85.18949829879378,-17.32,9.27,23.42,4.0,1.0,0.0,9.0,0.0,0.0,0.0,2.55,28.45,0.0,
13.777,122.78628471993537,86.03594982987937,-2.63,-11.18,-9.92,4.0,1.0,0.0,10.0,0.0,0.0,0.0,2.06,31.29,0.0,
13.801,122.51962847199353,86.60659498298793,-11.5,-2.27,0.73,5.0,2.0,0.0,11.0,0.0,0.0,0.0,1.08,33.84,0.0,
13.826,122.06096284719936,86.85265949829878,-11.73,-8.47,13.46,6.0,2.0,0.0,12.0,0.0,1.0,0.0,0.0,36.3,0.0,
13.85,121.61909628471993,86.87726594982988,-12.6,-22.34,-2.96,6.0,2.0,0.0,0.0,0.0,1.0,0.0,0.0,37.47,0.0,
13.875,120.85490962847199,87.32972659498299,-12.18,-9.48,5.79,6.0,2.0,0.0,2.0,0.0,2.0,0.0,0.0,36.2,0.0,
13.899,120.06749096284719,87.3749726594983,-9.84,-7.24,-0.78,7.0,3.0,0.0,2.0,0.0,2.0,0.0,0.0,34.43,0.0,
13.923,119.77274909628471,87.47849726594983,-7.23,-0.89,0.6,6.0,3.0,0.0,3.0,0.0,2.0,0.0,0.0,31.39,0.0,
13.947,119.55427490962846,87.61484972659498,-4.66,-0.85,3.79,6.0,2.0,0.0,4.0,0.0,2.0,0.0,0.0,30.8,0.0,
13.971,119.22642749096285,87.5564849726595,-2.1,-2.76,2.93,7.0,3.0,0.0,4.0,0.0,3.0,0.0,0.0,31.0,0.0,
13.996,118.97764274909629,87.64064849726596,-3.06,-1.75,2.99,7.0,3.0,0.0,5.0,0.0,3.0,0.0,0.0,31.2,0.0,
14.02,118.88076427490964,87.70306484972659,-5.45,-1.15,3.53,7.0,3.0,0.0,6.0,0.0,3.0,0.0,0.0,31.69,0.0,
14.044,118.53807642749096,87.72730648497267,-7.72,-4.59,0.52,7.0,3.0,0.0,6.0,0.0,4.0,0.0,0.0,32.18,0.0,
14.068,118.5128076427491,87.85573064849729,-8.24,0.26,6.55,7.0,3.0,0.0,6.0,0.0,4.0,0.0,0.0,33.26,0.2,
14.093,118.55528076427491,87.87757306484973,-7.8,-3.25,6.02,7.0,3.0,0.0,7.0,0.0,4.0,0.0,0.0,34.34,0.59,
14.116,118.52352807642748,87.73575730648498,-7.98,-6.59,7.11,7.0,3.0,0.0,8.0,0.0,5.0,0.0,0.0,35.22,0.39,
14.141,118.25035280764274,87.2895757306485,-3.75,-5.73,6.73,7.0,3.0,0.0,8.0,0.0,5.0,0.0,0.0,35.61,0.88,
14.166,117.87203528076427,86.93895757306485,-3.32,-8.11,4.64,7.0,3.0,0.0,9.0,0.0,5.0,0.0,0.0,35.51,0.0,
14.189,116.99720352807643,87.65089575730649,20.26,0.53,14.78,8.0,4.0,0.0,9.0,0.0,5.0,0.0,0.0,35.32,0.0,
14.214,117.47672035280765,87.38008957573064,6.39,-13.89,-9.08,8.0,4.0,0.0,10.0,0.0,5.0,0.0,0.0,34.24,0.0,
14.238,116.81367203528076,87.43400895757306,-5.46,-4.85,2.54,8.0,4.0,0.0,10.0,0.0,5.0,0.0,0.0,33.26,0.0,
14.263,117.13436720352807,87.5204008957573,-5.82,0.9,0.74,8.0,4.0,0.0,11.0,0.0,5.0,0.0,0.0,33.35,0.0,
14.286,117.34643672035281,87.89804008957573,-8.54,-7.85,6.89,8.0,4.0,0.0,11.0,0.0,5.0,0.0,0.0,35.02,0.0,
14.311,117.34064367203528,88.09780400895758,-16.83,-14.23,5.74,8.0,4.0,0.0,11.0,0.0,5.0,0.0,0.0,36.59,0.0,
14.336,117.04306436720354,87.78478040089577,-31.54,-12.0,2.31,8.0,4.0,0.0,13.0,0.0,6.0,0.0,0.88,38.55,0.88,
14.36,116.60830643672037,87.66347804008959,-62.45,-10.79,9.66,6.0,3.0,0.0,12.0,0.0,6.0,1.0,2.65,41.69,1.77,
14.385,116.53783064367204,87.76834780400897,-72.99,-16.74,10.4,3.0,1.0,0.0,9.0,0.0,6.0,1.0,3.04,45.32,5.59,
14.409,115.41478306436721,87.3378347804009,-139.11,-72.43,21.04,0.0,1.0,0.0,12.0,0.0,6.0,1.0,2.16,46.4,21.09,
14.434,115.41047830643672,84.32478347804008,-190.42,-25.02,128.68,0.0,1.0,0.0,5.0,0.0,6.0,1.0,0.39,35.12,25.6,
14.458,114.47404783064367,83.195478347804,-186.27,13.51,33.85,0.0,1.0,0.0,1.0,0.0,7.0,1.0,0.78,19.23,13.83,
14.483,115.31640478306437,81.7865478347804,-183.18,86.63,25.84,0.0,1.0,0.0,0.0,0.0,8.0,1.0,0.0,11.67,2.84,
14.508,115.15764047830643,80.69165478347803,-193.21,45.68,96.75,0.0,1.0,0.0,0.0,0.0,10.0,0.0,0.0,8.63,0.0,
14.531,116.46476404783064,80.1141654783478,-161.79,108.64,114.55,0.0,1.0,0.0,0.0,0.0,10.0,0.0,0.0,8.04,2.26,
14.556,119.25947640478306,78.92241654783479,-130.72,109.04,135.76,0.0,1.0,0.0,0.0,0.0,7.0,0.0,0.0,6.38,7.16,
14.58,121.7799476404783,77.11124165478347,-51.09,170.08,144.09,0.0,1.0,0.0,0.0,0.0,4.0,0.0,0.0,1.47,5.79,
14.604,129.77199476404783,70.18912416547835,17.92,185.72,175.74,0.0,1.0,0.0,0.0,0.0,1.0,0.0,0.0,0.0,0.2,
14.628,135.29619947640478,68.84891241654783,67.41,-5.55,-18.85,0.0,1.0,0.0,0.0,0.0,0.0,0.0,0.0,2.55,0.78,
14.652,130.10661994764047,74.28589124165478,52.16,-117.39,-50.19,0.0,1.0,0.0,0.0,0.0,0.0,0.0,0.0,3.43,0.78,
14.675,122.27966199476406,79.98658912416548,111.76,-91.85,21.04,0.0,1.0,0.0,0.0,0.0,0.0,0.0,0.0,4.02,0.49,
14.7,119.46296619947641,84.55265891241655,123.12,-13.43,-65.92,0.0,1.0,0.0,0.0,0.0,0.0,0.0,0.0,0.0,0.59,
14.724,113.96129661994763,87.12426589124165,110.12,-8.24,-65.74,0.0,1.0,0.0,0.0,0.0,0.0,0.0,0.0,0.0,0.29,
14.747,110.54912966199477,84.22242658912417,110.72,25.22,-47.43,0.0,1.0,0.0,0.0,0.0,0.0,0.0,0.0,0.0,0.29,
14.772,107.64291296619948,80.00824265891242,130.76,-17.29,-144.65,0.0,1.0,0.0,0.0,0.0,0.0,0.0,0.0,0.0,0.2,
14.795,105.34529129661995,77.71482426589124,105.36,-35.18,-114.23,0.0,1.0,0.0,0.0,0.0,0.0,0.0,0.0,0.0,0.29,
14.82,105.38552912966199,75.75748242658912,122.45,-12.34,-116.53,0.0,1.0,0.0,0.0,0.0,0.0,0.0,0.0,0.0,0.39,
14.843,106.70355291296619,74.41874824265892,117.07,-28.19,-127.99,0.0,1.0,0.0,0.0,0.0,0.0,0.0,0.0,0.0,0.78,
14.868,107.45635529129662,73.9698748242659,89.89,-59.06,-68.57,0.0,1.0,0.0,0.0,0.0,0.0,0.0,0.0,0.0,0.59,
14.892,109.03463552912966,73.3849874824266,79.87,-46.63,-23.43,0.0,1.0,0.0,0.0,0.0,0.0,0.0,0.0,0.0,0.88,
14.916,111.35246355291297,72.24649874824266,49.38,-48.74,-28.2,0.0,1.0,0.0,0.0,0.0,0.0,0.0,0.0,0.0,1.28,
14.94,112.9342463552913,70.12564987482426,-12.11,-24.34,14.1,0.0,1.0,0.0,0.0,0.0,0.0,0.0,0.0,0.0,1.08,
14.963,117.16042463552913,64.93656498748243,-23.54,243.02,250.13,0.0,1.0,0.0,0.0,0.0,0.0,0.0,0.0,0.0,1.28,
14.988,114.15404246355291,61.12365649874825,46.15,250.14,250.13,0.0,1.0,0.0,3.0,0.0,0.0,0.0,0.0,0.0,1.67,
15.012,116.71540424635529,70.30036564987482,-68.6,-250.13,-250.14,0.0,1.0,0.0,5.0,0.0,0.0,0.0,0.0,8.53,0.0,
15.037,114.73054042463554,74.4130365649875,69.46,250.14,250.13,1.0,1.0,0.0,5.0,0.0,1.0,0.0,0.39,10.01,0.0,
15.06,123.60405404246355,61.189303656498744,-42.73,-69.87,-126.29,1.0,1.0,0.0,6.0,0.0,1.0,0.0,0.0,15.3,0.0,
15.085,116.30140540424635,64.62793036564987,12.79,-250.13,-170.44,1.0,1.0,0.0,6.0,0.0,2.0,0.0,0.0,10.99,0.0,
15.11,119.90014054042463,65.94379303656498,24.85,190.22,98.64,1.0,1.0,0.0,6.0,0.0,2.0,0.0,0.0,14.42,0.0,
15.134,118.92801405404246,66.4443793036565,-1.05,-105.77,-138.31,1.0,0.0,0.0,6.0,0.0,2.0,0.0,0.0,11.09,0.0,
15.159,116.38280140540424,69.42843793036566,-6.52,16.7,81.14,2.0,0.0,0.0,6.0,0.0,2.0,0.0,0.0,11.48,0.0,
15.183,118.72928014054041,70.46484379303656,8.61,24.75,-30.45,2.0,0.0,0.0,7.0,0.0,2.0,0.0,0.0,12.95,0.0,
15.208,117.83892801405403,74.13248437930366,1.15,-15.79,1.0,2.0,0.0,0.0,7.0,0.0,2.0,0.0,0.0,14.91,0.0,
15.232,118.86589280140541,75.72324843793037,-2.57,-10.24,12.43,3.0,0.0,0.0,8.0,0.0,3.0,0.0,0.0,16.28,0.0,
15.256,118.01458928014054,77.75432484379304,-5.41,-12.98,-15.5,3.0,0.0,0.0,8.0,0.0,3.0,0.0,0.0,16.97,0.0,
15.281,118.12745892801406,78.5784324843793,-16.88,-3.99,5.4,3.0,0.0,0.0,9.0,0.0,3.0,0.0,0.0,17.36,0.0,
15.305,117.71574589280141,79.41684324843794,-13.9,-4.46,-6.13,3.0,0.0,0.0,9.0,0.0,3.0,0.0,0.0,17.76,0.0,
15.33,118.03457458928013,80.1126843248438,-10.73,7.99,6.66,3.0,0.0,0.0,9.0,0.0,4.0,0.0,0.0,18.25,0.29,
15.354,118.03945745892801,80.77626843248439,-8.6,-7.48,-1.73,3.0,0.0,0.0,9.0,0.0,4.0,0.0,0.0,18.64,1.57,
15.379,118.03994574589281,81.33762684324844,-6.97,-1.72,3.47,3.0,1.0,0.0,9.0,0.0,4.0,0.0,0.0,19.33,0.1,
15.403,117.90499457458928,81.80776268432484,-7.82,-6.21,1.11,3.0,1.0,0.0,10.0,0.0,4.0,0.0,0.0,20.01,0.0,
15.427,117.87349945745893,82.08877626843248,-5.5,2.79,2.55,3.0,1.0,0.0,10.0,0.0,5.0,0.0,0.0,20.7,0.0,
15.452,117.87934994574589,82.36887762684326,-5.98,-2.97,-1.88,3.0,1.0,0.0,10.0,0.0,5.0,1.0,0.0,21.19,0.0,
15.476,117.86193499457458,82.67588776268431,-8.14,-0.74,2.72,3.0,1.0,0.0,10.0,0.0,5.0,1.0,0.0,21.97,0.0,
15.501,117.89619349945747,82.93158877626843,-7.33,-1.77,0.15,3.0,1.0,0.0,10.0,0.0,5.0,1.0,0.0,22.46,0.0,
15.525,117.83661934994574,83.12815887762684,-8.24,-2.12,2.09,3.0,1.0,0.0,10.0,0.0,5.0,1.0,0.0,22.76,0.1,
15.55,117.85766193499457,83.16581588776269,-7.72,0.6,1.56,3.0,1.0,0.0,10.0,0.0,6.0,1.0,0.0,22.96,0.29,
15.575,117.85976619349945,83.25058158877629,-7.3,-2.29,-0.12,3.0,1.0,0.0,10.0,0.0,6.0,1.0,0.0,23.15,0.39,
15.599,117.78797661934995,83.25005815887762,-6.44,1.26,2.68,3.0,1.0,0.0,10.0,0.0,6.0,1.0,0.0,23.25,0.49,
15.623,117.87979766193499,83.27700581588776,-6.24,-3.21,0.72,3.0,1.0,0.0,11.0,0.0,6.0,1.0,0.0,23.45,0.59,
15.647,117.8349797661935,83.24370058158877,-6.92,-2.6,3.29,3.0,1.0,0.0,11.0,0.0,6.0,1.0,0.0,23.64,0.69,
15.672,117.88449797661934,83.19537005815887,-5.37,-2.34,1.5,3.0,1.0,0.0,11.0,0.0,6.0,1.0,0.0,23.74,0.59,
15.696,117.86244979766192,83.19053700581588,-5.47,-3.46,1.43,3.0,1.0,0.0,10.0,0.0,6.0,1.0,0.0,23.64,0.78,
15.721,117.89624497976621,83.1450537005816,-4.93,-1.08,1.98,3.0,1.0,0.0,11.0,0.0,7.0,1.0,0.0,23.74,0.1,
15.746,117.82762449797661,83.14050537005816,-4.17,-1.3,0.24,3.0,1.0,0.0,11.0,0.0,7.0,1.0,0.0,23.74,0.0,
15.77,117.83876244979767,83.11305053700582,-3.6,-0.53,2.03,3.0,1.0,0.0,11.0,0.0,7.0,1.0,0.0,23.84,0.0,
15.795,117.76787624497977,83.10130505370057,-3.53,-2.68,0.47,3.0,1.0,0.0,11.0,0.0,7.0,1.0,0.0,23.94,0.1,
15.819,117.67078762449798,83.09113050537006,-4.17,-1.0,1.24,3.0,1.0,0.0,11.0,0.0,7.0,1.0,0.0,24.03,0.0,
15.843,117.6700787624498,83.03611305053701,-4.42,-1.63,0.48,3.0,1.0,0.0,11.0,0.0,7.0,1.0,0.0,24.13,0.2,
15.867,117.70600787624497,83.0126113050537,-4.65,-1.11,0.46,3.0,1.0,0.0,11.0,0.0,7.0,1.0,0.0,24.13,0.29,
15.892,117.7726007876245,82.96526113050537,-4.19,-0.68,1.47,3.0,1.0,0.0,11.0,0.0,7.0,1.0,0.0,24.13,0.39,
15.917,117.65326007876246,82.92452611305053,-4.05,-2.06,0.81,3.0,1.0,0.0,11.0,0.0,7.0,1.0,0.0,24.13,0.39,
15.941,117.62332600787624,82.89345261130505,-4.49,-1.07,0.31,3.0,1.0,0.0,11.0,0.0,7.0,1.0,0.0,24.23,0.59,
15.966,117.61133260078762,82.84534526113052,-5.05,-0.66,0.58,3.0,1.0,0.0,11.0,0.0,7.0,1.0,0.0,24.23,0.39,
15.99,117.63713326007877,82.76853452611306,-4.54,-0.33,0.95,3.0,1.0,0.0,11.0,0.0,7.0,1.0,0.0,24.33,0.78,
16.015,117.60371332600788,82.76085345261131,-4.4,-1.29,-0.38,3.0,1.0,0.0,11.0,0.0,7.0,1.0,0.0,24.33,0.69,
16.039,117.66337133260079,82.74208534526113,-3.53,0.41,0.09,3.0,1.0,0.0,11.0,0.0,7.0,1.0,0.0,24.43,0.29,
16.064,117.62433713326008,82.7132085345261,-3.44,-1.37,0.02,3.0,1.0,0.0,11.0,0.0,7.0,1.0,0.0,24.52,0.0,
16.088,117.62043371332601,82.66532085345261,-2.24,0.06,0.76,3.0,1.0,0.0,11.0,0.0,7.0,1.0,0.0,24.62,0.0,
16.112,117.6740433713326,82.68753208534527,-2.34,-1.88,-0.65,3.0,1.0,0.0,11.0,0.0,7.0,1.0,0.0,24.62,0.0,
16.137,117.70640433713325,82.68975320853453,-2.25,-0.15,1.05,3.0,1.0,0.0,11.0,0.0,7.0,1.0,0.0,24.62,0.0,
16.161,117.69164043371333,82.67197532085346,-2.18,-1.63,-0.63,3.0,1.0,0.0,11.0,0.0,7.0,1.0,0.0,24.62,0.1,
16.186,117.67216404337134,82.70619753208534,-1.97,-0.68,0.14,3.0,1.0,0.0,11.0,0.0,7.0,1.0,0.0,24.62,0.0,
16.21,117.71521640433714,82.68261975320854,-1.73,-1.4,-0.64,3.0,1.0,0.0,11.0,0.0,7.0,1.0,0.0,24.62,0.1,
16.235,117.75552164043373,82.66226197532086,-1.89,-0.88,-0.31,3.0,1.0,0.0,11.0,0.0,6.0,1.0,0.0,24.43,0.1,
16.26,117.84955216404337,82.73222619753207,-1.36,-0.27,-0.78,3.0,1.0,0.0,11.0,0.0,6.0,1.0,0.0,24.33,0.2,
16.284,117.89495521640436,82.77522261975321,-0.5,-1.07,-0.75,3.0,1.0,0.0,11.0,0.0,6.0,1.0,0.0,24.23,0.29,
16.309,117.90849552164043,82.75252226197533,-0.26,-0.59,-0.42,4.0,1.0,0.0,11.0,0.0,6.0,1.0,0.0,24.03,0.39,
16.333,117.93684955216403,82.84925222619754,0.01,-0.94,-1.15,4.0,1.0,0.0,11.0,0.0,6.0,1.0,0.0,23.84,0.1,
16.358,117.90368495521642,82.86792522261976,-0.76,-1.21,-1.08,4.0,1.0,0.0,11.0,0.0,6.0,1.0,0.0,23.84,0.0,
16.382,117.98136849552164,82.93279252226198,-0.79,-0.39,-0.71,4.0,1.0,0.0,11.0,0.0,6.0,1.0,0.0,23.94,0.0,
16.407,118.02513684955217,82.9752792522262,-0.8,-0.39,-0.55,4.0,1.0,0.0,11.0,0.0,6.0,1.0,0.0,23.84,0.0,
16.432,117.98451368495522,83.01552792522263,-1.08,-0.92,-1.28,4.0,1.0,0.0,11.0,0.0,6.0,1.0,0.0,23.74,0.0,
16.456,117.98945136849552,83.09155279252225,-1.79,-0.76,-0.66,4.0,1.0,0.0,11.0,0.0,6.0,1.0,0.0,23.74,0.0,
16.481,117.95394513684955,83.15315527925222,-1.63,-1.22,-0.67,4.0,1.0,0.0,11.0,0.0,6.0,1.0,0.0,23.84,0.0,
16.505,118.01339451368496,83.22231552792523,-1.53,-0.42,-0.48,4.0,1.0,0.0,11.0,0.0,6.0,1.0,0.0,23.74,0.0,
16.53,118.09133945136848,83.32823155279252,-1.55,-0.73,-0.27,4.0,1.0,0.0,11.0,0.0,6.0,1.0,0.0,23.84,0.0,
16.555,118.08113394513686,83.38382315527926,-2.27,-1.41,-0.21,4.0,1.0,0.0,11.0,0.0,6.0,1.0,0.0,23.94,0.0,
16.579,118.10711339451369,83.39838231552793,-1.89,-0.3,-0.43,4.0,1.0,0.0,11.0,0.0,6.0,1.0,0.0,23.84,0.1,
16.604,118.06471133945138,83.4358382315528,-1.17,-1.27,-1.31,4.0,1.0,0.0,11.0,0.0,6.0,1.0,0.0,23.84,0.39,
16.628,118.14147113394515,83.49358382315529,-0.65,-0.53,-0.63,4.0,1.0,0.0,11.0,0.0,5.0,0.0,0.0,23.64,0.1,
16.653,118.22114711339452,83.52635838231554,-0.53,-0.54,0.78,4.0,1.0,0.0,11.0,0.0,5.0,0.0,0.0,23.54,0.0,
16.677,118.19311471133945,83.56563583823154,0.06,-1.19,-0.47,4.0,1.0,0.0,11.0,0.0,5.0,0.0,0.0,23.45,0.1,
16.701,118.18131147113395,83.65956358382314,2.37,0.5,1.82,4.0,1.0,0.0,11.0,0.0,5.0,0.0,0.0,23.15,0.1,
16.726,118.0631311471134,83.67795635838232,1.55,-1.92,-0.26,4.0,1.0,0.0,11.0,0.0,5.0,0.0,0.0,23.05,0.2,
16.75,118.05131311471135,83.66179563583823,3.29,-0.11,-0.85,4.0,1.0,0.0,10.0,0.0,5.0,0.0,0.0,22.86,0.39,
16.775,118.09513131147112,83.72317956358383,4.46,-0.82,-0.63,4.0,1.0,0.0,10.0,0.0,4.0,0.0,0.0,22.76,0.39,
16.799,118.14451313114712,83.84631795635839,5.94,3.89,-0.43,4.0,1.0,0.0,10.0,0.0,4.0,0.0,0.0,22.56,0.49,
16.824,118.19445131311471,84.02063179563585,6.15,2.41,-2.51,4.0,1.0,0.0,10.0,0.0,4.0,0.0,0.0,22.76,0.88,
16.847,117.99244513131147,84.23606317956359,7.06,1.15,-4.6,4.0,1.0,0.0,10.0,0.0,4.0,0.0,0.0,23.05,1.08,
16.872,118.18824451313114,84.41960631795635,6.06,2.98,-0.02,4.0,1.0,0.0,10.0,0.0,3.0,0.0,0.0,23.35,0.59,
16.897,118.2978244513131,84.70796063179563,4.58,1.07,-2.92,4.0,1.0,0.0,10.0,0.0,3.0,0.0,0.0,23.45,0.39,
16.92,118.4167824451313,84.97079606317956,3.21,2.34,-2.73,4.0,1.0,0.0,10.0,0.0,3.0,0.0,0.0,23.64,0.39,
16.945,118.58167824451313,85.24907960631796,1.6,2.11,-3.05,4.0,1.0,0.0,10.0,0.0,3.0,0.0,0.0,23.64,0.0,
16.969,118.64316782445133,85.4389079606318,1.05,1.42,-0.99,4.0,1.0,0.0,10.0,0.0,2.0,0.0,0.0,23.94,0.0,
16.993,118.73031678244513,85.60189079606319,0.95,0.63,-2.36,4.0,1.0,0.0,9.0,0.0,2.0,0.0,0.0,23.94,0.0,
17.017,118.78403167824452,85.74418907960633,-0.43,0.62,-1.15,4.0,1.0,0.0,9.0,0.0,2.0,0.0,0.0,24.03,0.0,
17.042,118.80740316782445,85.84841890796064,-1.79,0.55,-2.08,4.0,0.0,0.0,9.0,0.0,2.0,0.0,0.0,24.03,0.0,
17.065,118.79174031678244,86.01184189079606,-2.04,0.39,-3.46,4.0,0.0,0.0,9.0,0.0,2.0,0.0,0.0,24.03,0.2,
17.09,118.83517403167825,86.1181841890796,-2.39,-0.03,-0.64,4.0,0.0,0.0,9.0,0.0,2.0,0.0,0.0,23.94,0.39,
17.115,118.86651740316782,86.07481841890795,-1.86,-0.65,-2.3,4.0,0.0,0.0,9.0,0.0,2.0,0.0,0.0,23.74,0.2,
17.139,118.93265174031679,86.16048184189079,-2.31,-0.21,-2.3,3.0,0.0,0.0,9.0,0.0,2.0,0.0,0.0,23.74,0.29,
17.164,118.99326517403168,86.23204818418908,-2.45,0.92,-1.22,3.0,0.0,0.0,9.0,0.0,2.0,0.0,0.0,23.54,0.39,
17.187,119.00832651740318,86.38320481841892,-2.24,-1.86,-0.65,3.0,0.0,0.0,9.0,0.0,2.0,0.0,0.0,23.45,0.29,
17.212,118.95583265174032,86.4433204818419,-1.75,0.37,-0.92,3.0,0.0,0.0,9.0,0.0,1.0,0.0,0.0,23.25,0.29,
17.236,119.01358326517402,86.46733204818419,-1.54,0.15,-2.53,3.0,0.0,0.0,9.0,0.0,1.0,0.0,0.0,23.25,0.29,
17.26,119.0553583265174,86.53273320481843,-1.48,-0.34,-0.88,3.0,0.0,0.0,9.0,0.0,1.0,0.0,0.0,23.25,0.49,
17.285,119.12253583265174,86.67427332048184,-1.34,0.26,-1.51,3.0,0.0,0.0,8.0,0.0,1.0,0.0,0.0,23.15,0.69,
17.309,119.19225358326517,86.78742733204818,-2.85,0.5,-1.35,3.0,0.0,0.0,8.0,0.0,1.0,0.0,0.2,23.15,0.98,
17.333,119.29822535832652,86.85274273320482,-2.69,-0.08,-1.45,3.0,0.0,0.0,8.0,0.0,1.0,0.0,0.39,23.25,0.39,
17.357,119.32682253583266,86.92227427332048,-2.74,-0.25,-0.64,3.0,0.0,0.0,8.0,0.0,1.0,0.0,0.49,23.35,0.0,
17.382,119.32068225358326,87.00122742733205,-2.89,0.4,-0.69,3.0,0.0,0.0,8.0,0.0,1.0,0.0,0.59,23.45,0.0,
17.405,119.29306822535833,86.9461227427332,-3.0,-1.64,-0.25,3.0,0.0,0.0,8.0,0.0,1.0,0.0,0.69,23.45,0.0,
17.43,119.29030682253584,86.8596122742733,-2.79,0.24,-1.9,3.0,0.0,0.0,8.0,0.0,1.0,0.0,0.78,23.45,0.0,
17.455,119.29903068225359,86.92296122742734,-2.8,-0.09,-1.14,3.0,0.0,0.0,8.0,0.0,1.0,0.0,0.88,23.54,0.0,
17.478,119.35390306822536,86.96529612274273,-2.06,-0.73,-1.12,3.0,0.0,0.0,8.0,0.0,1.0,0.0,0.98,23.45,0.0,
17.503,119.34139030682255,86.96952961227427,-1.89,0.05,-0.32,3.0,0.0,0.0,8.0,0.0,1.0,0.0,0.98,23.54,0.0,
17.527,119.43013903068224,86.98795296122742,-1.15,-0.74,-1.11,3.0,0.0,0.0,8.0,0.0,1.0,0.0,0.98,23.54,0.0,
17.551,119.48401390306822,87.03479529612275,-0.83,-0.5,-0.53,3.0,0.0,0.0,8.0,0.0,1.0,0.0,1.08,23.35,0.0,
17.575,119.57040139030681,87.07547952961227,-2.03,-0.64,-0.5,3.0,0.0,0.0,8.0,0.0,1.0,0.0,1.18,23.15,0.2,
17.6,119.57904013903068,87.14254795296122,-2.37,-1.82,-0.57,3.0,0.0,0.0,8.0,0.0,1.0,0.0,1.18,23.25,0.1,
17.624,119.49890401390306,87.20325479529612,-1.6,-1.62,-0.46,3.0,0.0,0.0,8.0,0.0,1.0,0.0,1.08,23.05,0.2,
17.648,119.4998904013903,87.20032547952961,-1.27,-1.84,0.08,3.0,0.0,0.0,8.0,0.0,1.0,0.0,1.08,22.96,0.2,
17.672,119.41898904013902,87.26303254795295,-1.27,-2.47,-1.63,3.0,0.0,0.0,8.0,0.0,1.0,0.0,1.08,22.76,0.2,
17.696,119.41089890401389,87.3053032547953,-1.4,-0.79,0.69,3.0,0.0,0.0,8.0,0.0,1.0,0.0,0.98,22.66,0.2,
17.721,119.4010898904014,87.40853032547953,-1.16,-2.01,-1.08,3.0,0.0,0.0,8.0,0.0,1.0,0.0,1.08,22.56,0.29,
17.744,119.40910898904013,87.44585303254794,-2.31,-2.44,0.03,3.0,0.0,0.0,8.0,0.0,1.0,0.0,1.08,22.37,0.2,
17.769,119.481910898904,87.4855853032548,-2.44,-2.19,0.26,4.0,0.0,0.0,8.0,0.0,1.0,0.0,0.98,22.37,0.29,
17.794,119.45319108989041,87.48055853032548,-3.08,-2.52,-0.23,4.0,0.0,0.0,8.0,0.0,1.0,0.0,0.88,22.17,0.29,
17.817,119.39631910898905,87.57005585303256,-2.36,-2.37,0.21,4.0,1.0,0.0,8.0,0.0,1.0,0.0,0.78,21.97,0.59,
17.842,119.46263191089889,87.59700558530326,-2.21,-2.44,0.6,4.0,1.0,0.0,8.0,0.0,1.0,0.0,0.69,21.78,0.0,
17.865,119.40626319108989,87.66270055853033,-2.62,-3.18,0.12,4.0,1.0,0.0,8.0,0.0,1.0,0.0,0.59,21.58,0.0,
17.89,119.373626319109,87.65127005585303,-3.12,-3.25,0.45,4.0,1.0,0.0,8.0,0.0,1.0,0.0,0.69,21.29,0.0,
17.914,119.37036263191091,87.6411270055853,-2.79,-2.26,0.5,4.0,1.0,0.0,8.0,0.0,1.0,0.0,0.59,20.99,0.0,
17.938,119.3700362631911,87.60411270055853,-3.08,-2.14,0.69,4.0,1.0,0.0,8.0,0.0,1.0,0.0,0.49,20.7,0.1,
17.963,119.3520036263191,87.61841127005586,-3.41,-3.46,-0.11,4.0,1.0,0.0,8.0,0.0,1.0,0.0,0.59,20.6,0.2,
17.986,119.3502003626319,87.61984112700559,-2.89,-2.12,0.74,4.0,1.0,0.0,8.0,0.0,1.0,0.0,0.49,20.4,0.39,
18.011,119.30502003626319,87.70998411270057,-3.82,-2.31,0.15,4.0,0.0,0.0,8.0,0.0,1.0,0.0,0.59,20.11,0.2,
18.035,119.34550200362631,87.66499841127006,-3.63,-0.91,0.35,4.0,0.0,0.0,8.0,0.0,1.0,0.0,0.59,20.21,0.29,
18.059,119.34055020036263,87.705499841127,-2.88,-1.69,1.13,4.0,0.0,0.0,8.0,0.0,1.0,0.0,0.59,20.11,0.39,
18.083,119.32205502003625,87.6735499841127,-2.71,-1.9,0.24,4.0,0.0,0.0,8.0,0.0,1.0,0.0,0.49,20.01,0.29,
18.107,119.33820550200363,87.71535499841127,-2.46,-1.1,-0.78,4.0,0.0,0.0,8.0,0.0,1.0,0.0,0.69,20.01,0.39,
18.131,119.24982055020037,87.71953549984113,-2.8,-2.13,-0.6,4.0,0.0,0.0,8.0,0.0,1.0,0.0,0.78,20.01,0.29,
18.156,119.20498205502004,87.77395354998413,-2.5,-1.46,-0.32,4.0,0.0,0.0,8.0,0.0,0.0,0.0,0.69,19.91,0.39,
18.18,119.15549820550201,87.77039535499841,-2.56,-1.0,0.55,4.0,0.0,0.0,8.0,0.0,0.0,0.0,0.78,19.91,0.39,
18.204,119.15054982055021,87.76103953549985,-2.53,-1.67,-0.73,4.0,0.0,0.0,8.0,0.0,0.0,0.0,0.88,19.91,0.29,
18.229,119.09605498205502,87.73310395354999,-2.24,-1.25,-0.53,4.0,0.0,0.0,8.0,0.0,0.0,0.0,0.98,19.72,0.49,
18.252,119.08160549820549,87.694310395355,-2.56,-1.77,-0.84,4.0,0.0,0.0,8.0,0.0,0.0,0.0,0.88,19.72,0.69,
18.277,119.13416054982055,87.74443103953551,-2.52,0.19,0.94,4.0,0.0,0.0,8.0,0.0,0.0,0.0,1.08,19.62,0.59,
18.301,119.14841605498206,87.74044310395354,-1.81,-2.03,-0.7,3.0,0.0,0.0,8.0,0.0,0.0,0.0,1.18,19.42,0.39,
18.325,119.09584160549821,87.74904431039536,-2.36,-0.89,0.31,4.0,0.0,0.0,8.0,0.0,0.0,0.0,1.18,19.42,0.0,
18.35,119.06358416054982,87.81290443103953,-2.51,-1.39,0.21,4.0,0.0,0.0,8.0,0.0,0.0,0.0,1.18,19.23,0.0,
18.373,119.060358416055,87.88229044310395,-2.73,-1.32,0.4,4.0,0.0,0.0,8.0,0.0,0.0,0.0,1.28,19.03,0.0,
18.398,119.0510358416055,87.9342290443104,-2.71,-1.31,-0.26,4.0,0.0,0.0,8.0,0.0,0.0,0.0,1.28,19.03,0.1,
18.422,119.07710358416054,87.89442290443104,-2.63,-1.51,-0.23,4.0,0.0,0.0,8.0,0.0,0.0,0.0,1.37,19.03,0.2,
18.446,119.06171035841606,87.8634422904431,-2.33,-0.92,0.11,4.0,0.0,0.0,8.0,0.0,0.0,0.0,1.28,18.93,0.2,
18.47,119.00617103584162,87.86934422904432,-2.37,-1.76,-0.55,4.0,0.0,0.0,8.0,0.0,0.0,0.0,1.28,18.84,0.2,
18.495,118.96461710358415,87.90593442290444,-2.92,-0.57,0.99,4.0,0.0,0.0,8.0,0.0,0.0,0.0,1.28,18.74,0.29,
18.519,118.96946171035842,87.92759344229046,-2.81,-2.1,-0.63,4.0,0.0,0.0,8.0,0.0,0.0,0.0,1.37,18.64,0.39,
18.543,119.03294617103585,87.94775934422904,-3.17,-0.9,0.76,4.0,0.0,0.0,8.0,0.0,0.0,0.0,1.28,18.54,0.39,
18.568,119.09329461710358,87.9677759344229,-3.05,-1.65,-0.6,4.0,0.0,0.0,8.0,0.0,0.0,0.0,1.28,18.54,0.29,
18.591,119.12632946171036,87.97877759344229,-3.54,-1.37,0.31,4.0,0.0,0.0,8.0,0.0,0.0,0.0,1.28,18.54,0.29,
18.616,119.05763294617103,87.98887775934423,-3.72,-1.69,0.12,4.0,0.0,0.0,8.0,0.0,0.0,0.0,1.18,18.44,0.29,
18.639,119.0237632946171,87.96288777593442,-4.18,-1.96,0.85,4.0,0.0,0.0,8.0,0.0,0.0,0.0,1.08,18.64,0.2,
18.664,119.0473763294617,87.94228877759345,-3.52,-1.93,-0.98,4.0,0.0,0.0,8.0,0.0,0.0,0.0,1.08,18.74,0.39,
18.689,119.04073763294618,87.91322887775934,-4.31,-2.13,0.24,4.0,0.0,0.0,8.0,0.0,0.0,0.0,0.88,18.74,0.2,
18.712,118.95007376329463,87.99132288777594,-3.38,-1.11,0.39,4.0,1.0,0.0,8.0,0.0,0.0,0.0,0.88,18.84,0.39,
18.737,118.99500737632947,87.9541322887776,-3.74,-2.28,-0.08,4.0,1.0,0.0,9.0,0.0,0.0,0.0,0.88,19.03,0.39,
18.761,118.96350073763294,87.90541322887778,-3.57,-1.23,-0.53,4.0,1.0,0.0,9.0,0.0,0.0,0.0,0.78,19.23,0.0,
18.785,119.0053500737633,87.80154132288779,-3.85,-1.86,0.67,4.0,1.0,0.0,9.0,0.0,0.0,0.0,0.78,19.52,0.0,
18.809,118.97353500737634,87.80915413228878,-3.63,-2.02,0.09,4.0,1.0,0.0,9.0,0.0,0.0,0.0,0.69,19.82,0.0,
18.833,119.01535350073763,87.82791541322888,-2.95,-1.11,-0.24,4.0,1.0,0.0,9.0,0.0,0.0,0.0,0.69,19.82,0.0,
18.857,118.99253535007375,87.7667915413229,-3.31,-1.09,-0.31,4.0,1.0,0.0,9.0,0.0,0.0,0.0,0.59,20.11,0.0,
18.882,118.97225353500738,87.7786791541323,-3.0,-1.4,-1.83,4.0,1.0,0.0,9.0,0.0,0.0,0.0,0.69,20.31,0.0,
18.907,118.98822535350072,87.84286791541322,-3.06,-1.45,0.7,4.0,1.0,0.0,9.0,0.0,0.0,0.0,0.59,20.5,0.0,
18.93,118.99882253535007,87.83128679154132,-3.05,-0.66,-1.66,4.0,1.0,0.0,9.0,0.0,0.0,0.0,0.69,20.6,0.0,
18.955,118.94588225353502,87.83012867915413,-3.33,-2.24,-0.36,4.0,1.0,0.0,9.0,0.0,0.0,0.0,0.59,20.9,0.1,
18.978,118.9855882253535,87.74901286791541,-2.7,-1.02,0.08,4.0,1.0,0.0,9.0,0.0,0.0,0.0,0.69,20.9,0.1,
19.003,119.00755882253536,87.77690128679154,-2.95,-1.42,-0.6,4.0,1.0,0.0,9.0,0.0,0.0,0.0,0.69,20.99,0.0,
19.027,118.97375588225354,87.77969012867916,-3.45,-0.4,-0.05,4.0,1.0,0.0,9.0,0.0,0.0,0.0,0.78,21.09,0.2,
19.051,118.94337558822536,87.7169690128679,-2.93,-1.36,-1.21,4.0,1.0,0.0,9.0,0.0,0.0,0.0,0.78,21.39,0.29,
19.076,118.94033755882253,87.6926969012868,-3.15,-1.4,-0.53,4.0,1.0,0.0,9.0,0.0,0.0,0.0,0.78,21.39,0.29,
19.1,118.94003375588225,87.65426969012869,-3.31,-0.82,-0.28,4.0,1.0,0.0,10.0,0.0,0.0,0.0,0.78,21.48,0.29,
19.125,119.01200337558822,87.62342696901287,-3.28,-1.53,-0.23,4.0,1.0,0.0,9.0,0.0,0.0,0.0,0.88,21.58,0.29,
19.148,118.99220033755881,87.72834269690128,-3.94,-1.52,0.02,4.0,1.0,0.0,9.0,0.0,0.0,0.0,0.88,21.58,0.29,
19.173,119.05322003375589,87.72983426969013,-2.95,-0.98,-1.43,4.0,1.0,0.0,9.0,0.0,0.0,0.0,0.88,21.68,0.2,
19.197,119.05032200337558,87.80198342696902,-3.1,-0.54,0.81,4.0,1.0,0.0,9.0,0.0,0.0,0.0,0.78,21.78,0.0,
19.221,119.06803220033756,87.78219834269692,-2.63,-1.99,-0.73,4.0,1.0,0.0,9.0,0.0,0.0,0.0,0.88,21.88,0.0,
19.246,118.98880322003376,87.7622198342697,-3.09,-1.63,0.39,4.0,1.0,0.0,9.0,0.0,0.0,0.0,0.88,21.88,0.0,
19.269,119.05288032200339,87.74222198342696,-2.48,-1.08,-0.84,4.0,1.0,0.0,9.0,0.0,0.0,0.0,0.88,21.78,0.0,
19.294,119.07728803220033,87.7312221983427,-2.97,-0.59,0.6,4.0,1.0,0.0,9.0,0.0,0.0,0.0,0.88,21.88,0.0,
19.318,119.11572880322004,87.73012221983427,-2.69,-2.03,-0.6,4.0,1.0,0.0,10.0,0.0,0.0,0.0,0.88,21.88,0.0,
19.342,119.04757288032201,87.72101222198343,-2.82,-0.68,0.92,4.0,1.0,0.0,9.0,0.0,0.0,0.0,0.98,21.68,0.0,
19.366,119.0767572880322,87.65710122219835,-1.69,-2.24,-1.55,4.0,1.0,0.0,9.0,0.0,0.0,0.0,1.08,21.78,0.2,
19.391,119.12467572880321,87.71371012221984,-3.63,-0.02,2.73,4.0,1.0,0.0,10.0,0.0,0.0,0.0,1.08,21.58,0.2,
19.415,119.04846757288033,87.67437101222198,-2.76,-2.24,-1.66,4.0,1.0,0.0,10.0,0.0,0.0,0.0,1.08,21.48,0.29,
19.439,119.02284675728802,87.72443710122221,-3.14,-1.0,0.25,4.0,1.0,0.0,10.0,0.0,0.0,0.0,1.08,21.48,0.29,
19.464,119.06528467572879,87.74744371012223,-3.16,-1.5,-0.54,4.0,1.0,0.0,10.0,0.0,0.0,0.0,1.08,21.39,0.2,
19.488,119.11452846757288,87.82174437101222,-3.2,-0.67,0.34,4.0,1.0,0.0,10.0,0.0,0.0,0.0,1.08,21.29,0.39,
19.512,119.1194528467573,87.76617443710123,-3.56,-1.41,0.31,4.0,1.0,0.0,10.0,0.0,0.0,0.0,1.08,21.39,0.39,
19.536,119.11994528467574,87.81461744371012,-3.5,-1.1,0.79,4.0,1.0,0.0,10.0,0.0,0.0,0.0,0.98,21.48,0.39,
19.561,119.07499452846757,87.83746174437103,-2.99,-0.89,0.58,4.0,1.0,0.0,10.0,0.0,0.0,0.0,1.08,21.58,0.49,
19.585,119.16049945284675,87.7767461744371,-3.34,-0.27,0.98,4.0,1.0,0.0,10.0,0.0,0.0,0.0,1.08,21.39,0.39,
19.609,119.15104994528468,87.8156746174437,-3.43,-1.83,0.18,4.0,1.0,0.0,10.0,0.0,0.0,0.0,1.08,21.39,0.0,
19.634,119.15010499452848,87.78356746174438,-2.49,-0.89,0.05,4.0,1.0,0.0,10.0,0.0,0.0,0.0,1.18,21.39,0.0,
19.657,119.09601049945286,87.81635674617443,-3.35,-1.73,0.99,4.0,1.0,0.0,10.0,0.0,0.0,0.0,1.18,21.39,0.0,
19.682,119.11760104994529,87.81063567461746,-2.6,-0.28,-0.33,4.0,1.0,0.0,10.0,0.0,0.0,0.0,1.18,21.39,0.0,
19.706,119.14676010499454,87.85506356746174,-2.75,-1.95,0.09,4.0,1.0,0.0,10.0,0.0,0.0,0.0,1.08,21.48,0.0,
19.73,119.06867601049946,87.77850635674616,-2.24,-2.11,-0.15,4.0,1.0,0.0,10.0,0.0,0.0,0.0,1.08,21.48,0.1,
19.755,119.08786760104995,87.83385063567462,-2.5,-0.68,-0.07,4.0,1.0,0.0,10.0,0.0,0.0,0.0,1.18,21.39,0.1,
19.779,119.13478676010499,87.87538506356746,-2.66,-0.9,1.17,4.0,1.0,0.0,10.0,0.0,0.0,0.0,1.08,21.19,0.2,
19.804,119.0764786760105,87.85253850635674,-2.84,-0.91,-0.82,4.0,1.0,0.0,10.0,0.0,0.0,0.0,1.18,21.19,0.29,
19.827,119.14264786760106,87.89525385063568,-2.77,-1.55,-1.08,4.0,1.0,0.0,10.0,0.0,0.0,0.0,1.18,21.09,0.29,
19.852,119.1132647867601,87.90852538506357,-3.43,-0.37,2.11,4.0,1.0,0.0,10.0,0.0,0.0,0.0,1.18,21.19,0.39,
19.876,119.128326478676,87.90085253850637,-2.56,-1.38,-1.53,4.0,1.0,0.0,10.0,0.0,0.0,0.0,1.18,21.19,0.29,
19.901,119.1028326478676,87.99008525385064,-3.37,-0.63,0.82,4.0,1.0,0.0,10.0,0.0,0.0,0.0,1.28,21.09,0.29,
19.924,119.07328326478675,87.97200852538506,-3.27,-1.76,-0.97,4.0,1.0,0.0,10.0,0.0,0.0,0.0,1.18,21.19,0.49,
19.949,119.04332832647869,87.93420085253852,-3.4,-0.98,0.03,4.0,1.0,0.0,9.0,0.0,0.0,0.0,1.28,21.19,0.39,
19.974,119.04933283264786,87.85842008525385,-3.24,-1.05,-0.47,4.0,1.0,0.0,10.0,0.0,0.0,0.0,1.37,21.29,0.39,
19.997,119.04093328326479,87.84184200852539,-3.52,-0.94,-0.18,4.0,1.0,0.0,10.0,0.0,0.0,0.0,1.28,21.48,0.2,
20.022,119.02209332832648,87.78618420085255,-3.96,-1.98,-1.49,4.0,1.0,0.0,9.0,0.0,0.0,0.0,1.18,21.58,0.0,
20.046,119.03820933283265,87.78961842008526,-3.6,-0.88,0.53,4.0,1.0,0.0,10.0,0.0,0.0,0.0,1.18,21.68,0.0,
20.071,119.12082093328326,87.78996184200854,-3.27,-1.38,-0.46,4.0,1.0,0.0,10.0,0.0,0.0,0.0,1.28,21.78,0.0,
20.094,119.10208209332832,87.77199618420084,-2.96,-1.31,0.69,4.0,1.0,0.0,10.0,0.0,0.0,0.0,1.18,21.88,0.0,
20.119,119.12720820933282,87.7791996184201,-2.97,-1.94,-1.05,4.0,1.0,0.0,10.0,0.0,0.0,0.0,1.28,21.78,0.0,
20.144,119.10272082093327,87.77991996184201,-3.36,-0.34,0.89,4.0,1.0,0.0,10.0,0.0,0.0,0.0,1.28,21.88,0.0,
20.167,119.03727208209334,87.80699199618421,-3.27,-1.81,-0.66,4.0,1.0,0.0,10.0,0.0,0.0,0.0,1.28,21.97,0.1,
20.192,118.98572720820934,87.83669919961844,-3.39,-0.92,-0.23,5.0,1.0,0.0,10.0,0.0,0.0,0.0,1.28,21.88,0.29,
20.216,118.97157272082094,87.87566991996184,-3.05,-1.24,0.52,4.0,1.0,0.0,10.0,0.0,0.0,0.0,1.28,21.78,0.2,
20.241,119.0061572720821,87.8705669919962,-2.6,-1.67,0.01,5.0,1.0,0.0,10.0,0.0,0.0,0.0,1.18,21.68,0.39,
20.264,119.00061572720821,87.87005669919964,-2.63,-0.89,0.64,5.0,1.0,0.0,10.0,0.0,0.0,0.0,1.28,21.68,0.39,
20.289,118.98206157272082,87.94200566991996,-2.45,-1.48,0.1,5.0,1.0,0.0,10.0,0.0,0.0,0.0,1.18,21.58,0.29,
20.314,119.0072061572721,87.95820056699199,-2.77,-1.21,0.22,5.0,1.0,0.0,10.0,0.0,0.0,0.0,1.28,21.58,0.39,
20.337,119.0187206157272,87.9148200566992,-2.98,-2.03,-0.18,5.0,1.0,0.0,10.0,0.0,0.0,0.0,1.18,21.48,0.49,
20.362,119.01987206157271,87.95548200566992,-3.01,-1.57,0.06,5.0,1.0,0.0,10.0,0.0,0.0,0.0,1.28,21.48,0.49,
20.386,119.05598720615728,87.90554820056701,-2.73,-1.6,-0.36,5.0,1.0,0.0,10.0,0.0,0.0,0.0,1.28,21.39,0.49,
20.411,119.04159872061574,87.92755482005671,-3.31,-0.95,0.67,5.0,1.0,0.0,10.0,0.0,0.0,0.0,1.28,21.39,0.1,
20.434,119.03115987206158,87.91175548200567,-3.09,-2.1,-0.95,5.0,1.0,0.0,10.0,0.0,0.0,0.0,1.28,21.29,0.0,
20.459,118.99411598720614,87.92817554820058,-3.29,-1.22,0.17,5.0,1.0,0.0,10.0,0.0,0.0,0.0,1.37,21.29,0.0,
20.484,119.03541159872063,87.89381755482006,-2.98,-1.06,-0.07,5.0,1.0,0.0,10.0,0.0,0.0,0.0,1.28,21.39,0.0,
20.507,119.00354115987207,87.89938175548201,-2.99,-1.09,0.18,5.0,1.0,0.0,10.0,0.0,0.0,0.0,1.28,21.39,0.0,
20.532,119.0453541159872,87.9449381755482,-2.81,-1.1,-0.29,5.0,1.0,0.0,10.0,0.0,0.0,0.0,1.28,21.48,0.0,
20.556,119.04053541159873,87.95849381755482,-3.15,-0.63,0.64,5.0,1.0,0.0,10.0,0.0,0.0,0.0,1.28,21.48,0.1,
20.581,119.03105354115988,87.93284938175549,-3.66,-1.91,-0.55,5.0,1.0,0.0,10.0,0.0,0.0,0.0,1.18,21.48,0.1,
20.604,119.05710535411599,87.91228493817555,-3.48,-2.39,0.12,5.0,1.0,0.0,10.0,0.0,0.0,0.0,1.28,21.68,0.2,
20.629,119.0507105354116,87.93722849381756,-3.56,0.05,0.68,5.0,1.0,0.0,10.0,0.0,0.0,0.0,1.18,21.58,0.2,
20.654,119.02307105354114,87.93072284938177,-2.96,-1.67,-1.28,5.0,1.0,0.0,10.0,0.0,0.0,0.0,1.28,21.78,0.39,
20.677,119.0203071053541,87.94807228493818,-3.34,-1.4,0.07,5.0,1.0,0.0,10.0,0.0,0.0,0.0,1.28,21.68,0.29,
20.702,119.07403071053541,87.92280722849381,-3.26,-1.24,-0.5,5.0,1.0,0.0,10.0,0.0,0.0,0.0,1.28,21.78,0.39,
20.726,119.14240307105355,87.9292807228494,-3.61,-1.71,-0.02,5.0,1.0,0.0,10.0,0.0,0.0,0.0,1.28,979.33,0.49,
20.751,119.10424030710536,87.89392807228494,-3.73,-1.35,0.46,5.0,1.0,0.0,10.0,0.0,0.0,0.0,1.28,21.78,0.39,
20.774,119.06442403071054,87.8633928072285,-3.5,-0.52,0.83,5.0,1.0,0.0,10.0,0.0,0.0,0.0,1.28,21.88,0.39,
20.799,119.02444240307105,87.83333928072284,-3.34,-1.86,-0.24,5.0,1.0,0.0,10.0,0.0,0.0,0.0,1.18,21.97,0.0,
20.824,118.98444424030711,87.83033392807228,-3.4,-0.82,0.94,5.0,1.0,0.0,10.0,0.0,0.0,0.0,1.28,21.88,0.0,
20.847,118.98944442403071,87.83903339280724,-3.12,-1.83,-0.27,5.0,1.0,0.0,10.0,0.0,0.0,0.0,1.28,22.07,0.0,
20.872,118.97194444240307,87.78590333928074,-3.34,-1.8,-0.12,5.0,1.0,0.0,10.0,0.0,0.0,0.0,1.28,22.07,0.0,
20.896,119.0421944442403,87.76259033392807,-3.43,-1.08,0.63,5.0,1.0,0.0,10.0,0.0,0.0,0.0,1.28,22.07,0.0,
20.921,118.98621944442404,87.77825903339281,-3.28,-1.11,0.24,5.0,1.0,0.0,10.0,0.0,0.0,0.0,1.28,22.17,0.0,
20.944,119.01662194444239,87.73482590333928,-3.19,-1.63,-0.71,5.0,1.0,0.0,10.0,0.0,0.0,0.0,1.18,22.07,0.1,
20.969,119.05566219444425,87.75748259033394,-3.48,-1.37,0.32,5.0,1.0,0.0,10.0,0.0,0.0,0.0,1.28,22.17,0.2,
20.994,119.01456621944443,87.7507482590334,-3.31,-0.98,0.14,5.0,1.0,0.0,10.0,0.0,0.0,0.0,1.28,22.17,0.29,
21.017,118.97445662194446,87.72307482590335,-2.71,-1.83,-0.44,5.0,1.0,0.0,10.0,0.0,0.0,0.0,1.28,22.27,0.29,
21.042,118.90744566219445,87.80130748259035,-3.15,-0.33,0.93,5.0,1.0,0.0,10.0,0.0,0.0,0.0,1.37,22.07,0.39,
21.066,118.97274456621945,87.80913074825904,-3.28,-2.19,-1.17,5.0,1.0,0.0,10.0,0.0,0.0,0.0,1.28,22.17,0.29,
21.091,118.95227445662195,87.75591307482591,-3.47,-0.54,0.9,5.0,1.0,0.0,10.0,0.0,0.0,0.0,1.28,22.07,0.29,
21.114,118.9682274456622,87.7775913074826,-2.81,-1.6,-0.57,5.0,1.0,0.0,10.0,0.0,0.0,0.0,1.28,22.07,0.49,
21.139,118.91582274456623,87.79775913074826,-3.29,-1.14,0.65,5.0,1.0,0.0,10.0,0.0,0.0,0.0,1.28,22.07,0.39,
21.164,118.88358227445663,87.79977591307482,-2.92,-2.37,-0.73,5.0,1.0,0.0,10.0,0.0,0.0,0.0,1.37,22.17,0.29,
21.187,118.87135822744567,87.77297759130748,-3.05,-0.81,0.75,5.0,1.0,0.0,10.0,0.0,0.0,0.0,1.37,22.17,0.0,
21.212,118.92413582274457,87.72529775913075,-3.14,-0.85,0.76,5.0,1.0,0.0,10.0,0.0,0.0,0.0,1.37,22.07,0.29,
21.236,118.89341358227446,87.76552977591307,-2.64,-0.5,0.55,5.0,1.0,0.0,10.0,0.0,0.0,0.0,1.37,22.07,0.1,
21.261,118.89034135822745,87.7155529775913,-2.56,-2.49,-0.68,5.0,1.0,0.0,10.0,0.0,0.0,0.0,1.37,21.97,0.0,
21.284,118.90803413582275,87.76455529775913,-2.62,-1.4,-0.67,5.0,1.0,0.0,10.0,0.0,0.0,0.0,1.37,21.97,0.0,
21.309,118.92780341358228,87.76945552977591,-2.65,0.11,0.15,5.0,1.0,0.0,10.0,0.0,0.0,0.0,1.37,21.97,0.0,
21.334,119.01978034135823,87.7609455529776,-2.43,-2.0,-0.29,5.0,1.0,0.0,10.0,0.0,0.0,0.0,1.47,21.78,0.2,
21.357,118.94797803413583,87.78709455529777,-2.67,-1.01,0.32,5.0,1.0,0.0,10.0,0.0,0.0,0.0,1.47,21.78,0.1,
21.382,119.01279780341358,87.81670945552978,-2.97,-1.68,-0.92,5.0,1.0,0.0,10.0,0.0,0.0,0.0,1.57,21.68,0.1,
21.406,119.02827978034136,87.84667094555297,-3.02,-0.79,0.56,5.0,1.0,0.0,10.0,0.0,0.0,0.0,1.57,21.68,0.2,
21.43,118.98482797803415,87.88566709455529,-2.89,-1.56,-0.76,5.0,1.0,0.0,10.0,0.0,0.0,0.0,1.47,21.68,0.2,
21.454,118.9894827978034,87.89856670945554,-3.09,-0.66,0.57,5.0,1.0,0.0,10.0,0.0,0.0,0.0,1.57,21.58,0.39,
21.479,119.00794827978035,87.86385667094555,-2.83,-1.59,-0.53,5.0,1.0,0.0,10.0,0.0,0.0,0.0,1.57,21.58,0.39,
21.504,119.00979482797804,87.86938566709456,-2.75,-1.12,-0.36,5.0,1.0,0.0,10.0,0.0,0.0,0.0,1.57,21.78,0.39,
21.527,119.01897948279779,87.92393856670947,-2.98,-1.66,0.27,5.0,1.0,0.0,10.0,0.0,0.0,0.0,1.67,21.78,0.29,
21.552,119.01989794827978,87.92039385667094,-2.95,-1.07,-0.36,5.0,1.0,0.0,10.0,0.0,0.0,0.0,1.57,21.68,0.39,
21.576,119.01998979482796,87.9560393856671,-3.05,-0.73,0.12,5.0,1.0,0.0,10.0,0.0,0.0,0.0,1.67,21.68,0.49,
21.601,119.02899897948281,87.95060393856672,-2.92,-1.07,0.41,5.0,1.0,0.0,10.0,0.0,0.0,0.0,1.57,21.78,0.0,
21.624,119.05689989794828,87.94106039385667,-2.63,-1.79,-0.44,5.0,1.0,0.0,10.0,0.0,0.0,0.0,1.67,21.78,0.0,
21.649,119.01468998979483,87.95810603938567,-2.83,-1.37,-0.27,5.0,1.0,0.0,10.0,0.0,0.0,0.0,1.67,21.68,0.0,
21.673,119.01046899897949,87.97781060393856,-2.92,-1.29,0.15,5.0,1.0,0.0,10.0,0.0,0.0,0.0,1.57,21.78,0.0,
21.697,119.02804689989796,87.97078106039386,-3.06,-1.2,-0.02,5.0,1.0,0.0,10.0,0.0,0.0,0.0,1.57,21.78,0.0,
21.722,119.0118046899898,87.9340781060394,-3.34,-1.01,0.09,5.0,1.0,0.0,10.0,0.0,0.0,0.0,1.57,21.68,0.0,
21.746,119.01918046899897,87.96640781060394,-2.92,-1.3,0.0,5.0,1.0,0.0,10.0,0.0,0.0,0.0,1.67,21.78,0.1,
21.771,119.01991804689989,87.95164078106039,-2.95,-1.57,-0.54,5.0,1.0,0.0,10.0,0.0,0.0,0.0,1.67,21.88,0.1,
21.794,119.08299180469,87.96816407810604,-2.98,-1.63,-0.02,5.0,1.0,0.0,10.0,0.0,0.0,0.0,1.67,21.97,0.29,
21.819,119.08929918046901,87.9788164078106,-3.5,-1.44,-0.71,5.0,1.0,0.0,10.0,0.0,0.0,0.0,1.57,21.88,0.39,
21.843,119.09892991804689,87.99788164078106,-3.23,-1.12,-0.35,5.0,1.0,0.0,10.0,0.0,0.0,0.0,1.67,21.97,0.29,
21.868,119.08189299180468,88.02678816407811,-3.13,-1.33,0.13,5.0,1.0,0.0,10.0,0.0,0.0,0.0,1.67,21.97,0.39,
21.892,119.08018929918046,88.00267881640781,-2.81,-1.34,-0.77,5.0,1.0,0.0,10.0,0.0,0.0,0.0,1.57,21.97,0.29,
21.916,119.04401892991805,87.94626788164078,-3.22,-1.58,-0.4,5.0,1.0,0.0,10.0,0.0,0.0,0.0,1.67,22.17,0.49,
21.941,119.08540189299181,87.91362678816408,-3.44,-1.13,-0.21,5.0,1.0,0.0,10.0,0.0,0.0,0.0,1.67,22.17,0.39,
21.965,119.08054018929917,87.90136267881643,-3.72,-1.33,-0.66,5.0,1.0,0.0,10.0,0.0,0.0,0.0,1.77,22.27,0.49,
21.989,119.10705401892992,87.89113626788163,-3.75,0.52,-0.03,5.0,1.0,0.0,10.0,0.0,0.0,0.0,1.67,22.46,0.0,
22.013,119.07370540189298,87.87211362678818,-4.56,-1.26,-2.24,5.0,1.0,0.0,10.0,0.0,0.0,0.0,1.57,22.76,0.0,
22.038,119.10637054018929,87.83421136267881,-5.29,-0.53,0.85,5.0,1.0,0.0,10.0,0.0,0.0,0.0,1.57,23.15,0.0,
22.062,119.14563705401893,87.79442113626789,-4.74,-1.88,-0.66,5.0,1.0,0.0,10.0,0.0,0.0,0.0,1.57,23.74,0.0,
22.086,119.2845637054019,87.70944211362679,-4.85,-1.69,1.65,5.0,1.0,0.0,10.0,0.0,0.0,0.0,1.47,24.03,0.0,
22.111,119.20845637054019,87.66494421136268,-4.36,-1.05,-1.81,5.0,1.0,0.0,10.0,0.0,0.0,0.0,1.57,24.52,0.0,
22.135,119.16484563705401,87.65149442113628,-5.17,-1.17,0.29,5.0,1.0,0.0,10.0,0.0,0.0,0.0,1.47,24.72,0.2,
22.159,119.1154845637054,87.61414944211363,-4.76,-1.32,-1.11,5.0,1.0,0.0,10.0,0.0,0.0,0.0,1.47,24.82,0.2,
22.183,119.08354845637054,87.61941494421137,-4.05,-1.1,-0.19,5.0,1.0,0.0,10.0,0.0,0.0,0.0,1.57,24.72,0.29,
22.208,119.08935484563706,87.64694149442114,-3.63,-1.73,0.69,5.0,1.0,0.0,10.0,0.0,0.0,0.0,1.67,24.72,0.59,
22.232,119.1259354845637,87.58669414944211,-3.1,-2.64,-1.27,4.0,1.0,0.0,10.0,0.0,0.0,0.0,1.86,24.62,0.69,
22.256,119.12059354845638,87.67966941494421,-3.39,-0.53,1.98,4.0,1.0,0.0,10.0,0.0,0.0,0.0,1.86,24.23,0.78,
22.281,119.10205935484564,87.65296694149443,-3.19,-3.45,0.17,4.0,1.0,0.0,10.0,0.0,0.0,0.0,1.96,23.74,0.88,
22.305,119.08220593548455,87.58729669414944,-2.65,-0.76,0.77,4.0,1.0,0.0,10.0,0.0,0.0,0.0,2.06,23.35,0.98,
22.329,119.12522059354845,87.53572966941495,-2.45,-3.06,0.31,4.0,1.0,0.0,10.0,0.0,0.0,0.0,2.06,22.96,0.88,
22.353,119.06652205935485,87.5755729669415,-2.31,-1.37,0.93,4.0,1.0,0.0,10.0,0.0,0.0,0.0,1.96,22.76,0.88,
22.378,119.02465220593548,87.57955729669415,-2.62,-2.38,0.76,4.0,1.0,0.0,10.0,0.0,0.0,0.0,2.06,22.37,0.69,
22.402,119.02046522059354,87.57995572966942,-3.25,-0.66,0.92,4.0,1.0,0.0,10.0,0.0,0.0,0.0,1.96,22.17,0.29,
22.426,119.02004652205935,87.57999557296694,-2.98,-2.37,0.37,4.0,1.0,0.0,10.0,0.0,0.0,0.0,2.16,21.97,0.1,
22.451,118.98400465220594,87.57099955729669,-3.32,-0.92,0.82,4.0,1.0,0.0,10.0,0.0,0.0,0.0,2.16,21.58,0.2,
22.474,118.9084004652206,87.57009995572967,-3.32,-2.2,-0.85,4.0,1.0,0.0,10.0,0.0,0.0,0.0,1.96,21.58,0.2,
22.499,118.96384004652207,87.57000999557297,-3.56,-0.89,0.91,4.0,1.0,0.0,10.0,0.0,0.0,0.0,2.06,21.48,0.1,
22.523,118.9603840046522,87.5520009995573,-2.73,-1.64,-0.36,4.0,1.0,0.0,10.0,0.0,0.0,0.0,1.96,21.39,0.2,
22.548,118.93303840046522,87.57720009995573,-2.79,-0.89,0.34,4.0,1.0,0.0,9.0,0.0,0.0,0.0,2.06,21.29,0.29,
22.572,118.88530384004652,87.62472000999557,-2.75,-1.92,0.1,4.0,1.0,0.0,9.0,0.0,0.0,0.0,2.26,21.29,0.39,
22.596,118.91653038400466,87.64747200099956,-2.67,-0.97,0.12,4.0,1.0,0.0,10.0,0.0,0.0,0.0,2.06,21.19,0.29,
22.62,118.87465303840047,87.64074720009995,-2.6,-1.25,0.2,4.0,1.0,0.0,10.0,0.0,0.0,0.0,1.96,21.09,0.29,
22.644,118.87946530384005,87.65807472001,-2.76,-1.54,-0.18,4.0,1.0,0.0,10.0,0.0,0.0,0.0,2.06,21.09,0.29,
22.669,118.897946530384,87.623807472001,-2.85,-1.36,0.19,4.0,1.0,0.0,10.0,0.0,0.0,0.0,2.06,20.9,0.39,
22.693,118.9177946530384,87.6203807472001,-2.73,-1.72,0.08,4.0,1.0,0.0,9.0,0.0,0.0,0.0,2.06,20.9,0.49,
22.717,118.89277946530385,87.62903807472001,-2.94,-1.18,0.22,4.0,1.0,0.0,10.0,0.0,0.0,0.0,1.96,20.9,0.39,
22.742,118.89927794653039,87.620903807472,-2.98,-1.04,0.2,4.0,1.0,0.0,10.0,0.0,0.0,0.0,1.86,20.8,0.59,
22.765,118.87292779465304,87.6200903807472,-3.32,-1.61,-0.19,4.0,1.0,0.0,10.0,0.0,0.0,0.0,1.86,20.7,0.49,
22.79,118.8522927794653,87.62900903807473,-3.7,-1.01,-0.34,4.0,1.0,0.0,10.0,0.0,0.0,0.0,1.77,20.8,0.49,
22.814,118.81422927794652,87.57590090380748,-4.92,-1.78,-1.4,4.0,1.0,0.0,10.0,0.0,0.0,0.0,1.86,20.99,0.0,
22.839,118.79242292779465,87.62459009038075,-5.26,-0.71,-1.46,4.0,1.0,0.0,10.0,0.0,0.0,0.0,1.67,21.39,0.0,
22.862,118.82624229277947,87.62045900903807,-5.9,-0.7,-1.05,4.0,1.0,0.0,10.0,0.0,0.0,0.0,1.57,21.88,0.0,
22.887,118.83862422927794,87.5750459009038,-6.69,-0.6,-1.08,4.0,1.0,0.0,10.0,0.0,0.0,0.0,1.47,22.37,0.0,
22.912,118.9028624229278,87.55250459009038,-6.5,-1.73,-1.82,4.0,1.0,0.0,10.0,0.0,0.0,0.0,1.47,22.86,0.0,
22.936,118.95428624229277,87.53225045900903,-6.48,-0.36,-0.37,4.0,1.0,0.0,10.0,0.0,0.0,0.0,1.37,23.45,0.2,
22.96,118.93242862422927,87.5122250459009,-6.22,-1.56,-0.05,4.0,1.0,0.0,10.0,0.0,0.0,0.0,1.37,23.84,0.1,
22.984,118.93924286242293,87.42922250459009,-5.47,-1.5,-0.49,4.0,1.0,0.0,10.0,0.0,0.0,0.0,1.57,24.13,0.49,
23.009,118.9669242862423,87.357922250459,-5.17,-0.19,0.36,4.0,1.0,0.0,10.0,0.0,0.0,0.0,1.57,24.23,0.59,
23.033,119.03269242862424,87.27879222504589,-4.7,-1.8,-0.21,4.0,0.0,0.0,10.0,0.0,0.0,0.0,1.57,24.33,0.88,
23.057,119.06626924286242,87.27087922250458,-4.21,-0.68,0.87,4.0,0.0,0.0,10.0,0.0,0.0,0.0,1.67,24.23,0.98,
23.081,119.07862692428624,87.30608792225047,-3.66,-0.07,-0.02,4.0,0.0,0.0,10.0,0.0,0.0,0.0,1.77,24.13,0.78,
23.106,119.07086269242862,87.25560879222505,-3.21,-1.86,-0.89,4.0,0.0,0.0,10.0,0.0,0.0,0.0,1.86,24.13,0.98,
23.131,119.11508626924287,87.1695608792225,-3.54,-0.48,0.95,3.0,0.0,0.0,9.0,0.0,0.0,0.0,1.96,24.13,0.88,
23.154,119.13750862692429,87.16095608792224,-3.07,-0.07,-0.48,3.0,0.0,0.0,9.0,0.0,0.0,0.0,1.96,24.03,1.08,
23.179,119.13075086269242,87.13309560879222,-3.8,-1.11,0.15,3.0,0.0,0.0,9.0,0.0,0.0,0.0,2.06,23.94,1.67,
