time,pitch,roll,gyrx,gyry,gyrz,f1,f2,f3,f4,f5,f6,f7,g1,g2,g3
0.352,58.15,13.65,-2.0,-3.0,-1.0,0,2,0,0,0,0,0,0.39,0.29,0.00,
0.365,66.799,15.738000000000001,-2.0,0.0,-1.0,0,2,0,0,0,0,0,0.29,0.69,0.00,
0.378,75.2059,17.4228,-2.0,0.0,-1.0,0,2,0,0,0,0,0,0.29,0.29,0.00,
0.392,82.36458999999999,18.79728,-2.0,2.0,-2.0,0,2,0,0,0,0,0,0.39,0.00,0.00,
0.405,88.696459,19.825728,-2.0,2.0,-2.0,0,2,0,0,0,0,0,0.29,0.00,0.00,
0.418,93.8746459,20.9185728,-2.0,0.0,-4.0,0,2,0,0,0,0,0,0.10,0.69,0.00,
0.432,98.82046459,21.71185728,-2.0,0.0,-4.0,0,2,0,0,0,0,0,0.10,0.00,0.00,
0.445,102.82504645899999,22.520185728,-1.0,0.0,-3.0,0,2,0,0,0,0,0,0.10,0.69,0.00,
0.458,106.1955046459,23.1680185728,-1.0,1.0,-2.0,0,2,0,0,0,0,0,0.10,0.00,0.00,
0.473,108.80055046459,23.73680185728,-1.0,2.0,0.0,0,2,0,0,0,0,0,0.10,0.00,0.00,
0.486,111.03205504645899,24.153680185728,0.0,0.0,0.0,0,2,0,0,0,0,0,0.00,0.00,0.00,
0.498,112.8572055046459,24.618368018572802,0.0,0.0,0.0,0,2,0,0,0,0,0,0.00,0.69,0.00,
0.512,114.3447205504646,24.997836801857282,0.0,0.0,-1.0,0,2,0,0,0,0,0,0.00,0.00,0.00,
0.525,115.41147205504646,25.503783680185727,0.0,-1.0,-1.0,0,2,0,0,0,0,0,0.00,0.98,0.00,
0.539,116.25614720550465,25.959378368018577,0.0,-1.0,0.0,0,2,0,0,0,0,0,0.00,0.98,0.00,
0.552,116.82661472055047,26.517937836801856,0.0,-1.0,0.0,0,2,0,0,0,0,0,0.00,0.00,0.00,
0.566,117.51366147205505,26.807793783680182,-1.0,-1.0,0.0,0,2,0,0,0,0,0,0.00,0.59,0.00,
0.579,117.9783661472055,27.05277937836802,-1.0,0.0,0.0,0,2,0,0,0,0,0,0.00,0.39,0.00,
0.592,118.69983661472055,27.0952779378368,0.0,-1.0,-1.0,0,2,0,0,0,0,0,0.00,0.00,0.00,
0.606,119.18598366147205,27.24352779378368,0.0,-2.0,-2.0,0,2,0,0,0,0,0,0.00,0.00,0.00,
0.619,119.4865983661472,27.43835277937837,0.0,-1.0,-2.0,0,2,0,0,0,0,0,0.00,1.08,0.00,
0.632,119.82265983661472,27.628835277937835,-1.0,-1.0,-1.0,0,2,0,0,0,0,0,0.00,0.00,0.00,
0.646,120.46826598366147,27.611883527793783,-3.0,-2.0,-1.0,0,2,0,0,0,0,0,0.00,0.78,0.00,
0.659,120.92882659836614,27.55618835277938,-2.0,-1.0,-1.0,0,2,0,0,0,0,0,0.00,0.00,0.00,
0.673,121.29888265983661,27.370618835277938,-2.0,-1.0,-2.0,0,2,0,0,0,0,0,0.00,0.00,0.00,
0.687,121.54288826598365,27.199061883527794,-3.0,-1.0,-3.0,0,2,0,0,0,0,0,0.00,0.00,0.00,
0.7,121.72928882659836,27.12790618835278,-3.0,-2.0,-3.0,0,2,0,0,0,0,0,0.00,0.20,0.00,
0.713,121.97292888265983,27.20179061883528,-4.0,-3.0,-2.0,0,2,0,0,0,0,0,0.00,0.00,0.00,
0.727,122.06929288826598,27.33517906188353,-4.0,-1.0,-1.0,0,2,0,0,0,0,0,0.00,0.78,0.00,
0.741,122.1689292888266,27.492517906188354,-3.0,-1.0,0.0,0,2,0,0,0,0,0,0.00,0.88,0.00,
0.754,122.19689292888266,27.634251790618833,-1.0,1.0,0.0,0,2,0,0,0,0,0,0.00,0.00,0.00,
0.768,122.60468929288827,27.486425179061882,0.0,0.0,0.0,0,2,0,0,0,0,0,0.00,0.39,0.00,
0.781,122.87946892928882,27.38164251790619,0.0,0.0,0.0,0,2,0,0,0,0,0,0.00,0.00,0.00,
0.793,123.14994689292888,27.335164251790616,0.0,0.0,0.0,0,2,0,0,0,0,0,0.00,0.00,0.00,
0.806,123.39299468929289,27.402516425179062,0.0,0.0,0.0,0,2,0,0,0,0,0,0.00,0.00,0.00,
0.82,123.6512994689293,27.508251642517905,-1.0,0.0,0.0,0,2,0,0,0,0,0,0.00,0.88,0.00,
0.833,123.81212994689292,27.48282516425179,-2.0,0.0,-1.0,0,2,0,0,0,0,0,0.00,0.00,0.00,
0.846,123.68421299468929,27.51628251642518,-2.0,0.0,-2.0,0,2,0,0,0,0,0,0.00,0.78,0.00,
0.86,123.44642129946892,27.60062825164252,-2.0,-1.0,-2.0,0,2,0,0,0,0,0,0.00,0.00,0.00,
0.874,123.16164212994688,27.78906282516425,-1.0,0.0,-2.0,0,2,0,0,0,0,0,0.00,0.00,0.00,
0.887,123.1511642129947,27.780906282516426,-1.0,0.0,-1.0,0,2,0,0,0,0,0,0.00,0.00,0.00,
0.901,122.85311642129946,27.933090628251644,-2.0,1.0,0.0,0,2,0,0,0,0,0,0.00,0.78,0.00,
0.914,122.91331164212994,27.867309062825164,-1.0,2.0,0.0,0,2,0,0,0,0,0,0.00,0.00,0.00,
0.927,123.063331164213,27.689730906282517,-2.0,1.0,-1.0,0,2,0,0,0,0,0,0.00,0.00,0.00,
0.941,123.18633311642131,27.62697309062825,-2.0,0.0,-1.0,0,2,0,0,0,0,0,0.00,0.78,0.00,
0.954,123.05463331164214,27.602697309062826,-1.0,-1.0,-2.0,0,2,0,0,0,0,0,0.00,0.00,0.00,
0.967,122.94246333116422,27.67226973090628,-1.0,0.0,-2.0,0,2,0,0,0,0,0,0.00,0.20,0.00,
0.98,122.76924633311643,27.733226973090623,0.0,0.0,-1.0,0,2,0,0,0,0,0,0.00,0.00,0.00,
0.994,122.77892463331165,27.712322697309062,0.0,0.0,0.0,0,2,0,0,0,0,0,0.00,0.98,0.00,
1.007,122.98689246333116,27.710232269730906,0.0,0.0,0.0,0,2,0,0,0,0,0,0.00,0.00,0.00,
1.02,123.24168924633311,27.62902322697309,-1.0,0.0,0.0,0,2,0,0,0,0,0,0.00,0.98,0.00,
1.034,123.42016892463332,27.620902322697308,-2.0,0.0,0.0,0,2,0,0,0,0,0,0.00,0.00,0.00,
1.047,123.51901689246334,27.665090232269733,-2.0,0.0,-1.0,0,2,0,0,0,0,0,0.00,0.78,0.00,
1.06,123.39390168924633,27.678509023226972,-3.0,1.0,-2.0,0,2,0,0,0,0,0,0.00,0.20,0.00,
1.074,123.24639016892465,27.6078509023227,-3.0,1.0,-3.0,0,2,0,0,0,0,0,0.00,0.00,0.00,
1.088,122.77263901689247,27.645785090232266,-2.0,0.0,-1.0,0,2,0,0,0,0,0,0.00,0.00,0.00,
1.101,122.25726390168924,27.955578509023226,-2.0,0.0,-2.0,0,2,0,0,0,0,0,0.00,0.88,0.00,
1.115,122.22372639016892,28.085557850902326,-2.0,0.0,-1.0,0,2,0,0,0,0,0,0.00,0.00,0.00,
1.128,122.4723726390169,28.13455578509023,-1.0,0.0,-1.0,0,2,0,0,0,0,0,0.00,0.00,0.00,
1.141,122.56923726390168,28.175455578509023,0.0,1.0,-1.0,0,2,0,0,0,0,0,0.00,0.78,0.00,
1.155,122.76792372639018,28.035545557850902,0.0,1.0,-1.0,0,2,0,0,0,0,0,0.00,0.00,0.00,
1.168,122.94979237263902,27.94955455578509,0.0,2.0,-1.0,0,2,0,0,0,0,0,0.00,0.39,0.00,
1.181,122.85097923726391,27.922955455578514,0.0,0.0,0.0,0,2,0,0,0,0,0,0.00,0.10,0.00,
1.195,122.60709792372639,28.010295545557852,0.0,0.0,0.0,0,2,0,0,0,0,0,0.00,0.69,0.00,
1.208,122.57370979237264,28.046029554555787,-1.0,-3.0,-2.0,0,2,0,0,0,0,0,0.00,0.00,0.00,
1.221,122.59737097923727,28.09460295545558,-1.0,-2.0,-2.0,0,2,0,0,0,0,0,0.00,0.98,0.00,
1.234,122.47373709792372,28.171460295545558,-1.0,-1.0,-2.0,0,2,0,0,0,0,0,0.00,0.00,0.00,
1.248,122.21837370979237,28.278146029554552,-1.0,0.0,-2.0,0,2,0,0,0,0,0,0.00,0.29,0.00,
1.261,121.87783737097924,28.432814602955453,0.0,1.0,-2.0,0,2,0,0,0,0,0,0.00,0.39,0.00,
1.274,121.66378373709792,28.56528146029554,0.0,2.0,-2.0,0,2,0,0,0,0,0,0.00,0.29,0.00,
1.288,121.8133783737098,28.497528146029552,0.0,1.0,-1.0,0,2,0,0,0,0,0,0.00,0.00,0.00,
1.302,121.72933783737098,28.508752814602957,0.0,1.0,-1.0,0,2,0,0,0,0,0,0.00,0.98,0.00,
1.315,121.99993378373709,28.419875281460293,-2.0,1.0,-1.0,0,2,0,0,0,0,0,0.00,0.00,0.00,
1.329,122.2699933783737,28.29398752814603,-3.0,0.0,-2.0,0,2,0,0,0,0,0,0.00,0.00,0.00,
1.342,122.38699933783738,28.1553987528146,-3.0,-1.0,-2.0,0,2,0,0,0,0,0,0.00,1.08,0.00,
1.355,122.51569993378374,28.04253987528146,-3.0,-1.0,-2.0,0,2,0,0,0,0,0,0.00,0.00,0.00,
1.369,122.68156999337837,28.040253987528146,-3.0,-1.0,-2.0,0,2,0,0,0,0,0,0.00,0.49,0.00,
1.382,122.88715699933783,28.103025398752813,-2.0,-1.0,-2.0,0,2,0,0,0,0,0,0.00,0.00,0.00,
1.396,123.13271569993377,28.06430253987528,-1.0,-2.0,-1.0,0,2,0,0,0,0,0,0.00,0.69,0.00,
1.41,123.06727156999338,28.15043025398753,-2.0,0.0,0.0,0,2,0,0,0,0,0,0.00,0.00,0.00,
1.423,123.02472715699933,28.105043025398754,-1.0,0.0,0.0,0,2,0,0,0,0,0,0.00,0.88,0.00,
1.436,122.91247271569995,27.983504302539874,-2.0,0.0,0.0,0,2,0,0,0,0,0,0.00,0.00,0.00,
1.449,123.04524727156999,27.88135043025399,-3.0,0.0,0.0,0,2,0,0,0,0,0,0.00,0.00,0.00,
1.463,123.328524727157,27.8261350430254,-4.0,-2.0,-1.0,0,2,0,0,0,0,0,0.00,0.10,0.00,
1.476,123.4828524727157,28.00961350430254,-3.0,0.0,-2.0,0,2,0,0,0,0,0,0.00,0.10,0.00,
1.489,123.55228524727157,28.153961350430254,-2.0,-1.0,-3.0,0,2,0,0,0,0,0,0.00,0.00,0.00,
1.503,123.37022852472715,28.294396135043023,-1.0,1.0,-3.0,0,2,0,0,0,0,0,0.00,0.69,0.00,
1.516,123.10902285247272,28.3714396135043,-1.0,3.0,-2.0,0,2,0,0,0,0,0,0.00,0.78,0.00,
1.529,123.15490228524726,28.28914396135043,-1.0,3.0,-1.0,0,2,0,0,0,0,0,0.00,0.00,0.00,
1.544,123.07849022852471,28.460914396135045,0.0,1.0,-2.0,0,2,0,0,0,0,0,0.00,0.78,0.00,
1.557,123.42184902285246,28.496091439613505,0.0,0.0,-4.0,0,2,0,0,0,0,0,0.00,0.00,0.00,
1.57,123.78018490228524,28.796609143961348,1.0,-2.0,-7.0,0,2,0,0,0,0,0,0.00,0.00,0.00,
1.584,124.47301849022853,28.916660914396132,2.0,0.0,-11.0,0,2,0,0,0,0,0,0.00,0.00,0.00,
1.597,124.56030184902285,29.495666091439613,5.0,1.0,-10.0,0,2,0,0,0,0,0,0.00,0.88,0.00,
1.61,124.60503018490229,30.13856660914396,8.0,1.0,-12.0,0,2,0,0,0,0,0,0.00,0.00,0.00,
1.624,124.38450301849024,31.048856660914396,12.0,-1.0,-16.0,0,2,0,0,0,0,0,0.00,1.28,0.00,
1.637,124.48845030184901,31.81488566609144,17.0,0.0,-18.0,0,2,0,0,0,0,0,0.00,0.00,0.00,
1.65,125.0208450301849,33.655488566609144,21.0,-3.0,-20.0,0,2,0,0,0,0,0,0.00,0.00,0.00,
1.665,125.39808450301848,35.14454885666092,29.0,4.0,-26.0,0,2,0,0,0,0,0,0.00,0.49,0.00,
1.678,124.67080845030185,36.8684548856661,44.0,-9.0,-27.0,0,2,0,0,0,0,0,0.00,0.20,0.00,
1.691,124.40008084503019,38.822845488566614,56.0,-1.0,-32.0,0,2,0,0,0,0,0,0.00,0.00,0.00,
1.704,125.01200808450302,39.20728454885666,71.0,13.0,-25.0,0,2,0,0,0,0,0,0.00,0.00,0.00,
1.719,125.49620080845031,39.57872845488566,80.0,20.0,-30.0,0,2,0,0,0,0,0,0.00,1.08,0.00,
1.732,127.04762008084504,38.27487284548857,89.0,18.0,-28.0,0,2,0,0,0,0,0,0.00,0.00,0.00,
1.745,127.78776200808451,39.65648728454886,91.0,16.0,-25.0,0,2,0,0,0,0,0,0.00,0.29,0.00,
1.759,127.95177620080845,40.721648728454895,93.0,18.0,-33.0,0,2,0,0,0,0,0,0.00,0.00,0.00,
1.773,127.52717762008083,41.3771648728455,96.0,16.0,-39.0,0,2,0,0,0,0,0,0.00,1.28,0.00,
1.786,127.96171776200806,41.604716487284556,98.0,13.0,-51.0,0,2,0,0,0,0,0,0.00,0.20,0.00,
1.8,127.4201717762008,42.806471648728454,104.0,6.0,-56.0,0,2,0,0,0,0,0,0.00,0.29,0.00,
1.813,126.37601717762007,45.62664716487284,109.0,7.0,-52.0,0,2,0,0,0,0,0,0.00,0.00,0.00,
1.827,125.53360171776201,49.427664716487286,112.0,20.0,-44.0,0,2,0,0,0,0,0,0.00,0.00,0.10,
1.841,125.0893601717762,52.606766471648726,112.0,39.0,-36.0,0,2,0,0,0,0,0,0.00,0.10,0.10,
1.854,126.22393601717762,54.78767664716487,113.0,44.0,-30.0,0,2,0,0,0,0,0,0.00,0.00,0.10,
1.868,129.27139360171776,54.54676766471649,121.0,30.0,-35.0,0,2,0,0,0,0,0,0.00,0.00,0.00,
1.882,129.43213936017176,55.11667676647165,123.0,34.0,-54.0,0,2,0,0,0,0,0,0.00,0.00,0.00,
1.895,128.6202139360172,55.53366767664716,133.0,35.0,-60.0,0,2,0,0,0,0,0,0.00,0.39,0.00,
1.909,127.44102139360173,56.47536676766471,132.0,33.0,-63.0,0,2,0,0,0,0,0,0.00,0.00,0.10,
1.923,126.43210213936017,57.63153667676647,124.0,28.0,-63.0,0,2,0,0,0,0,0,0.00,0.98,0.10,
1.936,127.00621021393601,57.93615366767665,107.0,39.0,-50.0,0,2,0,0,0,0,0,0.00,0.00,0.10,
1.95,126.6676210213936,60.846615366767665,72.0,36.0,-36.0,0,2,0,0,0,0,0,0.00,3.14,0.00,
1.964,128.21776210213935,62.226661536676765,52.0,28.0,-41.0,0,2,0,0,0,0,0,0.00,3.34,0.00,
1.978,129.75877621021394,62.91366615366768,34.0,18.0,-49.0,0,2,0,0,0,0,0,0.00,2.35,0.00,
1.991,129.7238776210214,63.270366615366775,27.0,9.0,-68.0,0,2,0,0,0,0,0,0.00,0.98,0.00,
2.004,130.24238776210214,62.46003666153667,30.0,22.0,-101.0,0,2,0,0,0,0,0,0.00,0.10,0.20,
2.019,129.6642387762102,62.59500366615367,35.0,40.0,-112.0,0,2,0,0,0,0,0,0.00,1.77,0.20,
2.032,127.536423877621,65.18250036661537,34.0,55.0,-103.0,0,2,0,0,0,0,0,0.00,0.00,0.20,
2.045,126.3966423877621,66.67425003666155,40.0,59.0,-92.0,0,2,0,0,0,0,0,0.00,1.37,0.29,
2.06,125.8686642387762,68.96542500366616,39.0,39.0,-61.0,0,2,0,0,0,0,0,0.00,0.00,0.29,
2.073,126.56286642387762,71.20154250036663,32.0,24.0,-46.0,0,2,0,0,0,0,0,0.00,0.00,0.20,
2.086,126.76728664238776,72.42415425003666,30.0,8.0,-32.0,0,2,0,0,0,0,0,0.00,0.00,0.20,
2.101,126.60772866423878,73.50941542500367,29.0,4.0,-31.0,0,2,0,0,0,0,0,0.00,0.00,0.20,
2.114,127.05977286642387,73.44694154250037,29.0,4.0,-36.0,0,2,0,0,0,0,0,0.00,0.00,0.10,
2.127,127.44697728664238,73.50369415425004,27.0,0.0,-46.0,0,2,0,0,0,0,0,0.00,0.00,0.10,
2.141,127.29669772866424,73.545369415425,29.0,4.0,-49.0,0,2,0,0,0,0,0,0.00,1.37,0.10,
2.154,126.95766977286642,73.4775369415425,27.0,5.0,-47.0,0,2,0,0,0,0,0,0.00,0.29,0.00,
2.168,126.75276697728664,74.82075369415425,15.0,4.0,-41.0,0,2,0,0,0,0,0,0.00,0.78,0.00,
2.182,127.30827669772867,77.34907536941543,6.0,-6.0,-31.0,0,2,0,0,0,0,0,0.00,0.69,0.10,
2.195,127.93982766977285,78.79890753694153,0.0,-11.0,-26.0,0,2,0,0,0,0,0,0.00,0.49,0.00,
2.208,128.4619827669773,80.27589075369416,-3.0,-12.0,-23.0,0,2,0,0,0,0,0,0.00,0.00,0.00,
2.223,128.90119827669773,82.99758907536942,-2.0,-10.0,-22.0,0,2,0,0,0,0,0,0.00,0.49,0.00,
2.236,129.38611982766977,84.76375890753694,-1.0,-13.0,-21.0,0,2,0,0,0,0,0,0.00,0.00,0.00,
2.249,128.78661198276697,86.3533758907537,5.0,-19.0,-33.0,0,2,0,0,0,0,0,0.10,0.20,0.00,
2.264,128.7536611982767,88.47433758907536,5.0,-17.0,-40.0,0,2,0,0,0,0,0,0.20,0.49,0.00,
2.277,128.70536611982766,90.29743375890754,10.0,-21.0,-51.0,0,1,0,0,0,0,0,0.29,0.59,0.00,
2.291,128.53853661198278,91.84774337589076,11.0,-21.0,-57.0,0,1,0,0,0,0,0,0.39,0.00,0.00,
2.305,128.40485366119827,94.46877433758908,9.0,-17.0,-57.0,0,1,0,0,0,0,0,0.39,0.20,0.00,
2.318,128.15748536611983,97.6828774337589,5.0,-23.0,-50.0,0,2,0,0,0,0,0,0.39,1.28,0.00,
2.332,127.43074853661197,99.4802877433759,10.0,-30.0,-48.0,0,2,0,0,0,0,0,0.39,0.00,0.00,
2.345,126.25107485366121,100.39802877433759,17.0,-24.0,-45.0,0,2,0,0,0,0,0,0.39,0.00,0.00,
2.36,125.20610748536612,102.23580287743376,25.0,-23.0,-43.0,0,2,0,0,0,0,0,0.49,0.00,0.00,
2.373,124.79561074853662,103.93158028774339,39.0,-27.0,-40.0,0,1,0,0,0,0,0,0.49,0.10,0.00,
2.387,124.24156107485368,105.00115802877434,43.0,-28.0,-39.0,0,2,0,0,0,0,0,0.49,0.00,0.00,
2.401,124.09615610748536,106.44011580287743,40.0,-33.0,-39.0,0,2,0,0,0,0,0,0.49,1.47,0.00,
2.415,124.19861561074853,107.26801158028773,41.0,-39.0,-40.0,0,2,0,0,0,0,0,0.49,2.94,0.00,
2.428,124.37086156107486,107.08080115802878,45.0,-43.0,-42.0,0,2,0,0,0,0,0,0.39,2.55,0.00,
2.443,124.39708615610749,106.82808011580288,48.0,-39.0,-48.0,0,2,0,0,0,0,0,0.39,4.12,0.00,
2.456,124.54370861561074,108.07180801158029,52.0,-34.0,-50.0,0,2,0,0,0,0,0,0.39,1.47,0.00,
2.47,124.88237086156107,108.37618080115803,58.0,-39.0,-53.0,0,2,0,0,0,0,0,0.39,0.29,0.00,
2.484,125.0152370861561,107.81261808011581,61.0,-35.0,-54.0,0,2,0,0,0,0,0,0.39,0.00,0.00,
2.498,125.1905237086156,107.02726180801157,63.0,-32.0,-54.0,0,2,0,0,0,0,0,0.29,0.49,0.00,
2.511,125.36105237086156,107.11972618080115,61.0,-30.0,-50.0,0,2,0,0,0,0,0,0.29,0.00,0.00,
2.526,126.54810523708616,109.5769726180801,61.0,-14.0,-47.0,0,2,0,0,0,0,0,0.39,0.20,0.00,
2.539,131.5448105237086,114.48469726180801,50.0,-67.0,-26.0,0,2,0,0,0,0,0,0.49,0.39,0.00,
2.553,128.70548105237086,111.90646972618082,32.0,-56.0,-20.0,0,1,0,0,0,0,0,0.69,0.98,0.00,
2.567,128.1245481052371,107.93164697261808,31.0,-40.0,-30.0,0,1,0,0,0,0,0,1.28,0.00,0.00,
2.581,126.93245481052371,103.4211646972618,36.0,-34.0,-44.0,0,2,0,0,0,0,0,1.86,0.00,0.00,
2.595,125.13924548105237,98.36211646972617,41.0,-5.0,-41.0,0,2,0,0,0,0,0,1.96,0.00,0.00,
2.609,123.84392454810524,92.96921164697262,23.0,1.0,-29.0,0,2,0,0,0,1,0,1.77,0.00,0.00,
2.623,122.71539245481053,88.46092116469725,9.0,15.0,-11.0,0,2,0,0,0,0,0,1.57,0.00,0.59,
2.636,121.72953924548106,86.55209211646972,5.0,4.0,-1.0,0,2,0,0,0,0,0,1.37,0.00,0.49,
2.65,120.3349539245481,86.16320921164699,11.0,-8.0,5.0,0,2,0,0,0,0,0,0.78,0.00,0.49,
2.664,119.01649539245481,85.32332092116471,16.0,-19.0,12.0,0,2,0,0,0,0,0,0.69,0.00,0.39,
2.677,117.84964953924549,83.22333209211646,13.0,-27.0,17.0,0,2,0,0,0,0,0,0.69,0.00,0.39,
2.692,116.99496495392455,81.09633320921165,1.0,-24.0,19.0,0,2,0,0,0,0,0,0.78,0.00,0.49,
2.705,116.63949649539245,78.59763332092116,-5.0,-20.0,18.0,0,2,0,0,0,0,0,0.98,0.00,0.49,
2.719,116.94594964953926,76.79076333209213,-14.0,-12.0,14.0,0,2,0,0,0,0,0,1.37,0.00,0.49,
2.733,117.76859496495392,76.42107633320921,-19.0,-1.0,11.0,0,2,0,0,0,0,0,1.47,0.00,0.49,
2.747,120.6768594964954,80.61410763332091,-13.0,-6.0,4.0,0,2,0,0,0,0,0,1.67,0.00,0.69,
2.76,120.34668594964955,84.96641076333209,-6.0,-21.0,-4.0,0,2,0,0,0,0,0,1.77,0.49,0.69,
2.775,118.61266859496496,87.34564107633321,-1.0,-5.0,-7.0,0,2,0,0,0,0,0,1.77,0.78,0.69,
2.788,117.6832668594965,89.35656410763332,6.0,5.0,-3.0,0,2,0,0,0,0,0,1.57,0.0,,
3.229,116.96932668594965,104.29065641076333,0.0,5.0,8.0,0,2,0,0,0,0,0,4.81,0.00,1.86,
3.243,117.71693266859496,105.48706564107634,0.0,1.0,8.0,0,2,0,0,0,0,0,4.61,0.00,1.57,
3.257,118.7186932668595,104.58070656410764,-2.0,-2.0,6.0,0,2,0,0,0,0,0,4.41,0.00,1.37,
3.27,119.03486932668595,103.14007065641076,-7.0,0.0,3.0,0,2,0,0,0,0,0,4.22,0.00,1.37,
3.284,119.39048693266861,102.53700706564108,-8.0,-4.0,-4.0,0,2,0,0,0,0,0,4.22,0.00,1.28,
3.298,118.99404869326686,102.9177007065641,-5.0,-6.0,-6.0,0,2,0,0,0,0,0,4.61,0.00,1.18,
3.312,118.31540486932668,103.09977007065642,-1.0,-3.0,-6.0,0,2,0,0,0,0,0,4.91,0.00,1.18,
3.326,118.08554048693267,103.00097700706564,4.0,4.0,-4.0,0,2,0,0,0,0,0,5.00,0.00,1.28,
3.34,118.53055404869326,103.02709770070656,6.0,0.0,-7.0,0,2,0,0,0,1,0,5.00,0.59,1.28,
3.354,118.67405540486932,103.38070977007065,4.0,-1.0,-10.0,0,2,0,0,0,1,0,5.20,0.20,1.28,
3.367,118.71540554048693,104.03707097700706,2.0,-1.0,-8.0,0,2,0,0,0,1,0,5.30,2.06,1.37,
3.382,118.62054055404869,104.5707070977007,1.0,0.0,-5.0,0,2,0,0,0,1,0,5.40,2.35,1.47,
3.395,118.55705405540486,104.80407070977006,1.0,1.0,-2.0,0,2,0,0,0,1,0,5.59,2.06,1.47,
3.409,118.76670540554048,104.818407070977,1.0,1.0,-3.0,0,2,0,0,0,1,0,5.69,0.00,1.57,
3.423,118.98567054055405,104.9278407070977,0.0,0.0,-4.0,0,2,0,0,0,1,0,5.69,0.29,1.67,
3.437,118.9895670540554,105.13678407070978,0.0,0.0,-4.0,0,2,0,0,0,1,0,5.69,0.00,1.67,
3.45,118.79195670540554,105.54467840707098,-1.0,1.0,-1.0,0,2,0,0,0,1,0,5.69,0.00,1.67,
3.465,118.69119567054057,105.79246784070709,-1.0,2.0,0.0,0,2,0,0,0,1,0,5.69,0.10,1.67,
3.478,118.63611956705405,105.89824678407071,-1.0,3.0,2.0,0,2,0,0,0,1,0,5.89,0.78,1.77,
3.492,118.8016119567054,105.72882467840707,-1.0,2.0,1.0,0,2,0,0,0,1,0,5.79,0.98,1.77,
3.506,118.97116119567053,105.6218824678407,-1.0,3.0,0.0,0,2,0,0,0,1,0,5.79,0.00,1.77,
3.519,119.17711611956705,105.64718824678408,-2.0,1.0,0.0,0,2,0,0,0,1,0,5.79,0.00,1.77,
3.533,119.24271161195671,105.61371882467841,-3.0,1.0,0.0,0,2,0,0,0,1,0,5.69,0.00,1.67,
3.547,119.38427116119567,105.54737188246784,-4.0,1.0,0.0,0,2,0,0,0,1,0,5.59,0.00,1.67,
3.561,119.38942711611958,105.40573718824677,-4.0,0.0,-1.0,0,2,0,0,0,1,0,5.59,0.00,1.67,
3.574,119.19194271161196,105.47257371882468,-3.0,0.0,-1.0,0,2,0,0,0,1,0,5.59,0.00,1.67,
3.589,118.9741942711612,105.59625737188247,-2.0,1.0,0.0,0,2,0,0,0,1,0,5.59,0.29,1.57,
3.602,118.85341942711612,105.91462573718825,-2.0,3.0,2.0,0,2,0,0,0,1,0,5.49,1.47,1.67,
3.615,119.0303419427116,105.97346257371882,-2.0,4.0,3.0,0,2,0,0,0,1,0,5.30,0.00,1.67,
3.63,119.31803419427115,105.67334625737189,-3.0,3.0,2.0,0,2,0,0,0,1,0,5.20,0.00,1.57,
3.643,119.62580341942711,105.3283346257372,-4.0,2.0,0.0,0,2,0,0,0,1,0,5.00,0.00,1.47,
3.656,119.64758034194271,105.25783346257373,-4.0,1.0,0.0,0,2,0,0,0,1,0,4.81,0.00,1.47,
3.671,119.47875803419427,105.37678334625737,-4.0,0.0,0.0,0,2,0,0,0,1,0,4.71,0.00,1.47,
3.684,119.39887580341943,105.46967833462574,-3.0,1.0,0.0,0,2,0,0,0,0,0,4.71,0.00,1.47,
3.697,119.52588758034196,105.43396783346259,-3.0,1.0,1.0,0,2,0,0,0,0,0,4.61,0.00,1.37,
3.712,119.7545887580342,105.24139678334626,-3.0,0.0,0.0,0,2,0,0,0,0,0,4.51,0.00,1.28,
3.725,119.87645887580341,105.15913967833463,-3.0,0.0,0.0,0,2,0,0,0,0,0,4.32,0.00,1.28,
3.738,120.00564588758034,105.08791396783346,-2.0,0.0,0.0,0,2,0,0,0,1,0,4.22,0.00,1.28,
3.752,119.79356458875802,105.32379139678334,-1.0,0.0,0.0,0,2,0,0,0,1,0,4.02,0.00,1.18,
3.766,119.6373564588758,105.23937913967833,1.0,0.0,0.0,0,2,0,0,0,1,0,4.02,0.00,1.28,
3.779,119.48673564588758,104.94293791396782,3.0,0.0,0.0,0,2,0,0,0,1,0,4.02,0.00,1.18,
3.793,119.56167356458876,104.8772937913968,4.0,0.0,-2.0,0,2,0,0,0,1,0,4.02,0.00,1.18,
3.807,119.83916735645889,105.01472937913968,3.0,-1.0,-2.0,0,2,0,0,0,1,0,3.92,0.00,1.18,
3.82,120.1099167356459,105.22647293791397,2.0,0.0,-2.0,0,2,0,0,0,1,0,3.83,0.88,1.18,
3.834,120.29899167356459,105.3916472937914,0.0,0.0,-2.0,0,2,0,0,0,1,0,3.92,0.00,1.28,
3.848,120.55189916735647,105.46216472937914,-2.0,0.0,-2.0,0,2,0,0,0,1,0,4.02,0.69,1.18,
3.861,120.69418991673564,105.36121647293791,-4.0,-1.0,-3.0,0,2,0,0,0,1,0,4.02,0.88,1.28,
3.875,120.66341899167355,105.18912164729379,-5.0,-2.0,-4.0,0,2,0,0,0,1,0,4.22,1.08,1.37,
3.889,120.44434189916736,105.13591216472938,-5.0,-2.0,-6.0,0,2,0,0,0,1,0,4.32,0.10,1.37,
3.903,120.26043418991672,104.99559121647293,-3.0,-2.0,-7.0,0,2,0,0,0,1,0,4.51,0.10,1.47,
3.917,120.03504341899168,105.0265591216473,-2.0,-1.0,-7.0,0,2,0,0,0,1,0,4.71,0.69,1.47,
3.931,119.78750434189917,105.31765591216472,-1.0,-1.0,-7.0,0,2,0,0,0,1,0,5.20,0.00,1.47,
3.945,119.69075043418992,105.49076559121647,-1.0,0.0,-5.0,0,2,0,0,0,1,0,5.30,0.20,1.47,
3.958,119.654075043419,105.58907655912164,-1.0,0.0,-4.0,0,2,0,0,0,1,0,5.40,0.00,1.47,
3.972,119.6774075043419,105.70690765591216,-1.0,0.0,-3.0,0,2,0,0,0,1,0,5.69,0.00,1.57,
3.986,119.73374075043418,105.86269076559121,-3.0,-1.0,-3.0,0,2,0,0,0,1,0,5.79,0.00,1.67,
3.999,119.78437407504342,105.95026907655911,-4.0,-1.0,-2.0,0,2,0,0,0,1,0,5.98,0.00,1.57,
4.014,119.79843740750434,105.87802690765591,-4.0,-2.0,-2.0,0,2,0,0,0,1,0,6.08,0.00,1.67,
4.027,119.67384374075043,105.88880269076559,-4.0,-2.0,-2.0,0,2,0,0,0,1,0,6.38,0.00,1.67,
4.041,119.43638437407503,105.87188026907656,-2.0,-2.0,-2.0,0,2,0,0,0,1,0,6.47,0.00,1.67,
4.056,119.2866384374075,105.76218802690765,-1.0,-2.0,-3.0,0,2,0,0,0,1,0,6.57,0.00,1.77,
4.069,119.28066384374075,105.78721880269077,-1.0,-1.0,-2.0,0,2,0,0,0,1,0,6.57,0.00,1.67,
4.083,119.26206638437408,105.81672188026907,-1.0,-1.0,-2.0,0,2,0,0,0,1,0,6.67,0.00,1.67,
4.098,119.24220663843741,105.8736721880269,-2.0,-1.0,-2.0,0,2,0,0,0,1,0,6.77,0.00,1.77,
4.111,119.23122066384374,105.96036721880269,-2.0,-1.0,-2.0,0,2,0,0,0,1,0,6.77,0.00,1.86,
4.125,119.19412206638437,105.96003672188026,-3.0,-1.0,-1.0,0,2,0,0,0,1,0,6.87,0.00,1.86,
4.139,119.18141220663844,105.96000367218801,-3.0,-1.0,-1.0,0,2,0,0,0,1,0,6.97,0.00,1.77,
4.153,119.18914122066384,105.96000036721878,-3.0,0.0,-1.0,0,2,0,1,0,1,0,6.97,0.00,1.86,
4.167,119.1809141220664,105.85200003672188,-3.0,0.0,-1.0,0,2,0,0,0,1,0,7.06,0.00,1.86,
4.18,119.19809141220664,105.85020000367219,-3.0,0.0,-1.0,0,2,0,1,0,1,0,7.16,0.00,1.86,
4.195,119.19980914122067,105.84102000036722,-2.0,0.0,-1.0,0,2,0,1,0,1,0,7.06,0.00,1.86,
4.208,119.22698091412207,105.84010200003672,-2.0,0.0,-1.0,0,2,0,1,0,1,0,7.06,0.00,1.77,
4.222,119.2206980914122,105.80401020000367,-2.0,-1.0,-1.0,0,2,0,1,0,1,0,7.06,0.00,1.77,
4.236,119.24706980914122,105.79140102000038,-3.0,-1.0,-1.0,0,2,0,1,0,1,0,7.16,0.00,1.77,
4.25,119.28570698091413,105.82614010200004,-3.0,-1.0,-1.0,0,2,0,0,0,1,0,6.97,0.00,1.77,
4.264,119.25357069809141,105.79361401020002,-3.0,-1.0,-1.0,0,2,0,0,0,1,0,6.97,0.00,1.86,
4.278,119.21435706980914,105.70936140102,-3.0,-1.0,-1.0,0,2,0,0,0,1,0,6.87,0.00,1.77,
4.292,119.20143570698092,105.71893614010199,-3.0,-1.0,-1.0,0,2,0,0,0,1,0,6.87,0.00,1.77,
4.306,119.21814357069809,105.6568936140102,-3.0,-1.0,-1.0,0,2,0,0,0,1,0,6.57,0.00,1.67,
4.32,119.20181435706981,105.68668936140101,-3.0,-1.0,-1.0,0,2,0,0,0,1,0,6.67,0.00,1.77,
4.334,119.12818143570699,105.67166893614011,-3.0,-1.0,-1.0,0,2,0,0,0,1,0,6.77,0.00,1.67,
4.347,119.06681814357071,105.733166893614,-3.0,0.0,-1.0,0,2,0,0,0,1,0,6.67,0.00,1.67,
4.362,118.99768181435707,105.71231668936139,-3.0,0.0,-1.0,0,2,0,0,0,1,0,6.57,0.00,1.67,
4.376,118.98176818143571,105.70123166893615,-4.0,0.0,-1.0,0,2,0,0,0,1,0,6.57,0.00,1.67,
4.389,118.98917681814356,105.6641231668936,-3.0,0.0,-1.0,0,2,0,0,0,1,0,6.57,0.00,1.67,
4.404,119.01691768181435,105.64241231668936,-3.0,0.0,-1.0,0,2,0,0,0,1,0,6.67,0.00,1.67,
4.417,119.01969176818143,105.63124123166892,-3.0,0.0,-1.0,0,2,0,0,0,1,0,6.77,0.00,1.67,
4.431,119.00196917681815,105.59412412316689,-3.0,0.0,-1.0,0,2,0,0,0,1,0,6.87,0.00,1.67,
4.445,119.00019691768182,105.57241241231668,-3.0,0.0,-1.0,0,2,0,0,0,1,0,6.87,0.00,1.57,
4.459,119.01801969176817,105.54324124123167,-2.0,0.0,-1.0,0,2,0,0,0,1,0,6.97,0.00,1.57,
4.472,119.04680196917681,105.52232412412317,-2.0,-1.0,-1.0,0,2,0,0,0,1,0,6.97,0.00,1.67,
4.487,119.05868019691769,105.51123241241231,-2.0,-1.0,-1.0,0,2,0,0,0,1,0,6.97,0.00,1.67,
4.501,119.05986801969178,105.52812324124123,-2.0,-1.0,-2.0,0,2,0,0,0,1,0,6.97,0.00,1.67,
4.514,119.00598680196919,105.54781232412412,-2.0,-1.0,-1.0,0,2,0,0,0,1,0,6.97,0.00,1.67,
4.529,118.99159868019692,105.54078123241241,-2.0,-1.0,-1.0,0,2,0,0,0,1,0,6.97,0.00,1.67,
4.542,118.9361598680197,105.53107812324124,-2.0,-1.0,-1.0,0,2,0,0,0,1,0,957.75,0.00,1.67,
4.566,118.93061598680197,105.52110781232412,-2.0,-1.0,-1.0,0,2,0,0,0,1,0,6.97,0.00,1.67,
4.579,118.9210615986802,105.52911078123242,-2.0,-1.0,-1.0,0,2,0,0,0,1,0,6.97,0.00,1.67,
4.593,118.89310615986803,105.58391107812325,-2.0,-1.0,-1.0,0,2,0,0,0,1,0,7.06,0.00,1.77,
4.606,118.8993106159868,105.58939110781233,-2.0,-1.0,-1.0,0,2,0,0,0,1,0,7.06,0.00,1.77,
4.621,118.92693106159868,105.65293911078122,-2.0,-1.0,-1.0,0,2,0,0,0,2,0,7.06,0.00,1.77,
4.635,118.97469310615988,105.63229391107811,-2.0,0.0,-1.0,0,2,0,1,0,2,0,6.97,0.00,1.67,
4.648,118.907469310616,105.56722939110782,-2.0,0.0,-1.0,0,2,0,1,0,2,0,7.06,0.00,1.67,
4.663,118.8647469310616,105.50672293911079,-2.0,0.0,-1.0,0,2,0,1,0,2,0,6.97,0.00,1.67,
4.676,118.84247469310615,105.49167229391108,-2.0,0.0,-1.0,0,2,0,1,0,2,0,6.97,0.00,1.47,
4.69,118.84924746931061,105.4631672293911,-1.0,0.0,-1.0,0,2,0,1,0,2,0,6.97,0.00,1.47,
4.704,118.81392474693106,105.41531672293911,-2.0,0.0,-1.0,0,2,0,1,0,2,0,7.06,0.00,1.57,
4.718,118.8013924746931,105.42853167229393,-2.0,0.0,-1.0,0,2,0,1,0,2,0,7.06,0.00,1.57,
4.731,118.7731392474693,105.4208531672294,-2.0,0.0,-1.0,0,2,0,1,0,2,0,7.06,0.00,1.67,
4.746,118.74331392474693,105.43808531672293,-2.0,0.0,-1.0,0,2,0,1,0,2,0,6.97,0.00,1.77,
4.759,118.71333139247469,105.44880853167228,-2.0,0.0,-1.0,0,2,0,1,0,2,0,6.97,0.00,1.57,
4.773,118.71933313924747,105.49488085316723,-2.0,0.0,-1.0,0,2,0,1,0,2,0,6.97,0.00,1.57,
4.788,118.76493331392474,105.54448808531673,-2.0,0.0,-1.0,0,2,0,1,0,2,0,6.87,0.00,1.57,
4.801,118.74249333139247,105.54944880853168,-2.0,0.0,-1.0,0,2,0,1,0,2,0,6.87,0.00,1.67,
4.815,118.71324933313925,105.52294488085317,-1.0,0.0,-1.0,0,2,0,1,0,2,0,6.97,0.00,1.57,
4.829,118.74632493331393,105.54729448808531,-1.0,0.0,-1.0,0,2,0,1,0,2,0,6.77,0.00,1.47,
4.843,118.79463249333139,105.58572944880854,-1.0,0.0,-1.0,0,2,0,1,0,2,0,6.77,0.00,1.57,
4.856,118.80846324933314,105.58957294488086,-1.0,0.0,-1.0,0,2,0,1,0,2,0,6.87,0.00,1.67,
4.871,118.84584632493332,105.63495729448809,-2.0,-1.0,-1.0,0,2,0,1,0,2,0,6.87,0.00,1.57,
4.884,118.85858463249333,105.6574957294488,-2.0,-1.0,-1.0,0,2,0,1,0,2,0,6.77,0.00,1.67,
4.898,118.84185846324934,105.65074957294489,-2.0,-1.0,-1.0,0,2,0,1,0,2,0,6.77,0.00,1.67,
4.913,118.77718584632493,105.61407495729449,-2.0,-1.0,-1.0,0,2,0,1,0,2,0,6.67,0.00,1.57,
4.926,118.73471858463249,105.66440749572945,-2.0,-1.0,-1.0,0,2,0,1,0,2,0,6.67,0.00,1.57,
4.94,118.73047185846325,105.65144074957296,-2.0,-1.0,-1.0,0,2,0,1,0,2,0,6.47,0.00,1.67,
4.955,118.72104718584632,105.6501440749573,-2.0,-1.0,-1.0,0,2,0,1,0,2,0,6.38,0.00,1.47,
4.968,118.65710471858463,105.65001440749573,-2.0,0.0,0.0,0,2,0,1,0,2,0,6.38,0.00,1.57,
4.982,118.65971047185846,105.70400144074956,-2.0,0.0,0.0,0,2,0,1,0,2,0,6.28,0.00,1.57,
4.996,118.63297104718583,105.66440014407495,-3.0,0.0,0.0,0,2,0,1,0,2,0,6.28,0.00,1.57,
5.01,118.52229710471859,105.6514400144075,-2.0,0.0,0.0,0,2,0,1,0,2,0,6.28,0.00,1.57,
5.023,118.56522971047185,105.58714400144075,-3.0,0.0,0.0,0,2,0,0,0,2,0,6.18,0.00,1.57,
5.037,118.6145229710472,105.52671440014407,-3.0,0.0,0.0,0,2,0,0,0,1,0,6.28,0.00,1.37,
5.051,118.63745229710472,105.49367144001441,-3.0,0.0,0.0,0,2,0,0,0,1,0,6.38,0.00,1.47,
5.064,118.63974522971047,105.45436714400144,-3.0,0.0,0.0,0,2,0,0,0,1,0,6.38,0.00,1.57,
5.079,118.64897452297106,105.45943671440014,-3.0,0.0,0.0,0,2,0,0,0,1,0,6.38,0.00,1.57,
5.092,118.6588974522971,105.36094367144001,-3.0,0.0,0.0,0,2,0,0,0,1,0,6.38,0.00,1.47,
5.106,118.62388974522972,105.378094367144,-2.0,0.0,-1.0,0,2,0,0,0,1,0,6.47,0.00,1.47,
5.12,118.64738897452298,105.3798094367144,-2.0,0.0,0.0,0,2,0,0,0,2,0,6.47,0.00,1.47,
5.134,118.6407388974523,105.37998094367144,-2.0,0.0,-1.0,0,2,0,0,0,2,0,6.47,0.00,1.47,
5.147,118.66707388974523,105.41599809436714,-2.0,0.0,-1.0,0,2,0,0,0,2,0,6.38,0.00,1.57,
5.161,118.67870738897453,105.35659980943672,-2.0,0.0,0.0,0,2,0,0,0,2,0,6.38,0.00,1.47,
5.175,118.63487073889745,105.33265998094366,-2.0,0.0,-1.0,0,2,0,0,0,2,0,6.38,0.00,1.37,
5.189,118.65748707388974,105.33926599809438,-2.0,0.0,-1.0,0,2,0,0,0,2,0,6.47,0.00,1.37,
5.202,118.68674870738897,105.36692659980945,-2.0,0.0,-1.0,0,2,0,0,0,2,0,6.47,0.00,1.37,
5.217,118.6896748707389,105.36969265998096,-2.0,0.0,-1.0,0,2,0,0,0,2,0,6.47,0.00,1.37,
5.23,118.63596748707388,105.34296926599811,-2.0,0.0,-1.0,0,2,0,0,0,2,0,6.47,0.00,1.57,
5.244,118.66659674870738,105.36729692659982,-2.0,0.0,-1.0,0,2,0,0,0,2,0,6.47,0.00,1.37,
5.258,118.67865967487074,105.39672969265999,-2.0,0.0,-1.0,0,2,0,0,0,2,0,6.47,0.00,1.37,
5.272,118.67986596748709,105.399672969266,-2.0,0.0,-1.0,0,2,0,0,0,2,0,6.47,0.00,1.37,
5.285,118.6619865967487,105.3999672969266,-2.0,0.0,-1.0,0,2,0,0,0,2,0,6.57,0.00,1.37,
5.3,118.66019865967486,105.36399672969266,-2.0,0.0,-1.0,0,2,0,0,0,2,0,6.47,0.00,1.37,
5.314,118.66901986596748,105.38739967296927,-2.0,0.0,-1.0,0,2,0,0,0,2,0,6.38,0.00,1.28,
5.327,118.71490198659674,105.36273996729692,-2.0,0.0,-1.0,0,2,0,0,0,2,0,6.47,0.00,1.37,
5.342,118.69249019865967,105.3422739967297,-2.0,0.0,-1.0,0,2,0,0,0,2,0,6.38,0.00,1.47,
5.355,118.70824901986596,105.34922739967297,-2.0,0.0,-1.0,0,2,0,0,0,2,0,6.28,0.00,1.37,
5.369,118.63782490198659,105.3229227399673,-2.0,0.0,-1.0,0,2,0,0,0,2,0,6.47,0.00,1.37,
5.383,118.67578249019867,105.35629227399673,-2.0,0.0,-1.0,0,2,0,0,0,2,0,6.47,0.00,1.37,
5.397,118.63457824901985,105.30562922739966,-2.0,0.0,-1.0,0,2,0,0,0,2,0,6.57,0.00,1.37,
5.41,118.65745782490198,105.30056292273996,-2.0,0.0,-1.0,0,2,0,0,0,2,0,6.57,0.00,1.37,
5.425,118.68674578249019,105.291056292274,-2.0,0.0,-1.0,0,2,0,0,0,2,0,6.67,0.00,1.37,
5.438,118.73467457824901,105.2991056292274,-2.0,0.0,-1.0,0,2,0,0,0,2,0,6.57,0.00,1.37,
5.452,118.68546745782491,105.30891056292275,-2.0,0.0,-1.0,0,2,0,0,0,2,0,6.67,0.00,1.37,
5.466,118.62654674578249,105.25589105629228,-2.0,0.0,-1.0,0,2,0,0,0,2,0,6.67,0.00,1.47,
5.48,118.62965467457825,105.30458910562923,-2.0,0.0,-1.0,0,2,0,0,0,2,0,6.57,0.00,1.37,
5.494,118.62096546745784,105.32745891056291,-2.0,0.0,-1.0,0,2,0,0,0,2,0,6.57,0.00,1.28,
5.508,118.66509654674577,105.32974589105629,-2.0,0.0,-1.0,0,2,0,0,0,2,0,6.67,0.00,1.28,
5.522,118.66950965467457,105.32097458910562,-2.0,0.0,-1.0,0,2,0,0,0,2,0,6.67,0.00,1.37,
5.535,118.70595096546745,105.32009745891055,-2.0,0.0,-1.0,0,2,0,1,0,2,0,6.57,0.00,1.37,
5.55,118.67359509654673,105.31100974589106,-2.0,0.0,-1.0,0,2,0,1,0,2,0,6.57,0.00,1.37,
5.563,118.67035950965467,105.31010097458912,-2.0,0.0,-1.0,0,2,0,1,0,2,0,6.57,0.00,1.37,
5.577,118.64303595096546,105.3190100974589,-2.0,0.0,-1.0,0,2,0,1,0,2,0,6.57,0.00,1.37,
5.591,118.63130359509654,105.34690100974589,-2.0,0.0,-1.0,0,2,0,1,0,2,0,6.67,0.00,1.28,
5.605,118.61213035950965,105.3406901009746,-2.0,0.0,-1.0,0,2,0,1,0,2,0,6.57,0.00,1.28,
5.618,118.62821303595096,105.36706901009747,-2.0,0.0,-1.0,0,2,0,1,0,2,0,6.57,0.00,1.37,
5.633,118.6388213035951,105.32470690100973,-2.0,0.0,-1.0,0,2,0,1,0,2,0,6.47,0.00,1.28,
5.646,118.63088213035951,105.32047069010096,-2.0,0.0,-1.0,0,2,0,1,0,2,0,6.57,0.00,1.37,
5.66,118.60308821303595,105.32004706901009,-2.0,0.0,-1.0,0,2,0,1,0,2,0,6.67,0.00,1.37,
5.673,118.69930882130359,105.329004706901,-1.0,0.0,-1.0,0,2,0,1,0,2,0,6.57,0.00,1.28,
5.688,118.75393088213036,105.3119004706901,-2.0,0.0,-1.0,0,2,0,1,0,2,0,6.67,0.00,1.28,
5.702,118.74139308821303,105.33719004706902,-2.0,0.0,0.0,0,2,0,1,0,2,0,6.67,0.00,1.37,
5.715,118.7131393088213,105.30371900470689,-2.0,0.0,-1.0,0,2,0,1,0,2,0,6.67,0.00,1.37,
5.73,118.71031393088212,105.2913719004707,-2.0,0.0,-1.0,0,2,0,1,0,2,0,6.57,0.00,1.37,
5.743,118.6920313930882,105.27213719004706,-2.0,0.0,-1.0,0,2,0,1,0,2,0,6.57,0.00,1.37,
5.757,118.62720313930883,105.2702137190047,-2.0,0.0,-1.0,0,2,0,1,0,2,0,6.67,0.00,1.28,
5.771,118.62072031393089,105.31502137190046,-2.0,0.0,-1.0,0,2,0,1,0,2,0,6.57,0.00,1.28,
5.785,118.6740720313931,105.32850213719004,-2.0,0.0,-1.0,0,2,0,1,0,2,0,6.57,0.00,1.28,
5.798,118.6344072031393,105.29385021371901,-2.0,0.0,-1.0,0,2,0,1,0,2,0,6.67,0.00,1.28,
5.813,118.58544072031393,105.2813850213719,-2.0,0.0,-1.0,0,2,0,1,0,2,0,6.67,0.00,1.37,
5.826,118.5895440720314,105.30713850213719,-2.0,0.0,-1.0,0,2,0,1,0,2,0,6.57,0.00,1.28,
5.84,118.58095440720314,105.35471385021371,-2.0,0.0,-1.0,0,2,0,1,0,2,0,6.57,0.00,1.28,
5.854,118.56209544072031,105.35047138502136,-2.0,0.0,-1.0,0,2,0,1,0,2,0,6.57,0.00,1.37,
5.868,118.54220954407204,105.39504713850215,-2.0,0.0,-1.0,0,2,0,1,0,2,0,6.67,0.00,1.47,
5.882,118.62122095440719,105.46250471385021,-2.0,0.0,0.0,0,2,0,1,0,2,0,6.67,0.00,1.37,
5.896,118.66512209544071,105.47825047138502,-2.0,0.0,-1.0,0,2,0,1,0,2,0,6.67,0.00,1.37,
5.91,118.61551220954406,105.43482504713852,-2.0,0.0,-1.0,0,2,0,1,0,2,0,6.67,0.00,1.28,
5.923,118.62855122095439,105.42148250471385,-2.0,0.0,-1.0,0,2,0,1,0,2,0,6.67,0.00,1.37,
5.938,118.64785512209545,105.38414825047138,-2.0,0.0,-1.0,0,2,0,1,0,2,0,6.67,0.00,1.37,
5.951,118.64078551220953,105.37141482504715,-2.0,0.0,-1.0,0,2,0,1,0,2,0,6.77,0.00,1.28,
5.965,118.64907855122097,105.38814148250471,-2.0,0.0,-1.0,0,2,0,1,0,2,0,6.77,0.00,1.28,
5.979,118.6859078551221,105.38081414825047,-2.0,0.0,-1.0,0,2,0,1,0,2,0,6.77,0.00,1.28,
5.993,118.6355907855122,105.42508141482506,-2.0,0.0,-1.0,0,2,0,1,0,2,0,6.77,0.00,1.28,
6.006,118.63055907855122,105.4475081414825,-2.0,0.0,-1.0,0,2,0,1,0,2,0,6.67,0.00,1.37,
6.021,118.62105590785512,105.47675081414825,-2.0,0.0,0.0,0,2,0,1,6.4500,-2,0,-1,0,2,
6.45,118.7371055907855,105.38967508141482,-2.0,0.0,-1.0,0,2,0,1,0,2,0,6.77,0.00,1.37,
6.464,118.78471055907855,105.38096750814148,-2.0,0.0,-1.0,0,2,0,1,0,2,0,6.77,0.00,1.28,
6.477,118.77147105590785,105.31709675081416,-2.0,0.0,-1.0,0,2,0,1,0,2,0,6.87,0.00,1.28,
6.492,118.77914710559078,105.32870967508141,-2.0,0.0,-1.0,0,2,0,1,0,2,0,6.87,0.00,1.37,
6.505,118.74391471055907,105.32987096750813,-2.0,0.0,-1.0,0,2,0,1,0,2,0,6.77,0.00,1.28,
6.519,118.7583914710559,105.36598709675083,-2.0,0.0,-1.0,0,2,0,1,0,2,0,6.77,0.00,1.28,
6.533,118.7598391471056,105.40559870967508,-2.0,0.0,-1.0,0,2,0,1,0,2,0,6.77,0.00,1.37,
6.547,118.72398391471056,105.4365598709675,-2.0,0.0,-1.0,0,2,0,1,0,2,0,6.77,0.00,1.37,
6.56,118.75639839147105,105.45765598709674,-2.0,0.0,-1.0,0,2,0,1,0,2,0,6.77,0.00,1.37,
6.575,118.7236398391471,105.46876559870967,-2.0,0.0,0.0,0,2,0,1,0,2,0,6.67,0.00,1.37,
6.588,118.75636398391471,105.46987655987097,-2.0,0.0,0.0,0,2,0,1,0,2,0,6.67,0.00,1.37,
6.602,118.82263639839147,105.4429876559871,-2.0,0.0,-1.0,0,2,0,1,0,2,0,6.67,0.00,1.28,
6.616,118.89226363983914,105.41329876559871,-2.0,0.0,-1.0,0,2,0,1,0,2,0,6.77,0.00,1.28,
6.63,118.89022636398391,105.45532987655987,-2.0,0.0,-1.0,0,2,0,1,0,2,0,6.77,0.00,1.37,
6.643,118.9080226363984,105.45953298765599,-2.0,0.0,-1.0,0,2,0,1,0,2,0,6.77,0.00,1.37,
6.658,118.89180226363985,105.4509532987656,-2.0,0.0,-1.0,0,2,0,1,0,2,0,6.77,0.00,1.37,
6.671,118.84518022636398,105.44109532987656,-2.0,0.0,0.0,0,2,0,1,0,2,0,6.77,0.00,1.37,
6.685,118.8135180226364,105.44010953298765,-2.0,0.0,-1.0,0,2,0,1,0,2,0,6.67,0.00,1.28,
6.699,118.75635180226364,105.42201095329877,-2.0,0.0,-1.0,0,2,0,1,0,2,0,6.77,0.00,1.37,
6.713,118.71463518022637,105.38420109532987,-2.0,0.0,-1.0,0,2,0,1,0,2,0,6.77,0.00,1.28,
6.727,118.73746351802264,105.36242010953298,-2.0,0.0,-1.0,0,2,0,1,0,2,0,6.77,0.00,1.28,
6.74,118.71274635180225,105.3602420109533,-2.0,0.0,-1.0,0,2,0,1,0,2,0,6.77,0.00,1.37,
6.755,118.66527463518023,105.31502420109534,-2.0,0.0,-1.0,0,2,0,1,0,2,0,6.77,0.00,1.37,
6.768,118.66952746351802,105.29250242010954,-2.0,0.0,-1.0,0,2,0,1,0,2,0,6.87,0.00,1.28,
6.782,118.6969527463518,105.32625024201094,-2.0,0.0,-1.0,0,2,0,1,0,2,0,6.87,0.00,1.28,
6.796,118.69969527463518,105.3476250242011,-2.0,0.0,-1.0,0,2,0,1,0,2,0,6.87,0.00,1.37,
6.81,118.70896952746351,105.3227625024201,-2.0,0.0,-1.0,0,2,0,1,0,2,0,6.77,0.00,1.37,
6.823,118.76389695274635,105.347276250242,-2.0,0.0,-1.0,0,2,0,1,0,2,0,6.87,0.00,1.28,
6.838,118.83238969527463,105.39472762502422,-2.0,0.0,-1.0,0,2,0,1,0,2,0,6.87,0.00,1.37,
6.851,118.81223896952746,105.40847276250241,-2.0,0.0,-1.0,0,2,0,1,0,2,0,6.87,0.00,1.28,
6.865,118.79222389695275,105.39184727625023,-2.0,0.0,-1.0,0,2,0,1,0,2,0,6.87,0.00,1.28,
6.879,118.80822238969527,105.30918472762502,-2.0,0.0,-1.0,0,2,0,1,0,2,0,6.87,0.00,1.37,
6.893,118.77382223896953,105.31891847276249,-2.0,0.0,-1.0,0,2,1,1,0,2,0,6.87,0.00,1.37,
6.907,118.78838222389695,105.35589184727624,-2.0,0.0,-1.0,0,2,1,1,0,2,0,6.97,0.00,1.37,
6.921,118.79883822238969,105.33258918472762,-2.0,0.0,-1.0,0,2,1,1,0,2,0,6.87,0.00,1.28,
6.935,118.80888382223897,105.30325891847275,-2.0,0.0,-1.0,0,2,1,1,0,2,0,7.06,0.00,1.28,
6.948,118.7918883822239,105.25532589184728,-2.0,0.0,-1.0,0,2,1,1,0,2,0,6.87,0.00,1.28,
6.963,118.74518883822239,105.26853258918472,-2.0,0.0,-1.0,0,2,1,1,0,2,0,6.87,0.00,1.37,
6.976,118.72251888382223,105.21585325891846,-2.0,0.0,-1.0,0,2,1,1,0,2,0,6.87,0.00,1.28,
6.99,118.77425188838222,105.23758532589184,-2.0,0.0,-1.0,0,2,0,1,0,2,0,6.77,0.00,1.28,
7.004,118.73442518883822,105.26675853258918,-2.0,0.0,-1.0,0,2,0,1,0,2,0,6.77,0.00,1.37,
7.018,118.73044251888382,105.27867585325893,-2.0,0.0,-1.0,0,2,0,1,0,2,0,6.77,0.00,1.37,
7.031,118.70304425188837,105.21686758532589,-2.0,0.0,-1.0,0,2,0,1,0,2,0,6.77,0.00,1.28,
7.046,118.68230442518885,105.20168675853259,-2.0,0.0,-1.0,0,2,0,1,0,2,0,6.77,0.00,1.28,
7.059,118.68023044251889,105.24516867585326,-2.0,0.0,-1.0,0,2,0,1,0,2,0,6.57,0.00,1.37,
7.073,118.69802304425188,105.30351686758533,-2.0,0.0,-1.0,0,2,0,1,0,2,0,6.67,0.00,1.28,
7.087,118.70880230442518,105.34535168675853,-2.0,0.0,-1.0,0,2,0,1,0,2,0,6.67,0.00,1.28,
7.101,118.6738802304425,105.39453516867586,-2.0,0.0,-1.0,0,2,0,1,0,2,0,6.67,0.00,1.37,
7.115,118.68838802304424,105.45345351686758,-2.0,0.0,-1.0,0,2,0,1,0,2,0,6.57,0.00,1.37,
7.129,118.71683880230442,105.40534535168678,-2.0,0.0,0.0,0,2,0,1,0,2,0,6.47,0.00,1.18,
7.143,118.67468388023043,105.38253453516867,-2.0,0.0,-1.0,0,2,0,1,0,2,0,6.38,0.00,1.18,
7.156,118.63446838802304,105.31725345351687,-2.0,0.0,-1.0,0,2,0,1,0,2,0,6.38,0.00,1.18,
7.171,118.6574468388023,105.31972534535169,-2.0,0.0,-1.0,0,2,0,1,0,2,0,6.38,0.00,1.18,
7.184,118.68674468388022,105.36497253453518,-2.0,0.0,-1.0,0,2,0,1,0,2,0,6.38,0.00,1.28,
7.198,118.69867446838802,105.41449725345352,-2.0,0.0,-1.0,0,2,0,1,0,2,0,6.38,0.00,1.28,
7.212,118.6998674468388,105.43744972534535,-2.0,0.0,-1.0,0,2,0,1,0,2,0,6.47,0.00,1.28,
7.226,118.72698674468387,105.41274497253453,-2.0,0.0,-1.0,0,2,0,1,0,2,0,6.38,0.00,1.18,
7.239,118.71169867446838,105.36527449725345,-2.0,0.0,-1.0,0,2,0,1,0,2,0,6.38,0.00,1.28,
7.254,118.76416986744684,105.33352744972534,-2.0,0.0,-1.0,0,2,0,1,0,2,0,6.57,0.00,1.18,
7.267,118.76941698674469,105.26735274497254,-2.0,0.0,-1.0,0,2,0,1,0,2,0,6.57,0.00,1.08,
7.281,118.72494169867447,105.24273527449725,-2.0,0.0,-1.0,0,2,0,1,0,2,0,6.47,0.00,1.18,
7.294,118.67549416986745,105.21327352744972,-2.0,0.0,-1.0,0,2,0,1,0,2,0,6.47,0.00,1.18,
7.309,118.67054941698674,105.26432735274497,-2.0,0.0,-1.0,0,2,0,1,0,2,0,6.38,0.00,1.18,
7.323,118.67005494169867,105.2964327352745,-2.0,0.0,-1.0,0,2,0,1,0,2,0,6.38,356.89,1.18,
7.336,118.67000549416986,105.31764327352744,-2.0,0.0,-1.0,0,2,0,1,0,2,0,6.38,798.14,1.18,
7.351,118.71500054941698,105.31976432735274,-2.0,0.0,-1.0,0,2,0,0,0,2,0,6.47,0.00,1.18,
7.364,118.72850005494169,105.33797643273529,-2.0,0.0,-1.0,0,2,0,0,0,2,0,6.38,0.00,1.18,
7.378,118.71185000549417,105.31279764327354,-2.0,0.0,-1.0,0,2,0,0,0,2,0,6.47,0.00,1.18,
7.393,118.71018500054942,105.27427976432735,-2.0,0.0,-1.0,0,2,0,0,0,2,0,6.38,0.00,1.28,
7.406,118.66501850005494,105.27942797643274,-2.0,0.0,-1.0,0,2,0,0,0,2,0,6.38,0.00,1.18,
7.42,118.66050185000549,105.32494279764327,-2.0,0.0,-1.0,0,2,0,0,0,2,0,6.28,0.00,1.18,
7.434,118.66005018500054,105.30249427976432,-2.0,0.0,-1.0,0,2,0,0,0,2,0,6.28,0.00,1.18,
7.448,118.67800501850006,105.31824942797643,-2.0,0.0,-1.0,0,2,0,0,0,2,0,6.18,0.00,1.18,
7.461,118.67080050185,105.31982494279764,-2.0,0.0,-1.0,0,2,0,0,0,1,0,6.28,0.00,1.18,
7.476,118.652080050185,105.25698249427977,-1.0,0.0,-1.0,0,2,0,0,0,1,0,6.18,0.00,1.28,
7.489,118.6142080050185,105.27769824942798,-1.0,0.0,0.0,0,2,0,0,0,1,0,6.08,0.00,1.18,
7.503,118.67342080050186,105.29776982494279,-1.0,0.0,0.0,0,2,0,0,0,1,0,5.98,0.00,1.18,
7.517,118.67034208005018,105.35377698249428,-2.0,0.0,-1.0,0,2,0,0,0,1,0,5.79,0.00,1.18,
7.531,118.65203420800502,105.43137769824942,-2.0,0.0,0.0,0,2,0,0,0,1,0,5.69,0.00,1.08,
7.544,118.6952034208005,105.45713776982494,-2.0,0.0,0.0,0,2,0,0,0,1,0,5.59,0.00,1.08,
7.559,118.73552034208005,105.4867137769825,-2.0,0.0,0.0,0,2,0,0,0,1,0,5.40,0.00,1.08,
7.572,118.829552034208,105.51667137769824,-2.0,0.0,0.0,0,2,0,0,0,1,0,5.30,0.00,1.08,
7.586,118.8839552034208,105.45666713776983,-2.0,0.0,0.0,0,2,0,0,0,1,0,5.20,0.00,1.08,
7.6,118.85339552034208,105.45966671377698,-2.0,0.0,0.0,0,2,0,0,0,1,0,5.10,0.00,1.18,
7.613,118.77833955203421,105.3879666713777,-2.0,0.0,0.0,0,2,0,0,0,1,0,5.00,0.00,1.08,
7.627,118.75283395520341,105.34479666713779,-2.0,0.0,0.0,0,2,0,0,0,1,0,4.71,0.00,1.08,
7.641,118.75928339552034,105.32247966671378,-2.0,0.0,0.0,0,2,0,0,0,1,0,4.71,0.00,0.98,
7.655,118.80492833955203,105.36524796667139,-2.0,0.0,-1.0,0,2,0,0,0,1,0,4.61,0.00,0.88,
7.668,118.7914928339552,105.41452479666714,-2.0,0.0,0.0,0,2,0,0,0,1,0,4.41,0.00,0.98,
7.683,118.80814928339552,105.38345247966672,-2.0,0.0,0.0,0,2,0,0,0,1,0,4.51,0.00,0.98,
7.696,118.79181492833955,105.37134524796669,-2.0,0.0,0.0,0,2,0,0,0,1,0,4.51,0.00,0.98,
7.71,118.80818149283395,105.35213452479667,-2.0,0.0,0.0,0,2,0,0,0,1,0,4.51,0.00,0.88,
7.724,118.8548181492834,105.31421345247968,-2.0,0.0,0.0,0,2,0,0,0,1,0,4.51,0.00,0.88,
7.738,118.89548181492835,105.27442134524796,-2.0,0.0,-1.0,0,2,0,0,0,1,0,4.51,0.00,0.78,
7.751,118.90854818149283,105.2884421345248,-2.0,0.0,-1.0,0,2,0,0,0,1,0,4.51,0.00,0.98,
7.766,118.87385481814928,105.32584421345247,-2.0,0.0,-1.0,0,2,0,0,0,1,0,4.51,0.00,0.88,
7.779,118.90638548181494,105.34758442134525,-2.0,0.0,0.0,0,2,0,0,0,1,0,4.51,0.00,0.88,
7.793,119.00863854818148,105.34975844213452,-2.0,0.0,0.0,0,2,0,0,0,1,0,4.51,0.00,0.98,
7.806,119.01886385481814,105.35897584421345,-3.0,0.0,0.0,0,2,0,0,0,1,0,4.61,0.00,0.78,
7.82,119.08288638548183,105.35089758442135,-2.0,0.0,0.0,0,2,0,0,0,1,0,4.41,0.00,0.78,
7.834,119.09828863854818,105.39508975844214,-2.0,0.0,0.0,0,2,0,0,0,1,0,4.41,0.00,0.78,
7.847,119.16282886385481,105.39950897584423,-2.0,0.0,0.0,0,2,0,0,0,1,0,4.32,0.00,0.78,
7.861,119.19628288638548,105.35495089758442,-3.0,-1.0,-1.0,0,2,0,0,0,1,0,4.32,0.00,0.78,
7.875,119.13662828863855,105.30549508975844,-2.0,-1.0,-1.0,0,2,0,0,0,1,0,4.22,0.00,0.78,
7.888,119.11266282886385,105.20154950897584,-3.0,0.0,0.0,0,2,0,0,0,1,0,4.22,0.00,0.69,
7.903,119.11026628288639,105.13715495089758,-3.0,0.0,0.0,0,2,0,0,0,1,0,4.22,0.00,0.78,
7.916,119.12802662828864,105.13071549508976,-3.0,0.0,0.0,0,2,0,0,0,1,0,4.12,0.00,0.78,
7.929,119.12980266282887,105.09407154950898,-4.0,-1.0,0.0,0,2,0,0,0,1,0,4.02,0.00,0.69,
7.944,119.11198026628288,105.1174071549509,-4.0,0.0,0.0,0,2,0,0,0,1,0,4.02,0.00,0.69,
7.957,119.12819802662828,105.15574071549509,-5.0,0.0,0.0,0,2,0,0,0,1,0,4.12,0.00,0.78,
7.971,119.11181980266282,105.21357407154952,-6.0,0.0,0.0,0,2,0,0,0,1,0,4.22,0.00,0.78,
7.985,119.13718198026628,105.18335740715496,-8.0,0.0,1.0,0,2,0,0,0,1,0,4.41,0.00,0.78,
7.999,119.10371819802663,105.19833574071549,-9.0,0.0,1.0,0,2,0,0,0,1,0,4.41,0.00,0.78,
8.012,119.08237181980266,105.18183357407155,-10.0,0.0,3.0,0,2,0,0,0,0,0,4.81,0.00,0.69,
8.027,119.06223718198028,105.04518335740715,-11.0,0.0,4.0,0,2,0,0,0,0,0,5.00,0.00,0.69,
8.04,119.12322371819802,104.81551833574072,-12.0,-1.0,5.0,0,2,0,0,0,0,0,5.20,0.00,0.59,
8.054,119.2463223718198,104.64855183357407,-13.0,-1.0,4.0,0,2,0,0,0,0,0,5.40,0.00,0.49,
8.069,119.30363223718199,104.5418551833574,-13.0,-2.0,5.0,0,2,0,0,0,0,0,6.08,0.00,0.29,
8.082,119.13836322371822,104.28818551833574,-12.0,-1.0,5.0,0,2,0,0,0,0,0,6.47,0.00,0.20,
8.096,119.18483632237182,104.07381855183357,-12.0,0.0,7.0,0,2,0,0,0,0,0,6.87,0.00,0.10,
8.11,119.27048363223719,103.80938185518336,-11.0,-1.0,6.0,0,2,0,0,0,0,0,7.36,0.00,0.00,
8.124,119.50404836322372,103.20693818551834,-10.0,-4.0,2.0,0,2,0,0,0,0,0,7.85,0.00,0.00,
8.138,119.22140483632236,102.97569381855183,-8.0,-5.0,2.0,0,2,0,0,0,0,0,8.63,0.59,0.00,
8.152,119.34614048363224,102.91656938185518,-7.0,-7.0,1.0,0,2,1,0,0,0,0,9.12,2.94,0.00,
8.166,119.15161404836321,102.7846569381855,-6.0,-9.0,-1.0,0,2,1,0,0,0,0,9.71,1.47,0.00,
8.179,118.67316140483632,102.56446569381855,-4.0,-6.0,-4.0,0,2,1,0,0,0,0,10.20,0.59,0.00,
8.194,118.25631614048362,102.31744656938186,-1.0,-5.0,-5.0,0,2,1,0,0,0,0,11.18,0.29,0.00,
8.208,118.00763161404836,102.45474465693817,1.0,-1.0,-3.0,0,2,1,0,0,0,0,11.87,0.00,0.00,
8.221,117.86576316140483,102.60347446569382,2.0,0.0,-1.0,1,2,1,0,0,0,0,12.65,0.00,0.00,
8.236,118.04057631614049,102.7623474465694,1.0,-1.0,-1.0,1,2,1,0,0,0,0,13.54,0.00,0.00,
8.249,118.12105763161404,102.77823474465694,2.0,-4.0,-2.0,0,2,1,0,0,0,0,15.11,0.00,0.00,
8.263,117.8861057631614,103.0048234744657,2.0,-4.0,-3.0,1,2,1,0,0,1,0,15.89,0.00,0.00,
8.278,117.70961057631614,103.09948234744658,3.0,-3.0,-2.0,1,2,1,0,0,1,0,16.58,0.49,0.00,
8.291,117.68296105763162,103.16294823474466,4.0,-3.0,-3.0,1,2,1,0,0,1,0,17.27,0.69,0.20,
8.305,117.59929610576316,103.19629482347447,4.0,-5.0,-6.0,1,2,1,0,0,1,0,17.95,0.00,0.29,
8.32,117.56392961057631,103.35262948234745,3.0,-5.0,-6.0,1,2,1,1,0,2,0,19.13,0.00,0.49,
8.333,117.46139296105763,103.40426294823475,3.0,-6.0,-6.0,1,2,1,1,0,2,0,19.42,0.00,0.59,
8.347,117.56813929610576,103.42742629482348,5.0,-6.0,-8.0,1,2,1,1,0,2,0,19.62,11.77,0.69,
8.361,117.69581392961057,103.13274262948234,8.0,-12.0,-15.0,1,3,1,1,0,3,0,19.72,27.47,0.78,
8.375,117.87958139296107,102.32927426294822,16.0,-19.0,-26.0,1,3,1,1,0,3,0,19.72,32.86,0.88,
8.389,117.4389581392961,102.99592742629481,16.0,-23.0,-28.0,1,3,1,1,0,4,0,19.82,24.33,1.08,
8.403,116.71989581392961,103.83659274262948,14.0,-16.0,-22.0,1,3,1,1,0,4,0,20.01,20.90,1.28,
8.418,116.33298958139297,104.39765927426294,11.0,-13.0,-17.0,1,3,1,1,0,5,0,19.82,18.74,1.47,
8.432,115.9882989581393,104.81376592742629,8.0,-11.0,-15.0,1,4,1,2,0,6,0,19.13,15.50,1.28,
8.446,115.71982989581392,105.22437659274262,6.0,-7.0,-12.0,1,4,1,2,0,6,0,18.54,10.69,1.08,
8.461,115.54898298958139,105.42743765927426,5.0,-4.0,-11.0,1,4,1,2,0,7,0,17.85,12.75,0.20,
8.475,115.41489829895815,105.78074376592743,3.0,-4.0,-10.0,1,4,1,2,0,8,1,17.36,12.36,0.00,
8.489,115.6084898298958,105.81607437659274,4.0,-2.0,-10.0,1,4,1,2,0,8,1,16.48,6.38,0.00,
8.504,115.57384898298957,105.95460743765928,3.0,-4.0,-10.0,1,4,1,2,0,9,1,15.99,3.24,0.00,
8.518,115.39038489829896,106.20246074376593,2.0,-1.0,-9.0,1,4,1,2,0,9,2,15.40,2.55,0.00,
8.531,115.4260384898299,106.43424607437659,2.0,0.0,-7.0,1,4,1,2,0,10,2,14.91,0.98,0.00,
8.546,115.501603848983,106.64642460743765,0.0,0.0,-6.0,1,4,1,2,0,10,2,13.93,0.69,0.00,
8.983,117.0031603848983,106.63164246074376,-7.0,10.0,7.0,1,4,1,2,0,9,1,21.19,0.00,0.59,
8.997,117.39631603848983,106.58516424607437,-6.0,11.0,9.0,1,4,1,2,0,9,1,21.48,0.88,0.69,
9.012,117.68763160384898,106.58051642460742,-6.0,11.0,11.0,1,4,1,2,0,8,1,21.58,1.47,0.78,
9.026,117.7977631603849,106.54405164246074,-7.0,12.0,12.0,1,4,1,2,0,8,1,21.78,0.10,0.98,
9.04,118.06977631603849,106.42340516424608,-8.0,12.0,13.0,1,4,1,2,0,7,0,21.97,1.18,1.08,
9.054,118.30397763160384,106.24034051642461,-8.0,12.0,13.0,1,3,1,2,0,7,0,22.27,0.29,1.18,
9.068,118.49839776316037,106.13203405164246,-9.0,11.0,12.0,1,3,1,2,0,6,0,22.37,0.00,1.28,
9.082,118.56283977631603,105.94120340516425,-10.0,12.0,12.0,1,3,1,2,0,6,0,22.56,0.00,1.47,
9.097,118.96528397763161,105.66112034051642,-9.0,12.0,11.0,1,3,1,2,0,6,0,22.76,0.00,1.57,
9.111,119.10452839776318,105.46211203405164,-10.0,11.0,10.0,1,3,1,2,0,5,0,23.35,0.00,1.67,
9.125,119.34345283977632,105.15421120340517,-9.0,12.0,10.0,1,3,1,2,0,5,0,23.54,0.00,1.67,
9.139,119.57434528397764,104.96142112034052,-9.0,11.0,10.0,1,3,1,1,0,4,0,23.84,0.00,1.86,
9.153,119.87643452839775,104.83414211203404,-10.0,9.0,9.0,0,3,1,1,0,4,0,24.33,0.00,1.86,
9.167,120.13164345283978,104.50641421120339,-9.0,8.0,8.0,0,3,1,1,0,4,0,24.52,0.00,1.77,
9.181,120.32816434528397,104.23964142112034,-8.0,6.0,7.0,0,3,1,1,0,3,0,24.62,0.00,1.77,
9.195,120.4828164345284,103.98796414211202,-6.0,6.0,6.0,0,3,0,1,0,3,0,24.43,0.00,1.57,
9.208,120.55228164345284,103.95379641421121,-6.0,5.0,6.0,0,3,1,1,0,3,0,24.52,0.00,1.57,
9.223,120.68522816434529,103.88737964142112,-8.0,5.0,6.0,0,3,1,1,0,3,0,24.72,0.00,1.47,
9.236,120.70752281643452,103.71873796414211,-8.0,6.0,6.0,0,3,0,1,0,2,0,25.02,0.00,1.47,
9.25,120.66475228164344,103.5668737964142,-9.0,6.0,5.0,0,2,1,1,0,2,0,25.11,0.00,1.28,
9.264,120.90347522816434,103.21868737964142,-8.0,6.0,3.0,0,2,0,1,0,2,0,25.11,0.00,1.18,
9.278,120.94534752281643,103.13886873796413,-8.0,7.0,4.0,0,2,0,1,0,2,0,25.11,0.00,0.98,
9.291,121.02153475228165,102.9058868737964,-7.0,6.0,3.0,0,2,0,1,0,1,0,25.41,0.00,0.69,
9.306,121.26315347522817,102.67558868737964,-6.0,5.0,2.0,0,2,0,1,0,1,0,25.41,0.00,0.69,
9.319,121.36831534752282,102.67055886873797,-6.0,5.0,1.0,0,2,0,1,0,1,0,25.60,0.00,0.69,
9.333,121.56783153475229,102.47205588687379,-5.0,4.0,0.0,0,2,0,1,0,1,0,25.80,0.00,0.49,
9.348,121.65978315347523,102.42520558868738,-5.0,3.0,0.0,0,2,0,1,0,1,0,26.09,0.00,0.49,
9.361,121.68697831534752,102.41152055886873,-5.0,3.0,0.0,0,2,0,1,0,1,0,26.59,0.00,0.49,
9.375,121.79769783153475,102.26615205588688,-3.0,3.0,-1.0,0,2,0,1,0,1,0,26.78,0.00,0.49,
9.389,121.81776978315347,102.26061520558869,-2.0,4.0,-1.0,0,2,0,1,0,1,0,26.98,0.00,0.49,
9.403,121.85577697831535,102.29606152055887,-2.0,4.0,-1.0,0,2,0,1,0,1,0,27.17,0.00,0.39,
9.417,121.95857769783153,102.23660615205588,-2.0,3.0,-2.0,0,2,0,1,0,1,0,28.15,0.00,0.49,
9.431,122.01385776978314,102.23966061520558,0.0,2.0,-3.0,0,2,0,1,0,1,0,28.65,0.00,0.49,
9.445,122.17238577697832,102.02396606152055,1.0,0.0,-4.0,0,2,0,1,0,2,0,29.23,0.00,0.39,
9.458,122.23323857769782,102.14639660615205,1.0,0.0,-5.0,0,2,0,1,0,2,0,29.82,0.00,0.59,
9.473,122.18532385776979,102.17663966061521,2.0,0.0,-6.0,0,3,0,1,0,2,0,30.51,0.00,0.88,
9.486,122.12653238577698,102.36866396606152,1.0,0.0,-5.0,0,3,1,1,0,2,0,31.78,0.00,0.98,
9.5,122.1026532385777,102.50486639660615,0.0,0.0,-6.0,0,3,1,1,0,2,0,32.47,0.00,1.08,
9.513,122.06426532385777,102.52748663966061,1.0,1.0,-6.0,0,3,1,1,0,3,0,32.96,1.18,1.18,
9.528,121.94342653238579,102.75474866396607,0.0,2.0,-6.0,0,3,1,1,0,3,0,33.65,0.00,1.57,
9.541,121.97634265323859,102.7684748663966,0.0,3.0,-6.0,0,3,1,1,0,3,0,35.02,0.00,1.57,
9.555,122.05163426532386,102.75184748663966,0.0,3.0,-6.0,0,3,1,1,0,3,0,35.61,0.00,1.67,
9.57,122.13116342653238,102.95718474866396,0.0,2.0,-6.0,0,3,1,1,0,3,0,36.30,0.00,1.67,
9.583,122.18411634265324,103.0497184748664,0.0,2.0,-5.0,0,3,1,1,0,3,0,37.18,0.00,1.86,
9.597,122.27041163426533,103.16697184748665,0.0,1.0,-4.0,0,3,1,1,0,3,0,37.96,0.00,1.86,
9.611,122.45904116342653,103.16069718474866,0.0,0.0,-5.0,0,3,1,2,0,4,0,39.24,0.00,1.86,
9.625,122.54990411634265,103.31306971847486,0.0,0.0,-5.0,0,3,1,2,0,4,0,39.53,0.00,1.96,
9.638,122.53199041163427,103.38230697184748,0.0,-1.0,-5.0,0,3,1,2,0,4,0,39.83,0.00,1.96,
9.653,122.49419904116343,103.44323069718475,0.0,-1.0,-4.0,0,3,1,2,0,4,0,40.12,0.00,1.96,
9.666,122.47241990411634,103.54832306971848,0.0,-1.0,-4.0,0,3,0,2,0,4,0,40.22,0.00,1.96,
9.68,122.47924199041162,103.52283230697184,0.0,-1.0,-4.0,0,3,1,2,0,4,0,40.12,0.00,1.86,
9.695,122.40792419904118,103.65528323069718,0.0,-2.0,-4.0,0,3,1,2,0,4,0,40.12,0.00,1.96,
9.708,122.3647924199041,103.78552832306971,-1.0,-1.0,-4.0,0,3,1,2,0,4,0,40.02,0.00,1.96,
9.722,122.34247924199042,103.80755283230697,-1.0,-1.0,-3.0,0,3,1,2,0,4,0,39.83,0.00,1.86,
9.737,122.26824792419904,103.7737552832307,0.0,-2.0,-4.0,0,3,1,2,0,4,0,39.53,0.00,1.86,
9.75,122.1528247924199,103.84237552832307,0.0,-1.0,-3.0,0,3,1,2,0,4,0,39.44,0.00,1.86,
9.764,122.09628247924199,103.9482375528323,0.0,-1.0,-3.0,0,3,1,2,0,4,0,39.53,0.00,1.86,
9.778,122.1086282479242,103.97682375528323,0.0,-1.0,-3.0,0,3,1,2,0,4,0,39.63,0.00,1.86,
9.792,122.13686282479242,104.02468237552833,0.0,-1.0,-3.0,0,3,1,2,0,4,0,39.83,0.00,1.77,
9.806,122.19368628247925,104.05646823755283,0.0,-1.0,-3.0,0,3,1,2,0,4,0,39.83,0.00,1.86,
9.82,122.22636862824793,104.16764682375529,0.0,-2.0,-3.0,0,3,1,2,0,5,0,39.83,0.00,1.86,
9.834,122.27463686282479,104.16076468237553,0.0,-2.0,-3.0,0,3,1,2,0,5,0,39.73,0.00,1.86,
9.848,122.24346368628247,104.20507646823755,0.0,-3.0,-4.0,1,3,1,2,0,5,0,39.53,0.00,1.86,
9.862,122.19534636862825,104.24550764682375,0.0,-2.0,-4.0,1,3,1,2,0,5,0,39.53,0.00,1.86,
9.876,122.18153463686282,104.28555076468237,0.0,-2.0,-4.0,1,3,1,2,0,5,0,39.34,0.00,1.86,
9.889,122.16215346368628,104.37955507646824,0.0,-2.0,-4.0,1,3,1,2,0,5,0,39.24,0.00,1.86,
9.904,122.10621534636863,104.36195550764683,0.0,-2.0,-3.0,1,3,1,2,0,5,0,39.14,0.00,1.86,
9.918,122.10962153463686,104.46819555076469,-1.0,-2.0,-3.0,1,3,1,2,0,5,0,39.14,0.00,1.86,
9.931,122.02896215346368,104.50581955507647,-1.0,-2.0,-3.0,1,3,1,2,0,5,0,38.95,0.00,1.96,
9.946,121.94889621534637,104.45558195550765,-1.0,-2.0,-3.0,1,3,1,2,0,5,0,38.85,0.00,1.96,
9.96,121.94088962153462,104.46855819555076,0.0,-2.0,-4.0,1,3,1,2,0,5,0,38.55,0.00,1.86,
9.974,121.82308896215346,104.52385581955507,0.0,-2.0,-4.0,1,3,1,2,0,5,0,38.16,0.00,1.86,
9.988,121.78430889621535,104.59238558195551,0.0,-2.0,-3.0,1,4,1,2,0,5,0,37.96,0.00,1.96,
10.002,121.78943088962154,104.63523855819555,0.0,-2.0,-3.0,1,4,1,2,0,5,0,37.77,0.00,1.96,
10.016,121.78094308896216,104.66652385581955,0.0,-2.0,-3.0,1,4,1,2,0,5,0,37.57,0.00,2.06,
10.03,121.74409430889622,104.76865238558196,0.0,-2.0,-3.0,1,4,1,2,0,5,0,37.08,0.00,2.06,
10.044,121.71340943088963,104.81486523855818,0.0,-2.0,-3.0,1,4,1,2,0,5,0,36.89,0.00,2.06,
10.058,121.63834094308896,104.86448652385583,0.0,-2.0,-3.0,1,4,1,2,0,5,0,36.69,0.00,2.06,
10.072,121.5408340943089,104.92344865238559,0.0,-2.0,-3.0,1,4,1,2,0,5,0,36.49,0.00,2.16,
10.086,121.52208340943088,104.98334486523855,0.0,-1.0,-2.0,1,4,1,2,0,5,0,36.40,0.00,2.06,
10.1,121.52020834094309,105.02533448652386,0.0,-1.0,-2.0,1,4,1,2,0,5,0,36.20,0.00,2.06,
10.114,121.53802083409431,105.03853344865239,0.0,-2.0,-2.0,1,4,1,2,0,5,0,36.10,0.00,2.16,
10.128,121.61180208340944,105.04885334486524,0.0,-2.0,-2.0,1,4,1,2,0,5,0,36.00,0.00,2.16,
10.142,121.55618020834093,104.98688533448652,0.0,-2.0,-2.0,1,4,1,2,0,5,0,35.51,0.00,2.16,
10.157,121.4876180208341,104.97168853344864,0.0,-3.0,-2.0,1,4,1,2,0,5,0,35.12,0.00,2.16,
10.17,121.48976180208341,104.95216885334486,0.0,-3.0,-3.0,1,4,1,2,0,5,0,34.92,0.00,2.16,
10.184,121.32797618020834,104.98621688533449,1.0,-2.0,-3.0,1,4,1,2,0,6,0,34.73,0.00,2.06,
10.199,121.23079761802083,105.01662168853345,1.0,-3.0,-4.0,1,4,1,2,0,6,0,34.34,0.00,2.16,
10.213,121.14007976180207,105.10966216885335,1.0,-2.0,-3.0,1,4,1,2,0,6,0,34.14,0.00,2.16,
10.227,121.09500797618021,105.24496621688535,0.0,-2.0,-3.0,1,4,1,2,0,6,0,33.94,0.00,1.96,
10.241,121.00950079761802,105.34849662168853,0.0,-2.0,-3.0,1,4,1,2,0,6,0,33.94,0.00,2.06,
10.255,121.00995007976181,105.43984966216885,0.0,-1.0,-2.0,1,4,1,2,0,6,0,33.84,0.00,1.96,
10.269,121.01899500797617,105.55698496621687,0.0,-1.0,-2.0,1,4,1,2,0,6,0,33.65,0.00,1.96,
10.284,121.05589950079762,105.73069849662168,0.0,-1.0,-2.0,1,4,1,2,0,6,0,33.65,0.00,2.06,
10.298,121.04158995007977,105.77506984966216,0.0,-1.0,-2.0,1,4,1,2,0,6,0,33.45,0.00,2.06,
10.311,121.04915899500797,105.86050698496621,-1.0,-1.0,-1.0,1,4,1,2,0,6,0,961.09,0.00,2.06,
10.335,120.9869158995008,105.88705069849662,-1.0,-1.0,-1.0,1,4,1,2,0,6,0,33.26,0.00,2.16,
10.349,120.99869158995008,105.88070506984965,-1.0,0.0,-1.0,1,4,1,2,0,6,0,33.16,0.00,2.26,
10.362,120.99986915899501,105.90707050698497,-1.0,0.0,-1.0,1,4,1,2,0,6,0,33.16,0.00,2.35,
10.377,121.0089869158995,105.8827070506985,-1.0,0.0,-1.0,1,4,1,2,0,6,0,33.16,0.00,2.26,
10.391,120.97389869158995,105.89827070506985,-1.0,0.0,-1.0,1,4,1,2,0,6,0,946.76,0.00,2.35,
10.405,120.90738986915899,105.84582707050699,-1.0,0.0,-1.0,1,4,1,2,0,6,0,71.32,0.00,2.26,
10.42,120.9277389869159,105.8765827070507,-1.0,0.0,-1.0,1,4,1,2,0,6,0,32.96,0.00,2.26,
10.434,120.9927738986916,105.93365827070507,-1.0,0.0,0.0,1,4,1,2,0,6,0,32.86,0.00,2.26,
10.447,121.02627738986916,105.9213658270705,-1.0,0.0,-1.0,1,4,1,2,0,6,0,32.86,0.00,2.35,
10.462,121.0746277389869,105.88413658270704,-1.0,-1.0,-1.0,1,4,1,2,0,6,0,32.67,0.00,2.35,
10.476,121.0614627738987,105.9074136582707,-1.0,-1.0,-1.0,1,4,1,2,0,6,0,32.47,0.00,2.26,
10.49,121.06914627738986,105.98174136582706,-1.0,-1.0,-1.0,1,4,1,2,0,6,0,32.18,0.00,2.35,
10.505,120.99791462773898,106.0251741365827,-1.0,-1.0,-1.0,1,4,1,2,0,6,0,31.88,0.00,2.45,
10.519,120.9367914627739,105.93951741365827,-1.0,-1.0,-1.0,1,4,1,2,0,6,0,31.69,0.00,2.45,
10.533,120.90367914627738,105.96695174136583,-1.0,-1.0,-1.0,1,4,1,2,0,6,0,31.49,0.00,2.45,
10.548,120.90036791462774,105.97869517413659,-1.0,-1.0,-1.0,1,4,1,2,0,6,0,31.29,0.00,2.45,
10.561,120.84603679146277,105.97086951741366,-1.0,-1.0,-1.0,1,4,1,2,0,6,0,31.10,0.00,2.55,
10.575,120.83160367914627,105.97008695174137,-1.0,-1.0,-1.0,1,4,1,2,0,6,0,30.90,0.00,2.55,
10.59,120.84816036791463,106.00600869517415,-1.0,-1.0,-1.0,1,4,1,2,0,6,0,30.61,0.00,2.55,
10.604,120.90381603679147,106.02760086951741,-1.0,-2.0,-1.0,1,4,1,2,0,6,0,30.41,0.00,2.55,
10.618,120.84638160367915,106.05676008695174,-1.0,-2.0,-1.0,1,4,1,2,0,6,0,29.82,0.00,2.75,
10.633,120.75963816036791,106.05067600869516,-2.0,-2.0,-1.0,1,4,1,2,0,6,0,29.63,0.00,2.65,
10.647,120.6789638160368,106.05006760086951,-2.0,-1.0,-1.0,1,4,1,2,0,6,0,29.23,0.00,2.65,
10.661,120.61689638160368,106.07700676008695,-2.0,-1.0,0.0,1,4,1,2,0,6,0,28.94,0.00,2.75,
10.676,120.58368963816037,106.1157006760087,-2.0,0.0,0.0,1,4,1,2,0,6,0,28.55,0.00,2.75,
10.689,120.60736896381604,106.09257006760087,-3.0,0.0,0.0,1,4,1,2,0,6,0,28.35,0.00,2.84,
10.703,120.5557368963816,106.09925700676008,-3.0,0.0,0.0,1,4,1,2,0,6,0,28.35,0.00,2.84,
10.718,120.59557368963814,106.108925700676,-3.0,0.0,0.0,1,4,1,2,0,6,0,28.25,0.00,2.75,
10.732,120.58155736896381,106.07389257006758,-3.0,0.0,0.0,1,4,1,2,0,6,0,28.35,0.00,2.75,
10.745,120.55315573689639,106.05238925700675,-3.0,1.0,0.0,1,4,1,2,0,6,0,28.45,0.00,2.84,
10.76,120.59531557368963,106.00523892570068,-4.0,0.0,0.0,1,4,1,2,0,6,0,28.55,0.00,2.84,
10.774,120.65353155736895,105.91052389257007,-3.0,0.0,0.0,1,4,1,2,0,6,0,28.74,0.00,2.75,
10.788,120.68635315573688,105.919052389257,-3.0,0.0,0.0,1,4,1,2,0,6,0,28.84,0.00,2.65,
10.802,120.60863531557368,105.85690523892569,-3.0,0.0,0.0,1,4,1,2,0,6,0,29.04,0.00,2.75,
10.816,120.63686353155737,105.92269052389257,-4.0,0.0,0.0,1,4,1,2,0,6,0,29.14,0.00,2.75,
10.83,120.62168635315574,105.94726905238926,-3.0,0.0,0.0,1,4,1,2,0,6,0,29.14,0.00,2.75,
10.844,120.66516863531558,105.93172690523893,-3.0,0.0,0.0,1,4,1,2,0,6,0,29.23,0.00,2.75,
10.858,120.67851686353157,105.88517269052389,-3.0,0.0,0.0,1,4,1,2,0,6,0,29.43,0.00,2.75,
10.872,120.62585168635316,105.80851726905239,-3.0,0.0,0.0,1,4,1,2,0,6,0,29.53,0.29,2.75,
10.887,120.6295851686353,105.73785172690525,-3.0,1.0,0.0,1,4,1,2,0,6,0,29.72,0.00,2.75,
10.9,120.63895851686354,105.68578517269053,-3.0,1.0,0.0,1,4,1,2,0,6,0,29.82,0.00,2.75,
10.914,120.73889585168635,105.72557851726906,-3.0,1.0,0.0,1,4,1,2,0,6,0,30.12,0.00,2.75,
10.929,120.74888958516863,105.6935578517269,-3.0,1.0,0.0,1,4,1,2,0,6,0,30.31,0.00,2.65,
10.943,120.79488895851686,105.66335578517268,-2.0,1.0,0.0,1,4,1,2,0,6,0,30.41,0.00,2.75,
10.956,120.79948889585168,105.64233557851728,-2.0,1.0,0.0,1,4,1,2,0,6,0,30.71,0.00,2.65,
10.971,120.88094888958517,105.63123355785171,-2.0,1.0,0.0,1,4,1,2,0,5,0,31.29,0.00,2.75,
10.984,120.93409488895851,105.63012335578516,-2.0,1.0,0.0,1,4,1,2,0,5,0,31.59,0.00,2.65,
10.998,120.93940948889585,105.55801233557852,-3.0,1.0,0.0,1,4,1,2,0,5,0,31.69,0.00,2.75,
11.013,121.00294094888959,105.53280123355785,-3.0,1.0,0.0,1,4,1,2,0,5,0,31.98,0.39,2.65,
11.026,121.07229409488895,105.53028012335578,-3.0,1.0,0.0,1,4,1,2,0,5,0,32.47,0.00,2.75,
11.04,121.07922940948889,105.53002801233558,-2.0,1.0,0.0,1,4,1,2,0,5,0,32.86,0.00,2.75,
11.055,121.19692294094888,105.54800280123357,-3.0,1.0,0.0,1,4,1,2,0,5,0,32.96,0.00,2.65,
11.068,121.21769229409489,105.53180028012336,-3.0,1.0,0.0,1,4,1,2,0,5,0,33.26,0.00,2.65,
11.082,121.21076922940948,105.49418002801234,-3.0,1.0,0.0,1,4,1,2,0,5,0,33.55,0.00,2.65,
11.096,121.27307692294094,105.44541800280123,-2.0,1.0,0.0,1,4,1,2,0,5,0,34.04,0.00,2.65,
11.11,121.3243076922941,105.45854180028012,-2.0,0.0,0.0,1,4,1,2,0,5,0,34.14,0.00,2.65,
11.124,121.3654307692294,105.423854180028,-2.0,0.0,0.0,1,4,1,2,0,5,0,34.24,0.00,2.65,
11.138,121.40554307692294,105.3933854180028,-2.0,0.0,0.0,1,4,1,2,0,5,0,34.24,0.00,2.65,
11.152,121.40055430769229,105.42633854180029,-2.0,0.0,0.0,1,4,1,2,0,5,0,34.24,0.00,2.75,
11.166,121.44505543076923,105.42963385418004,-2.0,0.0,0.0,1,4,1,2,0,5,0,34.24,0.00,2.75,
11.18,121.40450554307692,105.40296338541802,-2.0,0.0,0.0,1,4,1,2,0,5,0,34.34,0.00,2.65,
11.194,121.3734505543077,105.4092963385418,-2.0,0.0,0.0,1,4,1,2,0,5,0,34.43,0.00,2.55,
11.207,121.46934505543078,105.44592963385418,-2.0,0.0,0.0,1,4,1,2,0,5,0,34.63,0.00,2.55,
11.222,121.41593450554308,105.44959296338541,-2.0,0.0,0.0,1,4,1,2,0,5,0,34.53,0.00,2.55,
11.236,121.41059345055432,105.44095929633853,-2.0,0.0,0.0,1,4,1,2,0,5,0,34.53,0.00,2.55,
11.249,121.43705934505543,105.44009592963386,-2.0,0.0,0.0,1,4,1,2,0,5,0,34.73,0.00,2.65,
11.264,121.48470593450554,105.32300959296339,-2.0,1.0,0.0,1,4,1,2,0,5,0,34.92,0.00,2.65,
11.277,121.48947059345055,105.26630095929634,-2.0,0.0,0.0,1,4,1,2,0,5,0,35.22,0.00,2.55,
11.291,121.52594705934506,105.17963009592964,-2.0,0.0,0.0,1,4,1,2,0,5,0,35.32,0.00,2.45,
