time,pitch,roll,gyrx,gyry,gyrz,f1,f2,f3,f4,f5,f6,f7,g1,g2,g3
0.419,72.25,93.61,-5.09,0.45,-1.18,0.0,0.0,0.0,1.0,0.0,0.0,0.0,0.0,0.0,0.39,
0.443,80.422,103.87,-5.47,-2.83,3.23,0.0,0.0,0.0,1.0,0.0,0.0,0.0,0.0,0.0,0.39,
0.466,87.6652,113.527,-2.4,-0.23,3.07,0.0,0.0,0.0,1.0,0.0,0.0,0.0,0.0,0.0,0.49,
0.49,93.65451999999999,121.5577,-2.09,-1.85,1.6,0.0,0.0,0.0,1.0,0.0,0.0,0.0,0.1,0.0,0.39,
0.514,99.10445199999998,128.46276999999998,-5.0,-6.24,3.11,0.0,0.0,0.0,1.0,0.0,0.0,0.0,0.0,0.0,0.29,
0.537,103.2134452,134.544277,-5.27,-1.87,0.73,0.0,0.0,0.0,1.0,0.0,0.0,0.0,0.0,0.0,0.39,
0.561,106.89134451999999,139.68842769999998,-1.57,6.02,-4.71,0.0,0.0,0.0,1.0,0.0,0.0,0.0,0.0,0.0,0.59,
0.584,110.79613445199999,143.84784277,-4.27,3.52,-6.16,0.0,0.0,0.0,1.0,0.0,0.0,0.0,0.0,0.0,0.59,
0.609,113.9586134452,147.476784277,-6.97,-5.26,0.63,0.0,0.0,0.0,1.0,0.0,0.0,0.0,0.0,0.0,0.49,
0.632,115.85886134452,150.71967842770002,-4.63,-3.77,1.73,0.0,0.0,0.0,1.0,0.0,0.0,0.0,0.0,0.0,0.39,
0.656,118.406886134452,153.66296784277,0.66,-2.35,6.27,0.0,0.0,0.0,1.0,0.0,0.0,0.0,0.0,0.0,0.49,
0.679,120.4166886134452,155.721296784277,-0.94,-3.53,2.72,0.0,0.0,0.0,1.0,0.0,0.0,0.0,0.0,0.0,0.49,
0.703,121.23866886134452,157.3941296784277,-4.25,-4.58,2.7,0.0,0.0,0.0,1.0,0.0,0.0,0.0,0.0,0.0,0.39,
0.727,121.14086688613445,158.94741296784275,-4.89,3.6,-2.56,0.0,0.0,0.0,1.0,0.0,0.0,0.0,0.0,0.0,0.49,
0.75,122.34608668861344,160.37174129678428,-2.63,9.92,-5.39,0.0,0.0,0.0,1.0,0.0,0.0,0.0,0.0,0.0,0.59,
0.775,124.38360866886134,161.5941741296784,-3.13,2.35,-0.59,0.0,0.0,0.0,1.0,0.0,0.0,0.0,0.0,0.0,0.49,
0.798,126.86436086688613,162.91341741296785,-5.17,-4.98,3.8,0.0,0.0,0.0,1.0,0.0,0.0,0.0,0.0,0.0,0.39,
0.822,126.86043608668862,163.7473417412968,-5.03,-6.92,5.29,0.0,0.0,0.0,1.0,0.0,0.0,0.0,0.0,0.0,0.49,
0.845,126.75204360866886,164.32573417412968,-4.02,-0.94,-1.12,0.0,0.0,0.0,1.0,0.0,0.0,0.0,0.0,0.0,0.59,
0.869,126.80420436086689,164.76157341741296,-4.16,-1.69,-1.86,0.0,0.0,0.0,1.0,0.0,0.0,0.0,0.0,0.0,0.69,
0.893,127.1874204360867,165.3001573417413,-4.24,-3.25,0.85,0.0,0.0,0.0,1.0,0.0,0.0,0.0,0.0,0.0,0.69,
0.917,126.64974204360868,165.66901573417414,-3.16,-0.37,0.59,0.0,0.0,0.0,1.0,0.0,0.0,0.0,0.1,0.0,0.59,
0.941,127.11797420436086,166.01190157341745,-0.7,-0.12,0.24,0.0,0.0,0.0,1.0,0.0,0.0,0.0,0.0,0.0,0.69,
0.964,127.60579742043609,166.28019015734174,-1.57,-4.4,2.79,0.0,0.0,0.0,1.0,0.0,0.0,0.0,0.0,0.0,0.69,
0.988,127.4655797420436,166.4960190157342,-4.01,-3.28,2.44,0.0,0.0,0.0,1.0,0.0,0.0,0.0,0.0,0.0,0.69,
1.011,127.48755797420435,166.83260190157344,-3.04,0.94,0.47,0.0,0.0,0.0,1.0,0.0,0.0,0.0,0.0,0.0,0.69,
1.035,127.75075579742044,166.98326019015735,-1.54,2.31,-2.21,0.0,0.0,0.0,1.0,0.0,0.0,0.0,0.1,0.0,0.69,
1.059,128.65907557974205,167.11532601901573,-3.35,-3.28,0.71,0.0,0.0,0.0,1.0,0.0,0.0,0.0,0.0,0.0,0.69,
1.083,129.1369075579742,167.3445326019016,-4.62,-4.39,1.54,0.0,0.0,0.0,1.0,0.0,0.0,0.0,0.1,0.0,0.69,
1.106,128.77069075579743,167.61045326019016,-3.23,-2.56,1.14,0.0,0.0,0.0,1.0,0.0,0.0,0.0,0.1,0.0,0.69,
1.13,128.59006907557972,167.583045326019,-2.75,-0.23,-0.08,0.0,0.0,0.0,1.0,0.0,0.0,0.0,0.0,0.0,0.59,
1.154,129.09400690755797,167.51730453260188,-5.71,-2.9,-0.56,0.0,0.0,0.0,1.0,0.0,0.0,0.0,0.1,0.0,0.78,
1.178,128.9554006907558,167.6097304532602,-5.65,-2.76,-0.38,0.0,0.0,0.0,1.0,0.0,0.0,0.0,0.0,0.0,0.69,
1.202,128.95054006907557,167.771973045326,-3.34,-0.73,0.2,0.0,0.0,0.0,1.0,0.0,0.0,0.0,0.0,0.0,0.69,
1.225,129.37305400690755,167.8061973045326,-2.15,-2.44,1.89,0.0,0.0,0.0,1.0,0.0,0.0,0.0,0.0,0.0,0.69,
1.249,129.25330540069078,167.71061973045326,-3.56,-4.79,2.65,0.0,0.0,0.0,1.0,0.0,0.0,0.0,0.0,0.0,0.78,
1.272,128.80033054006907,167.80006197304533,-4.26,-2.73,0.72,0.0,0.0,0.0,1.0,0.0,0.0,0.0,0.1,0.0,0.78,
1.297,128.6020330540069,167.87200619730453,-2.97,1.58,-0.75,0.0,0.0,0.0,1.0,0.0,0.0,0.0,0.0,0.0,0.78,
1.32,129.1042033054007,167.82520061973045,-2.47,2.07,-3.5,0.0,0.0,0.0,1.0,0.0,0.0,0.0,0.0,0.0,0.78,
1.344,129.19042033054006,167.82952006197306,-3.98,-4.24,1.37,0.0,0.0,0.0,1.0,0.0,0.0,0.0,0.0,0.0,0.78,
1.368,128.73104203305402,167.7939520061973,-4.02,1.19,-1.3,0.0,0.0,0.0,1.0,0.0,0.0,0.0,0.0,0.0,0.78,
1.391,129.0541042033054,167.97039520061972,-2.11,-3.27,4.0,0.0,0.0,0.0,1.0,0.0,0.0,0.0,0.0,0.0,0.78,
1.415,128.59141042033053,167.85303952006197,-1.44,-0.65,1.4,0.0,0.0,0.0,1.0,0.0,0.0,0.0,0.0,0.0,0.69,
1.439,128.59014104203305,167.7333039520062,-3.44,1.26,-2.35,0.0,0.0,0.0,1.0,0.0,0.0,0.0,0.0,0.0,0.69,
1.463,129.31901410420332,167.87433039520062,-5.03,-0.01,-0.61,0.0,0.0,0.0,1.0,0.0,0.0,0.0,0.0,0.0,0.78,
1.486,129.73390141042034,167.99643303952007,-3.87,-0.95,0.23,0.0,0.0,0.0,1.0,0.0,0.0,0.0,0.0,0.0,0.69,
1.51,129.67639014104202,168.080643303952,-1.63,-3.42,2.84,0.0,0.0,0.0,1.0,0.0,0.0,0.0,0.0,0.0,0.88,
1.533,129.6166390141042,167.92706433039518,-3.21,-3.95,1.16,0.0,0.0,0.0,1.0,0.0,0.0,0.0,0.0,0.0,0.88,
1.557,129.99766390141042,167.95670643303953,-4.21,-6.38,2.72,0.0,0.0,0.0,1.0,0.0,0.0,0.0,0.1,0.0,0.98,
1.582,129.29776639014105,167.88767064330398,-3.87,-0.84,-1.7,0.0,0.0,0.0,1.0,0.0,0.0,0.0,0.0,0.0,0.78,
1.605,128.6967766390141,167.69176706433038,-4.63,2.69,-3.44,0.0,0.0,0.0,1.0,0.0,0.0,0.0,0.0,0.0,0.78,
1.629,129.26667766390142,167.70817670643305,-6.66,-1.36,-0.79,0.0,0.0,0.0,1.0,0.0,0.0,0.0,0.0,0.0,0.78,
1.652,129.82766776639014,167.7998176706433,-4.64,-4.53,3.87,0.0,0.0,0.0,1.0,0.0,0.0,0.0,0.0,0.0,0.88,
1.676,129.70376677663901,167.84498176706433,-3.6,-4.92,3.78,0.0,0.0,0.0,1.0,0.0,0.0,0.0,0.0,0.0,0.98,
1.7,128.5663766776639,167.45349817670643,-4.98,-0.83,1.3,0.0,0.0,0.0,1.0,0.0,0.0,0.0,0.1,0.0,0.78,
1.724,128.16463766776639,167.16234981767064,-9.44,1.31,-4.0,0.0,0.0,0.0,1.0,0.0,0.0,0.0,0.0,0.0,0.78,
1.747,128.06146376677665,167.00723498176708,-12.41,0.68,-3.46,0.0,0.0,0.0,1.0,0.0,0.0,0.0,0.1,0.0,0.88,
1.771,128.20414637667767,166.8747234981767,-11.92,2.23,-4.63,0.0,0.0,0.0,1.0,0.0,0.0,0.0,0.1,0.0,0.88,
1.795,128.60541463766776,166.53747234981768,-12.74,-1.6,-0.31,0.0,0.0,0.0,1.0,0.0,0.0,0.0,0.1,0.0,0.98,
1.819,128.48354146376678,166.01774723498175,-18.26,-7.83,7.38,0.0,0.0,0.0,1.0,0.0,0.0,0.0,0.1,0.0,0.88,
1.843,127.80535414637669,165.25477472349817,-24.99,-8.85,11.79,0.0,0.0,0.0,1.0,0.0,0.0,0.0,0.1,0.0,0.78,
1.866,126.82853541463767,164.6114774723498,-30.29,-6.25,12.8,0.0,0.0,0.0,1.0,0.0,0.0,0.0,0.2,0.0,0.98,
1.891,126.01985354146376,163.56614774723496,-35.39,-1.04,9.21,0.0,0.0,0.0,1.0,0.0,0.0,0.0,0.1,0.0,1.08,
1.914,125.44398535414638,161.7786147747235,-39.89,-3.51,14.13,0.0,0.0,0.0,1.0,0.0,0.0,0.0,0.0,0.0,1.18,
1.938,124.71139853541463,159.55686147747235,-46.15,-2.93,21.37,0.0,0.0,0.0,1.0,0.0,0.0,0.0,0.0,0.0,1.08,
1.963,123.51313985354146,158.33568614774723,-67.34,6.96,12.85,0.0,0.0,0.0,1.0,0.0,0.0,0.0,0.0,0.0,1.08,
1.986,122.25031398535414,157.69156861477472,-64.85,-8.77,46.65,0.0,0.0,0.0,0.0,0.0,0.0,0.0,0.0,0.0,1.18,
2.01,121.74603139853541,156.90715686147746,-59.9,-4.8,33.07,0.0,0.0,0.0,0.0,0.0,0.0,0.0,0.0,0.0,1.28,
2.033,121.20060313985354,156.36971568614774,-58.63,0.5,31.82,0.0,0.0,0.0,0.0,0.0,0.0,0.0,0.0,0.0,0.49,
2.058,120.76806031398534,155.84797156861475,-54.45,-2.61,39.4,0.0,0.0,0.0,0.0,0.0,0.0,0.0,0.0,0.0,0.49,
2.081,120.29280603139853,155.22879715686148,-54.02,-3.95,40.37,0.0,0.0,0.0,0.0,0.0,0.0,0.0,0.0,0.0,0.39,
2.105,123.78228060313985,155.85087971568615,-47.97,-13.34,20.09,0.0,0.0,0.0,0.0,0.0,0.0,0.0,0.0,0.0,0.59,
2.129,125.86822806031398,156.0480879715686,-63.08,-23.44,47.84,0.0,0.0,0.0,0.0,0.0,0.0,0.0,0.0,0.0,0.69,
2.153,123.6018228060314,155.43780879715686,-63.79,1.12,26.45,0.0,0.0,0.0,0.0,0.0,0.0,0.0,0.0,0.0,0.49,
2.177,121.49418228060314,153.39678087971566,-62.07,20.95,7.51,0.0,0.0,0.0,0.0,0.0,0.0,0.0,0.0,0.0,0.59,
2.201,120.75241822806032,150.87967808797157,-61.16,35.18,11.25,0.0,0.0,0.0,0.0,0.0,0.0,0.0,0.0,0.0,0.59,
2.225,120.54324182280604,149.33196780879715,-59.43,13.46,1.11,0.0,0.0,0.0,0.0,0.0,0.0,0.0,0.0,0.0,0.59,
2.248,119.9643241822806,148.00719678087972,-56.11,7.37,3.02,0.0,0.0,0.0,0.0,0.0,0.0,0.0,0.0,0.0,0.59,
2.272,119.06043241822805,146.86671967808797,-55.09,7.55,9.7,0.0,0.0,0.0,0.0,0.0,0.0,0.0,0.0,0.0,0.59,
2.295,118.8440432418228,146.1406719678088,-50.92,3.02,0.65,0.0,0.0,0.0,0.0,0.0,0.0,0.0,0.0,0.0,0.59,
2.32,119.06540432418228,145.11406719678087,-41.44,3.22,2.81,0.0,0.0,0.0,0.0,0.0,0.0,0.0,0.0,0.0,0.69,
2.343,119.99654043241823,144.3814067196781,-35.59,-3.46,-0.4,0.0,0.0,0.0,0.0,0.0,0.0,0.0,0.0,0.0,0.49,
2.367,120.70165404324182,144.0651406719678,-31.2,7.76,5.53,0.0,0.0,0.0,0.0,0.0,0.0,0.0,0.0,0.0,0.59,
2.391,120.79916540432419,143.1785140671968,-32.41,3.05,18.89,0.0,0.0,0.0,0.0,0.0,0.0,0.0,0.0,0.0,0.69,
2.414,120.43091654043242,141.63185140671968,-39.02,-6.98,18.2,0.0,0.0,0.0,0.0,0.0,0.0,0.0,0.0,0.0,0.78,
2.439,120.42109165404324,139.87518514067196,-40.78,-3.76,11.42,0.0,0.0,0.0,0.0,0.0,0.0,0.0,0.0,0.0,0.59,
2.462,120.49210916540433,138.4125185140672,-43.39,0.79,18.31,0.0,0.0,0.0,0.0,0.0,0.0,0.0,0.0,0.0,0.49,
2.486,120.35521091654044,137.1772518514067,-47.88,16.24,15.81,0.0,0.0,0.0,0.0,0.0,0.0,0.0,0.0,1.96,0.69,
2.51,120.25152109165404,136.18972518514067,-50.9,9.27,18.8,0.0,0.0,0.0,0.0,0.0,0.0,0.0,0.0,1.28,0.78,
2.534,118.98115210916541,135.24497251851406,-43.68,7.15,39.37,0.0,0.0,0.0,0.0,0.0,0.0,0.0,0.0,1.37,0.69,
2.557,118.40411521091654,133.6294972518514,-45.87,7.58,21.11,0.0,0.0,0.0,0.0,0.0,0.0,0.0,0.0,1.47,0.88,
2.581,119.42641152109167,132.77494972518514,-38.71,-54.51,-19.72,0.0,0.0,0.0,0.0,0.0,0.0,0.0,0.0,1.67,0.78,
2.606,118.73664115210916,130.44849497251852,-50.35,-3.07,0.99,0.0,0.0,0.0,0.0,0.0,0.0,0.0,0.0,2.26,0.98,
2.629,118.22666411521092,128.19084949725186,-58.89,3.82,19.05,0.0,0.0,0.0,0.0,0.0,0.0,0.0,0.0,3.43,0.88,
2.653,117.65366641152109,125.56208494972518,-62.86,2.56,13.57,0.0,0.0,0.0,0.0,0.0,0.0,0.0,0.0,3.63,0.88,
2.677,116.77736664115213,122.92320849497251,-67.53,-2.34,9.76,0.0,0.0,0.0,0.0,0.0,0.0,0.0,0.0,3.34,1.08,
2.701,115.82573666411521,120.07632084949725,-72.88,-9.0,19.38,0.0,0.0,0.0,0.0,0.0,0.0,0.0,0.0,3.14,0.88,
2.724,115.17257366641152,117.75763208494972,-79.64,-19.16,25.39,0.0,0.0,0.0,0.0,0.0,0.0,0.0,0.1,3.14,0.88,
2.749,114.68425736664115,115.45576320849497,-81.71,-14.48,35.26,0.0,0.0,0.0,0.0,0.0,0.0,0.0,0.1,3.14,1.08,
2.772,114.66242573666412,111.7155763208495,-81.98,-22.93,30.13,0.0,0.0,0.0,0.0,0.0,0.0,0.0,0.1,3.04,0.98,
2.796,114.44424257366641,108.47955763208495,-88.07,-37.44,23.11,0.0,0.0,0.0,0.0,0.0,0.0,0.0,0.0,3.04,1.08,
2.821,113.95442425736664,105.04195576320849,-96.63,-28.4,19.16,0.0,0.0,0.0,0.0,0.0,0.0,0.0,0.2,2.94,0.78,
2.844,114.35544242573667,101.70119557632086,-103.66,-21.45,20.65,0.0,0.0,0.0,0.0,0.0,0.0,0.0,0.39,2.94,0.88,
2.869,115.56554424257368,98.48711955763207,-96.28,-30.97,22.92,0.0,0.0,0.0,0.0,0.0,0.0,0.0,0.39,2.94,0.88,
2.892,116.47855442425737,94.03471195576321,-87.73,-39.34,31.79,0.0,0.0,0.0,0.0,0.0,0.0,0.0,0.39,3.14,1.18,
2.916,117.04685544242574,91.68147119557632,-94.32,-26.54,35.66,0.0,0.0,0.0,0.0,0.0,0.0,0.0,0.69,3.53,0.88,
2.94,117.39168554424258,90.60914711955763,-111.56,1.63,56.18,0.0,0.0,0.0,0.0,0.0,0.0,0.0,0.88,3.73,0.59,
2.964,117.03016855442425,87.94591471195577,-114.18,0.08,47.76,0.0,0.0,0.0,0.0,0.0,0.0,0.0,0.78,3.83,0.78,
2.988,116.54401685544242,86.28459147119557,-110.91,12.43,33.8,0.0,0.0,0.0,0.0,0.0,0.0,0.0,0.69,3.63,1.08,
3.012,115.87440168554424,86.85645914711957,-111.41,23.76,27.48,0.0,0.0,0.0,0.0,0.0,0.0,0.0,0.59,3.43,0.59,
3.036,127.53444016855444,67.08664591471197,-42.73,-102.37,71.02,0.0,0.0,0.0,1.0,0.0,0.0,0.0,0.29,3.83,0.78,
3.059,125.25344401685544,72.35466459147119,34.62,-44.94,-12.53,0.0,0.0,0.0,1.0,0.0,0.0,0.0,0.98,0.0,0.0,
3.084,122.22634440168555,81.86346645914712,53.31,-58.37,28.59,0.0,0.0,0.0,2.0,0.0,0.0,0.0,2.16,0.0,0.0,
3.107,117.11763444016854,90.8513466459147,41.47,41.55,56.43,0.0,0.0,0.0,3.0,0.0,0.0,0.0,3.14,0.0,0.0,
3.131,114.86076344401685,95.64713466459148,14.27,-8.32,-6.19,0.0,0.0,0.0,3.0,0.0,0.0,0.0,3.73,0.0,0.98,
3.154,115.55307634440167,97.84571346645916,-28.11,-18.27,36.9,0.0,0.0,0.0,3.0,0.0,0.0,0.0,3.63,0.0,1.37,
3.179,113.58830763444017,93.18757134664592,-11.85,-22.31,21.47,0.0,0.0,0.0,3.0,0.0,0.0,0.0,2.45,0.0,1.08,
3.203,112.98683076344402,91.8667571346646,1.37,11.07,-10.31,0.0,0.0,0.0,3.0,0.0,0.0,0.0,1.18,0.0,0.49,
3.226,112.35068307634441,91.73467571346646,8.08,3.86,1.71,0.0,0.0,0.0,4.0,0.0,0.0,0.0,1.47,0.0,0.49,
3.25,111.63006830763443,91.78446757134665,1.54,7.24,-4.48,0.0,0.0,0.0,4.0,0.0,0.0,0.0,1.86,0.78,0.49,
3.274,111.07200683076344,91.44744675713467,-5.67,4.41,6.34,0.0,0.0,0.0,4.0,0.0,0.0,0.0,1.96,1.57,0.49,
3.298,110.95320068307635,90.64874467571347,-2.27,0.74,1.79,0.0,0.0,0.0,4.0,0.0,0.0,0.0,1.86,1.37,0.69,
3.321,110.66232006830762,90.42487446757136,-0.08,-0.37,-1.92,0.0,0.0,0.0,4.0,0.0,0.0,0.0,1.77,1.08,0.69,
3.345,110.27323200683077,90.33048744675713,-0.74,-2.74,-0.81,0.0,0.0,0.0,4.0,0.0,0.0,0.0,1.86,1.08,0.29,
3.369,109.68532320068307,90.24004874467572,-2.87,-1.41,2.85,0.0,0.0,0.0,4.0,0.0,0.0,0.0,1.96,0.88,0.88,
3.393,109.2395323200683,90.00600487446756,-2.73,3.47,-1.91,0.0,0.0,0.0,4.0,0.0,0.0,0.0,1.96,0.49,1.08,
3.417,109.25795323200683,90.01860048744675,-0.92,4.21,-3.6,0.0,0.0,0.0,4.0,0.0,0.0,0.0,1.86,0.1,0.98,
3.44,109.01679532320067,89.84886004874467,-0.69,3.68,-2.46,0.0,0.0,0.0,4.0,0.0,0.0,0.0,1.96,0.0,0.88,
3.464,108.97467953232007,89.75088600487446,-0.85,5.24,-2.14,0.0,0.0,0.0,4.0,0.0,0.0,0.0,2.06,0.0,0.88,
3.488,109.015467953232,89.65108860048744,-1.28,2.38,-0.77,0.0,0.0,0.0,4.0,0.0,0.0,0.0,2.26,0.0,0.78,
3.512,108.9745467953232,89.52410886004876,-1.52,0.21,-0.12,0.0,0.0,0.0,4.0,0.0,0.0,0.0,2.16,0.0,0.78,
3.535,108.76345467953232,89.37641088600488,-1.39,1.07,-3.59,0.0,0.0,0.0,4.0,0.0,0.0,0.0,2.26,0.0,0.88,
3.559,108.65234546795323,89.24464108860049,-1.06,8.15,-7.35,0.0,0.0,0.0,4.0,0.0,0.0,0.0,2.35,0.0,0.78,
3.582,108.92923454679531,89.39346410886004,-1.18,7.43,-7.41,0.0,0.0,0.0,4.0,0.0,0.0,0.0,2.45,0.0,0.78,
3.606,108.82192345467953,89.381346410886,-2.61,7.14,-6.02,0.0,0.0,0.0,4.0,0.0,0.0,0.0,2.35,0.0,0.59,
3.63,109.04519234546795,89.45213464108859,-4.85,9.24,-4.96,0.0,0.0,0.0,4.0,0.0,0.0,0.0,2.45,0.0,0.59,
3.653,108.99551923454679,89.27921346410886,-6.18,11.47,-8.21,0.0,0.0,0.0,5.0,0.0,0.0,0.0,2.45,0.1,0.59,
3.678,109.34155192345467,89.25292134641089,-5.41,13.36,-8.54,0.0,0.0,0.0,5.0,0.0,0.0,0.0,2.55,0.49,0.59,
3.701,110.08715519234548,89.57429213464108,-3.47,4.16,-1.68,0.0,0.0,0.0,5.0,0.0,0.0,0.0,2.55,0.78,0.78,
3.725,110.15271551923455,89.39042921346412,-4.0,4.79,-4.11,0.0,0.0,0.0,5.0,0.0,0.0,0.0,2.45,0.98,0.78,
3.748,110.36627155192345,89.43504292134641,-3.93,2.94,-4.57,0.0,0.0,0.0,5.0,0.0,0.0,0.0,2.55,0.98,0.59,
3.772,110.50462715519234,89.48450429213463,-4.42,3.25,-3.42,0.0,0.0,0.0,5.0,0.0,0.0,0.0,2.65,0.98,0.69,
3.795,110.27546271551924,89.48045042921348,-7.92,7.89,-4.27,0.0,0.0,0.0,5.0,0.0,0.0,0.0,2.55,1.08,0.59,
3.819,110.77454627155193,89.67804504292135,-10.53,10.79,-6.0,0.0,0.0,0.0,5.0,0.0,0.0,0.0,2.65,1.77,0.59,
3.844,111.21145462715519,89.58980450429213,-11.08,7.42,-1.6,0.0,0.0,0.0,5.0,0.0,0.0,0.0,2.75,2.84,0.78,
3.867,111.03914546271551,89.65298045042921,-9.89,8.46,-2.23,0.0,0.0,0.0,5.0,0.0,0.0,0.0,2.75,3.73,0.78,
3.891,111.28291454627156,89.56929804504291,-7.23,7.27,-3.77,0.0,0.0,0.0,5.0,0.0,0.0,0.0,2.75,4.12,0.88,
3.914,111.48729145462715,89.41692980450429,-6.86,1.86,0.32,0.0,0.0,0.0,5.0,0.0,0.0,0.0,2.75,4.61,0.88,
3.938,111.90372914546272,89.62669298045043,-4.91,3.48,2.14,0.0,0.0,0.0,5.0,0.0,0.0,0.0,2.84,4.81,0.78,
3.961,111.64837291454629,89.43166929804504,-7.11,2.85,1.22,0.0,0.0,0.0,5.0,0.0,0.0,0.0,2.84,5.0,0.59,
3.985,112.02783729145463,89.1871669298045,-14.38,-0.81,2.77,0.0,0.0,0.0,5.0,0.0,0.0,0.0,2.75,5.3,0.69,
4.008,111.85878372914547,88.45171669298045,-11.11,6.4,-6.66,0.0,0.0,0.0,5.0,0.0,0.0,0.0,2.75,6.18,0.69,
4.032,111.77887837291455,88.11717166929805,-12.92,1.24,-7.11,0.0,0.0,0.0,5.0,0.0,0.0,0.0,2.84,7.06,0.29,
4.056,111.91488783729146,87.85871716692981,-13.63,0.14,-13.08,0.0,0.0,0.0,5.0,0.0,0.0,0.0,2.65,7.55,0.29,
4.08,112.02748878372915,87.73387171669299,-12.28,-2.27,-14.1,0.0,0.0,0.0,5.0,0.0,0.0,0.0,2.75,7.75,0.29,
4.104,112.57874887837292,87.9373871716693,-9.66,-0.92,-9.24,0.0,0.0,0.0,5.0,0.0,0.0,0.0,2.65,7.75,0.59,
4.127,113.55187488783729,88.56973871716693,-3.76,-0.1,-2.97,0.0,0.0,0.0,5.0,0.0,0.0,0.0,2.65,7.75,0.69,
4.151,113.59518748878372,88.38097387171669,0.47,-12.2,5.6,0.0,0.0,0.0,5.0,0.0,0.0,0.0,2.65,7.46,0.78,
4.175,112.94251874887838,88.28109738717167,-0.6,-8.76,5.0,0.0,0.0,0.0,5.0,0.0,0.0,0.0,2.55,7.06,0.78,
4.199,112.74225187488784,88.29810973871716,1.1,-8.18,4.37,0.0,0.0,0.0,5.0,0.0,0.0,0.0,2.65,6.67,0.78,
4.222,112.74022518748878,88.28181097387171,-0.9,-12.07,6.63,0.0,0.0,0.0,5.0,0.0,0.0,0.0,2.65,5.98,0.98,
4.246,112.61402251874888,88.14518109738717,2.28,-14.79,8.72,0.0,0.0,0.0,5.0,0.0,0.0,0.0,2.55,5.1,1.08,
4.27,112.4214022518749,87.87051810973873,5.27,-13.51,4.21,0.0,0.0,0.0,5.0,0.0,0.0,0.0,2.55,4.12,0.98,
4.293,111.86214022518749,87.81605181097387,6.81,-12.23,3.48,0.0,0.0,0.0,5.0,0.0,0.0,0.0,2.35,3.14,0.98,
4.317,111.69821402251875,88.1346051810974,5.43,-5.55,-4.18,0.0,0.0,0.0,5.0,0.0,0.0,0.0,2.55,2.35,0.98,
4.34,111.46582140225188,88.05846051810974,3.36,-5.27,-1.73,0.0,0.0,0.0,5.0,0.0,0.0,0.0,2.45,1.57,0.78,
4.365,111.52358214022519,88.41084605181098,2.26,-6.32,-0.34,0.0,0.0,0.0,5.0,0.0,0.0,0.0,2.35,0.98,0.88,
4.388,111.32235821402251,88.3110846051811,0.31,-5.52,-3.62,0.0,0.0,0.0,4.0,0.0,0.0,0.0,2.26,0.39,0.98,
4.412,111.16723582140226,88.5261084605181,1.11,-3.17,-3.31,0.0,0.0,0.0,4.0,0.0,0.0,0.0,2.16,0.0,0.98,
4.435,111.08872358214022,88.52961084605181,0.17,-6.11,-0.81,0.0,0.0,0.0,4.0,0.0,0.0,0.0,2.16,0.0,0.98,
4.459,110.90087235821402,88.52096108460518,-0.12,-4.51,-0.59,0.0,0.0,0.0,4.0,0.0,0.0,0.0,2.06,0.0,0.88,
4.483,110.7830872358214,88.5200961084605,-0.41,-4.2,-2.01,0.0,0.0,0.0,4.0,0.0,0.0,0.0,1.96,0.0,0.88,
4.506,110.60030872358215,88.57400961084605,-0.79,-3.39,-0.15,0.0,0.0,0.0,4.0,0.0,0.0,0.0,1.96,0.0,0.78,
4.53,110.52803087235822,88.6964009610846,-1.3,-2.46,-0.68,0.0,0.0,0.0,4.0,0.0,0.0,0.0,1.86,0.0,0.88,
4.553,110.36780308723581,88.76264009610846,-1.62,-2.91,0.67,0.0,0.0,0.0,4.0,0.0,0.0,0.0,1.86,0.0,0.88,
4.578,110.24378030872359,88.83226400961084,-1.91,-2.28,0.04,0.0,0.0,0.0,4.0,0.0,0.0,0.0,1.86,0.0,0.78,
4.601,110.18637803087236,88.92922640096108,-2.08,-1.97,0.04,0.0,0.0,0.0,4.0,0.0,0.0,0.0,1.86,0.0,0.88,
4.625,110.18063780308724,89.00192264009611,-2.26,-1.34,-0.11,0.0,0.0,0.0,4.0,0.0,0.0,0.0,1.86,0.0,0.88,
4.648,110.18906378030873,89.0991922640096,-2.5,-1.47,0.18,0.0,0.0,0.0,4.0,0.0,0.0,0.0,1.77,0.0,0.78,
4.672,110.24390637803089,89.17191922640097,-3.01,-1.39,0.13,0.0,0.0,0.0,4.0,0.0,0.0,0.0,1.77,0.0,0.98,
4.696,110.17739063780309,89.2241919226401,-3.05,-1.45,0.27,0.0,0.0,0.0,4.0,0.0,0.0,0.0,1.67,0.0,0.78,
4.719,110.16173906378032,89.265419192264,-3.05,-1.15,0.14,0.0,0.0,0.0,4.0,0.0,0.0,0.0,1.77,0.0,0.69,
4.743,110.15117390637803,89.2965419192264,-3.17,-1.3,-0.02,0.0,0.0,0.0,4.0,0.0,0.0,0.0,1.77,0.0,0.78,
4.766,110.1321173906378,89.31765419192263,-3.11,-1.18,0.14,0.0,0.0,0.0,4.0,0.0,0.0,0.0,1.77,0.0,0.69,
4.79,110.17521173906378,89.31076541919226,-3.29,-1.24,0.35,0.0,0.0,0.0,4.0,0.0,0.0,0.0,1.77,0.0,0.78,
4.814,110.17052117390638,89.38207654191923,-3.34,-1.52,0.85,0.0,0.0,0.0,4.0,0.0,0.0,0.0,1.77,0.0,0.98,
4.838,110.18805211739064,89.40720765419192,-3.35,-1.05,0.34,0.0,0.0,0.0,4.0,0.0,0.0,0.0,1.77,0.0,0.78,
4.861,110.16280521173907,89.4187207654192,-3.48,-1.37,0.35,0.0,0.0,0.0,4.0,0.0,0.0,0.0,1.77,0.0,0.78,
4.885,110.2052805211739,89.44687207654192,-3.31,-1.66,0.76,0.0,0.0,0.0,4.0,0.0,0.0,0.0,1.86,0.0,0.2,
4.909,110.20052805211739,89.4226872076542,-3.26,-1.3,0.53,0.0,0.0,0.0,4.0,0.0,0.0,0.0,1.86,0.0,0.2,
4.932,110.20005280521174,89.36626872076542,-3.56,-1.4,0.34,0.0,0.0,0.0,4.0,0.0,0.0,0.0,1.86,0.0,0.29,
4.956,110.16400528052118,89.34262687207655,-3.38,-1.68,0.25,0.0,0.0,0.0,4.0,0.0,0.0,0.0,1.86,0.0,0.29,
4.979,110.15140052805212,89.33126268720765,-3.22,-1.61,0.54,0.0,0.0,0.0,4.0,0.0,0.0,0.0,1.96,0.0,0.29,
5.003,110.12314005280521,89.34812626872076,-3.26,-1.43,0.25,0.0,0.0,0.0,4.0,0.0,0.0,0.0,1.86,0.0,0.29,
5.026,110.12031400528052,89.35881262687208,-3.22,-1.23,0.27,0.0,0.0,0.0,4.0,0.0,0.0,0.0,1.96,0.0,347.76,
5.051,110.12903140052805,89.39588126268721,-3.07,-1.31,-0.05,0.0,0.0,0.0,4.0,0.0,0.0,0.0,1.86,0.0,0.29,
5.074,110.1209031400528,89.39058812626872,-3.23,-0.98,-0.08,0.0,0.0,0.0,4.0,0.0,0.0,0.0,1.96,0.0,0.0,
5.098,110.11109031400528,89.39905881262688,-3.2,-1.21,0.02,0.0,0.0,0.0,4.0,0.0,0.0,0.0,1.96,0.0,0.2,
5.122,110.11910903140053,89.4269058812627,-3.05,-0.95,-0.15,0.0,0.0,0.0,4.0,0.0,0.0,0.0,1.96,0.0,0.39,
5.145,110.10191090314005,89.36669058812627,-3.01,-1.3,-0.19,0.0,0.0,0.0,4.0,0.0,0.0,0.0,1.96,0.0,0.39,
5.169,110.073191090314,89.31566905881263,-3.13,-1.34,-0.13,0.0,0.0,0.0,4.0,0.0,0.0,0.0,1.96,0.0,0.39,
5.192,110.0793191090314,89.36456690588128,-2.99,-1.4,0.08,0.0,0.0,0.0,4.0,0.0,0.0,0.0,1.96,0.0,0.39,
5.217,110.08893191090314,89.38745669058814,-3.08,-1.24,-0.06,0.0,0.0,0.0,4.0,0.0,0.0,0.0,1.86,0.0,0.39,
5.24,110.10789319109031,89.36274566905882,-3.16,-1.54,0.1,0.0,0.0,0.0,4.0,0.0,0.0,0.0,1.86,0.0,0.39,
5.264,110.10978931910903,89.36927456690589,-3.04,-0.9,-0.19,0.0,0.0,0.0,4.0,0.0,0.0,0.0,2.06,0.0,0.49,
5.287,110.1189789319109,89.37892745669058,-3.14,-1.48,-0.02,0.0,0.0,0.0,4.0,0.0,0.0,0.0,2.06,0.0,0.39,
5.311,110.1018978931911,89.36189274566907,-3.21,-1.11,-0.03,0.0,0.0,0.0,4.0,0.0,0.0,0.0,1.96,0.0,0.49,
5.335,110.0821897893191,89.35118927456689,-3.12,-1.17,-0.17,0.0,0.0,0.0,4.0,0.0,0.0,0.0,1.96,0.0,0.59,
5.358,110.07121897893191,89.29611892745669,-3.04,-1.44,-0.05,0.0,0.0,0.0,4.0,0.0,0.0,0.0,1.96,0.0,0.49,
5.383,110.15112189789319,89.31761189274566,-3.1,-1.11,-0.36,0.0,0.0,0.0,4.0,0.0,0.0,0.0,1.96,0.0,0.49,
5.406,110.18611218978933,89.28376118927457,-3.31,-1.42,0.04,0.0,0.0,0.0,4.0,0.0,0.0,0.0,1.96,0.0,0.59,
5.43,110.22561121897894,89.29837611892746,-2.95,-1.21,-0.21,0.0,0.0,0.0,4.0,0.0,0.0,0.0,2.06,0.0,0.69,
5.453,110.1845611218979,89.24583761189274,-3.07,-1.4,0.07,0.0,0.0,0.0,4.0,0.0,0.0,0.0,2.06,0.0,0.49,
5.477,110.15345611218979,89.22258376118927,-3.31,-1.37,-0.31,0.0,0.0,0.0,4.0,0.0,0.0,0.0,1.96,0.0,0.49,
5.5,110.19534561121898,89.28325837611894,-3.03,-1.14,0.03,0.0,0.0,0.0,4.0,0.0,0.0,0.0,2.06,0.0,0.49,
5.524,110.2355345611219,89.2623258376119,-3.15,-2.1,0.14,0.0,0.0,0.0,4.0,0.0,0.0,0.0,1.96,0.0,0.49,
5.549,110.21255345611218,89.2242325837612,-3.06,-1.05,-0.3,0.0,0.0,0.0,4.0,0.0,0.0,0.0,1.96,0.0,0.69,
5.572,110.17425534561121,89.24742325837612,-2.96,-1.25,-0.04,0.0,0.0,0.0,4.0,0.0,0.0,0.0,1.96,0.0,0.49,
5.596,110.16142553456112,89.24974232583762,-3.03,-1.35,0.41,0.0,0.0,0.0,4.0,0.0,0.0,0.0,1.96,0.0,0.59,
5.619,110.14214255345611,89.25897423258377,-2.86,-1.76,0.71,0.0,0.0,0.0,4.0,0.0,0.0,0.0,2.06,0.0,0.59,
5.643,110.13121425534561,89.27789742325838,-3.09,-1.12,0.07,0.0,0.0,0.0,4.0,0.0,0.0,0.0,1.96,0.0,0.49,
5.666,110.14812142553457,89.33378974232585,-2.96,-1.4,0.14,0.0,0.0,0.0,4.0,0.0,0.0,0.0,2.06,0.0,0.69,
5.69,110.10481214255346,89.35737897423259,-3.13,-1.68,0.21,0.0,0.0,0.0,4.0,0.0,0.0,0.0,2.06,0.0,0.59,
5.713,110.11848121425535,89.31473789742326,-2.82,-1.27,0.04,0.0,0.0,0.0,4.0,0.0,0.0,0.0,2.06,0.0,0.59,
5.737,110.11984812142553,89.31947378974232,-2.97,-1.56,0.01,0.0,0.0,0.0,4.0,0.0,0.0,0.0,2.06,0.0,0.49,
5.761,110.11098481214256,89.32894737897423,-2.9,-1.42,0.02,0.0,0.0,0.0,4.0,0.0,0.0,0.0,2.06,0.0,0.59,
5.785,110.06509848121425,89.31189473789743,-2.6,-1.18,0.11,0.0,0.0,0.0,4.0,0.0,0.0,0.0,2.06,0.0,0.59,
5.809,110.06050984812143,89.32818947378975,-2.9,-1.38,0.22,0.0,0.0,0.0,4.0,0.0,0.0,0.0,2.06,0.0,0.59,
5.832,110.09605098481214,89.33881894737898,-3.02,-1.61,0.21,0.0,0.0,0.0,4.0,0.0,0.0,0.0,2.16,0.0,0.59,
5.856,110.11760509848122,89.32188189473788,-2.89,-1.6,0.25,0.0,0.0,0.0,4.0,0.0,0.0,0.0,2.16,0.0,0.69,
5.879,110.06576050984812,89.32018818947378,-2.92,-1.23,0.07,0.0,0.0,0.0,4.0,0.0,0.0,0.0,2.06,0.0,0.69,
5.903,110.09657605098481,89.31101881894739,-3.19,-1.14,0.14,0.0,0.0,0.0,4.0,0.0,0.0,0.0,2.06,0.0,0.69,
5.926,110.10865760509849,89.35510188189474,-3.06,-1.2,0.1,0.0,0.0,0.0,4.0,0.0,0.0,0.0,2.06,0.0,0.69,
5.95,110.06486576050985,89.35951018818947,-3.05,-1.22,0.07,0.0,0.0,0.0,4.0,0.0,0.0,0.0,2.16,0.0,0.78,
5.974,110.07848657605098,89.30595101881894,-2.96,-1.53,0.31,0.0,0.0,0.0,4.0,0.0,0.0,0.0,2.16,0.0,0.69,
5.997,110.0348486576051,89.3005951018819,-3.15,-1.53,0.07,0.0,0.0,0.0,4.0,0.0,0.0,0.0,2.06,0.0,0.69,
6.021,110.06648486576051,89.33605951018819,-3.11,-1.31,-0.15,0.0,0.0,0.0,4.0,0.0,0.0,0.0,2.06,0.0,0.69,
6.045,110.06964848657606,89.27660595101882,-3.14,-1.4,-0.08,0.0,0.0,0.0,4.0,0.0,0.0,0.0,2.16,0.0,0.59,
6.069,110.0699648486576,89.26166059510189,-3.11,-1.48,-0.18,0.0,0.0,0.0,4.0,0.0,0.0,0.0,2.16,0.0,0.69,
6.092,110.08799648486576,89.2961660595102,-3.04,-1.23,0.14,0.0,0.0,0.0,4.0,0.0,0.0,0.0,2.06,0.0,0.59,
6.116,110.08979964848658,89.30861660595102,-3.06,-1.31,-0.01,0.0,0.0,0.0,4.0,0.0,0.0,0.0,2.06,0.0,0.78,
6.139,110.09897996484865,89.31886166059509,-3.08,-1.28,0.08,0.0,0.0,0.0,4.0,0.0,0.0,0.0,2.26,0.0,0.69,
6.163,110.09089799648487,89.33788616605952,-3.12,-1.02,0.06,0.0,0.0,0.0,4.0,0.0,0.0,0.0,2.06,0.0,0.78,
6.187,110.03608979964848,89.33978861660596,-2.98,-1.25,0.06,0.0,0.0,0.0,4.0,0.0,0.0,0.0,2.16,0.0,0.78,
6.211,110.03060897996485,89.3579788616606,-3.19,-1.52,0.08,0.0,0.0,0.0,4.0,0.0,0.0,0.0,2.16,0.0,0.78,
6.235,110.04806089799648,89.38679788616606,-3.17,-1.11,-0.04,0.0,0.0,0.0,4.0,0.0,0.0,0.0,2.06,0.0,0.78,
6.258,110.04080608979964,89.3356797886166,-3.18,-1.42,-0.15,0.0,0.0,0.0,4.0,0.0,0.0,0.0,2.06,0.0,0.69,
6.282,110.02208060897996,89.34856797886165,-3.11,-1.47,0.06,0.0,0.0,0.0,4.0,0.0,0.0,0.0,2.16,0.0,0.78,
6.305,110.038208060898,89.34085679788618,-3.09,-1.16,-0.35,0.0,0.0,0.0,4.0,0.0,0.0,0.0,2.16,0.0,0.69,
6.329,110.02182080608979,89.36708567978863,-3.15,-1.31,-0.02,0.0,0.0,0.0,4.0,0.0,0.0,0.0,2.16,0.0,0.78,
6.352,110.07418208060898,89.37870856797886,-3.24,-1.24,0.0,0.0,0.0,0.0,4.0,0.0,0.0,0.0,2.16,0.0,0.78,
6.376,110.0614182080609,89.3708708567979,-3.11,-1.39,0.12,0.0,0.0,0.0,4.0,0.0,0.0,0.0,2.16,0.0,0.88,
6.401,110.0781418208061,89.37908708567979,-3.32,-1.04,-0.21,0.0,0.0,0.0,4.0,0.0,0.0,0.0,2.06,0.0,0.78,
6.424,110.06181418208061,89.35290870856797,-3.21,-1.83,0.11,0.0,0.0,0.0,4.0,0.0,0.0,0.0,2.16,0.0,0.69,
6.448,110.07818141820806,89.3052908708568,-3.18,-1.5,-0.02,0.0,0.0,0.0,4.0,0.0,0.0,0.0,2.16,0.0,0.78,
6.471,110.06181814182081,89.34552908708567,-3.15,-1.76,-0.17,0.0,0.0,0.0,4.0,0.0,0.0,0.0,2.16,0.0,0.78,
6.495,110.05118181418209,89.33155290870857,-3.12,-1.59,-0.05,0.0,0.0,0.0,4.0,0.0,0.0,0.0,2.16,0.0,0.78,
6.518,110.09511818141821,89.33015529087086,-3.05,-1.4,-0.21,0.0,0.0,0.0,4.0,0.0,0.0,0.0,2.16,0.0,0.78,
6.543,110.09051181814182,89.28501552908709,-3.06,-1.25,0.04,0.0,0.0,0.0,4.0,0.0,0.0,0.0,2.26,0.0,0.88,
6.566,110.09005118181418,89.23550155290872,-3.11,-1.5,0.33,0.0,0.0,0.0,4.0,0.0,0.0,0.0,2.16,0.0,0.88,
6.59,110.00000511818142,89.25755015529087,-3.09,-1.18,0.05,0.0,0.0,0.0,4.0,0.0,0.0,0.0,2.26,0.0,0.78,
6.614,110.00000051181814,89.2417550155291,-3.17,-1.44,0.21,0.0,0.0,0.0,4.0,0.0,0.0,0.0,2.16,0.0,0.78,
6.637,109.96400005118181,89.24917550155291,-2.95,-1.35,0.22,0.0,0.0,0.0,4.0,0.0,0.0,0.0,2.16,0.0,0.78,
6.661,110.01440000511818,89.23191755015529,-3.07,-1.18,0.05,0.0,0.0,0.0,4.0,0.0,0.0,0.0,2.16,0.0,0.78,
6.684,110.03744000051182,89.18519175501554,-3.16,-0.95,0.03,0.0,0.0,0.0,4.0,0.0,0.0,0.0,2.16,0.0,0.78,
6.708,110.03974400005119,89.16251917550156,-3.24,-1.18,-0.05,0.0,0.0,0.0,4.0,0.0,0.0,0.0,2.16,0.0,0.69,
6.731,110.08497440000512,89.20525191755016,-3.05,-1.44,-0.21,0.0,0.0,0.0,4.0,0.0,0.0,0.0,2.16,0.0,0.69,
6.756,110.07149744000051,89.26352519175502,-2.92,-1.5,-0.09,0.0,0.0,0.0,5.0,0.0,0.0,0.0,2.16,0.0,0.78,
6.779,110.09714974400005,89.31435251917549,-3.06,-1.32,0.11,0.0,0.0,0.0,4.0,0.0,0.0,0.0,2.26,0.0,0.78,
6.803,110.0727149744,89.30143525191755,-3.06,-1.63,0.03,0.0,0.0,0.0,5.0,0.0,0.0,0.0,2.16,0.0,0.88,
6.827,110.06127149744,89.27314352519176,-2.96,-1.24,0.15,0.0,0.0,0.0,5.0,0.0,0.0,0.0,2.26,0.0,0.69,
6.85,110.11412714974401,89.26131435251918,-2.89,-1.11,-0.12,0.0,0.0,0.0,4.0,0.0,0.0,0.0,2.16,0.0,0.78,
6.874,110.1374127149744,89.26913143525192,-3.07,-1.38,0.21,0.0,0.0,0.0,5.0,0.0,0.0,0.0,2.16,0.0,0.78,
6.897,110.10374127149744,89.26091314352519,-2.9,-1.44,0.08,0.0,0.0,0.0,5.0,0.0,0.0,0.0,2.16,0.0,0.88,
6.921,110.11837412714975,89.25109131435252,-2.87,-1.56,0.19,0.0,0.0,0.0,5.0,0.0,0.0,0.0,2.16,0.0,0.78,
6.944,110.10183741271497,89.25010913143525,-2.89,-1.37,0.1,0.0,0.0,0.0,5.0,0.0,0.0,0.0,2.26,0.0,0.88,
6.968,110.0911837412715,89.26801091314353,-2.83,-1.26,0.2,0.0,0.0,0.0,5.0,0.0,0.0,0.0,2.16,0.0,0.78,
6.992,110.10811837412714,89.28780109131435,-2.68,-1.37,0.17,0.0,0.0,0.0,5.0,0.0,0.0,0.0,2.16,0.0,0.78,
7.016,110.10081183741272,89.27178010913144,-3.03,-1.54,0.18,0.0,0.0,0.0,5.0,0.0,0.0,0.0,2.16,0.0,0.88,
7.04,110.09108118374127,89.31517801091313,-3.08,-1.27,0.24,0.0,0.0,0.0,5.0,0.0,0.0,0.0,2.26,0.0,0.88,
7.063,110.08110811837413,89.2475178010913,-3.04,-2.11,0.65,0.0,0.0,0.0,5.0,0.0,0.0,0.0,2.26,0.0,0.78,
7.087,110.10711081183742,89.23175178010914,-2.95,-1.62,0.11,0.0,0.0,0.0,5.0,0.0,0.0,0.0,2.16,0.0,0.69,
7.11,110.07371108118375,89.19417517801091,-2.95,-1.19,-0.08,0.0,0.0,0.0,5.0,0.0,0.0,0.0,2.16,0.0,0.69,
7.134,110.02537110811838,89.1994175178011,-2.91,-1.38,0.07,0.0,0.0,0.0,5.0,0.0,0.0,0.0,2.16,0.0,0.78,
7.157,110.04753711081183,89.2179417517801,-3.06,-1.46,-0.05,0.0,0.0,0.0,5.0,0.0,0.0,0.0,2.16,0.0,0.88,
7.182,110.02275371108118,89.20179417517801,-3.05,-1.55,0.12,0.0,0.0,0.0,5.0,0.0,0.0,0.0,2.26,0.0,0.88,
7.205,109.99327537110811,89.2181794175178,-3.05,-1.55,0.2,0.0,0.0,0.0,5.0,0.0,0.0,0.0,2.26,0.0,0.78,
7.229,109.9903275371108,89.27381794175179,-2.89,-1.62,0.08,0.0,0.0,0.0,5.0,0.0,0.0,0.0,2.16,0.0,0.88,
7.252,109.96303275371108,89.30638179417518,-3.11,-1.66,-0.01,0.0,0.0,0.0,5.0,0.0,0.0,0.0,2.26,0.0,0.88,
7.276,109.9423032753711,89.26463817941752,-3.08,-1.69,-0.18,0.0,0.0,0.0,5.0,0.0,0.0,0.0,2.16,0.0,0.78,
7.3,109.94923032753711,89.27846381794176,-3.08,-1.55,-0.09,0.0,0.0,0.0,5.0,0.0,0.0,0.0,2.16,0.0,0.78,
7.323,109.9859230327537,89.29784638179417,-3.02,-1.32,-0.15,0.0,0.0,0.0,5.0,0.0,0.0,0.0,2.26,0.0,0.78,
7.347,109.94459230327537,89.33578463817942,-3.07,-1.44,-0.12,0.0,0.0,0.0,5.0,0.0,0.0,0.0,2.26,0.0,0.69,
7.371,109.94945923032753,89.35757846381794,-3.07,-1.33,-0.07,0.0,0.0,0.0,5.0,0.0,0.0,0.0,2.26,0.0,0.88,
7.395,109.98594592303274,89.3597578463818,-2.91,-1.27,0.05,0.0,0.0,0.0,5.0,0.0,0.0,0.0,2.35,0.0,0.78,
7.418,110.01659459230328,89.37797578463817,-2.97,-1.18,-0.03,0.0,0.0,0.0,5.0,0.0,0.0,0.0,2.35,0.0,0.78,
7.442,109.97465945923032,89.36179757846382,-3.05,-1.25,-0.02,0.0,0.0,0.0,5.0,0.0,0.0,0.0,2.26,0.0,0.39,
7.465,110.01546594592303,89.31517975784638,-3.15,-1.11,-0.16,0.0,0.0,0.0,5.0,0.0,0.0,0.0,2.26,0.0,0.29,
7.489,109.9925465945923,89.34651797578462,-3.02,-1.26,-0.04,0.0,0.0,0.0,5.0,0.0,0.0,0.0,2.16,0.0,0.2,
7.514,110.00825465945923,89.34965179757845,-3.04,-1.28,0.05,0.0,0.0,0.0,5.0,0.0,0.0,0.0,2.26,0.0,0.2,
7.537,110.00082546594592,89.34996517975783,-3.12,-1.48,0.18,0.0,0.0,0.0,5.0,0.0,0.0,0.0,2.26,0.0,0.1,
7.561,109.96408254659458,89.31399651797578,-3.08,-1.24,-0.04,0.0,0.0,0.0,5.0,0.0,0.0,0.0,2.26,0.0,0.2,
7.584,109.92440825465945,89.28339965179758,-2.98,-1.33,0.21,0.0,0.0,0.0,5.0,0.0,0.0,0.0,2.26,0.0,0.39,
7.608,109.94744082546595,89.32533996517977,-3.12,-1.34,-0.02,0.0,0.0,0.0,5.0,0.0,0.0,0.0,2.26,0.0,0.39,
7.631,109.9317440825466,89.33853399651798,-2.9,-1.27,-0.06,0.0,0.0,0.0,5.0,0.0,0.0,0.0,2.26,0.0,0.49,
7.655,109.88517440825466,89.4118533996518,-2.97,-1.31,0.07,0.0,0.0,0.0,5.0,0.0,0.0,0.0,2.26,0.0,0.39,
7.678,109.78151744082545,89.39218533996518,-3.19,-1.4,0.06,0.0,0.0,0.0,5.0,0.0,0.0,0.0,2.26,0.0,0.39,
7.702,109.77115174408253,89.35421853399652,-3.11,-1.26,-0.14,0.0,0.0,0.0,5.0,0.0,0.0,0.0,2.26,0.0,0.2,
7.727,109.76111517440826,89.33242185339965,-3.22,-1.58,0.22,0.0,0.0,0.0,5.0,0.0,0.0,0.0,2.26,0.0,0.39,
7.75,109.75111151744083,89.39324218533997,-3.06,-1.43,0.14,0.0,0.0,0.0,5.0,0.0,0.0,0.0,2.26,0.0,0.49,
7.774,109.79511115174407,89.318324218534,-2.98,-1.44,0.01,0.0,0.0,0.0,5.0,0.0,0.0,0.0,2.26,0.0,0.39,
7.797,109.83551111517441,89.2478324218534,-2.92,-1.29,-0.05,0.0,0.0,0.0,5.0,0.0,0.0,0.0,2.26,0.0,0.39,
7.821,109.83955111151745,89.30378324218535,-3.09,-1.18,0.02,0.0,0.0,0.0,5.0,0.0,0.0,0.0,2.26,0.0,0.39,
7.844,109.86695511115175,89.30037832421854,-3.08,-1.37,0.0,0.0,0.0,0.0,5.0,0.0,0.0,0.0,2.26,0.0,0.39,
7.868,109.90569551111517,89.31803783242185,-2.79,-1.5,0.02,0.0,0.0,0.0,5.0,0.0,0.0,0.0,2.26,0.0,0.49,
7.891,109.92756955111153,89.30180378324219,-3.21,-1.33,0.05,0.0,0.0,0.0,5.0,0.0,0.0,0.0,2.16,0.0,0.49,
7.915,109.92975695511116,89.30918037832421,-3.2,-1.21,0.09,0.0,0.0,0.0,5.0,0.0,0.0,0.0,2.35,0.0,0.49,
7.939,109.9659756955111,89.3459180378324,-2.88,-1.31,0.05,0.0,0.0,0.0,5.0,0.0,0.0,0.0,2.16,0.0,0.49,
7.963,109.96959756955111,89.33159180378324,-3.07,-1.48,0.02,0.0,0.0,0.0,5.0,0.0,0.0,0.0,2.26,0.0,0.39,
7.987,110.00595975695511,89.30315918037833,-3.2,-1.44,0.08,0.0,0.0,0.0,5.0,0.0,0.0,0.0,2.16,0.0,0.49,
8.01,110.0365959756955,89.27331591803784,-3.09,-1.33,-0.07,0.0,0.0,0.0,5.0,0.0,0.0,0.0,2.16,0.0,0.59,
8.034,109.97665959756955,89.27033159180378,-3.02,-1.4,-0.19,0.0,0.0,0.0,5.0,0.0,0.0,0.0,2.16,0.0,0.59,
8.057,109.91666595975695,89.28803315918037,-3.08,-2.07,0.37,0.0,0.0,0.0,5.0,0.0,0.0,0.0,2.16,0.0,0.59,
8.081,109.9016665959757,89.28080331591804,-3.1,-1.24,0.03,0.0,0.0,0.0,5.0,0.0,0.0,0.0,2.26,0.0,0.59,
8.104,109.96316665959756,89.2890803315918,-3.07,-1.34,0.15,0.0,0.0,0.0,5.0,0.0,0.0,0.0,2.35,0.0,0.59,
8.129,109.93331666595977,89.27190803315918,-2.92,-1.18,-0.09,0.0,0.0,0.0,5.0,0.0,0.0,0.0,2.26,0.0,0.59,
8.153,109.93033166659599,89.27919080331591,-2.94,-1.37,-0.21,0.0,0.0,0.0,5.0,0.0,0.0,0.0,2.26,0.0,0.49,
8.176,109.93003316665961,89.2979190803316,-3.11,-1.4,-0.03,0.0,0.0,0.0,5.0,0.0,0.0,0.0,2.26,0.0,0.59,
8.2,109.92100331666596,89.26379190803316,-3.21,-1.41,-0.31,0.0,0.0,0.0,5.0,0.0,0.0,0.0,2.26,0.0,0.59,
8.223,109.91110033166659,89.25137919080332,-3.22,-1.14,-0.12,0.0,0.0,0.0,5.0,0.0,0.0,0.0,2.35,0.0,0.49,
8.247,109.91011003316666,89.27713791908033,-3.14,-1.39,0.15,0.0,0.0,0.0,5.0,0.0,0.0,0.0,2.26,0.0,0.49,
8.27,109.90101100331667,89.24371379190804,-3.05,-1.25,-0.05,0.0,0.0,0.0,5.0,0.0,0.0,0.0,2.26,0.0,0.59,
8.295,109.90910110033167,89.2313713791908,-3.34,-1.08,-0.2,0.0,0.0,0.0,5.0,0.0,0.0,0.0,2.26,0.0,0.69,
8.318,109.91891011003317,89.23913713791907,-3.37,-1.27,-0.16,0.0,0.0,0.0,5.0,0.0,0.0,0.0,2.26,0.0,0.59,
8.342,109.92889101100333,89.24891371379191,-3.15,-1.27,-0.26,0.0,0.0,0.0,5.0,0.0,0.0,0.0,2.16,0.0,0.69,
8.366,109.95688910110033,89.24089137137919,-3.15,-1.28,-0.24,0.0,0.0,0.0,5.0,0.0,0.0,0.0,2.16,0.0,0.59,
8.389,109.93268891011004,89.25808913713792,-3.34,-1.31,0.01,0.0,0.0,0.0,5.0,0.0,0.0,0.0,2.16,0.0,0.69,
8.413,109.921268891011,89.2418089137138,-3.1,-1.16,-0.02,0.0,0.0,0.0,5.0,0.0,0.0,0.0,2.26,0.0,0.69,
8.437,109.8841268891011,89.25818089137138,-3.14,-1.09,-0.11,0.0,0.0,0.0,5.0,0.0,0.0,0.0,2.16,0.0,0.69,
8.461,109.8804126889101,89.31381808913713,-2.95,-1.32,0.09,0.0,0.0,0.0,5.0,0.0,0.0,0.0,2.16,0.0,0.78,
8.484,109.92504126889102,89.24738180891372,-2.89,-1.34,-0.05,0.0,0.0,0.0,5.0,0.0,0.0,0.0,2.16,0.0,0.69,
8.508,109.92950412688911,89.18673818089138,-3.03,-1.31,-0.2,0.0,0.0,0.0,5.0,0.0,0.0,0.0,2.16,0.0,0.69,
8.531,109.92095041268891,89.18967381808913,-3.08,-1.14,-0.2,0.0,0.0,0.0,5.0,0.0,0.0,0.0,2.26,0.0,0.59,
8.555,109.93809504126888,89.21696738180891,-3.14,-1.39,-0.17,0.0,0.0,0.0,5.0,0.0,0.0,0.0,2.16,0.0,0.78,
8.58,109.95780950412689,89.25569673818089,-3.09,-1.25,-0.09,0.0,0.0,0.0,5.0,0.0,0.0,0.0,2.26,0.0,0.78,
8.603,109.97778095041268,89.3045696738181,-3.16,-1.35,0.0,0.0,0.0,0.0,5.0,0.0,0.0,0.0,2.26,0.0,0.69,
8.627,109.97077809504127,89.31845696738179,-3.13,-1.19,-0.11,0.0,0.0,0.0,5.0,0.0,0.0,0.0,2.16,0.0,0.69,
8.65,109.95207780950412,89.36484569673819,-3.22,-1.08,-0.17,0.0,0.0,0.0,5.0,0.0,0.0,0.0,2.16,0.0,0.59,
8.674,109.9412077809504,89.3514845696738,-3.37,-1.68,-0.22,0.0,0.0,0.0,5.0,0.0,0.0,0.0,2.16,0.0,0.69,
8.697,109.90412077809505,89.33214845696739,-3.52,-1.37,-0.1,0.0,0.0,0.0,5.0,0.0,0.0,0.0,2.16,0.0,0.69,
8.721,109.9184120778095,89.29421484569674,-3.08,-1.53,-0.08,0.0,0.0,0.0,5.0,0.0,0.0,0.0,2.16,0.0,0.88,
8.744,109.92884120778096,89.36242148456968,-3.13,-1.5,0.01,0.0,0.0,0.0,5.0,0.0,0.0,0.0,2.06,0.0,0.69,
8.769,109.93888412077808,89.36024214845698,-3.11,-1.1,-0.05,0.0,0.0,0.0,5.0,0.0,0.0,0.0,2.16,0.0,0.78,
8.793,109.97588841207781,89.3330242148457,-3.05,-1.21,0.05,0.0,0.0,0.0,5.0,0.0,0.0,0.0,2.06,0.0,0.78,
8.816,109.96158884120777,89.34830242148456,-3.1,-1.18,0.06,0.0,0.0,0.0,5.0,0.0,0.0,0.0,2.16,0.0,0.88,
8.84,109.91515888412077,89.33183024214846,-2.85,-1.24,0.03,0.0,0.0,0.0,5.0,0.0,0.0,0.0,2.16,0.0,0.88,
8.863,109.95551588841207,89.39318302421485,-3.02,-1.5,0.23,0.0,0.0,0.0,5.0,0.0,0.0,0.0,2.16,0.0,0.78,
8.887,109.96855158884121,89.38131830242148,-2.88,-1.37,0.2,0.0,0.0,0.0,5.0,0.0,0.0,0.0,2.16,0.0,0.78,
8.91,109.94285515888411,89.36213183024215,-2.98,-1.35,-0.05,0.0,0.0,0.0,5.0,0.0,0.0,0.0,2.16,0.0,0.78,
8.935,109.9222855158884,89.38721318302422,-3.27,-1.47,0.14,0.0,0.0,0.0,5.0,0.0,0.0,0.0,2.16,0.0,0.78,
8.958,109.88422855158883,89.3537213183024,-3.08,-1.58,-0.01,0.0,0.0,0.0,5.0,0.0,0.0,0.0,2.26,0.0,0.78,
8.982,109.89842285515888,89.35037213183023,-3.31,-1.5,-0.05,0.0,0.0,0.0,5.0,0.0,0.0,0.0,2.26,0.0,0.78,
9.006,109.8998422855159,89.38603721318303,-3.07,-1.46,-0.18,0.0,0.0,0.0,5.0,0.0,0.0,0.0,2.26,0.0,0.78,
9.029,109.90898422855159,89.37160372131831,-3.02,-1.43,0.04,0.0,0.0,0.0,5.0,0.0,0.0,0.0,2.26,0.0,0.78,
9.053,109.92789842285516,89.35216037213182,-2.93,-1.35,0.08,0.0,0.0,0.0,5.0,0.0,0.0,0.0,2.26,0.0,0.78,
9.076,109.88478984228551,89.35021603721317,-2.94,-1.14,0.23,0.0,0.0,0.0,5.0,0.0,0.0,0.0,2.26,0.0,0.88,
9.101,109.89847898422856,89.3770216037213,-3.03,-1.06,0.19,0.0,0.0,0.0,5.0,0.0,0.0,0.0,2.16,0.0,0.88,
9.124,109.92684789842286,89.35270216037212,-3.02,-1.18,0.1,0.0,0.0,0.0,5.0,0.0,0.0,0.0,2.26,0.0,0.78,
9.148,109.9026847898423,89.33227021603722,-2.96,-1.21,-0.07,0.0,0.0,0.0,5.0,0.0,0.0,0.0,2.26,0.0,0.69,
9.171,109.86426847898423,89.31222702160372,-3.05,-1.34,0.14,0.0,0.0,0.0,5.0,0.0,0.0,0.0,2.26,0.0,0.88,
9.195,109.90542684789841,89.33722270216037,-3.15,-1.27,0.15,0.0,0.0,0.0,5.0,0.0,0.0,0.0,2.35,0.0,0.78,
9.22,109.91854268478984,89.33972227021604,-2.86,-1.23,-0.02,0.0,0.0,0.0,5.0,0.0,0.0,0.0,2.26,0.0,0.78,
9.243,109.91985426847899,89.2859722270216,-2.82,-1.02,0.02,0.0,0.0,0.0,5.0,0.0,0.0,0.0,2.35,0.0,0.78,
9.267,109.9289854268479,89.35259722270217,-2.93,-1.4,-0.05,0.0,0.0,0.0,5.0,0.0,0.0,0.0,2.26,0.0,0.88,
9.29,109.95689854268478,89.33225972227022,-3.17,-1.57,0.22,0.0,0.0,0.0,5.0,0.0,0.0,0.0,2.26,0.0,0.78,
9.314,109.95068985426848,89.34822597222701,-3.13,-1.99,0.5,0.0,0.0,0.0,5.0,0.0,0.0,0.0,2.26,0.0,0.88,
9.337,109.99506898542684,89.3498225972227,-3.06,-1.53,0.27,0.0,0.0,0.0,5.0,0.0,0.0,0.0,2.26,0.0,0.78,
9.361,109.79250689854267,89.40398225972226,-2.9,-1.87,-0.07,0.0,0.0,0.0,5.0,0.0,0.0,0.0,2.35,0.0,0.78,
9.384,109.76325068985427,89.46339822597221,-3.27,-1.2,-0.63,0.0,0.0,0.0,5.0,0.0,0.0,0.0,2.35,0.0,0.88,
9.409,109.76932506898541,89.46933982259722,-3.33,-1.75,0.56,0.0,0.0,0.0,5.0,0.0,0.0,0.0,2.35,0.0,0.88,
9.433,109.79693250689853,89.42493398225973,-3.02,-1.38,0.28,0.0,0.0,0.0,5.0,0.0,0.0,0.0,2.26,0.0,0.78,
9.456,109.80869325068986,89.38449339822597,-3.07,-1.3,-0.04,0.0,0.0,0.0,5.0,0.0,0.0,0.0,2.35,0.0,0.88,
9.48,109.85486932506898,89.3174493398226,-3.15,-0.78,-0.69,0.0,0.0,0.0,5.0,0.0,0.0,0.0,2.26,0.0,0.78,
9.503,109.8864869325069,89.29274493398226,-3.22,-1.18,0.02,0.0,0.0,0.0,5.0,0.0,0.0,0.0,2.26,0.0,0.78,
9.527,109.86264869325068,89.29927449339823,-3.34,-1.66,-0.03,0.0,0.0,0.0,5.0,0.0,0.0,0.0,2.35,0.0,0.78,
9.55,109.89626486932508,89.3179274493398,-3.4,-1.34,-0.19,0.0,0.0,0.0,5.0,0.0,0.0,0.0,2.35,0.0,0.78,
9.575,109.8636264869325,89.31979274493398,-3.47,-1.53,-0.11,0.0,0.0,0.0,5.0,0.0,0.0,0.0,2.26,0.0,0.88,
9.598,109.87836264869324,89.2839792744934,-3.79,-1.29,-0.15,0.0,0.0,0.0,5.0,0.0,0.0,0.0,2.26,0.0,0.88,
9.622,109.84383626486932,89.26239792744934,-3.89,-1.69,0.16,0.0,0.0,0.0,5.0,0.0,0.0,0.0,2.16,0.0,0.98,
9.646,109.90338362648693,89.27823979274494,-3.66,-2.61,0.85,0.0,0.0,0.0,5.0,0.0,0.0,0.0,2.06,0.0,0.49,
9.669,109.9273383626487,89.2528239792745,-3.71,-4.44,6.38,0.0,0.0,0.0,4.0,0.0,0.0,0.0,2.06,0.0,0.39,
9.693,110.28973383626486,89.23228239792745,-3.19,-1.73,-0.69,0.0,0.0,0.0,4.0,0.0,0.0,0.0,1.96,0.0,0.49,
9.717,110.18197338362648,89.27522823979274,-3.12,-3.77,1.56,0.0,0.0,0.0,4.0,0.0,0.0,0.0,1.96,0.0,0.29,
9.741,110.13519733836264,89.42352282397927,-3.21,-2.4,2.83,0.0,0.0,0.0,4.0,0.0,0.0,0.0,1.86,0.0,0.39,
9.764,109.99551973383626,89.37535228239793,-3.18,-3.19,1.22,0.0,0.0,0.0,4.0,0.0,0.0,0.0,1.86,0.0,0.39,
9.788,109.86455197338361,89.2625352282398,-3.21,-3.02,1.49,0.0,0.0,0.0,4.0,0.0,0.0,0.0,1.86,0.0,0.39,
9.811,109.81545519733837,89.16125352282398,-2.47,-4.06,2.0,0.0,0.0,0.0,4.0,0.0,0.0,0.0,1.86,0.0,0.49,
9.835,109.68454551973383,89.2051253522824,-3.71,-1.65,0.64,0.0,0.0,0.0,4.0,0.0,0.0,0.0,1.77,0.0,0.39,
9.859,109.61745455197338,89.17351253522824,-4.01,-1.92,2.85,0.0,0.0,0.0,4.0,0.0,0.0,0.0,1.67,0.0,0.49,
9.883,109.70074545519732,89.04435125352283,-4.38,-4.35,1.34,0.0,0.0,0.0,3.0,0.0,0.0,0.0,1.67,0.0,0.49,
9.907,109.76307454551971,89.33743512535229,-2.94,-3.86,2.43,0.0,0.0,0.0,3.0,0.0,0.0,0.0,1.67,0.0,0.59,
9.93,109.72430745455198,89.17774351253523,-2.96,-3.15,0.53,0.0,0.0,0.0,3.0,0.0,0.0,0.0,1.57,0.0,0.59,
9.954,109.6304307454552,89.14377435125351,-2.92,-2.98,1.35,0.0,0.0,0.0,3.0,0.0,0.0,0.0,1.47,0.0,0.59,
9.977,109.54004307454551,89.23037743512535,-3.05,-2.41,2.02,0.0,0.0,0.0,3.0,0.0,0.0,0.0,1.57,0.0,0.59,
10.001,109.49500430745455,89.08603774351253,-2.72,-2.83,1.53,0.0,0.0,0.0,3.0,0.0,0.0,0.0,1.47,0.0,0.59,
10.024,109.29250043074546,89.03560377435126,-2.37,-1.5,1.15,0.0,0.0,0.0,3.0,0.0,0.0,0.0,1.28,0.0,0.69,
10.049,109.22725004307455,88.95856037743513,-2.41,-0.77,1.59,0.0,0.0,0.0,3.0,0.0,0.0,0.0,1.28,0.0,0.59,
10.073,109.23872500430745,88.96885603774352,-1.9,0.08,1.2,0.0,0.0,0.0,3.0,0.0,0.0,0.0,1.47,0.0,0.49,
10.096,109.22187250043075,89.05088560377436,-2.02,-0.18,1.37,0.0,0.0,0.0,3.0,0.0,0.0,0.0,1.37,0.0,0.39,
10.12,109.29218725004307,89.08608856037745,-1.68,-0.85,2.34,0.0,0.0,0.0,3.0,0.0,0.0,0.0,1.37,0.0,0.59,
10.143,109.29021872500431,89.08960885603776,-2.04,0.2,0.56,0.0,0.0,0.0,3.0,0.0,0.0,0.0,1.47,0.0,0.39,
10.167,109.29002187250043,89.08096088560377,-2.53,-0.12,0.73,0.0,0.0,0.0,3.0,0.0,0.0,0.0,1.47,0.0,0.49,
10.191,109.29000218725004,89.00809608856038,-2.87,-0.63,-0.12,0.0,0.0,0.0,3.0,0.0,0.0,0.0,1.47,0.0,0.39,
10.215,109.28100021872501,88.98280960885604,-2.82,-0.81,-0.05,0.0,0.0,0.0,3.0,0.0,0.0,0.0,1.57,0.0,0.59,
10.238,109.2711000218725,88.9082809608856,-2.13,-0.91,-0.68,0.0,0.0,0.0,3.0,0.0,0.0,0.0,1.47,0.0,0.59,
10.262,109.29711000218725,88.93682809608856,-1.97,-1.44,-0.56,0.0,0.0,0.0,3.0,0.0,0.0,0.0,1.47,0.0,0.49,
10.287,109.27271100021872,88.93968280960885,-1.78,-1.71,-0.69,0.0,0.0,0.0,3.0,0.0,0.0,0.0,1.57,0.0,0.59,
10.31,109.19827110002187,88.93096828096088,-1.29,-0.84,-0.81,0.0,0.0,0.0,3.0,0.0,0.0,0.0,1.57,0.0,0.69,
10.334,109.0738271100022,88.8850968280961,-0.23,-0.5,-1.58,0.0,0.0,0.0,3.0,0.0,0.0,0.0,1.47,0.0,0.69,
10.357,109.10638271100021,88.76350968280961,2.1,1.85,-3.83,0.0,0.0,0.0,2.0,0.0,0.0,0.0,1.37,0.0,0.88,
10.381,109.18163827110001,88.72435096828096,6.02,2.53,-4.75,0.0,0.0,0.0,2.0,0.0,0.0,0.0,1.18,0.0,1.18,
10.404,109.27016382711,89.0174350968281,6.6,3.1,-6.0,0.0,0.0,0.0,2.0,0.0,0.0,0.0,1.08,0.0,0.98,
10.429,109.369016382711,89.10974350968281,4.53,2.74,-5.91,0.0,0.0,0.0,1.0,0.0,0.0,0.0,0.88,0.0,0.98,
10.452,109.3339016382711,89.13697435096827,5.51,1.25,-6.24,0.0,0.0,0.0,1.0,0.0,0.0,0.0,0.78,0.0,0.78,
10.476,109.43839016382712,89.36469743509683,6.95,0.65,-8.27,0.0,0.0,0.0,1.0,0.0,0.0,0.0,0.59,0.0,0.69,
10.5,109.86283901638271,89.45046974350967,8.13,0.02,-11.69,0.0,0.0,0.0,1.0,0.0,0.0,0.0,0.59,0.0,0.69,
10.523,109.65328390163828,90.54804697435097,7.03,-6.98,-9.37,0.0,0.0,0.0,1.0,0.0,0.0,0.0,0.39,0.0,0.88,
10.547,109.66832839016382,91.1708046974351,0.78,-3.11,-6.37,0.0,0.0,0.0,2.0,0.0,0.0,0.0,0.2,0.0,0.49,
10.571,109.77783283901638,91.02608046974352,-9.85,-4.98,-8.02,0.0,0.0,0.0,3.0,0.0,0.0,0.0,0.2,0.0,0.0,
10.595,109.34778328390163,90.75960804697436,-19.83,-12.8,5.7,1.0,0.0,0.0,5.0,0.0,0.0,0.0,0.39,0.0,0.0,
10.619,108.85477832839017,90.48996080469743,-19.78,-0.11,1.02,2.0,0.0,0.0,6.0,0.0,0.0,0.0,0.78,1.37,0.0,
10.644,108.526477832839,90.48099608046974,-12.05,-3.18,5.31,2.0,0.0,0.0,7.0,0.0,0.0,0.0,1.57,4.41,0.0,
10.668,108.6466477832839,90.26409960804696,-11.07,-3.29,2.98,3.0,1.0,0.0,8.0,0.0,0.0,0.0,1.67,6.77,0.0,
10.692,108.5416647783284,90.1164099608047,-7.38,-2.03,2.92,3.0,1.0,0.0,8.0,0.0,0.0,0.0,1.86,8.63,0.0,
10.716,108.60316647783283,90.22764099608047,-7.6,-2.27,3.95,3.0,1.0,0.0,8.0,0.0,0.0,0.0,1.86,10.01,0.0,
10.74,109.01431664778329,90.22076409960805,-9.0,-4.53,7.66,3.0,1.0,0.0,9.0,0.0,1.0,0.0,1.86,11.28,0.0,
10.764,109.20843166477833,90.1120764099608,-17.03,-4.56,11.18,4.0,1.0,0.0,9.0,0.0,1.0,0.0,1.96,12.75,0.0,
10.788,109.29084316647783,89.90320764099607,-17.51,-9.98,14.63,4.0,1.0,0.0,10.0,0.0,2.0,0.0,1.96,15.5,0.0,
10.813,109.11008431664779,89.5583207640996,-16.51,-12.05,17.47,4.0,1.0,0.0,10.0,0.0,2.0,0.0,1.67,18.84,0.0,
10.838,108.71400843166478,89.02883207640997,-14.07,-9.85,16.32,4.0,1.0,0.0,11.0,0.0,4.0,0.0,0.69,21.39,0.0,
10.862,108.35040084316647,88.498883207641,-12.38,-4.66,15.37,4.0,1.0,0.0,11.0,0.0,4.0,0.0,0.0,22.66,4.02,
10.887,108.10704008431665,88.0498883207641,-10.53,-2.18,10.71,4.0,1.0,0.0,11.0,0.0,5.0,0.0,0.0,23.74,0.98,
10.911,108.10070400843165,87.76198883207641,-7.83,1.23,8.08,4.0,1.0,0.0,12.0,0.0,5.0,0.0,0.0,25.11,1.18,
10.936,108.09107040084317,87.59819888320764,-7.24,-0.84,8.77,4.0,1.0,0.0,12.0,0.0,5.0,0.0,0.0,26.09,0.78,
10.959,108.04510704008432,87.32081988832077,-5.25,-0.88,6.73,4.0,1.0,0.0,12.0,0.0,5.0,0.0,0.0,26.68,0.69,
10.984,107.91451070400845,87.16708198883208,-3.95,-1.8,4.79,4.0,1.0,0.0,12.0,0.0,5.0,0.0,0.0,26.88,0.98,
11.009,107.81145107040084,87.02570819888322,-3.21,-2.16,3.84,4.0,1.0,0.0,12.0,0.0,5.0,0.0,0.0,26.88,0.69,
11.033,107.82814510704007,86.88557081988833,-5.87,-0.19,2.28,4.0,1.0,0.0,12.0,0.0,5.0,0.0,0.0,26.68,0.69,
11.058,107.89281451070401,86.80855708198884,-6.47,-2.0,3.79,4.0,1.0,0.0,12.0,0.0,5.0,0.0,0.0,26.78,1.18,
11.082,107.9532814510704,86.63885570819889,-7.12,-0.88,3.01,4.0,1.0,0.0,12.0,0.0,6.0,0.0,0.0,26.78,0.78,
11.107,107.92332814510704,86.5498855708199,-5.91,-3.05,3.02,4.0,1.0,0.0,0.0,0.0,6.0,0.0,0.0,26.59,0.69,
11.13,107.8393328145107,86.342988557082,-6.11,-4.74,4.37,4.0,1.0,0.0,0.0,0.0,6.0,0.0,0.0,26.09,0.1,
11.155,107.78593328145108,86.09729885570819,-3.67,-3.58,2.37,4.0,1.0,0.0,0.0,0.0,6.0,0.0,0.0,25.51,0.1,
11.18,107.7715933281451,86.08172988557081,-1.61,0.19,-0.33,4.0,1.0,0.0,0.0,0.0,6.0,0.0,0.0,24.52,0.0,
11.204,107.77915933281452,85.92717298855709,0.45,-2.18,-0.05,4.0,1.0,0.0,12.0,0.0,6.0,0.0,0.0,23.54,1.47,
11.229,107.76191593328146,85.8937172988557,1.92,1.69,-3.17,4.0,1.0,0.0,0.0,0.0,6.0,0.0,0.0,22.56,0.0,
11.252,107.84119159332815,86.05237172988556,2.23,1.83,-3.85,4.0,1.0,0.0,12.0,0.0,5.0,0.0,0.0,21.78,0.0,
11.277,107.79511915933283,86.20323717298855,3.08,3.47,-3.28,4.0,1.0,0.0,11.0,0.0,5.0,0.0,0.0,21.09,0.1,
11.301,107.77251191593328,86.57832371729887,2.09,4.23,-1.66,4.0,1.0,0.0,11.0,0.0,4.0,0.0,0.0,20.6,0.98,
11.326,107.76125119159333,86.76883237172989,-0.44,5.87,-0.93,3.0,1.0,0.0,11.0,0.0,4.0,0.0,0.0,20.4,0.88,
11.351,107.94012511915933,86.79688323717299,-1.12,3.82,-0.13,3.0,0.0,0.0,11.0,0.0,4.0,0.0,0.0,20.21,1.47,
11.374,108.06601251191594,86.7816883237173,-1.32,5.55,-2.39,2.0,0.0,0.0,10.0,0.0,4.0,0.0,0.0,19.82,1.47,
11.399,108.3036012511916,86.91516883237173,-0.92,4.92,-5.05,2.0,0.0,0.0,10.0,0.0,4.0,0.0,0.0,19.13,2.16,
11.423,108.61536012511917,87.21651688323718,0.95,3.61,-5.41,2.0,0.0,0.0,10.0,0.0,4.0,0.0,0.0,18.15,2.35,
11.448,108.79053601251192,87.08465168832372,1.53,6.71,-10.18,2.0,0.0,0.0,9.0,0.0,3.0,0.0,0.0,16.58,1.96,
11.471,108.88905360125119,87.12546516883238,1.54,7.37,-8.81,2.0,0.0,0.0,9.0,0.0,3.0,0.0,0.0,15.7,0.98,
11.496,109.21390536012512,87.55254651688324,0.02,8.74,-10.5,2.0,0.0,0.0,9.0,0.0,3.0,0.0,0.2,14.91,1.86,
11.52,109.3363905360125,87.56825465168832,-0.73,7.76,-6.73,2.0,0.0,0.0,9.0,0.0,3.0,0.0,0.29,14.62,0.0,
11.544,109.42063905360126,87.50682546516883,0.23,2.95,-4.32,2.0,0.0,0.0,10.0,0.0,3.0,0.0,0.39,14.81,0.0,
11.569,109.40206390536014,87.55468254651689,-0.08,2.92,-1.49,3.0,0.0,0.0,10.0,0.0,3.0,0.0,0.39,15.4,0.0,
11.592,109.44520639053601,87.79346825465169,-1.48,1.13,-0.23,3.0,1.0,0.0,10.0,0.0,3.0,0.0,0.49,16.19,0.0,
11.617,109.49452063905359,87.87134682546517,-4.56,0.27,1.17,3.0,1.0,0.0,10.0,0.0,3.0,0.0,0.49,16.97,0.0,
11.641,109.66145206390536,87.92413468254654,-3.43,1.12,0.96,3.0,1.0,0.0,11.0,0.0,3.0,0.0,0.29,17.95,0.0,
11.665,109.66914520639054,87.95641346825465,-2.35,2.45,0.94,3.0,1.0,0.0,11.0,0.0,3.0,0.0,0.0,18.74,0.0,
11.689,109.93091452063905,87.86964134682546,-1.68,1.41,-0.89,3.0,1.0,0.0,11.0,0.0,3.0,0.0,0.0,19.23,0.1,
11.714,109.97509145206391,87.78896413468256,-0.26,2.64,0.47,3.0,1.0,0.0,11.0,0.0,3.0,0.0,0.0,19.62,0.39,
11.739,109.8085091452064,87.42089641346826,-2.18,1.33,5.47,3.0,1.0,0.0,11.0,0.0,3.0,0.0,0.0,20.11,0.2,
11.762,110.16085091452064,87.50108964134682,-2.99,2.44,2.76,3.0,1.0,0.0,11.0,0.0,3.0,0.0,0.1,20.9,0.29,
11.787,110.41208509145206,87.56310896413468,-2.21,1.47,2.02,3.0,1.0,0.0,11.0,0.0,3.0,0.0,0.49,21.97,0.39,
11.811,110.47320850914521,87.75831089641348,-4.09,0.83,3.58,3.0,1.0,0.0,12.0,0.0,3.0,0.0,0.39,23.05,1.18,
11.836,110.47032085091452,87.84083108964134,-5.87,-3.49,6.82,3.0,1.0,0.0,12.0,0.0,3.0,0.0,0.1,23.84,0.69,
11.859,110.55103208509145,87.99308310896413,-6.42,1.39,-0.51,3.0,1.0,0.0,12.0,0.0,3.0,0.0,0.0,24.43,0.29,
11.884,110.53210320850914,87.63030831089641,-7.67,-3.69,7.15,3.0,1.0,0.0,12.0,0.0,4.0,0.0,0.0,24.82,4.51,
11.909,110.6202103208509,87.39603083108965,-9.64,-3.94,3.12,3.0,1.0,0.0,12.0,0.0,4.0,0.0,0.0,25.31,0.0,
11.933,110.4220210320851,86.89560308310897,-8.79,-0.23,-0.73,3.0,1.0,0.0,12.0,0.0,4.0,0.0,0.0,26.0,0.0,
11.958,110.39320210320851,86.75556030831089,-6.08,-1.91,0.66,3.0,1.0,0.0,0.0,0.0,4.0,0.0,0.0,26.19,0.0,
11.982,110.36332021032085,86.71455603083109,-5.26,-2.66,0.95,3.0,1.0,0.0,0.0,0.0,4.0,0.0,0.0,26.19,0.29,
12.007,110.32433202103208,86.7464556030831,-6.09,-2.48,1.12,3.0,1.0,0.0,0.0,0.0,4.0,0.0,0.0,26.19,0.1,
12.03,110.25743320210321,86.8396455603083,-6.24,-3.87,5.41,3.0,1.0,0.0,0.0,0.0,4.0,0.0,0.0,26.29,0.2,
12.055,110.38574332021034,86.71396455603083,-5.5,-1.43,2.18,3.0,1.0,0.0,0.0,0.0,5.0,0.0,0.0,26.39,0.39,
12.08,110.47957433202103,86.53939645560308,-3.24,-0.39,0.37,3.0,1.0,0.0,0.0,0.0,5.0,0.0,0.0,26.78,0.78,
12.104,110.5339574332021,86.4949396455603,-2.24,-0.48,0.1,3.0,1.0,0.0,0.0,0.0,5.0,0.0,0.0,26.98,0.69,
12.129,110.53939574332021,86.54449396455603,-2.93,0.71,-0.53,3.0,1.0,0.0,0.0,0.0,5.0,0.0,0.0,27.27,0.29,
12.153,110.61193957433203,86.5224493964556,-2.05,1.0,-0.69,3.0,1.0,0.0,1.0,0.0,5.0,0.0,0.0,27.76,0.29,
12.177,110.7541939574332,86.52024493964555,-0.56,0.66,-0.81,3.0,1.0,0.0,1.0,0.0,5.0,0.0,0.0,27.96,0.29,
12.201,110.90341939574333,86.44802449396457,-1.02,-1.1,-0.31,3.0,1.0,0.0,1.0,0.0,5.0,0.0,0.0,28.06,0.29,
12.226,110.91834193957433,86.59380244939645,-0.45,-0.8,-1.89,4.0,1.0,0.0,1.0,0.0,5.0,0.0,0.0,28.06,0.29,
12.251,110.90183419395743,86.72538024493964,-1.2,0.25,-2.3,4.0,1.0,0.0,1.0,0.0,5.0,0.0,0.0,27.96,0.0,
12.275,110.93618341939575,86.73853802449396,-0.43,-0.41,-2.8,4.0,1.0,0.0,1.0,0.0,4.0,0.0,0.0,27.37,0.0,
12.3,110.96661834193958,86.85685380244941,-0.66,0.03,-2.18,4.0,1.0,0.0,1.0,0.0,4.0,0.0,0.0,26.78,0.2,
12.323,110.90666183419395,86.90468538024493,-0.87,1.38,-3.53,4.0,1.0,0.0,0.0,0.0,4.0,0.0,0.0,26.29,0.0,
12.348,110.96366618341939,86.82846853802448,-0.67,2.83,-4.25,4.0,1.0,0.0,0.0,0.0,4.0,0.0,0.0,25.7,0.0,
12.372,111.05036661834194,86.88384685380245,-0.2,2.33,-3.98,4.0,1.0,0.0,0.0,0.0,4.0,0.0,0.0,25.51,0.0,
12.397,111.21203666183419,86.95238468538024,0.69,3.11,-4.87,4.0,1.0,0.0,0.0,0.0,3.0,0.0,0.49,25.31,0.0,
12.422,111.34520366618342,87.20223846853803,0.79,2.82,-4.82,4.0,1.0,0.0,0.0,0.0,3.0,0.0,1.28,25.21,0.1,
12.445,111.43952036661835,87.40722384685381,0.54,1.79,-3.81,4.0,1.0,0.0,0.0,0.0,2.0,0.0,2.06,25.02,0.29,
12.47,111.49395203666184,87.55372238468539,0.74,1.27,-4.43,4.0,1.0,0.0,12.0,0.0,2.0,0.0,2.45,24.82,2.35,
12.494,111.49939520366618,87.65837223846854,1.32,0.37,-3.98,4.0,1.0,0.0,12.0,0.0,2.0,0.0,2.75,24.43,3.34,
12.519,111.53593952036663,87.86683722384686,0.4,-0.06,-3.38,4.0,1.0,0.0,11.0,0.0,1.0,0.0,3.14,23.84,0.0,
12.542,111.53959395203667,88.06768372238469,-1.47,0.24,-2.87,4.0,1.0,0.0,11.0,0.0,1.0,0.0,3.24,23.35,0.0,
12.567,111.62095939520367,88.20476837223846,-2.28,-0.52,-2.32,4.0,1.0,0.0,11.0,0.0,1.0,0.0,3.24,23.15,0.0,
12.592,111.66509593952037,88.34447683722385,-2.15,-0.27,-1.77,4.0,1.0,0.0,11.0,0.0,1.0,0.0,3.24,22.96,0.0,
12.616,111.66050959395203,88.43044768372239,-2.11,-1.51,-0.82,4.0,1.0,0.0,11.0,0.0,1.0,0.0,3.04,22.76,0.0,
12.641,111.68705095939521,88.54704476837225,-2.49,-1.24,-0.47,4.0,1.0,0.0,11.0,0.0,1.0,0.0,2.94,22.46,0.0,
12.665,111.72570509593952,88.60370447683722,-2.89,-0.92,-0.54,4.0,1.0,0.0,11.0,0.0,1.0,0.0,3.04,22.17,0.0,
12.69,111.73857050959396,88.73537044768372,-2.97,-0.62,-1.47,4.0,1.0,0.0,11.0,0.0,1.0,0.0,2.94,22.17,0.0,
12.713,111.7578570509594,88.76653704476837,-2.58,-1.3,-0.37,4.0,1.0,0.0,11.0,0.0,1.0,0.0,2.94,22.27,0.0,
12.738,111.77778570509594,88.76065370447684,-3.06,-1.2,-0.44,4.0,1.0,0.0,11.0,0.0,1.0,0.0,2.84,22.27,0.1,
12.763,111.8337785705096,88.78706537044768,-3.54,-1.6,0.02,4.0,1.0,0.0,11.0,0.0,1.0,0.0,2.94,22.17,0.2,
12.787,111.87537785705095,88.73570653704476,-3.3,-1.34,-0.18,4.0,1.0,0.0,11.0,0.0,1.0,0.0,2.84,22.17,0.2,
12.812,111.95153778570509,88.70357065370447,-3.22,-1.26,-0.53,4.0,1.0,0.0,11.0,0.0,1.0,0.0,2.75,22.07,0.29,
12.836,111.9411537785705,88.73635706537044,-3.47,-1.45,0.24,4.0,1.0,0.0,11.0,0.0,1.0,0.0,2.94,21.88,0.49,
12.861,111.89511537785705,88.75763570653704,-3.24,-1.09,-0.21,4.0,1.0,0.0,11.0,0.0,1.0,0.0,2.84,21.78,0.49,
12.884,111.89951153778571,88.8137635706537,-3.3,-1.03,0.01,4.0,1.0,0.0,11.0,0.0,1.0,0.0,2.94,21.68,0.59,
12.909,111.88195115377856,88.80137635706537,-3.21,-1.02,0.22,4.0,1.0,0.0,11.0,0.0,1.0,0.0,2.94,21.68,0.59,
12.934,111.87119511537786,88.76413763570653,-3.62,-1.2,0.64,4.0,1.0,0.0,11.0,0.0,1.0,0.0,2.94,21.88,0.29,
12.958,111.87911951153778,88.74241376357065,-3.83,-1.12,0.66,4.0,1.0,0.0,11.0,0.0,1.0,0.0,2.94,21.97,0.2,
12.983,111.87091195115379,88.74024137635706,-3.94,-1.5,0.58,4.0,1.0,0.0,11.0,0.0,1.0,0.0,2.94,21.97,0.0,
13.006,111.84309119511538,88.7130241376357,-4.53,-1.51,1.53,4.0,1.0,0.0,11.0,0.0,1.0,0.0,2.84,22.17,0.0,
13.031,111.85830911951155,88.71930241376357,-4.11,-1.53,1.49,4.0,1.0,0.0,12.0,0.0,1.0,0.0,2.84,22.46,0.0,
13.056,111.85083091195115,88.71093024137636,-4.22,-1.38,1.27,4.0,1.0,0.0,12.0,0.0,1.0,0.0,2.75,22.76,0.1,
13.08,111.9310830911951,88.71909302413763,-4.24,-1.53,1.15,4.0,1.0,0.0,12.0,0.0,1.0,0.0,2.75,22.96,0.29,
13.105,111.9391083091195,88.71990930241375,-4.21,-2.02,1.49,4.0,1.0,0.0,12.0,0.0,1.0,0.0,2.75,23.05,0.29,
13.128,111.93091083091196,88.53999093024137,-4.3,-2.34,1.99,4.0,1.0,0.0,12.0,0.0,1.0,0.0,2.65,23.15,0.39,
13.153,111.9210910830912,88.53099909302415,-3.92,-1.96,0.83,4.0,1.0,0.0,12.0,0.0,1.0,0.0,2.65,23.05,0.49,
13.177,111.89310910830912,88.45809990930242,-3.88,-1.31,0.22,4.0,1.0,0.0,12.0,0.0,1.0,0.0,2.55,23.05,0.49,
13.202,111.89031091083092,88.37880999093024,-3.5,-1.64,0.26,4.0,1.0,0.0,12.0,0.0,1.0,0.0,2.55,22.96,0.39,
13.227,111.8360310910831,88.31688099909302,-3.18,-2.05,0.26,4.0,1.0,0.0,12.0,0.0,1.0,0.0,2.55,22.86,0.59,
13.25,111.78560310910831,88.3106880999093,-3.15,-1.77,-0.16,4.0,1.0,0.0,12.0,0.0,1.0,0.0,2.55,22.56,0.78,
13.275,111.74456031091083,88.27406880999092,-3.18,-1.68,-0.36,4.0,1.0,0.0,12.0,0.0,1.0,0.0,2.55,22.37,0.69,
13.299,111.79445603109109,88.2614068809991,-2.83,-1.75,-0.27,4.0,1.0,0.0,12.0,0.0,1.0,0.0,2.55,22.17,0.2,
13.324,111.7634456031091,88.26914068809991,-3.09,-2.06,-0.21,4.0,1.0,0.0,12.0,0.0,1.0,0.0,2.65,21.88,0.0,
13.348,111.82334456031091,88.27891406880998,-2.99,-2.43,-0.27,4.0,1.0,0.0,12.0,0.0,1.0,0.0,2.65,21.68,0.1,
13.373,111.76633445603109,88.27089140688099,-3.08,-1.53,-0.61,4.0,1.0,0.0,12.0,0.0,1.0,0.0,2.75,21.39,0.1,
13.398,111.7786334456031,88.26108914068811,-3.27,-1.5,-0.13,4.0,1.0,0.0,12.0,0.0,1.0,0.0,2.75,21.29,0.2,
13.422,111.77986334456031,88.25110891406881,-3.08,-1.73,-0.48,4.0,1.0,0.0,12.0,0.0,1.0,0.0,2.65,21.09,0.29,
13.446,111.73498633445602,88.25011089140688,-2.69,-1.37,-0.67,4.0,1.0,0.0,12.0,0.0,1.0,0.0,2.65,20.9,0.39,
13.47,111.7124986334456,88.27701108914069,-2.71,-1.5,-0.6,4.0,1.0,0.0,12.0,0.0,1.0,0.0,2.75,20.8,0.39,
13.495,111.62924986334457,88.26170110891408,-2.8,-1.77,-0.48,4.0,1.0,0.0,12.0,0.0,1.0,0.0,2.94,20.7,0.59,
13.519,111.58492498633446,88.23317011089142,-3.08,-1.66,-0.3,4.0,1.0,0.0,12.0,0.0,1.0,0.0,2.84,20.5,0.49,
13.544,111.58949249863346,88.22131701108914,-2.89,-1.24,-0.81,4.0,1.0,0.0,11.0,0.0,1.0,0.0,2.94,20.21,0.69,
13.569,111.61694924986335,88.31013170110892,-2.7,-1.23,-0.6,4.0,1.0,0.0,11.0,0.0,1.0,0.0,3.04,20.11,0.69,
13.593,111.66469492498634,88.31901317011089,-2.68,-1.08,-0.47,4.0,1.0,0.0,11.0,0.0,1.0,0.0,3.14,19.82,0.88,
13.618,111.69646949249864,88.35590131701109,-2.7,-1.35,-0.47,4.0,1.0,0.0,11.0,0.0,1.0,0.0,3.24,19.72,0.29,
13.642,111.63664694924987,88.39559013170111,-2.6,-1.17,-0.38,4.0,1.0,0.0,11.0,0.0,1.0,0.0,3.24,19.72,0.0,
13.666,111.61266469492499,88.4085590131701,-2.98,-0.91,-0.34,4.0,1.0,0.0,11.0,0.0,1.0,0.0,3.14,19.72,0.0,
13.69,111.56526646949251,88.40985590131702,-3.02,-0.82,-0.45,4.0,1.0,0.0,11.0,0.0,1.0,0.0,3.34,19.72,0.1,
13.715,111.55152664694924,88.3649855901317,-3.07,-0.73,-0.5,4.0,1.0,0.0,11.0,0.0,1.0,0.0,3.24,19.82,0.2,
13.74,111.49615266469492,88.42349855901317,-3.03,-0.92,-0.1,4.0,1.0,0.0,11.0,0.0,1.0,0.0,3.34,19.91,0.2,
13.764,111.4816152664695,88.41134985590132,-3.17,-0.85,-0.21,4.0,1.0,0.0,12.0,0.0,1.0,0.0,3.24,20.01,0.2,
13.789,111.45316152664695,88.40113498559013,-2.89,-0.55,-0.3,4.0,1.0,0.0,12.0,0.0,1.0,0.0,3.24,20.11,0.2,
13.813,111.4413161526647,88.41811349855901,-3.33,-0.84,-0.02,4.0,1.0,0.0,11.0,0.0,1.0,0.0,3.34,20.21,0.39,
13.838,111.48513161526645,88.4018113498559,-3.22,-0.86,-0.41,4.0,1.0,0.0,12.0,0.0,1.0,0.0,3.24,20.4,0.29,
13.862,111.52551316152665,88.38218113498559,-3.07,-1.05,-0.18,4.0,1.0,0.0,12.0,0.0,1.0,0.0,3.14,20.5,0.39,
13.886,111.52055131615266,88.33521811349856,-2.84,-1.11,-0.44,4.0,1.0,0.0,12.0,0.0,1.0,0.0,3.34,20.6,0.49,
13.911,111.52905513161528,88.34852181134985,-3.11,-1.23,-0.1,4.0,1.0,0.0,12.0,0.0,1.0,0.0,3.24,20.6,0.59,
13.935,111.52990551316154,88.34085218113498,-3.27,-1.33,0.11,4.0,1.0,0.0,12.0,0.0,1.0,0.0,3.24,20.6,0.39,
13.96,111.61099055131616,88.3580852181135,-3.03,-1.24,0.21,4.0,1.0,0.0,12.0,0.0,1.0,0.0,3.24,20.6,0.29,
13.984,111.68209905513162,88.36880852181135,-2.98,-1.3,0.1,4.0,1.0,0.0,11.0,0.0,1.0,0.0,3.24,20.5,0.0,
14.009,111.69820990551315,88.41488085218114,-3.01,-1.19,0.05,4.0,1.0,0.0,12.0,0.0,1.0,0.0,3.24,20.5,0.0,
14.032,111.66382099055132,88.39248808521812,-3.18,-1.2,-0.14,4.0,1.0,0.0,12.0,0.0,1.0,0.0,3.24,20.5,0.2,
14.057,111.71438209905513,88.40824880852182,-2.93,-1.2,-0.16,4.0,1.0,0.0,12.0,0.0,1.0,0.0,3.24,20.6,0.1,
14.082,111.7104382099055,88.41882488085218,-3.13,-0.91,-0.11,4.0,1.0,0.0,12.0,0.0,1.0,0.0,3.34,20.6,0.2,
14.106,111.76404382099055,88.44688248808522,-3.09,0.19,-0.85,4.0,1.0,0.0,12.0,0.0,1.0,0.0,3.24,20.8,0.2,
14.131,111.78740438209906,88.39568824880853,-2.98,0.17,-0.75,4.0,1.0,0.0,12.0,0.0,1.0,0.0,3.34,21.09,0.29,
14.155,111.87074043820989,88.39956882488084,-3.11,-0.6,-0.61,4.0,1.0,0.0,12.0,0.0,1.0,0.0,3.34,21.48,0.39,
14.18,111.942074043821,88.39995688248808,-3.42,-1.33,0.12,4.0,1.0,0.0,12.0,0.0,1.0,0.0,3.43,21.68,0.2,
14.203,111.9402074043821,88.42699568824881,-3.1,-1.83,0.2,4.0,1.0,0.0,12.0,0.0,1.0,0.0,3.43,21.78,0.29,
14.228,111.9400207404382,88.40269956882489,-2.88,-1.36,-0.47,4.0,1.0,0.0,12.0,0.0,1.0,0.0,3.34,21.78,0.39,
14.253,111.92200207404383,88.41826995688248,-3.28,-1.21,-0.34,4.0,1.0,0.0,12.0,0.0,1.0,0.0,3.43,21.78,0.59,
14.277,111.94720020740439,88.41982699568825,-3.27,-1.17,-0.27,4.0,1.0,0.0,12.0,0.0,1.0,0.0,3.34,21.68,0.29,
14.302,111.92272002074044,88.50098269956882,-3.4,-2.15,0.37,4.0,1.0,0.0,12.0,0.0,1.0,0.0,3.34,21.78,0.2,
14.326,111.83927200207404,88.44609826995688,-3.37,-2.17,0.24,4.0,1.0,0.0,12.0,0.0,1.0,0.0,3.24,21.78,0.0,
14.35,111.83992720020741,88.40460982699568,-3.21,-1.74,0.24,4.0,1.0,0.0,12.0,0.0,1.0,0.0,3.34,21.68,0.0,
14.374,111.81299272002074,88.41846098269957,-3.02,-0.27,-0.36,4.0,1.0,0.0,12.0,0.0,1.0,0.0,3.34,21.48,0.1,
14.399,111.85529927200207,88.38384609826996,-3.41,-0.13,-0.54,4.0,1.0,0.0,0.0,0.0,1.0,0.0,3.34,21.78,0.0,
14.424,111.8235299272002,88.38038460982699,-3.23,0.16,-0.71,4.0,1.0,0.0,12.0,0.0,1.0,0.0,3.24,22.07,0.0,
14.448,111.84735299272,88.4160384609827,-3.58,-0.45,-0.18,4.0,2.0,0.0,12.0,0.0,1.0,0.0,3.34,22.56,0.0,
14.473,111.93073529927199,88.48260384609826,-3.95,-0.35,0.47,4.0,2.0,0.0,0.0,0.0,1.0,0.0,3.43,22.86,0.29,
14.496,111.8490735299272,88.41726038460982,-3.78,0.84,0.71,4.0,2.0,0.0,0.0,0.0,1.0,0.0,3.43,23.25,0.1,
14.521,111.80490735299273,88.32972603846098,-3.28,2.31,0.11,4.0,2.0,0.0,0.0,0.0,1.0,0.0,3.43,24.23,0.0,
14.545,111.78249073529928,88.3119726038461,-2.67,7.17,-2.56,4.0,2.0,0.0,0.0,0.0,1.0,0.0,3.43,25.51,0.0,
14.569,111.87024907352992,88.37319726038461,-2.76,9.65,-4.29,4.0,2.0,0.0,0.0,0.0,1.0,0.0,3.43,28.06,0.0,
14.594,112.113024907353,88.43331972603846,-2.22,9.05,-5.34,4.0,2.0,0.0,0.0,0.0,1.0,0.0,3.53,31.0,0.78,
14.618,112.4883024907353,88.45733197260384,-2.0,4.99,-3.98,4.0,2.0,0.0,0.0,0.0,1.0,0.0,3.83,33.84,0.0,
14.642,112.75983024907353,88.45973319726038,-1.73,1.05,-2.6,4.0,2.0,0.0,0.0,0.0,1.0,0.0,4.02,36.1,0.1,
14.666,112.77798302490736,88.52297331972605,-1.93,-0.18,-1.52,4.0,1.0,0.0,0.0,0.0,1.0,0.0,4.61,36.98,0.0,
14.691,112.73479830249074,88.63729733197262,-3.34,-0.59,0.8,4.0,1.0,0.0,12.0,0.0,1.0,0.0,5.0,37.47,0.0,
14.715,112.82947983024908,88.69372973319726,-5.21,-2.24,1.98,4.0,1.0,0.0,12.0,0.0,1.0,0.0,5.59,37.38,0.0,
14.74,112.97394798302491,88.57337297331974,-5.15,-5.97,0.5,4.0,1.0,0.0,11.0,0.0,1.0,0.0,5.98,36.89,0.29,
14.764,112.9883947983025,88.60633729733196,-0.61,-10.87,-5.6,3.0,0.0,0.0,10.0,0.0,0.0,0.0,6.08,34.92,1.57,
14.788,112.98083947983025,88.97863372973319,-7.01,-17.64,0.92,1.0,0.0,0.0,8.0,0.0,0.0,0.0,5.89,29.92,4.91,
14.813,113.23208394798303,89.77186337297331,-27.1,-29.06,25.86,1.0,0.0,0.0,7.0,0.0,0.0,0.0,5.4,22.86,8.34,
14.837,112.8432083947983,89.77918633729733,-46.11,-42.84,38.99,0.0,0.0,0.0,6.0,0.0,0.0,0.0,4.51,15.01,7.95,
14.861,111.99432083947984,88.32191863372972,-61.97,-12.67,-2.56,0.0,0.0,0.0,5.0,0.0,1.0,0.0,3.34,10.99,14.03,
14.885,110.93743208394798,88.48219186337298,-62.03,22.36,-0.31,0.0,0.0,0.0,3.0,0.0,1.0,0.0,2.16,4.51,10.79,
14.91,110.5797432083948,89.0562191863373,-81.34,65.6,16.58,0.0,0.0,0.0,1.0,0.0,1.0,0.0,0.88,0.0,9.03,
14.934,112.34397432083948,88.82562191863373,-75.72,24.24,48.79,0.0,0.0,0.0,1.0,0.0,1.0,0.0,0.0,0.0,6.77,
14.958,113.33039743208394,88.14556219186336,-72.76,-2.4,52.24,0.0,0.0,0.0,0.0,0.0,1.0,0.0,0.1,0.0,2.94,
14.982,114.02303974320839,89.17555621918633,-54.19,-37.12,35.69,0.0,0.0,0.0,0.0,0.0,0.0,0.0,0.0,0.0,3.04,
15.005,112.88630397432084,89.78255562191862,-17.34,-39.31,20.19,0.0,0.0,0.0,0.0,0.0,0.0,0.0,0.0,0.0,3.14,
15.03,111.87263039743209,92.34525556219187,23.45,-39.15,7.81,0.0,0.0,0.0,0.0,0.0,0.0,0.0,0.0,0.0,0.98,
15.053,111.53726303974321,95.85052555621918,40.08,-13.42,-2.43,0.0,0.0,0.0,0.0,0.0,0.0,0.0,0.0,0.0,0.49,
15.077,110.46872630397432,99.64805255562192,53.51,-6.5,0.95,0.0,0.0,0.0,0.0,0.0,0.0,0.0,0.0,0.0,0.2,
15.101,109.25487263039744,103.7268052555622,78.15,-12.43,-1.11,0.0,0.0,0.0,0.0,0.0,0.0,0.0,0.0,0.0,0.59,
15.125,107.84648726303975,107.40168052555623,96.89,-13.48,1.75,0.0,0.0,0.0,0.0,0.0,0.0,0.0,0.0,0.0,1.08,
15.15,106.43664872630397,110.37016805255563,106.84,-1.03,2.15,0.0,0.0,0.0,0.0,0.0,0.0,0.0,0.0,0.0,0.59,
15.173,105.5666648726304,112.62001680525557,114.59,6.77,2.66,0.0,0.0,0.0,0.0,0.0,0.0,0.0,0.0,0.0,0.39,
15.197,105.02966648726303,113.71800168052556,115.13,8.8,1.98,0.0,0.0,0.0,0.0,0.0,0.0,0.0,0.0,0.0,0.49,
15.221,104.6249666487263,113.82780016805256,105.73,16.55,0.0,0.0,0.0,0.0,0.0,0.0,0.0,0.0,0.0,0.0,0.49,
15.245,104.22449666487265,112.73178001680526,94.19,30.79,-10.01,0.0,0.0,0.0,0.0,0.0,0.0,0.0,0.0,0.0,0.49,
15.268,103.84244966648727,110.67817800168052,88.35,38.27,-29.53,0.0,0.0,0.0,0.0,0.0,0.0,0.0,0.0,0.0,0.69,
15.293,103.32724496664872,108.42981780016805,88.39,43.98,-43.65,0.0,0.0,0.0,0.0,0.0,0.0,0.0,0.0,0.0,0.78,
15.316,102.85272449666486,106.1259817800168,92.95,36.19,-65.08,0.0,0.0,0.0,0.0,0.0,0.0,0.0,0.0,0.0,0.78,
15.341,102.31927244966649,103.85259817800167,100.38,19.08,-82.02,0.0,0.0,0.0,0.0,0.0,0.0,0.0,0.0,0.0,0.78,
15.365,102.03192724496664,101.95125981780016,89.57,5.03,-80.6,0.0,0.0,0.0,0.0,0.0,0.0,0.0,0.0,0.0,0.88,
15.388,102.39019272449667,99.94312598178001,67.66,1.84,-68.73,0.0,0.0,0.0,0.0,0.0,0.0,0.0,0.0,0.0,0.78,
15.413,103.53301927244966,97.852312598178,45.27,-7.66,-53.93,0.0,0.0,0.0,0.0,0.0,0.0,0.0,0.0,0.0,0.69,
15.436,105.29430192724496,95.1232312598178,20.66,-9.46,-43.85,0.0,0.0,0.0,0.0,0.0,0.0,0.0,0.0,0.0,0.59,
15.46,107.4504301927245,92.44732312598178,18.47,-0.73,-26.35,0.0,0.0,0.0,0.0,0.0,0.0,0.0,0.0,0.0,0.29,
15.484,114.09204301927244,86.40173231259818,40.56,17.16,-11.2,0.0,0.0,0.0,0.0,0.0,0.0,0.0,0.0,0.0,1.08,
15.508,115.46720430192725,82.44017323125982,-36.68,-6.61,48.85,0.0,0.0,0.0,0.0,0.0,0.0,0.0,0.0,0.0,1.18,
15.532,113.33672043019271,85.95001732312599,-67.45,2.83,0.67,0.0,0.0,0.0,0.0,0.0,0.0,0.0,0.0,0.0,0.59,
15.556,111.29667204301926,87.6330017323126,-175.59,20.33,115.8,0.0,0.0,0.0,0.0,0.0,0.0,0.0,0.0,0.0,1.47,
15.58,113.23466720430193,87.30630017323125,-174.29,102.95,37.92,0.0,0.0,0.0,0.0,0.0,0.0,0.0,0.0,0.0,0.88,
15.604,114.46346672043019,85.95963001732312,-158.79,67.86,49.15,0.0,0.0,0.0,0.0,0.0,0.0,0.0,0.0,0.0,1.28,
15.628,115.02734667204302,85.28496300173231,-153.16,72.31,51.42,0.0,0.0,0.0,0.0,0.0,0.0,0.0,0.0,0.0,1.57,
15.651,118.2337346672043,77.22549630017323,-83.53,-31.44,41.02,0.0,0.0,0.0,2.0,0.0,0.0,0.0,0.0,0.0,2.94,
15.676,115.99837346672042,78.61554963001733,-35.12,-12.39,0.27,0.0,0.0,0.0,6.0,0.0,0.0,0.0,1.47,5.4,0.0,
15.7,116.05383734667205,79.49255496300174,-16.92,-2.82,5.03,0.0,0.0,0.0,7.0,0.0,0.0,0.0,5.0,13.83,0.0,
15.724,115.2223837346672,80.84025549630016,-18.18,-1.33,-16.34,1.0,0.0,0.0,9.0,0.0,0.0,0.0,5.59,17.07,0.0,
15.749,115.97623837346673,82.92802554963001,-23.43,-10.08,-4.17,2.0,1.0,0.0,10.0,0.0,1.0,0.0,6.08,18.93,0.0,
15.773,116.12362383734667,84.52280255496301,-19.35,-10.18,-3.17,3.0,1.0,0.0,11.0,0.0,1.0,0.0,5.89,20.99,0.0,
15.798,115.68836238373467,85.60928025549632,-19.35,-6.02,0.24,4.0,2.0,0.0,12.0,0.0,2.0,0.0,5.49,21.97,0.0,
15.822,115.12283623837347,86.27592802554963,-19.59,-2.06,3.04,5.0,2.0,0.0,2.0,0.0,3.0,0.0,90.35,23.64,0.0,
15.847,114.77828362383734,86.99959280255496,-17.42,4.37,10.02,6.0,3.0,0.0,5.0,0.0,4.0,0.0,5.89,27.08,0.0,
15.872,114.50982836238374,87.26995928025549,-19.68,3.76,12.27,7.0,3.0,0.0,8.0,0.0,4.0,0.0,5.3,31.49,0.0,
15.896,114.33898283623836,87.31499592802554,-11.8,13.66,11.03,7.0,3.0,0.0,10.0,0.0,4.0,0.0,5.2,37.67,0.0,
15.921,114.69989828362382,87.47249959280255,-7.92,17.23,9.31,7.0,3.0,0.0,11.0,0.0,4.0,0.0,5.79,45.52,0.0,
15.945,114.78098982836238,87.49724995928025,-2.11,16.32,13.18,6.0,3.0,0.0,11.0,0.0,4.0,0.0,6.67,53.37,0.0,
15.97,115.83309898283623,88.00372499592802,-4.41,11.94,17.38,5.0,2.0,0.0,11.0,0.0,4.0,0.0,9.52,61.31,0.59,
15.994,116.25330989828362,88.0273724995928,-2.53,8.21,15.4,4.0,2.0,0.0,8.0,0.0,4.0,0.0,12.07,68.77,2.16,
16.019,116.86233098982837,87.77773724995929,-2.37,5.34,12.2,3.0,1.0,0.0,8.0,0.0,4.0,0.0,14.52,75.05,2.84,
16.044,116.66223309898284,87.75277372499593,-1.95,3.65,9.94,3.0,1.0,0.0,7.0,0.0,3.0,0.0,16.38,80.83,2.35,
16.068,116.5702233098983,87.51627737249959,0.5,4.2,10.07,2.0,1.0,0.0,8.0,0.0,3.0,0.0,17.56,86.23,1.67,
16.092,116.45302233098984,87.02462773724996,2.07,-7.59,-3.22,2.0,1.0,0.0,6.0,0.0,3.0,0.0,18.54,91.23,1.47,
16.116,116.77430223309898,87.17346277372499,6.19,3.12,-2.64,3.0,1.0,0.0,5.0,0.0,2.0,0.0,18.93,94.57,0.29,
16.141,116.6804302233099,87.2153462773725,4.73,-0.01,-1.92,3.0,1.0,0.0,5.0,0.0,2.0,0.0,18.64,96.33,0.0,
16.165,116.797043022331,87.43553462773724,2.56,3.41,-1.82,3.0,1.0,0.0,5.0,0.0,2.0,0.0,18.15,96.24,0.0,
16.19,116.92570430223309,87.88055346277373,-1.87,5.82,-0.74,3.0,1.0,0.0,5.0,0.0,2.0,0.0,17.85,95.75,0.0,
16.215,117.36157043022331,88.20405534627737,-3.5,2.87,1.44,3.0,1.0,0.0,6.0,0.0,2.0,0.0,17.95,95.75,0.0,
16.239,117.80115704302233,88.52440553462775,-2.56,-4.7,12.4,3.0,1.0,0.0,6.0,0.0,2.0,0.0,18.34,94.76,0.0,
16.264,118.07011570430222,88.66444055346278,-2.71,-4.79,0.14,3.0,1.0,0.0,7.0,0.0,2.0,0.0,18.25,92.12,0.0,
16.288,117.93501157043022,88.05744405534628,-2.88,-14.14,-1.28,4.0,1.0,0.0,8.0,0.0,2.0,0.0,17.95,87.7,0.0,
16.313,117.48950115704302,88.22174440553462,-4.69,-15.25,5.02,4.0,2.0,0.0,8.0,0.0,2.0,0.0,17.17,81.72,0.0,
16.337,117.0129501157043,88.22017444055345,-9.19,-14.27,4.75,5.0,2.0,0.0,10.0,0.0,3.0,0.0,16.58,76.62,0.0,
16.362,116.62329501157042,88.26501744405535,-7.32,-10.15,8.89,5.0,2.0,0.0,11.0,0.0,3.0,0.0,16.19,74.26,0.0,
16.387,116.32332950115705,87.85550174440554,-4.56,-0.81,1.86,5.0,2.0,0.0,12.0,0.0,3.0,0.0,16.68,74.26,0.0,
16.411,116.0413329501157,87.25655017444056,-3.59,0.04,4.44,5.0,2.0,0.0,13.0,0.0,3.0,0.0,17.56,76.03,0.0,
16.436,116.16613329501158,86.88165501744406,-4.47,-0.45,9.19,5.0,2.0,0.0,14.0,0.0,3.0,0.0,18.54,78.48,0.0,
16.46,115.44061332950115,87.0151655017444,-9.8,-2.92,10.92,5.0,3.0,0.0,14.0,0.0,3.0,0.0,19.13,79.85,0.1,
16.485,115.11606133295011,87.22651655017444,-20.31,-7.45,17.05,5.0,3.0,0.0,14.0,0.0,3.0,1.0,20.4,82.7,0.69,
16.509,115.11060613329501,87.23865165501743,-25.47,-12.85,18.89,4.0,2.0,0.0,14.0,0.0,4.0,1.0,23.54,84.27,2.35,
16.534,114.93006061332949,87.08686516550173,-32.64,-25.1,16.75,2.0,1.0,0.0,14.0,0.0,4.0,1.0,26.29,84.37,6.57,
16.559,114.37200606133295,86.66668651655019,-44.76,-41.87,14.4,0.0,0.0,0.0,11.0,1.0,5.0,2.0,29.23,85.94,10.2,
16.584,115.4412006061333,86.93966865165501,-42.05,-47.97,15.6,0.0,0.0,0.0,6.0,1.0,6.0,2.0,31.49,88.0,24.13,
16.609,114.00012006061333,86.63396686516549,-63.01,-12.97,61.67,0.0,0.0,0.0,11.0,1.0,7.0,2.0,33.45,87.01,15.79,
16.633,112.56901200606133,84.83039668651655,-75.35,0.6,21.66,0.0,0.0,0.0,7.0,1.0,8.0,3.0,35.61,79.95,4.61,
16.657,112.45290120060614,84.11903966865167,-89.11,-14.53,51.39,0.0,0.0,0.0,4.0,1.0,8.0,3.0,33.84,65.53,0.0,
16.681,112.27929012006062,84.47990396686517,-102.47,-3.89,23.3,0.0,0.0,0.0,2.0,1.0,9.0,3.0,28.25,46.6,1.37,
16.706,111.44292901200606,82.17599039668653,-103.84,18.44,33.38,0.0,0.0,0.0,0.0,1.0,10.0,3.0,21.58,32.27,1.28,
16.731,111.49429290120061,80.57759903966867,-104.22,24.36,15.82,0.0,0.0,0.0,0.0,1.0,10.0,3.0,14.13,23.05,1.18,
16.755,112.26442929012005,79.39175990396687,-106.08,29.62,17.18,0.0,0.0,0.0,0.0,1.0,11.0,2.0,5.3,16.78,1.37,
16.78,112.87244292901201,77.7881759903967,-111.02,43.37,23.88,0.0,0.0,0.0,0.0,1.0,11.0,2.0,5.98,13.54,2.84,
16.804,114.0762442929012,76.07981759903967,-114.85,37.52,39.6,0.0,0.0,0.0,0.0,1.0,11.0,2.0,5.49,2.55,1.37,
16.829,115.4476244292901,74.60398175990396,-119.44,26.85,53.4,0.0,0.0,0.0,0.0,0.0,11.0,1.0,5.98,9.42,0.2,
16.854,117.16876244292901,73.11539817599039,-121.98,27.85,73.89,0.0,0.0,0.0,0.0,0.0,11.0,1.0,6.67,5.0,2.06,
16.878,119.3298762442929,71.65253981759903,-115.92,42.48,63.76,0.0,0.0,0.0,0.0,0.0,10.0,0.0,5.4,5.98,4.41,
16.902,121.46298762442929,68.50025398175991,-108.18,12.27,89.15,0.0,0.0,0.0,0.0,0.0,7.0,0.0,2.16,1.08,7.36,
16.925,125.59129876244292,62.50602539817599,-84.17,36.35,70.53,0.0,0.0,0.0,0.0,0.0,3.0,0.0,0.1,0.0,7.85,
16.95,131.7731298762443,74.83960253981759,-13.26,-44.89,22.82,0.0,0.0,0.0,0.0,0.0,0.0,0.0,0.0,0.0,3.43,
16.973,129.79031298762442,78.90796025398177,86.95,-91.95,38.72,0.0,0.0,0.0,0.0,0.0,0.0,0.0,0.0,0.0,1.96,
16.997,126.05503129876244,87.81079602539818,147.69,-65.34,7.05,0.0,0.0,0.0,0.0,0.0,0.0,0.0,0.0,0.0,1.18,
17.021,121.28950312987625,94.61407960253983,149.44,-52.43,16.18,0.0,0.0,0.0,0.0,0.0,0.0,0.0,0.0,0.0,0.0,
17.045,114.95395031298763,97.95840796025398,145.82,-23.24,6.26,0.0,0.0,0.0,0.0,0.0,0.0,0.0,0.0,0.0,0.1,
17.069,109.86539503129876,99.3188407960254,149.64,-19.85,-10.0,0.0,0.0,0.0,0.0,0.0,0.0,0.0,0.0,0.0,0.49,
17.093,105.61253950312988,98.89688407960254,164.47,17.33,-46.51,0.0,0.0,0.0,0.0,0.0,0.0,0.0,0.0,0.0,0.29,
17.117,102.32525395031298,97.90968840796025,181.49,12.58,-79.98,0.0,0.0,0.0,0.0,0.0,0.0,0.0,0.0,0.0,0.0,
17.141,100.3045253950313,97.26196884079603,184.5,4.48,-100.6,0.0,0.0,0.0,0.0,0.0,0.0,0.0,0.0,0.0,0.39,
17.165,99.55345253950313,96.8191968840796,178.37,-2.97,-91.86,0.0,0.0,0.0,0.0,0.0,0.0,0.0,0.0,0.0,0.49,
17.189,99.84734525395031,94.60591968840797,167.02,-12.24,-84.92,0.0,0.0,0.0,0.0,0.0,0.0,0.0,0.0,0.0,0.49,
17.213,101.02873452539502,91.4145919688408,139.16,-9.5,-86.12,0.0,0.0,0.0,0.0,0.0,0.0,0.0,0.0,0.0,0.59,
17.236,103.4058734525395,87.13545919688409,74.85,14.77,-81.07,0.0,0.0,0.0,0.0,0.0,0.0,0.0,0.0,0.0,0.59,
17.261,106.45158734525396,81.5505459196884,-12.8,59.75,-65.47,0.0,0.0,0.0,0.0,0.0,0.0,0.0,0.0,0.0,0.1,
17.285,109.41115873452539,78.59805459196883,-83.83,214.05,42.25,0.0,0.0,0.0,0.0,0.0,0.0,0.0,0.0,0.0,1.18,
17.309,104.04611587345254,73.88380545919688,8.63,2.86,250.13,0.0,0.0,0.0,4.0,0.0,0.0,0.0,0.0,1.08,0.0,
17.333,107.40661158734525,83.1233805459197,0.53,168.24,-162.6,2.0,0.0,0.0,8.0,0.0,1.0,0.0,1.28,12.36,0.0,
17.357,104.97066115873453,80.69033805459196,-14.84,73.22,-25.21,3.0,1.0,0.0,9.0,0.0,2.0,0.0,3.14,21.68,0.0,
17.382,105.28506611587345,80.6540338054592,-16.46,-27.55,49.71,4.0,1.0,0.0,10.0,0.0,3.0,0.0,0.49,22.86,0.0,
17.406,106.57650661158735,81.61340338054592,-6.76,-9.15,4.6,4.0,1.0,0.0,10.0,0.0,3.0,0.0,0.0,24.72,0.0,
17.431,106.91265066115874,82.7173403380546,-3.24,-10.93,12.75,4.0,1.0,0.0,11.0,0.0,3.0,0.0,0.0,25.11,0.0,
17.456,107.43226506611587,83.53873403380545,-3.3,-9.9,5.67,4.0,1.0,0.0,11.0,0.0,4.0,0.0,0.0,21.88,0.0,
17.48,108.2042265066116,84.09787340338055,0.44,5.54,0.05,4.0,1.0,0.0,11.0,0.0,4.0,0.0,0.0,19.62,0.0,
17.505,109.04642265066116,84.68478734033806,1.92,7.36,-4.67,4.0,1.0,0.0,11.0,0.0,4.0,0.0,0.0,19.62,0.0,
17.528,109.94964226506612,85.49947873403381,1.73,1.31,-2.16,4.0,1.0,0.0,11.0,0.0,4.0,0.0,0.0,20.01,0.0,
17.553,110.60696422650662,86.13894787340338,-2.24,-4.21,-0.23,5.0,1.0,0.0,11.0,0.0,4.0,0.0,0.0,19.82,0.0,
17.577,110.72669642265066,86.61689478734034,-4.89,-4.76,3.71,5.0,1.0,0.0,11.0,0.0,4.0,0.0,0.0,19.33,0.0,
17.602,111.04466964226506,86.97968947873403,-4.89,-3.02,1.95,5.0,2.0,0.0,11.0,0.0,4.0,0.0,0.0,19.03,0.0,
17.627,111.3014669642265,87.23196894787341,-2.22,-2.08,0.32,5.0,1.0,0.0,11.0,0.0,5.0,0.0,0.0,18.74,0.0,
17.651,111.54314669642264,87.50919689478734,-0.5,-0.21,-0.73,5.0,1.0,0.0,11.0,0.0,5.0,0.0,0.0,18.05,0.0,
17.676,111.94531466964226,87.82491968947873,0.27,-0.54,-1.37,5.0,1.0,0.0,11.0,0.0,5.0,0.0,0.0,17.56,0.0,
17.7,112.24653146696423,88.18049196894786,0.22,-3.19,-0.26,5.0,1.0,0.0,10.0,0.0,5.0,0.0,0.0,16.97,0.0,
17.725,112.25865314669643,88.36904919689479,-0.84,-2.76,-1.18,5.0,1.0,0.0,11.0,0.0,5.0,0.0,0.0,16.09,0.0,
17.75,112.38586531466964,88.55890491968947,-0.56,-3.32,-2.22,5.0,1.0,0.0,11.0,0.0,5.0,0.0,0.0,15.3,0.0,
17.774,112.47058653146696,88.77589049196895,0.17,-4.95,-1.88,5.0,1.0,0.0,10.0,0.0,5.0,0.0,0.0,14.42,0.29,
17.799,112.5780586531467,88.92358904919689,-0.01,-5.73,-1.83,5.0,1.0,0.0,10.0,0.0,5.0,0.0,0.0,13.24,0.59,
17.823,112.32780586531466,89.17235890491969,-0.35,-4.18,-0.15,4.0,1.0,0.0,10.0,0.0,4.0,0.0,0.0,12.07,0.49,
17.848,112.33878058653147,89.56623589049197,-3.37,-4.48,1.63,4.0,1.0,0.0,10.0,0.0,4.0,0.0,0.0,10.4,0.78,
17.871,112.40287805865314,89.6776235890492,-5.34,-3.45,2.09,4.0,1.0,0.0,10.0,0.0,4.0,0.0,0.0,9.91,0.29,
17.896,112.4182878058653,89.67976235890492,-3.76,-2.5,1.12,4.0,1.0,0.0,10.0,0.0,5.0,0.0,0.0,9.61,0.0,
17.921,112.48282878058653,89.70697623589048,-2.76,-2.63,1.53,5.0,1.0,0.0,10.0,0.0,5.0,0.0,0.0,9.61,0.1,
17.945,112.40828287805866,89.79069762358904,-4.95,-0.12,1.89,5.0,1.0,0.0,11.0,0.0,5.0,0.0,0.0,9.81,0.0,
17.97,112.27482828780587,89.6100697623589,-4.98,4.31,0.23,5.0,1.0,0.0,11.0,0.0,6.0,0.0,0.0,10.5,0.0,
17.994,112.36948282878058,89.6280069762359,-3.58,4.73,0.98,5.0,1.0,0.0,11.0,0.0,6.0,0.0,0.0,11.48,0.0,
18.018,112.63094828287807,89.70180069762358,-2.97,1.23,0.35,5.0,2.0,0.0,11.0,0.0,6.0,0.0,0.0,12.46,0.0,
18.042,112.71109482828781,89.71818006976235,-3.24,-1.88,2.38,5.0,2.0,0.0,11.0,0.0,6.0,0.0,0.0,13.24,0.0,
18.067,112.74610948282879,89.63881800697624,-3.25,-1.78,2.71,5.0,2.0,0.0,11.0,0.0,6.0,0.0,0.0,13.93,0.0,
18.092,112.72261094828288,89.65788180069762,-3.89,-3.21,2.92,5.0,2.0,0.0,12.0,0.0,6.0,0.0,0.0,14.42,0.0,
18.116,112.79226109482828,89.63278818006977,-4.53,-4.26,2.9,5.0,2.0,0.0,12.0,0.0,6.0,0.0,0.0,14.91,0.0,
18.141,112.69122610948283,89.57627881800697,-4.41,-3.78,3.11,5.0,2.0,0.0,0.0,0.0,6.0,0.0,0.0,15.4,0.0,
18.165,112.61812261094829,89.48062788180069,-3.21,-0.53,1.04,5.0,2.0,0.0,0.0,0.0,6.0,0.0,0.0,15.89,0.0,
18.189,112.72781226109483,89.48906278818006,-2.02,-0.51,0.38,6.0,2.0,0.0,1.0,0.0,6.0,0.0,0.0,16.68,0.0,
18.213,112.73878122610947,89.50790627881801,-2.66,-2.07,0.97,5.0,2.0,0.0,1.0,0.0,6.0,0.0,0.0,17.17,0.0,
18.238,112.70387812261094,89.4467906278818,-3.48,-1.58,0.67,5.0,2.0,0.0,1.0,0.0,5.0,0.0,0.0,17.56,0.0,
18.263,112.7183878122611,89.38667906278818,-3.85,-1.14,-0.39,5.0,2.0,0.0,1.0,0.0,5.0,0.0,0.0,17.56,0.1,
18.287,112.68383878122611,89.34466790627883,-4.22,-2.31,0.71,5.0,2.0,0.0,1.0,0.0,5.0,0.0,0.0,17.56,0.39,
18.312,112.62638387812261,89.26846679062788,-4.21,-2.23,0.33,5.0,2.0,0.0,1.0,0.0,5.0,0.0,0.0,17.17,0.59,
18.335,112.58463838781226,89.2518466790628,-4.03,-2.18,1.05,5.0,2.0,0.0,1.0,0.0,5.0,0.0,0.0,17.07,0.39,
18.36,112.59846383878123,89.23218466790628,-4.14,-1.26,0.75,5.0,2.0,0.0,1.0,0.0,5.0,0.0,0.0,17.07,0.59,
18.384,112.58184638387812,89.23921846679063,-4.63,-0.86,0.03,5.0,2.0,0.0,1.0,0.0,5.0,0.0,0.0,17.17,0.39,
18.409,112.6071846383878,89.23092184667907,-4.4,-1.4,0.77,5.0,2.0,0.0,2.0,0.0,5.0,0.0,0.0,17.07,0.39,
18.434,112.62771846383879,89.20309218466791,-4.75,-1.78,1.24,5.0,2.0,0.0,2.0,0.0,5.0,0.0,0.0,17.07,0.49,
18.457,112.71977184638388,89.1553092184668,-4.98,-1.69,1.78,5.0,2.0,0.0,2.0,0.0,5.0,0.0,0.0,17.27,0.49,
18.482,112.7199771846384,89.04253092184669,-4.55,-2.47,2.08,5.0,2.0,0.0,2.0,0.0,5.0,0.0,0.0,17.27,0.59,
18.506,112.76499771846383,88.90525309218467,-4.92,-2.46,1.6,5.0,2.0,0.0,2.0,0.0,5.0,0.0,0.0,17.07,0.39,
18.531,112.71549977184637,88.81952530921846,-5.23,-2.19,1.49,5.0,2.0,0.0,2.0,0.0,5.0,0.0,0.0,17.07,0.69,
18.555,112.68354997718464,88.74795253092185,-4.37,-2.38,0.61,5.0,2.0,0.0,2.0,0.0,5.0,0.0,0.0,16.87,0.39,
18.58,112.66235499771847,88.71379525309219,-3.76,-3.01,0.74,5.0,2.0,0.0,2.0,0.0,5.0,0.0,0.0,16.78,0.2,
18.604,112.57923549977184,88.6743795253092,-4.66,-2.46,1.44,5.0,2.0,0.0,2.0,0.0,5.0,0.0,0.0,16.68,0.0,
18.628,112.53492354997718,88.61643795253092,-4.92,-0.85,-0.36,5.0,2.0,0.0,2.0,0.0,5.0,0.0,0.0,16.58,0.0,
18.653,112.50349235499772,88.5476437952531,-4.32,-1.59,0.47,5.0,2.0,0.0,2.0,0.0,5.0,0.0,0.0,16.68,0.2,
18.677,112.41934923549977,88.53176437952531,-3.99,-2.15,1.14,5.0,2.0,0.0,2.0,0.0,5.0,0.0,0.0,16.78,0.1,
18.702,112.42893492354999,88.59317643795252,-4.07,-2.27,1.47,5.0,2.0,0.0,2.0,0.0,5.0,0.0,0.0,16.78,0.29,
18.726,112.456893492355,88.58131764379524,-3.85,-2.42,1.27,5.0,2.0,0.0,2.0,0.0,5.0,0.0,0.0,16.68,0.29,
18.75,112.41468934923549,88.64313176437953,-3.75,-2.68,0.66,5.0,2.0,0.0,3.0,0.0,5.0,0.0,0.0,16.68,0.49,
18.775,112.34746893492355,88.55031317643795,-4.29,-2.31,0.9,5.0,2.0,0.0,3.0,0.0,5.0,0.0,0.0,16.68,0.39,
18.799,112.32274689349235,88.4600313176438,-3.91,-2.04,1.03,5.0,2.0,0.0,3.0,0.0,5.0,0.0,0.0,16.68,0.59,
18.824,112.32027468934922,88.48700313176437,-4.04,-2.28,0.69,5.0,2.0,0.0,3.0,0.0,5.0,0.0,0.0,16.38,0.49,
18.848,112.29302746893492,88.36370031317644,-3.89,-2.63,0.51,5.0,2.0,0.0,3.0,0.0,5.0,0.0,0.0,16.28,0.69,
18.873,112.24530274689349,88.32437003131764,-3.43,-2.18,0.83,5.0,2.0,0.0,3.0,0.0,5.0,0.0,0.0,16.19,0.49,
18.896,112.23153027468935,88.28443700313176,-3.15,-2.33,0.22,5.0,2.0,0.0,3.0,0.0,5.0,0.0,0.0,15.99,0.29,
18.921,112.21215302746893,88.22644370031317,-2.79,-2.25,0.01,5.0,2.0,0.0,3.0,0.0,5.0,0.0,0.0,15.89,0.1,
18.946,112.14721530274689,88.1666443700313,-2.85,-2.23,0.01,5.0,2.0,0.0,3.0,0.0,5.0,0.0,0.0,15.7,0.2,
18.97,112.09572153027469,88.15166443700313,-3.09,-1.95,-0.12,5.0,2.0,0.0,3.0,0.0,5.0,0.0,0.0,15.6,0.0,
18.995,112.12657215302747,88.2041664437003,-3.06,-2.08,0.48,5.0,2.0,0.0,3.0,0.0,5.0,0.0,0.0,15.6,0.2,
19.019,112.05765721530274,88.19141664437002,-3.11,-2.15,0.36,5.0,2.0,0.0,3.0,0.0,5.0,0.0,0.0,15.4,0.49,
19.043,112.06876572153027,88.217141664437,-2.95,-2.05,0.18,5.0,2.0,0.0,3.0,0.0,5.0,0.0,0.0,15.3,0.39,
19.067,112.02487657215302,88.20171416644371,-3.24,-2.03,0.69,5.0,2.0,0.0,3.0,0.0,5.0,0.0,0.0,15.11,0.49,
19.092,111.98448765721531,88.20917141664437,-3.33,-1.89,-0.24,5.0,2.0,0.0,3.0,0.0,5.0,0.0,0.0,14.81,0.69,
19.117,111.91744876572152,88.18291714166445,-3.21,-1.7,0.37,5.0,2.0,0.0,3.0,0.0,5.0,0.0,0.0,14.81,0.49,
19.141,111.92874487657215,88.17129171416644,-2.73,-0.77,-0.33,5.0,2.0,0.0,2.0,0.0,5.0,0.0,0.0,14.72,0.49,
19.166,111.9118744876572,88.16112917141663,-2.73,-1.56,-0.06,5.0,2.0,0.0,2.0,0.0,5.0,0.0,0.0,14.52,0.88,
19.19,111.88318744876571,88.18711291714166,-2.37,-1.4,-0.48,5.0,2.0,0.0,2.0,0.0,5.0,0.0,0.0,14.42,0.69,
19.215,111.88931874487658,88.20771129171416,-2.23,-1.34,-0.36,5.0,2.0,0.0,2.0,0.0,5.0,0.0,0.0,14.32,0.2,
19.238,111.90793187448764,88.25477112917143,-2.53,-1.19,-0.63,5.0,2.0,0.0,2.0,0.0,5.0,0.0,0.0,14.13,0.0,
19.263,111.91879318744877,88.22347711291714,-2.32,-0.98,-0.65,5.0,2.0,0.0,2.0,0.0,5.0,0.0,0.0,14.03,0.1,
19.288,111.87487931874489,88.20234771129172,-2.23,-0.57,-0.82,5.0,2.0,0.0,2.0,0.0,5.0,0.0,0.0,13.93,0.0,
19.312,111.83448793187449,88.26323477112916,-2.28,-0.7,-1.29,5.0,2.0,0.0,2.0,0.0,5.0,0.0,0.0,13.93,0.2,
19.337,111.86644879318746,88.34132347711292,-2.52,-0.4,-1.13,5.0,2.0,0.0,2.0,0.0,4.0,0.0,0.0,13.93,0.39,
19.361,111.87864487931874,88.36713234771129,-2.24,0.3,-1.4,5.0,2.0,0.0,1.0,0.0,4.0,0.0,0.0,13.83,0.49,
19.386,111.87986448793187,88.34271323477113,-2.52,-0.58,-0.73,5.0,2.0,0.0,0.0,0.0,4.0,0.0,0.0,13.83,0.39,
19.41,111.92498644879319,88.32227132347711,-2.31,-0.73,-1.6,5.0,2.0,0.0,1.0,0.0,4.0,0.0,0.0,13.83,0.69,
19.435,111.89349864487933,88.35622713234771,-1.99,-1.03,-1.18,5.0,2.0,0.0,0.0,0.0,4.0,0.0,0.0,13.83,0.98,
19.46,111.97134986448793,88.36862271323477,-2.11,-0.03,-0.95,5.0,2.0,0.0,0.0,0.0,4.0,0.0,0.0,13.73,0.69,
19.483,112.01513498644879,88.39686227132347,-2.2,-0.98,-1.18,5.0,2.0,0.0,0.0,0.0,4.0,0.0,0.0,13.73,0.69,
19.508,112.07351349864487,88.45368622713234,-2.45,-0.89,-1.2,5.0,2.0,0.0,1.0,0.0,4.0,0.0,0.0,13.54,0.78,
19.532,112.02535134986448,88.52236862271323,-2.51,-0.66,-0.97,5.0,2.0,0.0,0.0,0.0,4.0,0.0,0.0,13.64,0.2,
19.557,111.98453513498646,88.55623686227133,-2.85,-0.97,-0.25,5.0,2.0,0.0,0.0,0.0,4.0,0.0,0.0,13.54,0.0,
19.581,112.01645351349865,88.60462368622713,-2.94,-0.98,-0.63,5.0,2.0,0.0,12.0,0.0,4.0,0.0,0.0,13.54,0.2,
19.606,112.02864535134987,88.6004623686227,-2.68,-1.24,0.01,5.0,2.0,0.0,0.0,0.0,4.0,0.0,0.0,13.44,0.29,
19.631,112.02086453513498,88.53704623686227,-2.85,-0.54,-0.96,5.0,2.0,0.0,0.0,0.0,4.0,0.0,0.0,13.44,0.39,
19.655,112.11908645351349,88.61170462368624,-2.34,-0.92,-0.65,5.0,2.0,0.0,0.0,0.0,4.0,0.0,0.0,13.44,0.59,
19.68,112.14690864535135,88.63717046236862,-2.5,-1.31,0.05,5.0,2.0,0.0,0.0,0.0,4.0,0.0,0.0,13.44,0.59,
19.704,112.14969086453513,88.66671704623685,-3.11,-0.85,-0.36,5.0,2.0,0.0,0.0,0.0,4.0,0.0,0.0,13.54,0.29,
19.728,112.17696908645351,88.6786717046237,-3.18,-0.8,-0.14,5.0,2.0,0.0,0.0,0.0,4.0,0.0,0.0,13.54,0.29,
19.752,112.22469690864536,88.70686717046237,-2.82,-1.24,0.3,5.0,2.0,0.0,0.0,0.0,4.0,0.0,0.0,13.73,0.29,
19.777,112.24746969086453,88.71868671704624,-3.18,-1.66,0.03,5.0,2.0,0.0,0.0,0.0,4.0,0.0,0.0,13.83,0.49,
19.802,112.28574696908646,88.71086867170462,-3.0,-1.01,-0.4,5.0,2.0,0.0,0.0,0.0,4.0,0.0,0.0,13.93,0.39,
19.826,112.22657469690864,88.72808686717046,-2.88,-0.6,-0.73,5.0,2.0,0.0,0.0,0.0,4.0,0.0,0.0,14.03,0.59,
19.851,112.23865746969085,88.72080868671705,-2.44,-0.85,-0.34,5.0,2.0,0.0,1.0,0.0,4.0,0.0,0.0,14.13,0.0,
19.875,112.31186574696908,88.7470808686717,-2.26,-0.53,-0.19,5.0,2.0,0.0,1.0,0.0,4.0,0.0,0.0,14.22,0.0,
19.9,112.41818657469692,88.75870808686717,-2.25,-0.8,-0.95,5.0,2.0,0.0,1.0,0.0,4.0,0.0,0.0,14.22,0.0,
19.924,112.4288186574697,88.86787080868672,-1.93,-0.95,-0.98,5.0,2.0,0.0,1.0,0.0,4.0,0.0,0.0,14.32,0.1,
19.948,112.48388186574697,88.91478708086868,-2.25,-0.8,-0.35,5.0,2.0,0.0,1.0,0.0,4.0,0.0,0.0,14.22,0.2,
19.973,112.46238818657469,88.95547870808686,-2.27,-1.11,-0.5,5.0,2.0,0.0,0.0,0.0,4.0,0.0,0.0,14.22,0.2,
19.997,112.46923881865746,88.93254787080869,-2.03,-0.81,-0.6,5.0,2.0,0.0,0.0,0.0,4.0,0.0,0.0,14.22,0.39,
20.022,112.44292388186574,88.95725478708086,-2.28,-0.63,-1.2,5.0,2.0,0.0,0.0,0.0,4.0,0.0,0.0,14.13,0.78,
20.046,112.45829238818656,89.04072547870808,-2.65,-0.82,-0.47,5.0,2.0,0.0,0.0,0.0,4.0,0.0,0.0,14.22,2.06,
20.071,112.36982923881865,89.04007254787082,-2.63,-0.99,-0.67,5.0,2.0,0.0,0.0,0.0,3.0,0.0,0.0,14.13,0.88,
20.096,112.34298292388188,89.04900725478707,-2.92,-1.31,-0.69,5.0,2.0,0.0,0.0,0.0,3.0,0.0,0.0,14.13,0.78,
20.12,112.40329829238819,89.09490072547871,-2.95,-1.02,-1.27,5.0,2.0,0.0,0.0,0.0,3.0,0.0,0.0,14.03,0.69,
20.144,112.36432982923881,89.10849007254787,-2.76,-0.94,-0.73,5.0,2.0,0.0,12.0,0.0,3.0,0.0,0.0,13.93,0.88,
20.168,112.36043298292387,89.1188490072548,-2.8,-1.41,-0.41,5.0,2.0,0.0,0.0,0.0,3.0,0.0,0.0,13.93,0.59,
20.193,112.35104329829238,89.15588490072548,-2.71,-0.91,-0.4,5.0,2.0,0.0,12.0,0.0,3.0,0.0,0.0,13.83,0.2,
20.217,112.38610432982924,89.11458849007255,-2.79,-1.27,0.12,5.0,2.0,0.0,12.0,0.0,3.0,0.0,0.0,13.83,0.2,
20.242,112.37161043298293,89.07445884900724,-3.02,-1.37,-0.34,5.0,2.0,0.0,0.0,0.0,3.0,0.0,0.0,13.83,0.29,
20.267,112.33416104329828,89.09744588490072,-2.98,-1.48,-0.1,5.0,2.0,0.0,12.0,0.0,3.0,0.0,0.0,13.83,0.29,
20.29,112.33941610432983,89.12674458849007,-3.03,-1.02,-0.37,5.0,2.0,0.0,12.0,0.0,3.0,0.0,0.0,13.83,0.29,
20.315,112.36694161043299,89.129674458849,-3.13,-0.78,-0.08,5.0,2.0,0.0,12.0,0.0,3.0,0.0,0.0,13.83,0.29,
20.339,112.3156941610433,89.1029674458849,-3.0,-1.21,-0.18,5.0,2.0,0.0,0.0,0.0,3.0,0.0,0.0,13.73,0.49,
20.364,112.36456941610433,89.0372967445885,-3.15,-0.85,-0.07,5.0,2.0,0.0,0.0,0.0,3.0,0.0,0.0,13.83,0.59,
20.388,112.36045694161042,89.05772967445886,-2.98,-1.03,-0.08,5.0,2.0,0.0,12.0,0.0,3.0,0.0,0.0,13.83,0.69,
20.413,112.38704569416103,89.10477296744588,-2.92,-1.21,-0.11,5.0,2.0,0.0,0.0,0.0,3.0,0.0,0.0,13.93,0.59,
20.436,112.39870456941611,89.16347729674459,-2.75,-0.65,-0.06,5.0,2.0,0.0,0.0,0.0,3.0,0.0,0.0,13.93,0.78,
20.461,112.42687045694161,89.15134772967447,-2.64,-1.4,-0.4,5.0,2.0,0.0,0.0,0.0,3.0,0.0,0.0,14.03,0.69,
20.486,112.41168704569415,89.19513477296745,-2.76,-1.19,0.15,5.0,2.0,0.0,0.0,0.0,3.0,0.0,0.0,14.03,0.59,
20.51,112.40116870456943,89.15451347729676,-3.18,-1.08,-0.41,5.0,2.0,0.0,0.0,0.0,3.0,0.0,0.0,13.93,0.69,
20.535,112.40011687045696,89.14145134772967,-2.83,-1.41,-0.56,5.0,2.0,0.0,0.0,0.0,3.0,0.0,0.0,13.93,0.2,
20.558,112.38201168704569,89.19414513477297,-2.86,-1.15,-0.47,5.0,2.0,0.0,0.0,0.0,3.0,0.0,0.0,14.03,0.0,
20.583,112.38920116870456,89.2894145134773,-2.94,-1.52,0.21,5.0,2.0,0.0,0.0,0.0,3.0,0.0,0.0,14.03,0.1,
20.608,112.42592011687046,89.29894145134773,-3.15,-1.49,0.08,5.0,2.0,0.0,1.0,0.0,3.0,0.0,0.0,13.93,0.2,
20.632,112.44759201168704,89.29989414513477,-3.06,-1.0,-0.11,5.0,2.0,0.0,0.0,0.0,3.0,0.0,0.0,13.93,0.29,
20.656,112.4677592011687,89.28198941451348,-2.91,-1.13,0.0,5.0,2.0,0.0,0.0,0.0,3.0,0.0,0.0,13.93,0.2,
20.68,112.42477592011687,89.28919894145135,-3.23,-1.01,-0.05,5.0,2.0,0.0,0.0,0.0,3.0,0.0,0.0,13.83,0.29,
20.705,112.46547759201168,89.28991989414513,-2.94,-1.22,-0.2,5.0,2.0,0.0,0.0,0.0,3.0,0.0,0.0,13.83,0.29,
20.729,112.50554775920116,89.28999198941452,-3.02,-1.0,-0.01,5.0,2.0,0.0,0.0,0.0,3.0,0.0,0.0,13.83,0.49,
20.753,112.50955477592011,89.29899919894146,-2.97,-1.08,-0.16,5.0,2.0,0.0,0.0,0.0,3.0,0.0,0.0,13.93,0.49,
20.777,112.527955477592,89.29089991989414,-3.18,-1.38,0.08,5.0,2.0,0.0,0.0,0.0,3.0,0.0,0.0,13.93,0.69,
20.802,112.49379554775919,89.26308999198942,-3.05,-1.24,-0.02,5.0,2.0,0.0,0.0,0.0,3.0,0.0,0.0,14.03,0.49,
20.827,112.49937955477591,89.21530899919894,-2.9,-1.34,-0.05,5.0,2.0,0.0,0.0,0.0,3.0,0.0,0.0,13.93,0.49,
20.85,112.45493795547759,89.20153089991989,-2.86,-1.17,-0.17,5.0,2.0,0.0,0.0,0.0,3.0,0.0,0.0,14.03,0.59,
20.875,112.48649379554776,89.182153089992,-3.09,-1.43,-0.19,5.0,2.0,0.0,0.0,0.0,3.0,0.0,0.0,14.03,0.59,
20.899,112.50764937955478,89.15321530899921,-2.99,-1.4,-0.1,5.0,2.0,0.0,0.0,0.0,3.0,0.0,0.0,14.03,0.2,
20.924,112.52776493795548,89.14132153089992,-3.18,-1.08,-0.14,5.0,2.0,0.0,0.0,0.0,3.0,0.0,0.0,14.03,0.0,
20.948,112.51177649379555,89.09513215309,-2.96,-1.41,-0.11,5.0,2.0,0.0,0.0,0.0,3.0,0.0,0.0,14.03,0.0,
20.972,112.53717764937956,89.10851321530899,-2.85,-1.24,-0.32,5.0,2.0,0.0,0.0,0.0,3.0,0.0,0.0,14.03,0.1,
20.997,112.51271776493795,89.1548513215309,-2.88,-1.19,-0.56,5.0,2.0,0.0,0.0,0.0,3.0,0.0,0.0,14.03,0.2,
21.021,112.5552717764938,89.1414851321531,-2.84,-1.34,-0.65,5.0,2.0,0.0,12.0,0.0,3.0,0.0,0.0,14.03,0.29,
21.046,112.58652717764937,89.12214851321532,-2.86,-1.14,0.04,5.0,2.0,0.0,12.0,0.0,3.0,0.0,0.0,14.03,0.29,
21.07,112.55365271776493,89.12921485132154,-2.63,-1.34,-0.66,5.0,2.0,0.0,12.0,0.0,3.0,0.0,0.0,14.03,0.39,
21.095,112.49636527177648,89.15692148513216,-2.78,-0.89,-0.56,5.0,2.0,0.0,12.0,0.0,3.0,0.0,0.0,13.83,0.39,
21.118,112.45463652717764,89.13269214851321,-2.31,-0.89,-0.27,5.0,2.0,0.0,11.0,0.0,3.0,0.0,0.0,13.83,0.39,
21.143,112.44146365271776,89.11226921485132,-2.39,-0.83,-1.08,5.0,2.0,0.0,12.0,0.0,3.0,0.0,0.0,13.83,0.49,
21.168,112.50314636527177,89.18222692148512,-2.44,-1.17,-0.31,5.0,2.0,0.0,12.0,0.0,3.0,0.0,0.0,13.73,0.39,
21.192,112.55431463652718,89.18922269214852,-2.52,-1.02,-0.89,5.0,2.0,0.0,12.0,0.0,3.0,0.0,0.0,13.64,0.0,
21.217,112.52343146365271,89.19892226921485,-2.91,-0.94,-0.21,5.0,2.0,0.0,12.0,0.0,3.0,0.0,0.0,13.54,0.0,
21.241,112.48434314636526,89.24489222692148,-2.83,-1.02,-0.13,5.0,2.0,0.0,12.0,0.0,3.0,0.0,0.0,13.64,0.0,
21.266,112.55243431463653,89.27648922269215,-2.81,-1.41,0.02,5.0,2.0,0.0,12.0,0.0,3.0,0.0,0.0,13.54,0.0,
21.291,112.56824343146366,89.32464892226922,-3.2,-1.24,0.4,5.0,2.0,0.0,12.0,0.0,3.0,0.0,0.0,13.64,0.0,
21.314,112.59682434314637,89.32946489222692,-3.24,-0.92,0.07,5.0,2.0,0.0,12.0,0.0,3.0,0.0,0.0,13.54,0.0,
21.339,112.57268243431463,89.30294648922269,-3.59,-1.09,0.47,5.0,2.0,0.0,12.0,0.0,3.0,0.0,0.0,13.73,0.0,
21.363,112.57926824343146,89.30929464892228,-3.44,-1.28,0.0,5.0,2.0,0.0,12.0,0.0,3.0,0.0,0.0,13.83,3.43,
21.388,112.56192682434315,89.30092946489223,-3.13,-1.56,0.26,5.0,2.0,0.0,12.0,0.0,3.0,0.0,0.0,14.03,1.37,
21.411,112.56019268243432,89.30909294648923,-3.1,-0.98,0.16,5.0,2.0,0.0,12.0,0.0,3.0,0.0,0.0,14.13,0.69,
21.436,112.56001926824344,89.30090929464893,-3.05,-1.02,-0.16,5.0,2.0,0.0,12.0,0.0,3.0,0.0,0.0,14.32,0.59,
21.46,112.56000192682434,89.3090909294649,-3.05,-1.09,-0.07,5.0,2.0,0.0,12.0,0.0,3.0,0.0,0.0,14.22,0.49,
21.485,112.54200019268244,89.2649090929465,-2.89,-1.08,-0.2,5.0,2.0,0.0,12.0,0.0,3.0,0.0,0.0,14.32,0.39,
21.51,112.56720001926824,89.28749090929465,-2.79,-1.05,-0.76,5.0,2.0,0.0,12.0,0.0,3.0,0.0,0.0,14.32,0.59,
21.534,112.56972000192683,89.30774909092946,-2.69,-1.08,-0.73,5.0,2.0,0.0,12.0,0.0,3.0,0.0,0.0,14.22,0.78,
21.559,112.56097200019268,89.31877490909294,-2.69,-0.98,-0.6,5.0,2.0,0.0,12.0,0.0,3.0,0.0,0.0,14.13,0.88,
21.583,112.56009720001927,89.3828774909093,-2.94,-0.91,-0.53,5.0,2.0,0.0,12.0,0.0,3.0,0.0,0.0,14.03,0.39,
21.608,112.53300972000193,89.40728774909093,-2.47,-1.04,-0.53,5.0,2.0,0.0,12.0,0.0,3.0,0.0,0.0,13.93,0.0,
21.632,112.53030097200019,89.4187287749091,-2.56,-1.51,-0.06,5.0,2.0,0.0,12.0,0.0,3.0,0.0,0.0,13.93,0.0,
21.656,112.51203009720001,89.4828728774909,-2.62,-1.11,-0.8,5.0,2.0,0.0,11.0,0.0,2.0,0.0,0.0,13.83,0.0,
21.681,112.53720300972,89.52528728774908,-2.56,-0.93,-0.26,5.0,2.0,0.0,12.0,0.0,2.0,0.0,0.0,13.73,0.0,
21.705,112.602720300972,89.51152872877492,-2.87,-1.15,-0.51,5.0,2.0,0.0,12.0,0.0,2.0,0.0,0.0,13.73,0.0,
21.73,112.5912720300972,89.52815287287748,-2.85,-1.17,-0.07,5.0,2.0,0.0,12.0,0.0,2.0,0.0,0.0,13.73,0.1,
21.754,112.63512720300972,89.52981528728775,-2.88,-1.28,-0.27,5.0,2.0,0.0,12.0,0.0,2.0,0.0,0.0,13.73,0.2,
21.779,112.65751272030097,89.58398152872877,-2.94,-1.29,0.0,5.0,2.0,0.0,12.0,0.0,2.0,0.0,0.0,13.64,0.2,
21.803,112.7137512720301,89.57139815287287,-3.03,-1.21,-0.27,5.0,2.0,0.0,12.0,0.0,2.0,0.0,0.0,13.73,0.2,
21.827,112.638375127203,89.60613981528729,-3.24,-1.37,0.2,5.0,2.0,0.0,12.0,0.0,2.0,0.0,0.0,13.73,0.39,
21.852,112.6578375127203,89.59161398152872,-3.12,-1.32,0.19,5.0,2.0,0.0,12.0,0.0,2.0,0.0,0.0,13.73,0.29,
21.876,112.68678375127203,89.60816139815287,-3.0,-1.07,0.17,5.0,2.0,0.0,12.0,0.0,2.0,0.0,0.0,13.73,0.29,
21.901,112.7436783751272,89.6188161398153,-3.1,-1.21,-0.13,5.0,2.0,0.0,12.0,0.0,2.0,0.0,0.0,13.83,0.59,
21.925,112.77636783751272,89.66488161398154,-3.36,-1.41,0.25,5.0,2.0,0.0,12.0,0.0,2.0,0.0,0.0,13.83,0.29,
21.949,112.77963678375127,89.66048816139815,-3.44,-1.36,0.56,5.0,2.0,0.0,12.0,0.0,2.0,0.0,0.0,13.83,0.0,
21.974,112.74396367837512,89.68704881613982,-3.18,-1.3,0.18,5.0,2.0,0.0,12.0,0.0,2.0,0.0,0.0,13.93,0.0,
21.998,112.74939636783752,89.72570488161398,-3.21,-1.27,0.25,5.0,2.0,0.0,12.0,0.0,3.0,0.0,0.0,14.03,0.0,
22.023,112.70493963678376,89.7205704881614,-3.23,-1.15,0.05,5.0,2.0,0.0,12.0,0.0,3.0,0.0,0.0,14.03,0.98,
22.046,112.76349396367837,89.68405704881614,-3.11,-0.79,-0.04,5.0,2.0,0.0,12.0,0.0,3.0,0.0,89.96,14.22,1.77,
22.071,112.78734939636784,89.71640570488162,-3.23,-1.26,-0.08,5.0,2.0,0.0,12.0,0.0,3.0,0.0,0.0,14.22,1.47,
22.095,112.78973493963679,89.67464057048817,-2.95,-1.63,0.19,5.0,2.0,0.0,12.0,0.0,3.0,0.0,0.0,14.32,1.08,
22.12,112.78097349396369,89.63446405704882,-2.81,-1.75,-0.31,5.0,2.0,0.0,12.0,0.0,3.0,0.0,0.0,14.32,0.78,
22.145,112.77109734939636,89.61244640570487,-2.71,-1.31,-0.09,5.0,2.0,0.0,12.0,0.0,3.0,0.0,0.0,14.22,0.29,
22.169,112.72510973493964,89.60124464057048,-2.79,-1.39,0.15,5.0,2.0,0.0,12.0,0.0,3.0,0.0,0.0,14.22,0.49,
22.194,112.72951097349397,89.61812446405705,-2.75,-1.55,-0.24,5.0,2.0,0.0,12.0,0.0,3.0,0.0,0.0,14.22,0.69,
22.217,112.6939510973494,89.6018124464057,-3.1,-1.44,-0.44,5.0,2.0,0.0,12.0,0.0,2.0,0.0,0.0,14.13,0.0,
22.242,112.70839510973494,89.61818124464057,-3.12,-1.24,0.05,5.0,2.0,0.0,12.0,0.0,2.0,0.0,0.0,14.22,0.2,
22.266,112.70983951097348,89.58381812446406,-3.37,-1.34,-0.15,5.0,2.0,0.0,12.0,0.0,2.0,0.0,0.0,14.32,2.45,
22.291,112.77298395109736,89.6343818124464,-3.52,-1.25,0.01,5.0,2.0,0.0,12.0,0.0,2.0,0.0,0.0,14.22,0.0,
22.316,112.74329839510973,89.64843818124464,-3.64,-1.16,0.02,5.0,2.0,0.0,12.0,0.0,2.0,0.0,0.0,14.22,0.0,
22.34,112.80332983951098,89.64984381812447,-3.35,-0.83,-0.28,5.0,2.0,0.0,12.0,0.0,2.0,0.0,0.0,14.13,0.0,
22.365,112.78233298395111,89.63198438181244,-3.24,-1.33,-0.6,5.0,2.0,0.0,12.0,0.0,2.0,0.0,0.0,14.13,0.0,
22.388,112.78023329839512,89.63919843818124,-2.88,-1.49,-0.02,5.0,2.0,0.0,12.0,0.0,2.0,0.0,0.0,14.13,0.1,
22.413,112.74402332983951,89.61291984381812,-2.92,-1.43,0.02,5.0,2.0,0.0,12.0,0.0,2.0,0.0,0.0,14.03,0.39,
22.437,112.73140233298396,89.6102919843818,-2.96,-1.61,0.07,5.0,2.0,0.0,12.0,0.0,2.0,0.0,0.0,14.03,0.29,
22.462,112.7481402332984,89.59202919843818,-3.08,-1.75,0.05,5.0,2.0,0.0,12.0,0.0,2.0,0.0,0.0,13.93,0.49,
22.487,112.73181402332985,89.61720291984382,-2.98,-1.47,-0.46,5.0,2.0,0.0,12.0,0.0,2.0,0.0,0.0,13.83,0.39,
22.511,112.73018140233299,89.57472029198438,-2.5,-1.37,-0.4,5.0,2.0,0.0,12.0,0.0,2.0,0.0,0.0,13.73,0.39,
22.535,112.71201814023328,89.53447202919844,-2.99,-1.38,-0.3,5.0,2.0,0.0,12.0,0.0,2.0,0.0,0.0,13.54,0.29,
22.559,112.74620181402334,89.56644720291985,-2.97,-1.07,-0.27,5.0,2.0,0.0,12.0,0.0,2.0,0.0,0.0,13.54,0.29,
22.584,112.74062018140232,89.58764472029199,-3.17,-1.11,-0.5,5.0,2.0,0.0,12.0,0.0,2.0,0.0,0.0,13.44,0.39,
22.608,112.75806201814024,89.6527644720292,-3.09,-1.23,-0.09,5.0,2.0,0.0,11.0,0.0,2.0,0.0,0.0,13.64,0.2,
22.633,112.75080620181403,89.63227644720291,-3.05,-1.24,0.07,5.0,2.0,0.0,12.0,0.0,2.0,0.0,0.0,13.64,0.1,
22.658,112.75008062018141,89.59422764472029,-2.89,-1.3,0.15,5.0,2.0,0.0,11.0,0.0,2.0,0.0,0.0,13.54,0.0,
22.682,112.76800806201814,89.56342276447202,-3.1,-1.35,0.23,5.0,2.0,0.0,12.0,0.0,2.0,0.0,0.0,13.64,0.1,
22.706,112.76080080620181,89.5333422764472,-2.95,-1.29,0.21,5.0,2.0,0.0,12.0,0.0,2.0,0.0,0.0,13.64,0.2,
22.73,112.72408008062018,89.53033422764472,-3.05,-1.37,0.12,5.0,2.0,0.0,12.0,0.0,2.0,0.0,0.0,13.83,0.29,
22.755,112.65740800806202,89.56603342276446,-2.87,-1.31,0.16,5.0,2.0,0.0,12.0,0.0,2.0,0.0,0.0,13.73,0.2,
22.779,112.6507408008062,89.58760334227645,-3.07,-1.06,0.06,5.0,2.0,0.0,12.0,0.0,2.0,0.0,0.0,13.83,0.49,
22.804,112.67707408008063,89.61676033422765,-3.24,-1.2,0.15,5.0,2.0,0.0,12.0,0.0,2.0,0.0,0.0,13.93,0.29,
22.828,112.68870740800807,89.65567603342276,-2.92,-1.21,0.02,5.0,2.0,0.0,12.0,0.0,2.0,0.0,0.0,13.93,0.39,
22.852,112.63587074080081,89.66856760334228,-2.98,-1.19,-0.24,5.0,2.0,0.0,12.0,0.0,2.0,0.0,0.0,14.03,0.39,
22.877,112.59458707408008,89.64285676033423,-3.11,-1.31,-0.05,5.0,2.0,0.0,12.0,0.0,2.0,0.0,0.0,13.93,0.39,
22.901,112.608458707408,89.62228567603341,-3.08,-1.25,-0.16,5.0,2.0,0.0,12.0,0.0,2.0,0.0,0.0,13.93,0.59,
22.926,112.6278458707408,89.59322856760335,-3.01,-1.27,-0.3,5.0,2.0,0.0,12.0,0.0,2.0,0.0,0.0,13.83,0.29,
22.95,112.64778458707409,89.62632285676034,-3.02,-1.25,-0.31,5.0,2.0,0.0,12.0,0.0,2.0,0.0,0.0,13.93,0.29,
22.975,112.64077845870742,89.69263228567604,-2.84,-1.02,-0.54,5.0,2.0,0.0,12.0,0.0,2.0,0.0,0.0,13.83,0.0,
22.999,112.64007784587075,89.6992632285676,-2.84,-1.05,-0.18,5.0,2.0,0.0,12.0,0.0,2.0,0.0,0.0,13.73,0.1,
23.023,112.64000778458708,89.65492632285677,-2.87,-1.05,0.02,5.0,2.0,0.0,12.0,0.0,2.0,0.0,0.0,13.83,0.2,
23.048,112.67600077845871,89.63249263228568,-2.96,-1.78,0.27,5.0,2.0,0.0,12.0,0.0,2.0,0.0,0.0,13.83,0.49,
23.072,112.67960007784588,89.63924926322856,-3.2,-1.55,0.14,5.0,2.0,0.0,12.0,0.0,2.0,0.0,0.0,13.83,0.2,
23.097,112.64396000778459,89.61292492632285,-2.99,-1.25,-0.08,5.0,2.0,0.0,12.0,0.0,2.0,0.0,0.0,13.83,0.0,
23.121,112.67639600077847,89.58329249263228,-3.31,-1.12,-0.24,5.0,2.0,0.0,12.0,0.0,2.0,0.0,0.0,13.93,0.29,
23.145,112.66163960007785,89.58032924926323,-3.44,-0.87,-0.13,5.0,2.0,0.0,12.0,0.0,2.0,0.0,0.0,14.03,0.39,
23.17,112.6691639600078,89.57103292492633,-3.35,-0.95,-0.2,5.0,2.0,0.0,12.0,0.0,2.0,0.0,0.0,14.03,0.59,
23.194,112.70591639600077,89.56110329249263,-3.34,-1.07,0.04,5.0,2.0,0.0,12.0,0.0,2.0,0.0,0.0,14.13,0.59,
23.219,112.69159163960008,89.51511032924927,-3.32,-0.6,-0.25,5.0,2.0,0.0,12.0,0.0,2.0,0.0,0.0,14.13,0.49,
23.243,112.75315916396002,89.50151103292492,-3.4,-0.31,-0.26,5.0,2.0,0.0,12.0,0.0,2.0,0.0,0.0,14.22,0.49,
23.268,112.777315916396,89.5361511032925,-3.23,-0.84,-0.07,5.0,2.0,0.0,12.0,0.0,2.0,0.0,0.0,14.42,0.29,
23.292,112.8067315916396,89.58461511032925,-3.11,-1.05,0.1,5.0,2.0,0.0,12.0,0.0,2.0,0.0,0.0,14.52,0.29,
23.316,112.84567315916395,89.54446151103294,-3.11,-0.5,-0.28,5.0,2.0,0.0,12.0,0.0,2.0,0.0,0.0,14.52,3.24,
23.341,112.88556731591639,89.5134461511033,-3.32,-0.53,0.04,5.0,2.0,0.0,12.0,0.0,2.0,0.0,0.0,14.72,1.28,
23.365,112.89855673159165,89.57334461511033,-3.24,-0.94,-0.02,5.0,2.0,0.0,12.0,0.0,2.0,0.0,0.0,14.81,0.59,
23.39,112.89085567315917,89.64233446151104,-3.44,-1.0,0.19,5.0,2.0,0.0,12.0,0.0,2.0,0.0,0.0,14.91,1.18,
23.414,112.89008556731591,89.7212334461511,-3.57,-1.04,0.21,5.0,2.0,0.0,12.0,0.0,2.0,0.0,0.0,15.01,0.88,
23.438,112.85400855673159,89.69312334461512,-3.67,-1.08,0.43,5.0,2.0,0.0,12.0,0.0,2.0,0.0,0.0,15.01,0.49,
23.462,112.86840085567317,89.65431233446151,-3.64,-0.93,0.4,5.0,2.0,0.0,12.0,0.0,2.0,0.0,0.0,15.21,0.39,
23.487,112.94184008556732,89.62343123344615,-3.63,-1.34,0.44,5.0,2.0,0.0,12.0,0.0,2.0,0.0,0.0,15.3,0.59,
23.512,112.93118400855674,89.55734312334461,-3.53,-1.18,0.44,5.0,2.0,0.0,12.0,0.0,2.0,0.0,0.0,15.4,0.39,
23.536,112.95711840085568,89.53273431233445,-3.27,-1.45,0.33,5.0,2.0,0.0,12.0,0.0,2.0,0.0,0.0,15.4,0.69,
23.561,112.93271184008557,89.53027343123344,-3.45,-1.45,0.49,5.0,2.0,0.0,12.0,0.0,2.0,0.0,0.0,15.6,0.2,
23.585,113.00227118400856,89.53902734312335,-3.59,-1.76,0.56,5.0,2.0,0.0,12.0,0.0,2.0,0.0,0.0,15.6,0.69,
23.609,112.96422711840086,89.54890273431234,-3.31,-2.08,0.72,5.0,2.0,0.0,12.0,0.0,2.0,0.0,0.0,15.5,0.29,
23.633,112.98742271184008,89.49589027343123,-3.44,-2.23,0.4,5.0,2.0,0.0,12.0,0.0,2.0,0.0,0.0,15.4,0.0,
23.658,112.92674227118401,89.44558902734312,-3.58,-2.24,0.49,5.0,2.0,0.0,12.0,0.0,2.0,0.0,0.0,15.21,0.1,
23.683,112.8666742271184,89.41355890273431,-3.59,-2.27,0.15,5.0,2.0,0.0,12.0,0.0,2.0,0.0,0.0,15.01,0.2,
23.707,112.84266742271186,89.38335589027342,-3.54,-2.45,0.27,5.0,2.0,0.0,12.0,0.0,2.0,0.0,0.0,14.81,0.49,
23.732,112.7952667422712,89.34433558902734,-3.35,-1.89,0.06,5.0,2.0,0.0,12.0,0.0,2.0,0.0,0.0,14.62,0.59,
23.756,112.78152667422712,89.34943355890272,-3.37,-1.93,-0.22,5.0,2.0,0.0,12.0,0.0,2.0,0.0,0.0,14.22,0.78,
23.78,112.80715266742271,89.34094335589027,-3.32,-1.87,-0.08,5.0,2.0,0.0,12.0,0.0,2.0,0.0,0.0,14.03,0.59,
23.804,112.75571526674227,89.34909433558902,-3.18,-1.95,-0.18,5.0,2.0,0.0,12.0,0.0,2.0,0.0,0.0,13.93,0.59,
23.829,112.72357152667423,89.39490943355891,-2.87,-1.92,-0.3,5.0,2.0,0.0,12.0,0.0,2.0,0.0,0.0,13.73,0.69,
23.854,112.65735715266743,89.3994909433559,-3.11,-1.66,-0.21,5.0,2.0,0.0,12.0,0.0,2.0,0.0,0.0,13.44,0.59,
23.878,112.66873571526675,89.3999490943356,-3.05,-1.44,-0.21,5.0,2.0,0.0,12.0,0.0,2.0,0.0,0.0,13.24,0.59,
23.903,112.66987357152668,89.31899490943357,-3.17,-1.64,-0.24,5.0,2.0,0.0,12.0,0.0,2.0,0.0,0.0,13.15,0.0,
23.927,112.70598735715265,89.36489949094336,-2.93,-1.6,-0.38,5.0,2.0,0.0,12.0,0.0,2.0,0.0,0.0,13.05,0.0,
23.952,112.71859873571528,89.37848994909433,-2.76,-1.65,-0.33,5.0,2.0,0.0,12.0,0.0,2.0,0.0,0.0,12.85,0.0,
23.976,112.72885987357154,89.45184899490943,-2.64,-1.44,-0.29,5.0,2.0,0.0,12.0,0.0,2.0,0.0,0.0,12.85,0.0,
24.0,112.68488598735716,89.45018489949095,-2.64,-1.27,-0.51,5.0,2.0,0.0,12.0,0.0,2.0,0.0,0.0,12.75,0.0,
24.025,112.68948859873572,89.4770184899491,-2.84,-1.23,-0.11,5.0,2.0,0.0,12.0,0.0,2.0,0.0,0.0,12.65,0.39,
24.049,112.66294885987358,89.45270184899492,-2.95,-1.21,-0.35,5.0,2.0,0.0,12.0,0.0,2.0,0.0,0.0,12.56,0.0,
24.074,112.65129488598735,89.4772701848995,-2.75,-1.38,-0.14,5.0,2.0,0.0,12.0,0.0,2.0,0.0,0.0,12.56,0.0,
24.098,112.67712948859874,89.44372701848994,-2.71,-1.08,-0.12,5.0,2.0,0.0,11.0,0.0,2.0,0.0,0.0,12.46,0.29,
24.123,112.71571294885987,89.44037270184899,-2.83,-1.09,-0.29,5.0,2.0,0.0,11.0,0.0,2.0,0.0,0.0,12.46,0.39,
24.147,112.719571294886,89.48503727018489,-2.93,-1.05,-0.28,5.0,2.0,0.0,11.0,0.0,2.0,0.0,0.0,12.46,0.1,
24.171,112.73795712948859,89.47150372701849,-3.09,-0.7,-0.34,5.0,2.0,0.0,11.0,0.0,2.0,0.0,0.0,12.36,0.2,
24.196,112.79379571294885,89.47915037270185,-3.03,-1.05,-0.26,5.0,2.0,0.0,11.0,0.0,2.0,0.0,0.0,12.36,0.29,
24.22,112.75437957129489,89.41691503727017,-2.95,-1.27,-0.21,5.0,2.0,0.0,11.0,0.0,2.0,0.0,0.0,12.46,0.49,
24.245,112.75043795712949,89.41969150372702,-2.85,-1.0,-0.09,5.0,2.0,0.0,11.0,0.0,2.0,0.0,0.0,12.46,0.39,
24.269,112.72304379571295,89.4379691503727,-2.71,-0.85,-0.25,5.0,2.0,0.0,11.0,0.0,2.0,0.0,0.0,12.56,0.2,
24.294,112.71130437957129,89.48479691503726,-2.81,-1.03,-0.46,5.0,2.0,0.0,11.0,0.0,2.0,0.0,0.0,12.65,0.0,
24.318,112.74613043795713,89.48047969150373,-2.59,-1.16,-0.23,5.0,2.0,0.0,11.0,0.0,2.0,0.0,0.0,12.75,0.0,
24.343,112.73161304379572,89.53404796915038,-2.81,-0.95,-0.33,5.0,2.0,0.0,12.0,0.0,2.0,0.0,0.0,12.75,0.0,
24.367,112.71216130437956,89.55740479691504,-2.9,-0.79,-0.54,5.0,2.0,0.0,11.0,0.0,2.0,0.0,0.0,12.85,0.2,
24.391,112.73721613043794,89.5507404796915,-2.63,-0.89,-0.47,5.0,2.0,0.0,11.0,0.0,2.0,0.0,0.0,12.95,0.2,
24.416,112.81172161304379,89.57707404796915,-2.6,-1.02,-0.55,5.0,2.0,0.0,12.0,0.0,2.0,0.0,0.1,12.95,0.29,
24.44,112.83717216130438,89.60670740479691,-2.6,-0.69,-0.91,5.0,2.0,0.0,11.0,0.0,2.0,0.0,0.1,13.05,0.2,
24.465,112.84871721613044,89.59167074047969,-2.62,-0.7,-0.72,5.0,2.0,0.0,11.0,0.0,2.0,0.0,0.2,13.15,0.39,
24.489,112.79587172161305,89.54516707404798,-2.66,-0.31,-0.54,5.0,1.0,0.0,11.0,0.0,2.0,0.0,0.29,13.24,0.78,
24.514,112.76358717216131,89.6305167074048,-2.76,-0.47,1.26,5.0,1.0,0.0,11.0,0.0,2.0,0.0,0.39,13.05,0.69,
24.539,112.77835871721614,89.62105167074048,-2.23,-0.48,-1.19,5.0,1.0,0.0,11.0,0.0,2.0,0.0,0.49,13.05,0.29,
24.562,112.7978358717216,89.64710516707405,-2.43,-0.65,-0.91,5.0,1.0,0.0,11.0,0.0,2.0,0.0,0.59,13.05,0.78,
24.587,112.84478358717216,89.6587105167074,-2.92,-0.87,-0.42,5.0,1.0,0.0,11.0,0.0,2.0,0.0,0.69,12.85,0.39,
24.611,112.87647835871721,89.67787105167073,-2.92,-0.92,-0.32,5.0,1.0,0.0,11.0,0.0,2.0,0.0,0.59,12.95,0.2,
24.636,112.84364783587174,89.65278710516708,-2.97,-0.79,-0.68,5.0,1.0,0.0,11.0,0.0,2.0,0.0,0.59,12.95,0.0,
24.66,112.88536478358716,89.66827871051672,-2.74,-1.01,-0.22,5.0,1.0,0.0,11.0,0.0,2.0,0.0,0.59,13.05,0.0,
24.685,112.95253647835871,89.66982787105167,-3.13,-0.89,0.18,5.0,1.0,0.0,11.0,0.0,2.0,0.0,0.59,13.05,0.78,
24.71,112.95925364783587,89.71498278710517,-3.5,-0.98,-0.05,5.0,1.0,0.0,11.0,0.0,2.0,0.0,0.49,13.15,0.0,
24.734,112.96892536478359,89.75549827871052,-3.11,-0.51,-0.53,5.0,1.0,0.0,11.0,0.0,2.0,0.0,0.59,13.24,0.2,
24.758,113.00589253647836,89.77754982787106,-3.25,-0.92,-0.08,5.0,1.0,0.0,11.0,0.0,2.0,0.0,0.59,13.34,0.2,
24.782,113.07258925364783,89.76175498278711,-3.3,-1.08,0.24,5.0,1.0,0.0,11.0,0.0,2.0,0.0,0.59,13.44,0.2,
24.807,113.09725892536477,89.78717549827871,-3.11,-1.15,0.21,5.0,1.0,0.0,11.0,0.0,2.0,0.0,0.59,13.64,0.0,
