time,pitch,roll,gyrx,gyry,gyrz,f1,f2,f3,f4,f5,f6,f7,g1,g2,g3
0.356,59.55,13.79,2.0,-1.0,-2.0,0,2,0,0,0,0,0,0.00,0.00,0.00,
0.369,68.04599999999999,15.878,0.0,2.0,0.0,0,2,0,0,0,0,0,0.00,1.28,0.00,
0.382,76.1406,17.724800000000002,-3.0,3.0,0.0,0,2,0,0,0,0,0,0.00,0.00,0.00,
0.396,83.33106,19.16048,-6.0,3.0,0.0,0,2,0,0,0,0,0,0.10,0.59,0.00,
0.409,90.026106,20.168048000000002,-7.0,0.0,-1.0,0,2,0,0,0,0,0,0.00,0.20,0.00,
0.422,95.6456106,21.2048048,-4.0,-2.0,-5.0,0,2,0,0,0,0,0,0.10,0.00,0.00,
0.436,100.25756106,22.28048048,0.0,-2.0,-6.0,0,2,0,0,0,0,0,0.00,0.00,0.00,
0.449,103.850756106,23.234048048,0.0,0.0,-3.0,0,2,0,0,0,0,0,0.10,0.49,0.00,
0.463,106.9370756106,24.0494048048,0.0,0.0,0.0,0,2,0,0,0,0,0,0.00,0.78,0.00,
0.477,109.67570756106,24.57194048048,-4.0,0.0,1.0,0,2,0,0,0,0,0,0.00,0.00,0.00,
0.49,111.63257075610599,24.984194048048,-7.0,-1.0,1.0,0,2,0,0,0,0,0,0.00,0.59,0.00,
0.503,113.4392570756106,25.3944194048048,-7.0,-2.0,0.0,0,2,0,0,0,0,0,0.00,0.00,0.00,
0.517,115.24892570756106,25.76844194048048,-4.0,-3.0,-2.0,0,2,0,0,0,0,0,0.10,0.00,0.00,
0.531,116.69889257075612,26.300844194048047,0.0,-3.0,-4.0,0,2,0,0,0,0,0,0.10,0.00,0.00,
0.544,117.64488925707562,26.858084419404804,2.0,0.0,-3.0,0,2,0,0,0,0,0,0.20,0.00,0.00,
0.558,118.36948892570756,27.237808441940484,3.0,4.0,0.0,0,2,0,0,0,0,0,0.20,0.00,0.00,
0.571,119.10794889257076,27.455780844194045,2.0,6.0,2.0,0,2,0,0,0,0,0,0.10,0.00,0.00,
0.584,120.24379488925709,27.396578084419403,0.0,5.0,3.0,0,2,0,0,0,0,0,0.00,0.00,0.00,
0.598,121.64437948892571,27.23765780844194,-1.0,1.0,1.0,0,2,0,0,0,0,0,0.00,0.49,0.00,
0.611,122.89143794889257,27.068765780844195,0.0,-2.0,-1.0,0,2,0,0,0,0,0,0.00,1.47,0.00,
0.624,123.54714379488927,27.19587657808442,1.0,-2.0,-3.0,0,2,0,0,0,0,0,0.10,1.08,0.00,
0.638,124.10771437948893,27.343587657808442,2.0,-2.0,-2.0,0,2,0,0,0,0,0,0.00,0.88,0.00,
0.652,124.43377143794889,27.556358765780843,0.0,0.0,-1.0,0,2,0,0,0,0,0,0.10,0.29,0.00,
0.665,124.4213771437949,27.730635876578084,-1.0,0.0,-1.0,0,2,0,0,0,0,0,0.00,1.77,0.00,
0.678,124.37513771437949,27.82006358765781,-2.0,0.0,-1.0,0,2,0,0,0,0,0,0.00,0.00,0.00,
0.692,124.42451377143796,27.766006358765782,-2.0,-1.0,-3.0,0,2,0,0,0,0,0,0.00,1.37,0.00,
0.706,124.3124513771438,27.940600635876578,-1.0,-1.0,-4.0,0,2,0,0,0,0,0,0.00,0.00,0.10,
0.719,124.32824513771439,28.066060063587656,0.0,-1.0,-4.0,0,2,0,0,0,0,0,0.00,0.39,0.10,
0.733,124.26682451377144,28.159606006358768,-2.0,0.0,-2.0,0,2,0,0,0,0,0,0.10,0.00,0.00,
0.746,124.35068245137715,28.123960600635876,-2.0,0.0,0.0,0,2,0,0,0,0,0,0.00,0.78,0.00,
0.76,124.24206824513772,28.10239606006359,-4.0,0.0,0.0,0,2,0,0,0,0,0,0.00,0.00,0.00,
0.774,124.26720682451378,28.05523960600636,-4.0,0.0,0.0,0,2,0,0,0,0,0,0.00,1.67,0.00,
0.787,124.51272068245139,27.951523960600635,-3.0,-2.0,-1.0,0,2,0,0,0,0,0,0.10,0.39,0.00,
0.8,124.64527206824513,28.004152396060064,-2.0,-3.0,-2.0,0,2,0,0,0,0,0,0.10,0.00,0.00,
0.814,124.3795272068245,28.216415239606008,0.0,-2.0,-1.0,0,2,0,0,0,0,0,0.20,0.39,0.00,
0.828,124.12795272068244,28.444641523960602,0.0,0.0,0.0,0,2,0,0,0,0,0,0.10,0.00,0.00,
0.841,124.03979527206825,28.56646415239606,0.0,1.0,0.0,0,2,0,0,0,0,0,0.10,0.59,0.00,
0.855,124.19297952720683,28.569646415239607,-3.0,1.0,0.0,0,2,0,0,0,0,0,0.10,0.00,0.00,
0.868,124.40629795272069,28.48896464152396,-4.0,0.0,-1.0,0,2,0,0,0,0,0,0.00,0.98,0.00,
0.881,124.66162979527206,28.372896464152397,-3.0,-1.0,-3.0,0,2,0,0,0,0,0,0.10,0.00,0.00,
0.894,124.7681629795272,28.37028964641524,0.0,-1.0,-3.0,0,2,0,0,0,0,0,0.10,0.78,0.00,
0.909,124.76081629795273,28.424028964641522,0.0,-1.0,-2.0,0,2,0,0,0,0,0,0.10,0.39,0.00,
0.922,124.94908162979527,28.44740289646415,-1.0,-1.0,-1.0,0,2,0,0,0,0,0,0.10,0.00,0.00,
0.935,125.28290816297952,28.359740289646414,-2.0,0.0,-1.0,0,2,0,0,0,0,0,0.10,0.00,0.00,
0.949,125.53229081629796,28.377974028964637,-4.0,0.0,-3.0,0,2,0,0,0,0,0,0.00,0.10,0.00,
0.963,125.5392290816298,28.352797402896464,-4.0,-1.0,-4.0,0,2,0,0,0,0,0,0.10,0.88,0.00,
0.976,125.20692290816298,28.38627974028965,-1.0,0.0,-4.0,0,2,0,0,0,0,0,0.00,0.00,0.00,
0.99,124.8856922908163,28.407627974028962,0.0,0.0,-3.0,0,2,0,0,0,0,0,0.10,1.18,0.00,
1.003,124.77256922908163,28.454762797402896,0.0,0.0,-2.0,0,2,0,0,0,0,0,0.00,0.00,0.00,
1.016,125.06725692290816,28.423476279740292,0.0,0.0,0.0,0,2,0,0,0,0,0,0.10,0.10,0.00,
1.03,125.18672569229082,28.42934762797403,-2.0,0.0,0.0,0,2,0,0,0,0,0,0.10,0.00,0.00,
1.043,125.24367256922909,28.348934762797402,-3.0,0.0,0.0,0,2,0,0,0,0,0,0.00,0.59,0.00,
1.057,125.0783672569229,28.322893476279738,-3.0,-2.0,-2.0,0,2,0,0,0,0,0,0.10,0.00,0.00,
1.071,124.96283672569228,28.347289347627974,-1.0,-1.0,-2.0,0,2,0,0,0,0,0,0.10,0.00,0.00,
1.084,125.05028367256922,28.430728934762797,0.0,-1.0,-2.0,0,2,0,0,0,0,0,0.00,0.00,0.00,
1.097,125.05902836725693,28.58307289347628,-1.0,-1.0,-1.0,0,2,0,0,0,0,0,0.00,0.00,0.00,
1.112,125.0959028367257,28.64330728934763,-2.0,0.0,0.0,0,2,0,0,0,0,0,0.00,2.26,0.00,
1.125,125.04559028367257,28.57733072893476,-3.0,1.0,0.0,0,2,0,0,0,0,0,0.00,5.40,0.00,
1.138,125.04055902836726,28.471733072893475,-4.0,1.0,0.0,0,2,0,0,0,0,0,0.10,0.00,0.00,
1.152,125.22905590283673,28.290173307289347,-4.0,0.0,-2.0,0,2,0,0,0,0,0,0.20,0.00,0.00,
1.166,125.22090559028368,28.290017330728933,-2.0,-1.0,-3.0,0,2,0,0,0,0,0,0.20,0.00,0.00,
1.179,125.42709055902837,28.281001733072895,0.0,-2.0,-3.0,0,2,0,0,0,0,0,0.10,0.00,0.00,
1.193,125.48370905590284,28.316100173307287,0.0,-1.0,-1.0,0,2,0,0,0,0,0,0.10,0.00,0.00,
1.207,125.50737090559028,28.400610017330727,0.0,0.0,0.0,0,2,0,0,0,0,0,0.10,0.00,0.00,
1.22,125.48273709055903,28.409061001733072,0.0,0.0,0.0,0,2,0,0,0,0,0,0.00,0.00,0.00,
1.233,125.17427370905591,28.49990610017331,-2.0,0.0,0.0,0,2,0,0,0,0,0,0.00,0.00,0.00,
1.247,125.0174273709056,28.526990610017332,-3.0,0.0,-1.0,0,2,0,0,0,0,0,0.10,0.00,0.00,
1.261,124.86674273709055,28.619699061001732,-2.0,0.0,-2.0,0,2,0,0,0,0,0,0.10,0.00,0.00,
1.274,124.89667427370907,28.69196990610017,0.0,0.0,-2.0,0,2,0,0,0,0,0,0.10,0.00,0.00,
1.288,125.16066742737091,28.69019699061002,1.0,0.0,0.0,0,2,0,0,0,0,0,0.10,0.00,0.10,
1.301,125.25006674273709,28.690019699061004,0.0,0.0,1.0,0,2,0,0,0,0,0,0.10,0.00,0.00,
1.315,125.34900667427371,28.627001969906104,0.0,0.0,1.0,0,2,0,0,0,0,0,0.10,0.00,0.10,
1.329,125.40390066742737,28.63870019699061,-2.0,0.0,0.0,0,2,0,0,0,0,0,0.00,0.00,0.10,
1.342,125.56239006674274,28.50487001969906,-3.0,-1.0,0.0,0,2,0,0,0,0,0,0.00,0.00,0.00,
1.355,125.59623900667427,28.446487001969906,-3.0,-2.0,-2.0,0,2,0,0,0,0,0,0.00,0.00,0.00,
1.37,125.55462390066742,28.43164870019699,-2.0,-2.0,-4.0,0,2,0,0,0,0,0,0.00,0.00,0.00,
1.383,125.27146239006673,28.4931648700197,-1.0,-2.0,-3.0,0,2,0,0,0,0,0,0.00,0.00,0.00,
1.397,124.95514623900667,28.66131648700197,0.0,0.0,-1.0,0,2,0,0,0,0,0,0.10,0.00,0.00,
1.411,124.76151462390065,28.8311316487002,-1.0,0.0,0.0,0,2,0,0,0,0,0,0.00,0.00,0.00,
1.424,124.88615146239007,28.812113164870016,-1.0,1.0,0.0,0,2,0,0,0,0,0,0.00,0.00,0.00,
1.437,124.862615146239,28.828211316487,-1.0,1.0,-1.0,0,2,0,0,0,0,0,0.00,0.00,0.00,
1.451,125.01326151462389,28.7848211316487,0.0,0.0,-2.0,0,2,0,0,0,0,0,0.00,0.00,0.00,
1.464,124.98332615146239,28.825482113164867,1.0,0.0,-2.0,0,2,0,0,0,0,0,0.00,0.00,0.00,
1.478,124.96233261514624,28.775548211316487,0.0,0.0,-1.0,0,2,0,0,0,0,0,0.00,0.00,0.00,
1.491,125.12223326151462,28.69855482113165,-1.0,-2.0,0.0,0,2,0,0,0,0,0,0.00,3.14,0.00,
1.505,125.16522332615146,28.708855482113165,-2.0,-3.0,0.0,0,2,0,0,0,0,0,0.00,1.77,0.00,
1.518,124.93552233261514,28.934885548211316,-2.0,-2.0,0.0,0,2,0,0,0,0,0,0.00,0.00,0.00,
1.531,124.8945522332615,29.05648855482113,-2.0,0.0,-1.0,0,2,0,0,0,0,0,0.00,0.00,0.00,
1.546,124.95345522332615,29.239648855482116,0.0,0.0,-3.0,0,2,0,0,0,0,0,0.10,0.00,0.00,
1.559,125.13034552233262,29.293964885548213,0.0,1.0,-5.0,0,2,0,0,0,0,0,0.10,0.00,0.00,
1.572,125.16603455223327,29.362396488554822,1.0,2.0,-7.0,0,2,0,0,0,0,0,0.10,0.00,0.00,
1.586,124.97160345522332,29.40523964885548,2.0,3.0,-7.0,0,2,0,0,0,0,0,0.10,0.00,0.00,
1.599,124.85316034552234,29.45452396488555,3.0,3.0,-6.0,0,2,0,0,0,0,0,0.00,0.00,0.00,
1.612,124.94031603455223,29.585452396488556,3.0,3.0,-6.0,0,2,0,0,0,0,0,0.00,0.49,0.00,
1.626,125.38103160345523,29.769545239648856,5.0,1.0,-7.0,0,2,0,0,0,0,0,0.00,1.18,0.00,
1.639,126.01010316034551,30.012954523964886,8.0,0.0,-9.0,0,2,0,0,0,0,0,0.00,0.00,0.00,
1.653,126.28001031603455,30.487295452396488,13.0,0.0,-11.0,0,2,0,0,0,0,0,0.00,0.00,0.10,
1.667,125.98300103160345,31.10172954523965,19.0,0.0,-13.0,0,2,0,0,0,0,0,0.00,0.00,0.00,
1.681,125.98930010316033,31.622172954523965,22.0,1.0,-14.0,0,2,0,0,0,0,0,0.00,0.00,0.00,
1.694,125.69293001031602,32.466217295452395,30.0,5.0,-15.0,0,2,0,0,0,0,0,0.00,5.30,0.00,
1.708,125.60929300103159,33.10862172954524,36.0,7.0,-19.0,0,2,0,0,0,0,0,0.00,4.51,0.00,
1.722,126.07792930010315,33.62286217295453,42.0,10.0,-22.0,0,2,0,0,0,0,0,0.00,1.86,0.00,
1.735,126.53879293001032,34.36728621729546,47.0,7.0,-28.0,0,2,0,0,0,0,0,0.00,2.65,0.00,
1.75,126.62087929300102,35.30572862172954,53.0,5.0,-33.0,0,2,0,0,0,0,0,0.00,3.92,0.00,
1.763,126.7010879293001,36.47957286217295,67.0,3.0,-35.0,0,2,0,0,0,0,0,0.00,4.32,0.00,
1.777,126.40310879293001,37.75795728621729,76.0,3.0,-39.0,0,2,0,0,0,0,0,0.00,2.16,0.00,
1.79,126.400310879293,39.02879572862173,86.0,7.0,-43.0,0,2,0,0,0,0,0,0.00,3.53,0.00,
1.804,126.2920310879293,40.46987957286217,93.0,14.0,-45.0,0,2,0,0,0,0,0,0.00,1.28,0.00,
1.818,126.74020310879293,41.20798795728622,92.0,22.0,-48.0,0,2,0,0,0,0,0,0.00,0.49,0.10,
1.831,127.09102031087929,42.289798795728615,96.0,25.0,-43.0,0,2,0,0,0,0,0,0.00,0.00,0.00,
1.846,127.32410203108792,42.928979879572864,91.0,20.0,-44.0,0,2,0,0,0,0,0,0.00,0.00,0.00,
1.859,127.7164102031088,43.38889798795728,81.0,18.0,-37.0,0,2,0,0,0,0,0,0.00,0.00,0.00,
1.873,127.77364102031089,43.848889798795724,73.0,14.0,-29.0,0,2,0,0,0,0,0,0.00,0.00,0.00,
1.887,127.59936410203109,44.452888979879575,65.0,15.0,-21.0,0,2,0,0,0,0,0,0.00,1.47,0.00,
1.901,127.3569364102031,45.19728889798796,59.0,14.0,-18.0,0,2,0,0,0,0,0,0.00,0.59,0.00,
1.914,127.4946936410203,45.7487288897988,53.0,11.0,-18.0,0,2,0,0,0,0,0,0.00,2.26,0.10,
1.929,127.53546936410203,46.50587288897988,48.0,11.0,-20.0,0,2,0,0,0,0,0,0.00,0.69,0.10,
1.942,127.7915469364102,47.319587288897985,53.0,8.0,-17.0,0,2,0,0,0,0,0,0.00,0.00,0.20,
1.956,127.49315469364102,48.0579587288898,53.0,6.0,-29.0,0,2,0,0,0,0,0,0.00,0.00,0.20,
1.97,127.3643154693641,48.99579587288898,57.0,11.0,-31.0,0,2,0,0,0,0,0,0.00,0.00,0.29,
1.984,126.8024315469364,50.007579587288895,58.0,18.0,-31.0,0,2,0,0,0,0,0,0.00,0.00,0.29,
1.997,126.48524315469365,50.99075795872889,57.0,24.0,-30.0,0,2,0,0,0,0,0,0.00,0.00,0.29,
2.012,126.26452431546936,51.665075795872895,48.0,20.0,-27.0,0,2,0,0,0,0,0,0.00,0.00,0.29,
2.025,126.46745243154693,52.50650757958729,45.0,11.0,-20.0,0,2,0,0,0,0,0,0.00,0.00,0.29,
2.039,125.9747452431547,52.968650757958734,34.0,7.0,-22.0,0,2,0,0,0,0,0,0.00,0.00,0.29,
2.053,126.99647452431547,52.14186507579587,27.0,-2.0,-22.0,0,2,0,0,0,0,0,0.00,1.67,0.20,
2.066,127.03564745243156,53.13018650757959,26.0,6.0,-12.0,0,2,0,0,0,0,0,0.00,3.14,0.10,
2.08,127.83156474524316,53.688018650757954,20.0,-1.0,-27.0,0,2,0,0,0,0,0,0.00,1.28,0.10,
2.094,128.19015647452431,55.1478018650758,20.0,5.0,-29.0,0,2,0,0,0,0,0,0.00,2.35,0.20,
2.108,128.5950156474524,56.76078018650758,13.0,3.0,-49.0,0,2,0,0,0,0,0,0.00,0.88,0.10,
2.121,128.04150156474523,58.11907801865076,30.0,19.0,-51.0,0,2,0,0,0,0,0,0.00,0.00,0.10,
2.136,127.16715015647452,58.857907801865075,42.0,23.0,-55.0,0,2,0,0,0,0,0,0.10,0.00,0.10,
2.149,126.36871501564745,59.723790780186505,54.0,23.0,-49.0,0,2,0,0,0,0,0,0.10,0.00,0.29,
2.163,126.06387150156475,60.431379078018644,54.0,25.0,-32.0,0,2,0,0,0,0,0,0.20,0.00,0.29,
2.177,126.18638715015646,61.231137907801866,43.0,20.0,-14.0,0,2,0,0,0,0,0,0.10,0.00,0.20,
2.191,126.91863871501565,62.19311379078019,27.0,13.0,-5.0,0,2,0,0,0,0,0,0.00,1.28,0.20,
2.204,127.95486387150156,62.658311379078015,17.0,6.0,-8.0,0,2,0,0,0,0,0,0.00,0.10,0.10,
2.219,128.67048638715016,62.8398311379078,10.0,-6.0,-24.0,0,2,0,0,0,0,0,0.20,0.39,0.10,
2.232,128.904048638715,63.442983113790774,10.0,-2.0,-40.0,0,2,0,0,0,0,0,0.29,0.78,0.10,
2.246,128.9364048638715,64.34929831137907,13.0,6.0,-53.0,0,2,0,0,0,0,0,0.39,1.28,0.10,
2.259,129.27264048638716,65.6279298311379,17.0,20.0,-57.0,0,2,0,0,0,0,0,0.39,0.00,0.20,
2.273,129.8732640486387,67.16879298311379,20.0,23.0,-58.0,0,2,0,0,0,0,0,0.39,0.00,0.20,
2.287,130.20332640486387,67.50287929831138,21.0,31.0,-57.0,0,2,0,0,0,0,0,0.39,0.59,0.20,
2.301,130.28133264048637,68.74228792983114,26.0,33.0,-55.0,0,2,0,0,0,0,0,0.49,0.00,0.29,
2.315,129.96513326404863,70.12622879298311,28.0,26.0,-47.0,0,2,0,0,0,0,0,0.49,0.69,0.20,
2.329,129.85251332640487,71.0566228792983,31.0,27.0,-40.0,0,2,0,0,0,0,0,0.49,1.18,0.20,
2.342,130.0842513326405,71.86066228792984,31.0,25.0,-38.0,0,2,0,0,0,0,0,0.59,1.37,0.20,
2.357,130.77342513326406,73.12906622879298,29.0,18.0,-40.0,0,2,0,0,0,0,0,0.69,0.29,0.29,
2.37,131.2293425133264,74.2099066228793,26.0,16.0,-44.0,0,2,0,0,0,0,0,0.69,1.47,0.29,
2.384,131.55393425133263,75.33499066228794,25.0,17.0,-47.0,0,2,0,0,0,0,0,0.78,1.37,0.29,
2.398,131.63139342513324,76.45549906622878,25.0,19.0,-51.0,0,2,0,0,0,0,0,0.78,0.00,0.29,
2.412,131.90913934251333,77.55754990662288,27.0,22.0,-52.0,0,2,0,0,0,0,0,0.88,1.37,0.29,
2.425,132.15291393425133,78.9907549906623,28.0,21.0,-52.0,0,2,0,0,0,0,0,0.88,0.69,0.29,
2.44,132.58229139342512,80.94307549906623,31.0,14.0,-50.0,0,2,0,0,0,0,0,0.98,0.69,0.39,
2.453,132.5712291393425,83.23530754990661,34.0,5.0,-46.0,0,2,0,0,0,0,0,0.88,0.39,0.29,
2.467,132.01212291393423,85.59753075499066,41.0,0.0,-40.0,0,2,0,0,0,0,0,0.98,1.08,0.29,
2.481,131.30821229139343,87.18375307549906,52.0,-5.0,-34.0,0,2,0,0,0,0,0,0.88,0.00,0.39,
2.495,130.23882122913935,87.85537530754992,60.0,-9.0,-31.0,0,2,0,0,0,0,0,0.98,0.98,0.29,
2.508,130.09588212291396,89.479537530755,65.0,-13.0,-29.0,0,2,0,0,0,0,0,0.98,0.69,0.49,
2.522,129.84758821229138,91.7029537530755,60.0,-15.0,-31.0,0,2,0,0,0,0,0,0.98,0.29,0.39,
2.536,130.59675882122914,94.57129537530754,50.0,-18.0,-38.0,0,2,0,0,0,0,0,0.98,1.37,0.20,
2.549,132.1656758821229,98.09812953753074,40.0,-33.0,-46.0,0,2,0,0,0,0,0,1.18,1.96,0.20,
2.564,131.49456758821228,100.52981295375307,31.0,-29.0,-56.0,0,2,0,0,0,0,0,1.08,2.16,0.20,
2.577,131.36445675882123,101.80798129537531,32.0,-30.0,-67.0,0,2,0,0,0,0,0,1.08,0.69,0.20,
2.591,131.57644567588213,102.99779812953753,36.0,-22.0,-67.0,0,2,0,0,0,0,0,1.08,1.47,0.20,
2.605,131.5166445675882,104.70077981295375,37.0,-14.0,-58.0,0,2,0,0,0,0,0,0.98,0.00,0.10,
2.619,132.23066445675883,108.45307798129538,30.0,-16.0,-52.0,0,2,0,0,0,0,0,1.08,0.00,0.10,
2.632,133.92206644567588,113.04930779812955,19.0,-30.0,-44.0,0,2,0,0,0,0,0,0.98,0.00,0.00,
2.646,134.78420664456758,115.56093077981295,11.0,-38.0,-46.0,0,2,0,0,0,0,0,0.88,0.00,0.00,
2.66,135.16742066445676,116.87409307798129,11.0,-34.0,-46.0,0,2,0,0,0,0,0,0.88,0.00,0.00,
2.673,135.4037420664457,116.96040930779812,20.0,-39.0,-55.0,0,2,0,0,0,0,0,0.78,0.00,0.00,
2.688,135.25637420664458,117.5630409307798,24.0,-41.0,-65.0,0,2,0,0,0,0,0,0.69,0.00,0.00,
2.701,134.96263742066446,119.27930409307797,28.0,-35.0,-65.0,0,2,0,0,0,0,0,0.69,0.00,0.00,
2.715,135.24826374206646,121.5209304093078,28.0,-39.0,-67.0,0,2,0,0,0,0,0,0.78,0.00,0.00,
2.728,135.09682637420667,122.46509304093078,35.0,-38.0,-65.0,0,2,0,0,0,0,0,0.88,0.00,0.00,
2.743,134.30768263742067,122.04650930409308,45.0,-26.0,-64.0,0,2,0,0,0,0,0,0.88,0.20,0.00,
2.756,133.75176826374206,121.14065093040931,55.0,-13.0,-57.0,0,2,0,0,0,0,0,0.88,0.00,0.00,
2.77,133.5791768263742,119.56506509304094,60.0,-12.0,-50.0,0,2,0,0,0,0,0,0.78,0.88,0.00,
2.784,130.22291768263742,117.0675065093041,55.0,-8.0,-36.0,0,2,0,0,0,0,0,0.69,0.00,0.00,
2.798,129.70729176826373,116.7907506509304,57.0,-4.0,-28.0,0,2,0,0,0,0,0,0.59,0.00,0.00,
2.811,130.0697291768264,111.72307506509304,36.0,-66.0,-4.0,0,2,0,0,0,0,0,0.49,0.98,0.00,
2.826,127.98197291768264,106.8153075065093,30.0,-86.0,16.0,0,2,0,0,0,1,0,0.49,1.08,0.29,
2.839,126.65719729176827,100.58253075065092,16.0,-44.0,-6.0,0,2,0,0,0,1,0,0.78,1.08,0.39,
2.853,126.12871972917682,93.6772530750651,5.0,-45.0,-32.0,0,2,0,1,0,1,0,1.57,0.00,0.39,
2.867,123.62787197291767,88.74772530750651,-8.0,-32.0,-44.0,0,2,0,1,0,1,0,1.86,0.00,0.49,
2.881,121.07378719729178,86.13977253075065,-30.0,-26.0,-39.0,0,2,0,0,0,1,0,2.06,0.00,0.69,
2.895,118.88337871972917,85.52797725307506,-40.0,-23.0,-33.0,0,2,0,0,0,1,0,2.16,0.00,0.88,
2.909,116.64833787197291,86.0427977253075,-30.0,-34.0,-28.0,0,2,0,0,0,1,0,2.06,0.00,0.78,
2.923,114.0938337871973,86.63427977253075,-21.0,-39.0,-16.0,0,2,0,0,0,1,0,1.96,0.00,0.69,
2.937,112.42538337871972,85.76642797725309,-13.0,-45.0,2.0,0,2,0,0,0,1,0,1.96,0.00,0.69,
2.951,111.91653833787197,83.94264279772531,-13.0,-39.0,18.0,0,2,0,0,0,0,0,2.06,0.00,0.69,
2.965,112.3066538337872,81.47426427977253,-13.0,-35.0,27.0,0,2,0,0,0,0,0,2.16,0.00,0.88,
2.978,113.66866538337872,78.94142642797725,-14.0,-31.0,26.0,0,2,0,0,0,0,0,2.26,0.00,0.88,
2.993,114.68686653833787,77.68014264279772,-16.0,-12.0,22.0,0,2,0,0,0,0,0,2.45,0.00,0.88,
3.422,116.27368665383379,103.84301426427977,-3.0,1.0,0.0,0,2,0,0,0,0,0,6.67,0.00,0.98,
3.435,116.50436866538338,106.02730142642798,-3.0,1.0,-1.0,0,2,0,0,0,0,0,6.77,0.00,1.08,
3.449,116.54543686653832,105.8857301426428,-3.0,1.0,-1.0,0,2,0,0,0,0,0,6.87,0.00,0.98,
3.463,116.54054368665383,105.61057301426428,-2.0,1.0,-1.0,0,2,0,0,0,0,0,6.97,0.00,0.98,
3.477,116.54905436866538,105.28605730142644,-2.0,2.0,-1.0,0,2,0,0,0,0,0,7.06,0.00,1.08,
3.49,116.67590543686654,105.03760573014264,-2.0,2.0,-1.0,0,2,0,0,0,0,0,7.16,0.00,1.18,
3.505,116.81459054368666,104.84176057301426,-2.0,1.0,-2.0,0,2,0,0,0,0,0,7.26,0.00,1.18,
3.519,116.92745905436865,104.74117605730143,-2.0,1.0,-1.0,0,2,0,0,0,0,0,7.46,0.00,1.28,
3.532,116.94774590543688,104.65911760573015,-2.0,0.0,-1.0,0,2,0,0,0,0,0,7.55,0.00,1.28,
3.547,116.9317745905437,104.55191176057302,-2.0,0.0,0.0,0,2,0,0,0,0,0,7.55,0.00,1.37,
3.56,116.91217745905436,104.3881911760573,-2.0,0.0,0.0,0,2,0,0,0,0,0,7.75,0.00,1.28,
3.573,116.98221774590543,104.29081911760574,-2.0,0.0,0.0,0,2,0,0,0,0,0,7.65,0.00,1.28,
3.588,116.98922177459053,104.15508191176058,-2.0,0.0,-1.0,0,2,0,0,0,0,0,7.65,0.00,1.37,
3.601,116.98992217745905,104.12350819117607,-2.0,0.0,-1.0,0,2,0,0,0,0,0,7.55,0.00,1.28,
3.615,116.91799221774589,104.1653508191176,-2.0,0.0,0.0,0,2,0,0,0,0,0,7.65,0.00,1.28,
3.629,116.88379922177458,104.14253508191176,-1.0,1.0,0.0,0,2,0,0,0,0,0,7.55,0.00,1.37,
3.643,116.91637992217747,104.10425350819116,-1.0,0.0,0.0,0,2,0,0,0,0,0,7.46,0.00,1.28,
3.656,117.05463799221775,104.03742535081912,-1.0,0.0,0.0,0,2,0,0,0,0,0,7.55,0.00,1.28,
3.671,117.21246379922178,104.0217425350819,-1.0,0.0,-1.0,0,2,0,0,0,0,0,7.55,0.00,1.47,
3.684,117.18324637992218,104.06517425350819,-2.0,0.0,-1.0,0,2,0,0,0,0,0,7.46,0.00,1.37,
3.698,117.17132463799221,104.05151742535081,-2.0,0.0,-1.0,0,2,0,0,0,0,0,7.46,0.00,1.37,
3.712,117.18813246379922,104.02315174253508,-2.0,0.0,-1.0,0,2,0,0,0,0,0,7.46,0.00,1.37,
3.726,117.22581324637993,104.01131517425351,-2.0,0.0,-1.0,0,2,0,0,0,0,0,7.65,0.00,1.37,
3.739,117.22958132463799,103.97413151742535,-2.0,0.0,-1.0,0,2,0,0,0,0,0,7.65,0.00,1.37,
3.753,117.2389581324638,103.95241315174255,-2.0,0.0,-1.0,0,2,0,0,0,0,0,7.65,0.00,1.47,
3.767,117.23089581324638,103.93224131517425,-2.0,0.0,-1.0,0,2,0,0,0,0,0,7.65,0.00,1.47,
3.781,117.20308958132463,103.85822413151743,-2.0,0.0,-1.0,0,2,0,0,0,0,0,7.55,0.00,1.37,
3.794,117.13730895813246,103.84182241315175,-3.0,0.0,-1.0,0,2,0,0,0,0,0,7.55,0.00,1.47,
3.809,117.13973089581324,103.82218224131518,-2.0,0.0,-1.0,0,2,0,0,0,0,0,7.55,0.00,1.37,
3.823,117.11297308958132,103.81121822413152,-2.0,0.0,-1.0,0,2,0,0,0,0,0,7.55,0.00,1.37,
3.836,117.17329730895813,103.82812182241315,-2.0,0.0,-1.0,0,2,0,0,0,0,0,7.55,0.00,1.37,
3.851,117.17032973089582,103.83881218224131,-2.0,0.0,-1.0,0,2,0,0,0,0,0,7.55,0.00,1.47,
3.864,117.15203297308958,103.80388121822413,-3.0,0.0,-1.0,0,2,0,0,0,0,0,7.55,0.00,1.57,
3.878,117.23120329730895,103.84538812182241,-2.0,0.0,-1.0,0,2,0,0,0,0,0,7.65,0.00,1.47,
3.892,117.29312032973088,103.78653881218224,-2.0,0.0,-1.0,0,2,0,0,0,0,0,7.75,0.00,1.47,
3.906,117.30831203297309,103.83465388121823,-2.0,0.0,-1.0,0,2,0,0,0,0,0,7.75,0.00,1.37,
3.919,117.3188312032973,103.82146538812182,-2.0,0.0,-1.0,0,2,0,0,0,0,0,7.85,0.00,1.37,
3.934,117.30188312032972,103.77514653881218,-3.0,0.0,-1.0,0,2,0,0,0,0,0,7.85,0.00,1.47,
3.947,117.30018831203296,103.75251465388122,-3.0,0.0,-1.0,0,2,0,0,0,0,0,7.85,0.00,1.37,
3.961,117.3090188312033,103.71425146538812,-3.0,0.0,-1.0,0,2,0,0,0,0,0,7.85,0.00,1.47,
3.975,117.34590188312032,103.68342514653882,-3.0,0.0,-1.0,0,2,0,0,0,0,0,7.85,0.00,1.47,
3.989,117.33159018831202,103.66234251465387,-2.0,0.0,-2.0,0,2,0,0,0,0,0,7.95,0.00,1.47,
4.002,117.1501590188312,103.71423425146538,-2.0,0.0,-1.0,0,2,0,0,0,0,0,7.95,0.00,1.47,
4.017,117.20401590188311,103.75542342514653,-2.0,0.0,-1.0,0,2,0,0,0,0,0,7.95,0.00,1.47,
4.03,117.1824015901883,103.84954234251465,-2.0,0.0,-2.0,0,2,0,0,0,0,0,7.95,0.00,1.47,
4.044,117.21624015901884,103.85895423425147,-2.0,0.0,-2.0,0,2,0,0,0,0,0,7.85,0.00,1.47,
4.059,117.24662401590189,103.88689542342514,-2.0,0.0,-2.0,0,2,0,0,0,0,0,7.85,0.00,1.47,
4.072,117.24066240159017,103.88968954234252,-2.0,0.0,-2.0,0,2,0,0,0,0,0,8.04,0.00,1.57,
4.086,117.27606624015903,103.94396895423426,-2.0,0.0,-2.0,0,2,0,0,0,0,0,8.04,0.00,1.57,
4.1,117.27960662401591,103.89539689542343,-2.0,0.0,-2.0,0,2,0,0,0,0,0,8.04,0.00,1.47,
4.114,117.34296066240158,103.92653968954235,-2.0,-1.0,-2.0,0,2,0,0,0,0,0,8.04,0.00,1.47,
4.127,117.37629606624014,103.85765396895424,-2.0,-1.0,-2.0,0,2,0,0,0,0,0,8.04,0.00,1.47,
4.142,117.361629606624,103.85076539689543,-2.0,-1.0,-1.0,0,2,0,0,0,0,0,7.95,0.00,1.47,
4.156,117.3151629606624,103.87707653968954,-2.0,-1.0,-1.0,0,2,0,0,0,0,0,7.95,0.00,1.47,
4.169,117.26551629606624,103.87970765396895,-2.0,0.0,-1.0,0,2,0,0,0,0,0,7.85,0.00,1.57,
4.184,117.27855162960662,103.81697076539689,-2.0,0.0,-1.0,0,2,0,0,0,0,0,7.85,0.00,1.67,
4.197,117.24385516296066,103.7386970765397,-2.0,0.0,-2.0,0,2,0,0,0,0,0,7.75,0.00,1.57,
4.211,117.25838551629607,103.76686970765397,-2.0,0.0,-2.0,0,2,0,0,0,0,0,7.75,0.00,1.47,
4.225,117.2688385516296,103.78768697076539,-2.0,0.0,-2.0,0,2,0,0,0,0,0,7.85,0.00,1.57,
4.239,117.26088385516296,103.85276869707654,-2.0,0.0,-2.0,0,2,0,0,0,0,0,7.85,0.00,1.57,
4.252,117.29608838551628,103.86827686970766,-3.0,0.0,-2.0,0,2,0,0,0,0,0,7.85,0.00,1.57,
4.267,117.17360883855163,103.78882768697076,-2.0,0.0,-3.0,0,2,0,0,0,0,0,7.95,0.00,1.57,
4.28,116.98136088385516,103.50188276869707,-3.0,0.0,-2.0,0,2,0,0,0,0,0,8.04,0.00,1.57,
4.294,116.9621360883855,103.4821882768697,-2.0,0.0,-1.0,0,2,0,0,0,0,0,8.04,0.00,1.57,
4.307,116.92421360883856,103.50721882768697,-2.0,0.0,-1.0,0,2,0,0,0,0,0,7.95,0.00,1.47,
4.322,116.94742136088387,103.5367218827687,-2.0,0.0,-1.0,0,2,0,0,0,0,0,8.04,0.00,1.57,
4.336,116.97674213608839,103.54867218827687,-2.0,0.0,-1.0,0,2,0,0,0,0,0,8.14,0.00,1.57,
4.349,117.00667421360885,103.62186721882767,-2.0,0.0,-1.0,0,2,0,0,0,0,0,8.14,0.00,1.57,
4.364,117.03666742136089,103.62918672188276,-2.0,0.0,-1.0,0,2,0,0,0,0,0,8.24,0.00,1.57,
4.377,117.04866674213608,103.74691867218827,-2.0,0.0,-1.0,0,2,0,0,0,0,0,8.24,0.00,1.57,
4.391,117.0678666742136,103.75869186721883,-2.0,0.0,-1.0,0,2,0,0,0,0,0,8.34,0.00,1.57,
4.405,117.08778666742135,103.74186918672189,-2.0,0.0,-1.0,0,2,0,0,0,0,0,8.34,0.00,1.67,
4.419,117.07177866674213,103.74018691867218,-2.0,0.0,-1.0,0,2,0,0,0,0,0,8.24,0.00,1.67,
4.432,117.07017786667421,103.77601869186722,-2.0,0.0,-1.0,0,2,0,0,0,0,0,8.44,0.00,1.67,
4.447,117.07001778666742,103.78860186918672,-2.0,0.0,-1.0,0,2,0,0,0,0,0,8.44,0.00,1.57,
4.46,117.10600177866674,103.78086018691867,-2.0,0.0,-1.0,0,2,0,0,0,0,0,8.44,0.00,1.57,
4.474,117.13660017786667,103.78908601869186,-2.0,0.0,-1.0,0,2,0,0,0,0,0,8.44,0.00,1.57,
4.488,117.13966001778667,103.75390860186918,-2.0,0.0,-1.0,0,2,0,0,0,0,0,8.44,0.00,1.57,
4.502,117.15796600177866,103.77739086018691,-2.0,0.0,-1.0,0,2,0,0,0,0,0,8.44,0.00,1.47,
4.515,117.15079660017787,103.8247390860187,-2.0,0.0,-1.0,0,2,0,0,0,0,0,8.34,0.00,1.57,
4.53,117.19507966001778,103.84747390860187,-2.0,0.0,-1.0,0,2,0,0,0,0,0,8.24,0.00,1.57,
4.544,117.19950796600178,103.84074739086019,-2.0,0.0,-1.0,0,2,0,0,0,0,0,8.34,0.00,1.57,
4.557,117.23595079660016,103.82207473908602,-2.0,0.0,0.0,0,2,0,0,0,0,0,8.34,0.00,1.67,
4.571,117.23959507966,103.81120747390861,-2.0,0.0,0.0,0,2,0,0,0,0,0,8.24,0.00,1.57,
4.585,117.23995950796599,103.78312074739085,-2.0,0.0,-1.0,0,2,0,0,0,0,0,8.14,0.00,1.57,
4.598,117.1949959507966,103.79831207473909,-2.0,0.0,-1.0,0,2,0,0,0,0,0,8.14,0.00,1.57,
4.613,117.23549959507965,103.8088312074739,-2.0,0.0,0.0,0,2,0,0,0,0,0,8.14,0.00,1.67,
4.626,117.22154995950797,103.79188312074739,-2.0,0.0,-1.0,0,2,0,0,0,0,0,8.24,0.00,1.57,
4.64,117.2471549959508,103.90718831207474,-2.0,0.0,-1.0,0,2,0,0,0,0,0,8.24,0.00,1.47,
4.654,117.26771549959507,103.92771883120747,-2.0,0.0,-1.0,0,2,0,0,0,0,0,8.14,0.00,1.57,
4.668,117.2427715499595,103.91177188312075,-2.0,0.0,-1.0,0,2,0,0,0,0,0,8.24,0.00,1.57,
4.682,117.23127715499595,103.93717718831208,-2.0,0.0,-1.0,0,2,0,0,0,0,0,8.24,0.00,1.57,
4.696,117.24812771549959,103.9487177188312,-2.0,0.0,-1.0,0,2,0,0,0,0,0,8.24,0.00,1.57,
4.71,117.27681277154997,103.98587177188311,-2.0,0.0,0.0,0,2,0,0,0,0,0,8.14,0.00,1.57,
4.723,117.225681277155,103.91758717718831,-2.0,0.0,-1.0,0,2,0,0,0,0,0,8.14,0.00,1.57,
4.738,117.2385681277155,103.87475871771883,-2.0,0.0,-1.0,0,2,0,0,0,0,0,8.24,0.00,1.57,
4.751,117.17685681277155,103.84347587177189,-2.0,0.0,-1.0,0,2,0,0,0,0,0,8.24,0.00,1.57,
4.765,117.18868568127715,103.84934758717719,-2.0,0.0,-1.0,0,2,0,0,0,0,0,8.24,0.00,1.57,
4.779,117.19886856812772,103.89493475871772,-2.0,0.0,-1.0,0,2,0,0,0,0,0,8.34,0.00,1.57,
4.793,117.19988685681277,103.84549347587178,-2.0,0.0,-1.0,0,2,0,0,0,0,0,8.34,0.00,1.47,
4.806,117.20898868568126,103.84954934758719,-2.0,0.0,0.0,0,2,0,0,0,0,0,8.14,0.00,1.47,
4.82,117.19189886856813,103.87695493475871,-2.0,0.0,0.0,0,2,0,0,0,0,0,8.24,0.00,1.57,
4.834,117.2081898868568,103.89769549347588,-2.0,0.0,-1.0,0,2,0,0,0,0,0,8.34,0.00,1.57,
4.848,117.21881898868568,103.8997695493476,-2.0,0.0,0.0,0,2,0,0,0,0,0,8.24,0.00,1.57,
4.861,117.18388189886856,103.85497695493476,-2.0,0.0,0.0,0,2,0,0,0,0,0,8.34,0.00,1.57,
4.876,117.14438818988685,103.86849769549347,-2.0,0.0,-1.0,0,2,0,0,0,0,0,8.34,0.00,1.67,
4.889,117.15843881898869,103.84284976954935,-2.0,0.0,0.0,0,2,0,0,0,0,0,8.24,0.00,1.47,
4.903,117.17784388189887,103.81328497695493,-2.0,0.0,0.0,0,2,0,0,0,0,0,8.24,0.00,1.47,
4.917,117.28778438818988,103.8103284976955,-2.0,0.0,-1.0,0,2,0,0,0,0,0,8.14,0.00,1.57,
4.93,117.30777843881899,103.81003284976956,-2.0,0.0,-1.0,0,2,0,0,0,0,0,8.14,0.00,1.57,
4.944,117.30077784388189,103.79200328497696,-2.0,0.0,-1.0,0,2,0,0,0,0,0,8.14,0.00,1.47,
4.959,117.2910777843882,103.78120032849769,-2.0,0.0,-1.0,0,2,0,0,0,0,0,8.24,0.00,1.57,
4.972,117.30810777843882,103.85212003284977,-2.0,0.0,0.0,0,2,0,0,0,0,0,8.14,0.00,1.67,
4.986,117.28281077784389,103.86821200328498,-2.0,0.0,-1.0,0,2,0,0,0,0,0,8.14,0.00,1.57,
5.0,117.22628107778439,103.8338212003285,-2.0,0.0,-1.0,0,2,0,0,0,0,0,8.04,0.00,1.57,
5.014,117.22962810777844,103.85738212003285,-2.0,0.0,0.0,0,2,0,0,0,0,0,8.04,0.00,1.57,
5.027,117.23896281077783,103.8597382120033,-2.0,0.0,-1.0,0,2,0,0,0,0,0,8.14,0.00,1.57,
5.042,117.26689628107778,103.86897382120033,-2.0,0.0,-1.0,0,2,0,0,0,0,0,8.04,0.00,1.47,
5.055,117.28768962810778,103.87889738212003,-2.0,0.0,-1.0,0,2,0,0,0,0,0,8.14,0.00,1.47,
5.069,117.23576896281078,103.906889738212,-2.0,0.0,-1.0,0,2,0,0,0,0,0,8.14,0.00,1.47,
5.083,117.20357689628108,103.9636889738212,-2.0,0.0,-1.0,0,2,0,0,0,0,0,8.04,0.00,1.57,
5.097,117.1733576896281,103.97836889738213,-2.0,0.0,0.0,0,2,0,0,0,0,0,8.14,0.00,1.57,
5.11,117.12533576896281,104.03383688973823,-2.0,0.0,-1.0,0,2,0,0,0,0,0,8.04,0.00,1.47,
5.125,117.10253357689628,104.03038368897383,-2.0,0.0,0.0,0,2,0,0,0,0,0,8.14,0.00,1.57,
5.138,117.14525335768963,104.0570383688974,-2.0,0.0,-1.0,0,2,0,0,0,0,0,8.14,0.00,1.47,
5.152,117.16752533576896,104.02370383688974,-2.0,0.0,-1.0,0,2,0,0,0,0,0,8.14,0.00,1.57,
5.166,117.1067525335769,103.93037038368898,-2.0,0.0,-1.0,0,2,0,0,0,0,0,8.14,0.00,1.47,
5.18,117.09167525335769,103.8760370383689,-2.0,0.0,-1.0,0,2,0,0,0,0,0,8.14,0.00,1.47,
5.193,117.10816752533577,103.9246037038369,-2.0,0.0,-1.0,0,2,0,0,0,0,0,8.14,0.00,1.57,
5.208,117.12781675253358,103.9474603703837,-2.0,0.0,0.0,0,2,0,0,0,0,0,8.14,0.00,1.57,
5.221,117.19278167525336,103.96774603703838,-2.0,0.0,-1.0,0,2,0,0,0,0,0,8.14,0.00,1.57,
5.235,117.19027816752534,103.97877460370384,-2.0,0.0,0.0,0,2,0,0,0,0,0,8.24,0.00,1.57,
5.249,117.19902781675253,103.94387746037039,-2.0,0.0,-1.0,0,2,0,0,0,0,0,8.14,0.00,1.47,
5.263,117.23590278167524,103.91338774603705,-2.0,0.0,-1.0,0,2,0,0,0,0,0,8.14,0.00,1.37,
5.276,117.20359027816752,103.91933877460372,-2.0,0.0,-1.0,0,2,0,0,0,0,0,8.14,0.00,1.47,
5.291,117.28135902781676,103.87493387746038,-2.0,0.0,-1.0,0,2,0,0,0,0,0,8.14,0.00,1.47,
5.304,117.27113590278167,103.83449338774604,-2.0,0.0,-1.0,0,2,0,0,0,0,0,8.14,0.00,1.57,
5.318,117.24311359027816,103.8844493387746,-2.0,0.0,-1.0,0,2,0,0,0,0,0,8.14,0.00,1.47,
5.331,117.28531135902782,103.88044493387747,-2.0,0.0,-1.0,0,2,0,0,0,0,0,8.04,0.00,1.57,
5.346,117.27153113590278,103.89804449338774,-2.0,0.0,-1.0,0,2,0,0,0,0,0,8.14,0.00,1.47,
5.359,117.25215311359028,103.85480444933877,-2.0,0.0,-1.0,0,2,0,0,0,0,0,8.14,0.00,1.47,
5.373,117.21421531135901,103.80548044493388,-2.0,0.0,-1.0,0,2,0,0,0,0,0,8.04,0.00,1.57,
5.388,117.25542153113591,103.80054804449338,-2.0,0.0,-1.0,0,2,0,0,117.20,103.74,-2,0,-1,0,
5.83,117.1245421531136,103.73705480444934,-2.0,0.0,-1.0,0,2,0,0,0,0,0,7.95,0.00,1.47,
5.843,117.07545421531135,103.61370548044493,-2.0,0.0,-1.0,0,2,0,0,0,0,0,8.04,0.00,1.47,
5.858,117.16054542153114,103.63737054804449,-2.0,0.0,-1.0,0,2,0,0,0,0,0,8.04,0.00,1.47,
5.871,117.23205454215311,103.77473705480445,-2.0,0.0,0.0,0,2,0,0,0,0,0,8.04,0.00,1.57,
5.885,117.22120545421531,103.79747370548044,-2.0,0.0,-1.0,0,2,0,0,0,0,0,8.04,0.00,1.47,
5.899,117.31012054542153,103.70974737054804,-2.0,-1.0,-1.0,0,2,0,0,0,0,0,8.04,0.00,1.57,
5.913,117.30101205454214,103.6379747370548,-2.0,0.0,0.0,0,2,0,0,0,0,0,8.04,0.00,1.47,
5.926,117.3271012054542,103.63079747370547,-2.0,0.0,-1.0,0,2,0,0,0,0,0,7.95,0.00,1.47,
5.941,117.39271012054543,103.61207974737054,-2.0,0.0,-1.0,0,2,0,0,0,0,0,7.95,0.00,1.57,
5.954,117.39027101205454,103.61920797473707,-2.0,0.0,-1.0,0,2,0,0,0,0,0,7.95,0.00,1.47,
5.968,117.39002710120545,103.6109207974737,-2.0,0.0,-1.0,0,2,0,0,0,0,0,7.95,0.00,1.37,
5.982,117.36300271012054,103.59209207974737,-2.0,0.0,-1.0,0,2,0,0,0,0,0,8.04,0.00,1.47,
5.996,117.42330027101207,103.60820920797474,-2.0,0.0,-1.0,0,2,0,0,0,0,0,8.04,0.00,1.47,
6.009,117.37533002710121,103.66382092079746,-2.0,0.0,-1.0,0,2,0,0,0,0,0,8.04,0.00,1.47,
6.024,117.36153300271012,103.67838209207976,-2.0,0.0,0.0,0,2,0,0,0,0,0,8.04,0.00,1.37,
6.037,117.42315330027103,103.71583820920797,-2.0,0.0,-1.0,0,2,0,0,0,0,0,8.04,0.00,1.37,
6.051,117.4203153300271,103.67458382092079,-2.0,0.0,-1.0,0,2,0,0,0,0,0,7.95,0.00,1.37,
6.065,117.4380315330027,103.73345838209208,-2.0,0.0,-1.0,0,2,0,0,0,0,0,8.04,0.00,1.37,
6.079,117.46680315330026,103.7933458382092,-2.0,0.0,-1.0,0,2,0,0,0,0,0,8.14,0.00,1.37,
6.093,117.53268031533003,103.85333458382092,-2.0,0.0,-1.0,0,2,0,0,0,0,0,8.14,0.00,1.28,
6.107,117.548268031533,103.8773334583821,-2.0,0.0,-1.0,0,2,0,0,0,0,0,8.14,0.00,1.37,
6.121,117.5408268031533,103.8707333458382,-2.0,0.0,-1.0,0,2,0,0,0,0,0,8.24,0.00,1.47,
6.134,117.48608268031532,103.81607333458382,-2.0,0.0,-1.0,0,2,0,0,0,0,0,8.14,0.00,1.57,
6.149,117.49860826803153,103.81060733345838,-2.0,0.0,-1.0,0,2,0,0,0,0,0,8.04,0.00,1.47,
6.162,117.46386082680314,103.80106073334584,-2.0,0.0,-1.0,0,2,0,0,0,0,0,8.14,0.00,1.47,
6.176,117.48738608268032,103.80010607333458,-2.0,0.0,-1.0,0,2,0,0,0,0,0,8.24,0.00,1.47,
6.19,117.38173860826804,103.70101060733346,-2.0,0.0,0.0,0,2,0,0,0,0,0,8.14,0.00,1.57,
6.204,117.31717386082681,103.80810106073335,-2.0,0.0,0.0,0,2,0,0,0,0,0,8.04,0.00,1.47,
6.217,117.35571738608267,103.88181010607335,-2.0,0.0,0.0,0,2,0,0,0,0,0,8.04,0.00,1.47,
6.232,117.28757173860828,103.92518101060733,-2.0,0.0,-1.0,0,2,0,0,0,0,0,8.14,0.00,1.47,
6.245,117.29875717386082,103.97451810106074,-2.0,0.0,-1.0,0,2,0,0,0,0,0,8.14,0.00,1.57,
6.259,117.32687571738607,103.91645181010608,-2.0,0.0,-1.0,0,2,0,0,0,0,0,8.14,0.00,1.57,
6.273,117.33868757173862,103.91964518101061,-2.0,0.0,-1.0,0,2,0,0,0,0,0,8.14,0.00,1.57,
6.287,117.31286875717387,103.94696451810107,-2.0,0.0,-1.0,0,2,0,0,0,0,0,8.14,0.00,1.57,
6.3,117.3372868757174,103.91369645181011,-1.0,0.0,-1.0,0,2,0,0,0,0,0,8.14,0.00,1.47,
6.315,117.36672868757175,103.883369645181,-2.0,0.0,-1.0,0,2,0,0,0,0,0,8.24,0.00,1.47,
6.328,117.35167286875716,103.87133696451811,-1.0,0.0,-1.0,0,2,0,0,0,0,0,8.24,0.00,1.47,
6.342,117.3321672868757,103.82513369645181,-2.0,0.0,-1.0,0,2,0,0,0,0,0,8.34,0.00,1.47,
6.355,117.36621672868758,103.82951336964518,-1.0,0.0,-1.0,0,2,0,0,0,0,0,8.24,0.00,1.47,
6.37,117.36962167286876,103.82095133696453,-1.0,0.0,-1.0,0,2,0,0,0,0,0,8.34,0.00,1.57,
6.383,117.30696216728687,103.89209513369646,-1.0,0.0,-1.0,0,2,0,0,0,0,0,8.44,0.00,1.57,
6.397,117.31869621672868,103.88120951336964,-1.0,0.0,-1.0,0,2,0,0,0,0,0,8.44,0.00,1.47,
6.412,117.27486962167286,103.87112095133696,-1.0,0.0,-1.0,0,2,0,0,0,0,0,8.34,0.00,1.57,
6.425,117.2884869621673,103.81611209513369,-2.0,0.0,-1.0,0,2,0,0,0,0,0,8.34,0.00,1.57,
6.439,117.30784869621674,103.85561120951337,-1.0,0.0,-1.0,0,2,0,0,0,0,0,8.44,0.00,1.57,
6.453,117.25578486962168,103.85956112095134,-1.0,0.0,-1.0,0,2,0,0,0,0,0,8.44,0.00,1.57,
6.467,117.26857848696216,103.91395611209514,-2.0,0.0,-1.0,0,2,0,0,0,0,0,8.34,0.00,1.57,
6.48,117.2698578486962,103.90139561120952,-2.0,0.0,-1.0,0,2,0,0,0,0,0,8.34,0.00,1.57,
6.495,117.2699857848696,103.86413956112095,-2.0,0.0,-1.0,0,2,0,0,0,0,0,8.34,0.00,1.57,
6.508,117.27899857848696,103.8694139561121,-2.0,0.0,-1.0,0,2,0,0,0,0,0,8.34,0.00,1.67,
6.522,117.27089985784869,103.8699413956112,-2.0,0.0,-1.0,0,2,0,0,0,0,0,8.24,0.00,1.67,
6.536,117.28808998578488,103.81599413956113,-2.0,0.0,-1.0,0,2,0,0,0,0,0,8.34,0.00,1.57,
6.55,117.2898089985785,103.85559941395611,-2.0,0.0,-1.0,0,2,0,0,0,0,0,8.34,0.00,1.57,
6.563,117.34398089985784,103.83255994139562,-2.0,0.0,-1.0,0,2,0,0,0,0,0,8.44,0.00,1.57,
6.578,117.36739808998578,103.83925599413956,-2.0,0.0,-1.0,0,2,0,0,0,0,0,8.34,0.00,1.67,
6.591,117.33373980899857,103.90292559941396,-2.0,0.0,-1.0,0,2,0,0,0,0,0,8.24,0.00,1.67,
6.605,117.26737398089986,103.8732925599414,-2.0,0.0,-1.0,0,2,0,0,0,0,0,8.34,0.00,1.57,
6.619,117.29673739808997,103.91532925599415,-2.0,0.0,-1.0,0,2,0,0,0,0,0,8.24,0.00,1.67,
6.633,117.28167373980901,103.89253292559943,-2.0,0.0,-1.0,0,2,0,0,0,0,0,8.34,0.00,1.57,
6.647,117.2891673739809,103.89025329255995,-2.0,0.0,-1.0,0,2,0,0,0,0,0,8.34,0.00,1.57,
6.661,117.29891673739809,103.89002532925599,-2.0,0.0,-1.0,0,2,0,0,0,0,0,8.24,0.00,1.57,
6.675,117.33589167373981,103.9530025329256,-2.0,0.0,0.0,0,2,0,0,0,0,0,8.34,0.00,1.67,
6.688,117.36658916737399,103.99530025329257,-2.0,0.0,0.0,0,2,0,0,0,0,0,8.24,0.00,1.67,
6.702,117.36065891673739,103.99053002532925,-2.0,0.0,-1.0,0,2,0,0,0,0,0,8.34,0.00,1.67,
6.716,117.35106589167373,104.01705300253292,-2.0,0.0,0.0,0,2,0,0,0,0,0,8.24,0.00,1.57,
6.729,117.27810658916736,103.99270530025328,-2.0,0.0,-1.0,0,2,0,0,0,0,0,8.14,0.00,1.47,
6.744,117.23481065891674,103.97227053002533,-2.0,0.0,0.0,0,2,0,0,0,1,0,8.24,0.00,1.57,
6.757,117.24848106589168,103.94322705300254,-2.0,0.0,-1.0,0,2,0,0,0,1,0,8.24,0.00,1.67,
6.771,117.21384810658915,103.92232270530026,-2.0,0.0,-1.0,0,2,0,0,0,1,0,8.14,0.00,1.67,
6.786,117.25538481065892,103.95623227053002,-2.0,0.0,0.0,0,2,0,0,0,1,0,8.14,0.00,1.57,
6.799,117.3315384810659,103.932623227053,-2.0,0.0,-1.0,0,2,0,0,0,1,0,8.24,0.00,1.67,
6.812,117.34815384810658,103.8582623227053,-2.0,0.0,-1.0,0,2,0,0,0,1,0,8.14,0.00,1.57,
6.827,117.27781538481065,103.85082623227053,-2.0,0.0,-1.0,0,2,0,0,0,0,0,8.04,0.00,1.57,
6.841,117.29778153848106,103.73308262322705,-2.0,0.0,-1.0,0,2,0,0,0,0,0,8.14,0.00,1.67,
6.854,117.25477815384811,103.7123082623227,-2.0,0.0,-1.0,0,2,0,0,0,0,0,8.14,0.00,1.67,
6.868,117.18747781538481,103.73723082623226,-2.0,0.0,-1.0,0,2,0,0,0,0,0,8.14,0.00,1.67,
6.882,117.14474778153848,103.80272308262323,-2.0,0.0,0.0,0,2,0,0,0,0,0,8.14,0.00,1.57,
6.896,117.14947477815385,103.80027230826232,-2.0,0.0,-1.0,0,2,0,0,0,0,0,8.14,0.00,1.67,
6.909,117.18594747781539,103.80902723082623,-2.0,0.0,-1.0,0,2,0,0,0,0,0,8.04,0.00,1.67,
6.924,117.15359474778154,103.84590272308262,-2.0,0.0,-1.0,0,2,0,0,0,0,0,8.04,0.00,1.57,
6.937,117.15035947477816,103.88559027230826,-2.0,0.0,-1.0,0,2,0,0,0,0,0,8.04,0.00,1.57,
6.951,117.12303594747782,103.86255902723083,-2.0,0.0,-1.0,0,2,0,0,0,0,0,8.04,0.00,1.57,
6.965,117.07530359474778,103.83325590272308,-2.0,0.0,-1.0,0,2,0,0,0,0,0,8.04,0.00,1.67,
6.979,117.17853035947478,103.84832559027231,-2.0,0.0,-1.0,0,2,0,0,0,0,0,8.14,0.00,1.67,
6.992,117.21585303594748,103.89483255902724,-2.0,0.0,0.0,0,2,0,0,0,0,0,8.14,0.00,1.67,
7.007,117.24658530359476,103.89048325590272,-2.0,0.0,-1.0,0,2,0,0,0,0,0,8.14,0.00,1.57,
7.02,117.24965853035948,103.87204832559027,-2.0,0.0,-1.0,0,2,0,0,0,0,0,8.14,0.00,1.57,
7.034,117.24996585303595,103.86120483255903,-2.0,0.0,-1.0,0,2,0,0,0,1,0,8.14,0.00,1.67,
7.048,117.26799658530358,103.8871204832559,-2.0,0.0,-1.0,0,2,0,0,0,1,0,8.14,0.00,1.67,
7.062,117.28779965853036,103.85371204832559,-2.0,0.0,-1.0,0,2,0,0,0,1,0,8.04,0.00,1.77,
7.075,117.28077996585304,103.80537120483255,-2.0,0.0,0.0,0,2,0,0,0,1,0,8.04,0.00,1.77,
7.09,117.33407799658531,103.88153712048326,-2.0,0.0,-1.0,0,2,0,0,0,0,0,8.04,0.00,1.67,
7.103,117.38440779965852,104.01515371204833,-2.0,-1.0,-1.0,0,2,0,0,0,0,0,8.14,0.00,1.67,
7.117,117.38044077996585,104.08251537120483,-2.0,0.0,0.0,0,2,0,0,0,0,0,8.14,0.00,1.77,
7.131,117.39804407799659,104.08925153712049,-2.0,0.0,0.0,0,2,0,0,0,0,0,8.04,0.00,1.67,
7.145,117.34580440779966,104.04492515371206,-2.0,0.0,-1.0,0,2,0,0,0,0,0,8.04,0.00,1.67,
7.158,117.34058044077997,104.05849251537121,-2.0,0.0,0.0,0,2,0,0,0,0,0,8.24,0.00,1.67,
7.173,117.286058044078,104.01484925153713,-2.0,0.0,-1.0,0,2,0,0,0,0,0,8.24,0.00,1.67,
7.186,117.2806058044078,104.0464849251537,-2.0,0.0,-1.0,0,2,0,0,0,0,0,8.24,0.00,1.67,
7.2,117.26206058044079,104.04064849251537,-2.0,0.0,-1.0,0,2,0,0,0,0,0,8.14,0.00,1.67,
7.215,117.26920605804406,104.03106484925155,-2.0,0.0,-1.0,0,2,0,0,0,0,0,8.24,0.00,1.67,
7.228,117.25192060580441,104.05710648492516,-2.0,0.0,-1.0,0,2,0,0,0,0,0,8.14,0.00,1.67,
7.242,117.23219206058045,103.99671064849251,-2.0,0.0,0.0,0,2,0,0,0,0,0,8.24,0.00,1.57,
7.256,117.21221920605804,103.93667106484925,-2.0,0.0,-1.0,0,2,0,0,0,0,0,8.24,0.00,1.57,
7.27,117.26422192060579,103.89466710648493,-2.0,0.0,0.0,0,2,0,0,0,0,0,8.24,0.00,1.57,
7.283,117.23342219206059,103.8094667106485,-2.0,0.0,-1.0,0,2,0,0,0,0,0,8.14,0.00,1.67,
7.297,117.23934221920605,103.85494667106485,-2.0,0.0,-1.0,0,2,0,0,0,0,0,8.14,0.00,1.77,
7.311,117.2489342219206,103.90449466710649,-2.0,0.0,-1.0,0,2,0,0,0,0,0,8.14,0.00,1.57,
7.325,117.25889342219206,103.93644946671066,-2.0,0.0,0.0,0,2,0,0,0,0,0,8.04,0.00,1.67,
7.339,117.25988934221921,103.89464494667106,-2.0,0.0,-1.0,0,2,0,0,0,0,0,8.14,0.00,1.67,
7.353,117.27798893422192,103.88146449466711,-2.0,0.0,-1.0,0,2,0,0,0,0,0,8.04,0.00,1.67,
7.366,117.2797988934222,103.90714644946672,-2.0,0.0,-1.0,0,2,0,0,0,0,0,8.04,0.00,1.57,
7.38,117.27097988934221,103.89171464494667,-2.0,0.0,-1.0,0,2,0,0,0,0,0,8.04,0.00,1.57,
7.394,117.27009798893421,103.90817146449467,-2.0,0.0,-1.0,0,2,0,0,0,0,0,8.04,0.00,1.57,
7.408,117.31500979889341,103.87381714644947,-2.0,0.0,-1.0,0,2,0,0,0,0,0,8.14,0.00,1.57,
7.421,117.27450097988932,103.87938171464495,-2.0,0.0,-1.0,0,2,0,0,0,0,0,8.04,0.00,1.57,
7.436,117.24345009798893,103.8169381714645,-2.0,0.0,-1.0,0,2,0,0,0,0,0,8.04,0.00,1.57,
7.449,117.29434500979889,103.86469381714645,-2.0,0.0,-1.0,0,2,0,0,0,0,0,8.04,0.00,1.67,
7.463,117.2544345009799,103.82446938171465,-2.0,0.0,-1.0,0,2,0,0,0,0,0,8.04,0.00,1.67,
7.477,117.26844345009798,103.82044693817147,-2.0,0.0,-1.0,0,2,0,0,0,0,0,8.04,0.00,1.77,
7.491,117.2788443450098,103.79304469381715,-2.0,0.0,-1.0,0,2,0,0,0,0,0,8.04,0.00,1.67,
7.504,117.27088443450097,103.77230446938171,-2.0,0.0,-1.0,0,2,0,0,0,0,0,7.95,0.00,1.77,
7.519,117.24308844345009,103.77023044693817,-2.0,0.0,-1.0,0,2,0,0,0,0,0,7.95,0.00,1.67,
7.532,117.240308844345,103.77902304469382,-2.0,0.0,-1.0,0,2,0,0,0,0,0,7.95,0.00,1.57,
7.546,117.29403088443449,103.80690230446939,-2.0,0.0,-1.0,0,2,0,0,0,0,0,7.95,0.00,1.57,
7.561,117.28140308844345,103.79169023044693,-2.0,0.0,-1.0,0,2,0,0,0,0,0,8.04,0.00,1.57,
7.574,117.31614030884434,103.8171690230447,-2.0,0.0,-1.0,0,2,0,0,0,0,0,8.04,0.00,1.67,
7.588,117.31061403088444,103.81971690230446,-2.0,0.0,-1.0,0,2,0,0,0,0,0,8.14,0.00,1.67,
7.602,117.24706140308844,103.81997169023045,-2.0,0.0,-1.0,0,2,0,0,0,0,0,8.04,0.00,1.57,
7.616,117.23170614030884,103.77499716902304,-2.0,0.0,-1.0,0,2,0,0,0,0,0,7.95,0.00,1.57,
7.629,117.25717061403088,103.7614997169023,-2.0,0.0,-1.0,0,2,0,0,0,0,0,7.95,0.00,1.47,
7.644,117.21471706140308,103.76014997169023,-2.0,0.0,-1.0,0,2,0,0,0,0,0,8.04,0.00,1.67,
7.657,117.22847170614031,103.81401499716902,-2.0,0.0,0.0,0,2,0,0,0,0,0,8.04,0.00,1.67,
7.671,117.30184717061404,103.8374014997169,-2.0,0.0,-1.0,0,2,0,0,0,0,0,8.04,0.00,1.57,
7.685,117.3001847170614,103.80374014997169,-2.0,0.0,-1.0,0,2,0,0,0,0,0,7.95,0.00,1.67,
7.699,117.25501847170614,103.85437401499718,-2.0,0.0,-1.0,0,2,0,0,0,0,0,7.95,0.00,1.57,
7.712,117.30450184717061,103.94043740149972,-2.0,0.0,0.0,0,2,0,0,0,0,0,7.85,0.00,1.57,
7.727,117.29145018471706,103.93104374014997,-2.0,0.0,-1.0,0,2,0,0,0,0,0,7.85,0.00,1.67,
7.74,117.27214501847169,103.912104374015,-2.0,0.0,0.0,0,2,0,0,0,0,0,7.85,0.00,1.47,
7.754,117.20721450184718,103.9012104374015,-2.0,0.0,-1.0,0,2,0,0,0,0,0,7.95,0.00,1.57,
7.768,117.18272145018472,103.88212104374016,-2.0,0.0,-1.0,0,2,0,0,0,0,0,7.95,0.00,1.57,
7.782,117.18027214501848,103.84421210437401,-2.0,0.0,0.0,0,2,0,0,0,0,0,958.24,0.00,1.57,
7.804,117.22502721450185,103.7954212104374,-2.0,0.0,-1.0,0,2,0,0,0,0,0,7.95,0.00,1.47,
7.818,117.22950272145019,103.81754212104374,-2.0,0.0,-1.0,0,2,0,0,0,0,0,7.95,0.00,1.57,
7.832,117.265950272145,103.80175421210437,-2.0,0.0,-1.0,0,2,0,0,0,0,0,7.95,0.00,1.67,
7.846,117.2605950272145,103.81817542121044,-2.0,0.0,-1.0,0,2,0,0,0,0,0,8.04,0.00,1.67,
7.86,117.29605950272145,103.79281754212104,-2.0,0.0,-1.0,0,2,0,0,0,0,0,7.95,0.00,1.67,
7.874,117.32660595027214,103.8082817542121,-2.0,0.0,-1.0,0,2,0,0,0,0,0,7.95,0.00,1.67,
7.887,117.3206605950272,103.7108281754212,-2.0,0.0,-1.0,0,2,0,0,0,0,0,7.95,0.00,1.67,
7.902,117.3020660595027,103.68308281754213,-2.0,0.0,-1.0,0,2,0,0,0,0,0,7.95,0.00,1.67,
7.915,117.30020660595027,103.68930828175421,-2.0,0.0,-1.0,0,2,0,0,0,0,0,7.95,0.00,1.67,
7.929,117.29102066059502,103.71693082817542,-2.0,0.0,-1.0,0,2,0,0,0,0,0,8.04,0.00,1.67,
7.943,117.2901020660595,103.71969308281754,-2.0,0.0,-1.0,0,2,0,0,0,0,0,8.04,0.00,1.67,
7.957,117.31701020660594,103.79196930828175,-2.0,0.0,-1.0,0,2,0,0,0,0,0,8.14,0.00,1.57,
7.97,117.2837010206606,103.79919693082817,-2.0,0.0,-1.0,0,2,0,0,0,0,0,8.14,0.00,1.47,
7.985,117.27137010206604,103.85391969308282,-2.0,0.0,-1.0,0,2,0,0,0,0,0,8.14,0.00,1.57,
7.998,117.27913701020661,103.89539196930829,-2.0,0.0,-1.0,0,2,0,0,0,0,0,8.04,0.00,1.67,
8.012,117.30691370102066,103.88153919693083,-2.0,0.0,-1.0,0,2,0,0,0,0,0,8.14,0.00,1.67,
8.026,117.28269137010207,103.84415391969308,-2.0,0.0,-1.0,0,2,0,0,0,0,0,8.14,0.00,1.67,
8.04,117.2712691370102,103.8314153919693,-2.0,0.0,-1.0,0,2,0,0,0,0,0,8.14,0.00,1.67,
8.054,117.30612691370102,103.83914153919693,-2.0,0.0,-1.0,0,2,0,0,0,0,0,8.04,0.00,1.67,
8.068,117.3546126913701,103.8849141539197,-2.0,0.0,-1.0,0,2,0,0,0,0,0,8.14,0.00,1.67,
8.082,117.323461269137,103.88049141539197,-2.0,0.0,-1.0,0,2,0,0,0,0,0,8.14,0.00,1.57,
8.095,117.32934612691369,103.8350491415392,-2.0,0.0,-1.0,0,2,0,0,0,0,0,8.14,0.00,1.57,
8.11,117.37493461269136,103.84850491415392,-2.0,0.0,-1.0,0,2,0,0,0,0,0,8.14,0.00,1.57,
8.123,117.30749346126913,103.8678504914154,-2.0,0.0,-1.0,0,2,0,0,0,0,0,8.04,0.00,1.67,
8.137,117.25574934612692,103.88778504914154,-2.0,0.0,-1.0,0,2,0,0,0,0,0,8.04,0.00,1.67,
8.151,117.2505749346127,103.85377850491416,-2.0,0.0,-1.0,0,2,0,0,0,0,0,8.14,0.00,1.67,
8.165,117.21405749346125,103.85037785049141,-2.0,0.0,-1.0,0,2,0,0,0,0,0,8.04,0.00,1.67,
8.178,117.27340574934613,103.85903778504914,-2.0,0.0,-1.0,0,2,0,0,0,0,0,8.14,0.00,1.67,
8.193,117.31534057493461,103.89590377850492,-2.0,0.0,-1.0,0,2,0,0,0,0,0,8.04,0.00,1.67,
8.206,117.30153405749346,103.8995903778505,-2.0,0.0,-1.0,0,2,0,0,0,0,0,8.04,0.00,1.67,
8.22,117.31815340574934,103.89995903778505,-2.0,0.0,-1.0,0,2,0,0,0,0,0,8.04,0.00,1.47,
8.233,117.35581534057492,103.8909959037785,-2.0,0.0,-1.0,0,2,0,0,0,0,0,8.04,0.00,1.57,
8.248,117.33258153405748,103.83609959037786,-2.0,0.0,-1.0,0,2,0,0,0,0,0,8.04,0.00,1.57,
8.261,117.31225815340575,103.83060995903779,-2.0,0.0,-1.0,0,2,0,0,0,0,0,8.04,0.00,1.57,
8.275,117.25622581534057,103.84806099590378,-2.0,0.0,-1.0,0,2,0,0,0,0,0,8.04,0.00,1.57,
8.29,117.24162258153405,103.85880609959038,-2.0,0.0,0.0,0,2,0,0,0,0,0,8.04,0.00,1.67,
8.303,117.33016225815341,103.86888060995904,-2.0,0.0,-1.0,0,2,0,0,0,0,0,8.04,0.00,1.57,
8.317,117.34801622581533,103.94188806099591,-2.0,0.0,-1.0,0,2,0,0,0,0,0,8.04,0.00,1.57,
8.331,117.32280162258152,103.9401888060996,-2.0,0.0,-1.0,0,2,0,0,0,0,0,8.04,0.00,1.67,
8.345,117.32928016225814,103.94901888060997,-2.0,0.0,-1.0,0,2,0,0,0,0,0,8.04,0.00,1.67,
8.358,117.31192801622582,103.895901888061,-2.0,0.0,-1.0,0,2,0,0,0,0,0,8.04,0.00,1.57,
8.373,117.33719280162259,103.9085901888061,-2.0,0.0,-1.0,0,2,0,0,0,0,0,7.95,0.00,1.57,
8.386,117.37571928016226,103.87385901888061,-2.0,0.0,-1.0,0,2,0,0,0,0,0,7.95,0.00,1.57,
8.4,117.42457192801623,103.87938590188807,-2.0,0.0,-1.0,0,2,0,0,0,0,0,8.04,0.00,1.57,
8.414,117.38445719280162,103.82593859018881,-2.0,0.0,-1.0,0,2,0,0,0,0,0,8.04,0.00,1.67,
8.428,117.38944571928016,103.82959385901889,-2.0,0.0,-1.0,0,2,0,0,0,0,0,8.04,0.00,1.57,
8.441,117.35394457192801,103.82995938590189,-2.0,0.0,-1.0,0,2,0,0,0,0,0,8.04,0.00,1.57,
8.456,117.35939445719279,103.82099593859019,-2.0,0.0,-1.0,0,2,0,0,0,0,0,7.95,0.00,1.47,
8.469,117.33293944571928,103.79309959385901,-2.0,0.0,-1.0,0,2,0,0,0,0,0,8.04,0.00,1.57,
8.483,117.33029394457192,103.76330995938591,-2.0,0.0,-1.0,0,2,0,0,0,0,0,8.14,117.26,103.81,
8.926,117.2670293944572,103.80533099593859,-2.0,0.0,0.0,0,2,0,0,0,0,0,8.14,0.00,1.57,
8.94,117.26070293944572,103.80953309959386,-2.0,0.0,0.0,0,2,0,0,0,0,0,8.14,0.00,1.57,
8.953,117.27807029394458,103.86395330995938,-2.0,-1.0,0.0,0,2,0,0,0,0,0,8.14,0.00,1.57,
8.968,117.27080702939445,103.84239533099594,-2.0,0.0,0.0,0,2,0,0,0,0,0,8.14,0.00,1.57,
8.981,117.21608070293944,103.83123953309959,-2.0,0.0,-1.0,0,2,0,0,0,0,0,8.04,0.00,1.47,
8.995,117.22860807029394,103.81212395330996,-2.0,0.0,0.0,0,2,0,0,0,0,0,8.04,0.00,1.47,
9.009,117.31086080702939,103.954212395331,-2.0,0.0,0.0,0,2,0,0,0,0,0,8.14,0.00,1.57,
9.023,117.31908608070293,103.8784212395331,-2.0,0.0,0.0,0,2,0,0,0,0,0,8.24,0.00,1.47,
9.036,117.24790860807028,103.89784212395331,-2.0,0.0,-1.0,0,2,0,0,0,0,0,8.14,0.00,1.67,
9.051,117.24079086080701,103.83678421239533,-2.0,0.0,0.0,0,2,0,0,0,0,0,8.14,0.00,1.67,
9.064,117.2490790860807,103.81267842123953,-2.0,0.0,0.0,0,2,0,0,0,0,0,8.04,0.00,1.57,
9.077,117.28590790860807,103.79226784212395,-2.0,0.0,0.0,0,2,0,0,0,0,0,8.04,0.00,1.57,
9.092,117.28959079086081,103.73622678421239,-2.0,0.0,-1.0,0,2,0,0,0,0,0,8.04,0.00,1.57,
9.105,117.32595907908608,103.69462267842124,-2.0,0.0,0.0,0,2,0,0,0,0,0,8.14,0.00,1.57,
9.119,117.06859590790862,103.71746226784212,-2.0,0.0,0.0,0,2,0,0,0,0,0,8.14,0.00,1.47,
9.133,117.20485959079086,103.80074622678421,-2.0,0.0,-1.0,0,2,0,0,0,0,0,8.04,0.00,1.57,
9.147,117.23648595907908,103.80907462267842,-2.0,0.0,-1.0,0,2,0,0,0,0,0,8.04,0.00,1.57,
9.16,117.25764859590791,103.80090746226784,-2.0,0.0,-1.0,0,2,0,0,0,0,0,8.14,0.00,1.57,
9.175,117.29576485959078,103.78209074622679,-2.0,0.0,-1.0,0,2,0,0,0,0,0,8.04,0.00,1.57,
9.188,117.31757648595907,103.78920907462268,-2.0,0.0,-1.0,0,2,0,0,0,0,0,8.04,0.00,1.57,
9.202,117.29275764859591,103.76292090746227,-2.0,0.0,-1.0,0,2,0,0,0,0,0,8.14,0.00,1.67,
9.217,117.29927576485959,103.74229209074622,-2.0,0.0,-1.0,0,2,0,0,0,0,0,8.14,0.00,1.77,
9.23,117.27292757648596,103.76722920907463,-1.0,0.0,-1.0,0,2,0,0,0,0,0,8.14,0.00,1.67,
9.244,117.2522927576486,103.76972292090747,-2.0,0.0,-1.0,0,2,0,0,0,0,0,8.14,0.00,1.57,
9.257,117.24122927576485,103.72497229209074,-2.0,0.0,-1.0,0,2,0,0,0,0,0,8.04,0.00,1.57,
9.272,117.2311229275765,103.72949722920907,-2.0,0.0,-1.0,0,2,0,0,0,0,0,8.04,0.00,1.57,
9.285,117.23011229275765,103.7209497229209,-2.0,0.0,-1.0,0,2,0,0,0,0,0,8.04,0.00,1.57,
9.299,117.22101122927577,103.75609497229209,-2.0,0.0,-1.0,0,2,0,0,0,0,0,8.04,0.00,1.57,
9.313,117.18410112292757,103.7506094972292,-2.0,0.0,-1.0,0,2,0,0,0,0,0,7.95,0.00,1.67,
9.327,117.16241011229276,103.72306094972292,-2.0,0.0,-1.0,0,2,0,0,0,0,0,7.95,0.00,1.67,
9.34,117.17824101122928,103.73830609497229,-2.0,0.0,-1.0,0,2,0,0,0,0,0,7.95,0.00,1.67,
9.355,117.16182410112293,103.68583060949723,-2.0,0.0,-1.0,0,2,0,0,0,0,0,7.95,0.00,1.67,
9.368,117.2141824101123,103.68058306094973,-2.0,0.0,-1.0,0,2,0,0,0,0,0,8.04,0.00,1.67,
9.382,117.22841824101123,103.68905830609496,-2.0,0.0,-1.0,0,2,0,0,0,0,0,8.04,0.00,1.57,
9.396,117.23884182410112,103.67190583060949,-2.0,0.0,-1.0,0,2,0,0,0,0,0,7.95,0.00,1.67,
9.41,117.30288418241011,103.74219058306095,-2.0,0.0,-1.0,0,2,0,0,0,0,0,7.95,0.00,1.67,
9.424,117.29128841824101,103.7582190583061,-1.0,0.0,-1.0,0,2,0,0,0,0,0,7.85,0.00,1.57,
9.438,117.2361288418241,103.7688219058306,-1.0,0.0,-1.0,0,2,0,0,0,0,0,7.75,0.00,1.57,
9.452,117.1766128841824,103.72488219058306,-1.0,0.0,-1.0,0,2,0,0,0,0,0,7.85,0.00,1.47,
9.465,117.19766128841825,103.78348821905831,-1.0,0.0,0.0,0,2,0,0,0,0,0,7.85,0.00,1.57,
9.48,117.18176612884183,103.84334882190583,-1.0,0.0,-1.0,0,2,0,0,0,0,0,7.85,0.00,1.57,
9.493,117.15317661288418,103.80433488219059,-2.0,0.0,-1.0,0,2,0,0,0,0,0,7.65,0.00,1.47,
9.507,117.19531766128841,103.83643348821906,-2.0,0.0,-1.0,0,2,0,0,0,0,0,7.65,0.00,1.47,
9.521,117.21753176612884,103.81264334882191,-2.0,0.0,-1.0,0,2,0,0,0,0,0,7.46,0.00,1.37,
9.535,117.23775317661287,103.79226433488219,-2.0,0.0,-1.0,0,2,0,0,0,0,0,7.55,0.00,1.37,
9.548,117.23977531766127,103.81722643348822,-2.0,0.0,-1.0,0,2,0,0,0,0,0,7.55,0.00,1.47,
9.563,117.29397753176612,103.85572264334883,-2.0,0.0,-1.0,0,2,0,0,0,0,0,7.55,0.00,1.37,
9.576,117.30839775317662,103.84157226433489,-2.0,0.0,-1.0,0,2,0,0,0,0,0,7.55,0.00,1.47,
9.59,117.30983977531767,103.76815722643349,-2.0,0.0,-1.0,0,2,0,0,0,0,0,7.55,0.00,1.47,
9.604,117.25598397753177,103.76081572264334,-2.0,0.0,-1.0,0,2,0,0,0,0,0,7.65,0.00,1.47,
9.618,117.25959839775318,103.81408157226434,-2.0,0.0,-2.0,0,2,0,0,0,0,0,7.75,0.00,1.37,
9.631,117.25095983977532,103.86440815722644,-1.0,0.0,-2.0,0,2,0,0,0,0,0,7.75,0.00,1.47,
9.646,117.30409598397753,103.82444081572264,-1.0,0.0,-2.0,0,2,0,0,0,0,0,7.65,0.00,1.47,
9.659,117.30940959839776,103.86544408157226,-1.0,0.0,-2.0,0,2,0,0,0,0,0,7.65,0.00,1.47,
9.673,117.38194095983977,103.91454440815723,-1.0,0.0,-2.0,0,2,0,0,0,0,0,7.65,0.00,1.47,
9.687,117.39819409598398,103.96445444081573,-1.0,0.0,-2.0,0,2,0,0,0,0,0,7.55,0.00,1.47,
9.701,117.36381940959839,104.02344544408157,-1.0,0.0,-1.0,0,2,0,0,0,0,0,7.55,0.00,1.47,
9.715,117.34238194095984,104.02934454440816,-1.0,0.0,-1.0,0,2,0,0,0,0,0,7.46,0.00,1.47,
9.729,117.33123819409597,104.03893445444082,-1.0,0.0,-1.0,0,2,0,0,0,0,0,7.46,0.00,1.57,
9.743,117.3121238194096,103.99489344544408,-1.0,0.0,-1.0,0,2,0,0,0,0,0,7.26,0.00,1.37,
9.756,117.28321238194097,104.00848934454442,-2.0,0.0,-1.0,0,2,0,0,0,0,0,7.16,0.00,1.37,
9.771,117.29832123819409,104.00984893445445,-2.0,0.0,-1.0,0,2,0,0,0,0,0,7.26,0.00,1.47,
9.784,117.29083212381941,104.05498489344545,-2.0,0.0,-1.0,0,2,0,0,0,0,0,7.16,0.00,1.57,
9.798,117.30808321238194,104.02349848934453,-2.0,0.0,-1.0,0,2,0,0,0,0,0,7.06,0.00,1.57,
9.811,117.23780832123819,104.01134984893446,-2.0,0.0,-1.0,0,2,0,0,0,0,0,7.06,0.00,1.47,
9.826,117.27578083212383,103.96513498489344,-2.0,0.0,-1.0,0,2,0,0,0,0,0,7.06,0.00,1.47,
9.839,117.30657808321239,103.90651349848935,-2.0,0.0,-1.0,0,2,0,0,0,0,0,7.06,0.00,1.37,
9.853,117.28265780832125,103.87365134984894,-1.0,0.0,-1.0,0,2,0,0,0,0,0,7.06,0.00,1.47,
9.867,117.36126578083213,103.9153651349849,-2.0,0.0,-1.0,0,2,0,0,0,0,0,7.16,0.00,1.47,
9.881,117.31512657808322,103.93753651349849,-2.0,1.0,-1.0,0,2,0,0,0,0,0,7.26,0.00,1.37,
9.895,117.36451265780833,103.93075365134985,-2.0,0.0,-1.0,0,2,0,0,0,0,0,7.16,0.00,1.37,
9.909,117.41445126578083,103.930075365135,-2.0,0.0,-1.0,0,2,0,0,0,0,0,7.16,0.00,1.28,
9.923,117.46444512657808,103.9660075365135,-1.0,0.0,-1.0,0,2,0,0,0,0,0,7.26,0.00,1.37,
9.936,117.4514445126578,103.95160075365135,-2.0,0.0,-1.0,0,2,0,0,0,0,0,7.26,0.00,1.37,
9.951,117.48614445126577,103.91416007536515,-1.0,0.0,-1.0,0,2,0,0,0,0,0,7.26,0.00,1.28,
9.964,117.57061444512658,103.90141600753651,-1.0,-1.0,-1.0,0,2,0,0,0,0,0,7.26,0.00,1.37,
9.978,117.51606144451266,103.91814160075366,-1.0,-1.0,-1.0,0,2,0,0,0,0,0,7.26,0.00,1.28,
9.992,117.51960614445126,103.94681416007538,-1.0,-1.0,-1.0,0,2,0,0,0,0,0,7.16,0.00,1.28,
10.006,117.55596061444513,103.92268141600755,-1.0,-1.0,-1.0,0,2,0,0,0,0,0,7.06,0.00,1.37,
10.02,117.5055960614445,103.97426814160076,-1.0,-1.0,-1.0,0,2,0,0,0,0,0,6.97,0.00,1.57,
10.034,117.47355960614445,104.06042681416007,-1.0,-2.0,-1.0,0,2,0,0,0,0,0,6.87,0.00,1.47,
10.048,117.47935596061444,104.069042681416,-2.0,-1.0,-1.0,0,2,0,0,0,0,0,6.87,0.00,1.47,
10.062,117.41693559606144,104.04290426814161,-2.0,-1.0,-1.0,0,2,0,0,0,0,0,6.77,0.00,1.47,
10.077,117.32969355960614,104.02229042681415,-2.0,-1.0,-1.0,0,2,0,0,0,0,0,6.87,0.00,1.37,
10.09,117.31196935596061,104.02022904268141,-2.0,0.0,0.0,0,2,0,0,0,0,0,6.77,0.00,1.37,
10.104,117.33719693559607,104.04702290426813,-2.0,0.0,0.0,0,2,0,0,0,0,0,6.67,0.00,1.37,
10.118,117.2767196935596,104.03170229042682,-2.0,0.0,0.0,0,2,0,0,0,0,0,6.67,0.00,1.47,
10.132,117.27067196935594,104.04817022904268,-2.0,0.0,0.0,0,2,0,0,0,0,0,6.67,0.00,1.47,
10.145,117.2880671969356,104.05881702290428,-2.0,0.0,0.0,0,2,0,0,0,0,0,6.67,0.00,1.47,
10.16,117.24480671969354,104.08688170229044,-3.0,0.0,0.0,0,2,0,0,0,0,0,6.67,0.00,1.47,
10.173,117.22248067196935,104.04468817022905,-4.0,0.0,0.0,0,2,0,0,0,0,0,6.67,0.00,1.47,
10.187,117.22024806719693,104.2294688170229,-4.0,0.0,1.0,0,2,0,0,0,0,0,6.77,0.00,1.57,
10.201,117.19302480671969,104.22094688170229,-5.0,0.0,3.0,0,2,0,0,0,0,0,6.87,0.00,1.47,
10.215,117.27130248067198,104.16609468817023,-5.0,0.0,4.0,0,2,0,0,0,0,0,6.97,0.00,1.37,
10.229,117.3511302480672,104.08860946881701,-5.0,-1.0,4.0,0,2,0,0,0,0,0,6.97,0.00,1.37,
10.243,117.40411302480672,103.95486094688171,-5.0,-1.0,4.0,0,2,0,0,0,0,0,7.26,0.00,1.18,
10.257,117.35541130248066,103.74348609468817,-5.0,-1.0,4.0,0,2,0,0,0,0,0,7.26,0.00,1.08,
10.27,117.42254113024808,103.67734860946881,-4.0,-1.0,4.0,0,2,0,0,0,0,0,7.36,0.00,1.08,
10.285,117.5822541130248,103.59873486094689,-5.0,-1.0,4.0,0,2,0,0,0,0,0,7.46,0.00,0.88,
10.299,117.46322541130247,103.57287348609468,-5.0,-2.0,5.0,0,2,1,0,0,0,0,7.65,0.00,0.78,
10.312,117.74832254113025,103.64228734860947,-5.0,-3.0,7.0,0,2,1,0,0,0,0,7.95,0.00,0.78,
10.327,117.75883225411303,103.35222873486094,-4.0,-3.0,4.0,0,2,0,0,0,0,0,8.14,0.00,0.69,
10.341,117.3638832254113,103.0712228734861,-3.0,-6.0,2.0,0,2,1,0,0,0,0,8.44,0.00,0.69,
10.354,117.17138832254113,103.00712228734861,-2.0,-3.0,1.0,0,2,1,0,0,0,0,9.03,0.00,0.69,
10.369,117.3681388322541,103.04571222873486,-3.0,-2.0,1.0,0,2,1,0,0,0,0,9.52,0.00,0.78,
10.382,117.13581388322541,103.0225712228735,-3.0,-2.0,2.0,0,2,1,0,0,0,0,9.91,0.00,0.88,
10.396,117.13958138832254,102.93025712228734,-2.0,0.0,3.0,0,2,1,0,0,0,0,10.50,0.00,1.18,
10.411,117.04995813883227,102.56102571222874,1.0,0.0,2.0,1,2,1,0,0,0,0,11.38,0.00,1.28,
10.424,116.90599581388324,102.59610257122287,4.0,1.0,2.0,1,2,1,0,0,0,0,13.15,1.96,1.37,
10.438,116.75659958138833,102.7886102571223,5.0,1.0,2.0,1,2,1,0,0,1,0,14.42,2.94,1.47,
10.451,116.94865995813882,102.75386102571224,6.0,0.0,0.0,1,2,1,0,0,1,0,15.79,1.57,2.06,
10.466,117.04886599581388,102.77738610257123,7.0,-2.0,-2.0,1,2,1,0,0,1,0,17.07,0.00,2.45,
10.48,116.9328865995814,102.88773861025713,7.0,-2.0,-3.0,1,3,1,1,0,1,0,19.33,0.00,2.84,
10.493,117.01128865995814,103.15077386102573,7.0,-2.0,-3.0,1,3,1,1,0,2,0,20.21,0.00,3.04,
10.508,116.98312886599582,103.37507738610257,6.0,-3.0,-4.0,1,3,1,1,0,2,0,20.99,0.00,3.73,
10.522,117.00731288659959,103.33450773861026,7.0,-4.0,-6.0,1,3,1,1,0,2,0,21.97,0.00,3.92,
10.535,117.00073128865995,103.31245077386103,9.0,-6.0,-10.0,1,3,1,1,0,2,0,23.64,2.94,4.12,
10.55,117.00007312886599,103.4182450773861,10.0,-9.0,-15.0,1,3,1,1,0,2,0,24.62,9.71,4.41,
10.564,116.8200073128866,103.33882450773861,14.0,-10.0,-20.0,1,3,1,1,0,3,0,25.70,21.78,5.10,
10.578,116.82900073128866,103.79888245077386,13.0,-13.0,-23.0,1,4,1,1,0,3,0,26.78,28.55,5.59,
10.593,116.56890007312887,104.33088824507739,13.0,-12.0,-22.0,1,4,1,1,0,4,0,28.84,22.37,6.18,
10.607,116.27289000731288,104.67208882450772,12.0,-11.0,-22.0,1,4,1,1,0,4,0,29.63,17.85,7.46,
10.621,116.81928900073127,106.13720888245078,9.0,-9.0,-8.0,1,4,1,1,0,4,0,30.02,12.65,7.85,
10.636,116.04592890007311,106.89572088824508,10.0,-4.0,-7.0,1,5,1,1,0,5,0,30.21,7.16,7.95,
10.65,115.95959289000731,107.22357208882451,9.0,-6.0,-11.0,1,5,1,1,0,5,0,30.51,4.12,7.95,
10.664,115.87895928900073,107.28335720888245,7.0,-3.0,-11.0,1,5,1,1,0,5,0,30.51,0.98,8.24,
10.678,115.73589592890006,105.87633572088824,6.0,-1.0,-8.0,1,5,1,1,0,5,0,30.21,0.00,8.34,
10.692,115.11858959289,106.53663357208882,5.0,-1.0,-6.0,1,5,1,2,0,5,0,29.72,0.00,8.34,
10.706,115.650858959289,106.94466335720888,3.0,-2.0,-10.0,1,5,1,2,0,5,0,28.84,0.00,8.24,
10.721,115.7580858959289,107.18346633572088,0.0,-6.0,-10.0,1,5,1,2,0,5,0,28.15,0.00,8.44,
10.734,115.37280858959288,107.34234663357208,0.0,-5.0,-9.0,1,5,1,2,0,6,0,27.66,0.00,8.63,
10.748,115.1632808589593,107.39423466335721,0.0,-1.0,-7.0,1,5,1,2,0,6,0,27.27,0.00,8.83,
10.763,114.98932808589592,107.38142346633572,-1.0,0.0,-7.0,1,5,1,2,0,6,0,26.78,0.00,9.22,
10.776,115.09793280858959,107.37114234663358,-1.0,0.0,-8.0,1,5,1,2,0,6,0,26.59,0.00,9.32,
10.79,115.28879328085897,107.46011423466335,-2.0,0.0,-8.0,1,5,1,2,0,6,0,26.39,0.00,9.32,
10.805,115.37987932808589,107.27101142346633,-3.0,-2.0,-11.0,1,5,1,2,0,6,0,26.19,0.00,9.32,
10.819,116.08198793280859,108.52110114234662,-3.0,-3.0,2.0,1,5,1,2,0,6,0,25.90,0.00,9.42,
10.832,116.08919879328087,108.20511011423467,-2.0,4.0,-1.0,1,5,1,2,0,6,0,25.80,0.00,9.42,
10.847,116.04491987932809,108.15551101142347,-2.0,-1.0,-7.0,1,5,1,2,0,6,0,25.90,0.00,9.42,
10.861,115.8694919879328,108.08755110114235,-2.0,1.0,-8.0,1,5,1,2,0,6,0,25.90,0.00,9.32,
10.875,116.21194919879328,109.68275511011423,-2.0,3.0,-2.0,1,5,1,2,0,6,0,25.70,2.55,9.22,
10.89,115.79619491987933,109.39227551101143,-1.0,0.0,-12.0,1,5,1,2,0,6,0,25.11,0.00,9.03,
10.904,116.33961949198793,109.48922755110114,-1.0,2.0,-2.0,1,5,1,2,0,6,0,24.72,0.00,8.93,
10.917,116.4299619491988,110.02092275511012,-2.0,1.0,-3.0,1,5,1,2,0,7,0,24.33,0.00,8.73,
10.932,115.88099619491987,110.038092275511,0.0,0.0,-5.0,1,5,1,2,0,7,0,24.03,4.12,8.73,
10.946,115.80809961949198,109.6618092275511,-1.0,0.0,-1.0,1,5,1,2,0,7,0,23.25,3.34,8.63,
10.96,115.66580996194921,109.39918092275511,-1.0,0.0,-2.0,1,5,1,2,0,7,0,22.76,1.57,8.63,
10.975,115.53458099619492,109.27391809227551,-1.0,1.0,-1.0,1,5,1,2,0,7,0,22.27,0.00,8.44,
10.988,115.5214580996195,109.20739180922754,-2.0,1.0,0.0,1,5,1,2,0,7,0,21.88,0.00,8.24,
11.002,115.49314580996194,109.12873918092276,-4.0,1.0,0.0,1,5,1,2,0,8,0,21.29,1.37,8.04,
11.017,115.1213145809962,108.85087391809228,-5.0,2.0,0.0,1,5,1,2,0,8,0,20.99,1.08,7.85,
11.031,115.32713145809961,108.46308739180922,-5.0,3.0,0.0,1,5,1,2,0,8,0,20.80,2.84,7.65,
11.044,115.42871314580997,108.29830873918092,-5.0,4.0,1.0,1,5,1,2,0,8,0,20.70,2.16,7.55,
11.059,115.483871314581,108.32683087391808,-6.0,4.0,1.0,1,5,1,2,0,8,0,20.70,0.69,7.36,
11.073,115.8313871314581,108.26668308739181,-7.0,0.0,0.0,1,5,1,2,0,8,0,20.80,0.20,0.00,
11.087,115.6501387131458,108.08966830873916,-6.0,2.0,0.0,1,5,1,2,0,8,0,20.90,1.18,0.00,
11.101,115.40701387131458,107.90996683087391,-6.0,5.0,-1.0,1,5,1,2,0,8,0,20.99,1.77,7.16,
11.115,115.23870138713146,107.72999668308738,-5.0,5.0,-2.0,1,5,1,2,0,8,0,21.39,0.98,7.16,
11.129,115.41087013871316,107.48699966830873,-4.0,5.0,-3.0,1,5,1,2,0,8,1,21.78,1.28,7.26,
11.144,115.40108701387133,107.49869996683087,-4.0,4.0,-3.0,1,5,1,2,0,8,1,22.07,0.00,7.16,
11.158,115.27410870138714,107.6708699966831,-4.0,7.0,-1.0,1,5,1,2,0,8,1,22.27,0.00,7.16,
11.171,115.49541087013871,107.87708699966832,-4.0,7.0,0.0,1,5,1,2,0,8,1,22.86,0.00,7.16,
11.186,115.70654108701387,107.81670869996684,-4.0,7.0,0.0,1,5,1,2,0,8,1,23.25,0.00,7.16,
11.2,115.70965410870139,107.97267086999668,-4.0,6.0,2.0,1,5,1,2,0,8,1,23.54,0.00,7.16,
11.214,115.56596541087013,107.95226708699967,-3.0,8.0,4.0,1,5,1,2,0,8,1,23.74,0.00,7.16,
11.228,115.66859654108703,108.06722670869996,-3.0,9.0,6.0,1,5,1,2,0,8,1,24.13,0.00,7.06,
11.242,115.8408596541087,108.02472267086999,-4.0,9.0,6.0,1,5,1,2,0,8,1,24.33,0.00,6.87,
11.256,115.99308596541087,108.020472267087,-3.0,9.0,7.0,1,5,1,2,0,8,1,24.52,0.00,6.77,
11.271,116.18830859654108,107.8130472267087,-2.0,9.0,7.0,1,5,1,2,0,8,1,24.72,0.00,6.57,
11.284,116.38783085965412,107.83730472267088,-3.0,8.0,7.0,1,5,1,2,0,8,0,25.02,0.00,6.47,
11.298,116.60578308596541,107.79473047226709,-5.0,8.0,7.0,1,5,1,2,0,8,0,25.21,0.00,6.38,
11.313,116.97857830859654,107.5834730472267,-5.0,7.0,5.0,1,5,1,2,0,8,0,25.41,0.78,6.28,
11.327,117.10585783085965,107.27434730472265,-7.0,6.0,2.0,1,5,1,2,0,8,0,25.80,2.35,6.28,
11.34,117.37958578308596,106.91943473047226,-6.0,5.0,0.0,1,5,1,2,0,8,0,26.68,1.28,6.08,
11.355,117.32595857830859,106.97394347304723,-6.0,4.0,0.0,1,5,1,2,0,8,0,26.98,0.39,6.08,
11.369,117.50959585783086,106.87139434730473,-6.0,4.0,0.0,1,5,1,2,0,8,0,27.37,0.00,6.08,
11.382,117.53695958578308,106.87013943473048,-5.0,4.0,0.0,1,5,1,2,0,8,0,27.86,0.00,6.18,
11.397,117.57569595857831,106.96001394347304,-5.0,4.0,0.0,1,5,1,2,0,8,0,28.35,0.00,6.18,
11.411,117.75956959585784,106.7260013943473,-4.0,2.0,0.0,1,5,1,2,0,8,0,29.14,0.00,6.18,
11.425,117.84995695958578,106.69360013943472,-3.0,1.0,-2.0,1,5,1,2,0,8,0,29.43,0.00,6.18,
11.44,117.90399569595857,106.71736001394348,-3.0,0.0,-2.0,1,5,1,2,0,8,0,29.53,0.00,6.28,
11.453,117.88239956959585,106.69273600139435,-3.0,0.0,-3.0,1,5,1,2,0,8,0,29.63,0.00,6.28,
11.467,117.85323995695958,106.56427360013943,-2.0,0.0,-4.0,1,5,1,2,0,8,0,29.63,0.00,6.28,
11.482,117.85032399569596,106.65042736001394,-2.0,0.0,-4.0,1,5,1,2,0,8,0,29.72,0.00,6.28,
11.922,118.1110323995696,107.4150427360014,-2.0,0.0,0.0,1,5,1,2,0,0,2,26.78,0.69,6.28,
11.936,118.14610323995697,107.48250427360014,-2.0,1.0,0.0,1,5,1,2,0,0,2,26.68,0.29,6.28,
11.951,118.1946103239957,107.47125042736,-2.0,1.0,0.0,1,5,1,2,0,0,2,26.59,0.59,6.18,
11.965,118.25346103239958,107.461125042736,-3.0,0.0,0.0,1,5,1,2,0,0,2,26.68,0.69,6.08,
11.979,118.25934610323996,107.4511125042736,-3.0,0.0,0.0,1,5,1,2,0,0,2,26.68,0.59,5.98,
11.993,118.25993461032401,107.44111125042735,-3.0,0.0,0.0,1,5,1,2,0,0,2,26.78,0.00,5.98,
12.007,118.23299346103241,107.48511112504274,-4.0,0.0,0.0,1,5,1,2,0,0,2,26.78,0.78,5.89,
12.021,118.28429934610325,107.42651111250427,-4.0,1.0,0.0,1,5,1,2,0,12,2,26.88,0.00,5.79,
12.036,118.28042993461032,107.42065111125042,-4.0,1.0,0.0,1,5,1,2,0,12,2,26.78,0.00,5.79,
12.05,118.30704299346102,107.36606511112504,-3.0,2.0,0.0,1,5,1,2,0,12,2,26.88,0.29,5.69,
12.064,118.2737042993461,107.32460651111249,-3.0,1.0,0.0,1,5,1,2,0,12,2,26.98,0.29,5.40,
12.079,118.3513704299346,107.35646065111123,-3.0,1.0,0.0,1,5,1,2,0,12,2,27.37,0.59,5.49,
12.093,118.48513704299346,107.34164606511114,-4.0,1.0,0.0,1,5,1,2,0,12,2,27.47,0.00,5.40,
12.107,118.51651370429934,107.33116460651111,-4.0,1.0,0.0,1,5,1,2,0,12,2,27.57,0.59,5.10,
12.122,118.57365137042993,107.29411646065111,-4.0,1.0,0.0,1,5,1,2,0,12,1,27.66,0.00,5.10,
12.136,118.66036513704299,107.2994116460651,-4.0,1.0,0.0,1,5,1,2,0,12,1,27.76,0.00,5.10,
12.15,118.6330365137043,107.2729411646065,-5.0,1.0,0.0,1,5,1,2,0,11,1,27.86,0.20,5.20,
12.165,118.61230365137042,107.18029411646064,-5.0,2.0,0.0,1,5,1,2,0,11,1,28.06,0.39,5.10,
12.178,118.59223036513706,107.12602941164606,-5.0,2.0,1.0,1,5,1,2,0,11,1,28.15,0.88,5.20,
12.192,118.5092230365137,107.0036029411646,-4.0,2.0,1.0,1,5,1,2,0,10,1,28.35,0.00,5.30,
12.207,118.64492230365137,107.00936029411648,-4.0,2.0,2.0,1,5,1,2,0,10,1,28.55,0.88,5.40,
12.221,118.73949223036513,106.94693602941165,-4.0,2.0,1.0,1,5,1,2,0,10,1,28.74,0.00,5.20,
12.235,118.7939492230365,106.91369360294115,-4.0,2.0,1.0,1,5,1,2,0,10,1,29.04,0.00,5.00,
12.25,118.88039492230365,106.85636936029411,-4.0,1.0,1.0,1,5,1,2,0,9,1,29.43,0.00,5.10,
12.263,118.87103949223037,106.76963693602941,-4.0,1.0,1.0,1,5,1,2,0,9,1,29.53,0.10,5.00,
12.277,118.92410394922304,106.71596369360294,-4.0,1.0,1.0,1,5,1,2,0,9,1,29.63,0.00,5.00,
12.292,118.98341039492229,106.71059636936029,-4.0,0.0,1.0,1,5,1,2,0,9,1,29.72,0.00,5.00,
12.306,118.89934103949223,106.70105963693602,-4.0,1.0,1.0,1,5,1,2,0,9,1,29.72,1.18,5.00,
12.319,118.92693410394922,106.6641059636936,-4.0,1.0,1.0,1,5,1,2,0,8,0,29.63,0.00,4.91,
12.334,118.89369341039492,106.62441059636937,-4.0,1.0,2.0,1,5,1,2,0,8,0,29.72,0.00,5.00,
12.348,118.97136934103949,106.54844105963694,-4.0,1.0,1.0,1,5,1,2,0,8,0,29.72,0.00,4.91,
12.361,119.04213693410394,106.46884410596368,-4.0,0.0,1.0,1,5,1,2,0,8,0,29.82,0.00,5.00,
12.376,119.07621369341038,106.40688441059638,-3.0,0.0,0.0,1,5,1,2,0,8,0,29.72,0.00,5.10,
12.39,119.11562136934104,106.31968844105964,-3.0,0.0,0.0,1,5,1,2,0,8,0,29.72,0.00,5.10,
12.404,119.1375621369341,106.24796884410596,-3.0,0.0,0.0,1,5,1,2,0,8,0,29.72,0.00,5.10,
12.418,119.0857562136934,106.2047968844106,-3.0,0.0,0.0,1,5,1,2,0,8,0,29.72,0.00,5.10,
12.432,119.14357562136935,106.20047968844105,-3.0,0.0,0.0,1,5,1,2,0,8,0,29.72,0.00,5.10,
12.446,119.17635756213694,106.1460479688441,-4.0,0.0,0.0,1,5,1,2,0,8,0,29.63,0.00,5.00,
12.461,119.2966357562137,106.14960479688442,-3.0,0.0,0.0,1,5,1,2,0,8,0,29.72,0.00,5.00,
12.474,119.24566357562136,106.12296047968844,-3.0,0.0,0.0,1,5,1,2,0,7,0,29.72,0.00,4.91,
12.488,119.24056635756213,106.11129604796884,-3.0,0.0,0.0,1,5,1,2,0,7,0,29.63,0.00,4.91,
12.503,119.23105663575622,106.0471296047969,-3.0,0.0,0.0,1,5,1,2,0,7,0,29.63,0.10,5.00,
12.517,119.23010566357561,105.97771296047969,-2.0,0.0,0.0,1,5,1,2,0,7,0,29.63,0.00,4.81,
12.53,119.20301056635756,105.97077129604797,-2.0,0.0,0.0,1,5,1,2,0,7,0,960.99,0.00,4.81,
12.553,119.19130105663575,106.01507712960479,-2.0,0.0,0.0,1,5,1,2,0,7,0,29.72,0.00,4.91,
12.567,119.21713010566357,106.06450771296048,-2.0,0.0,0.0,1,5,1,2,0,7,0,29.82,0.00,4.91,
12.581,119.28271301056635,106.08745077129605,-2.0,0.0,0.0,1,5,1,2,0,7,0,29.92,0.00,4.91,
12.596,119.32527130105663,106.08074507712959,-2.0,0.0,0.0,1,5,1,2,0,7,0,30.02,0.00,4.81,
12.609,119.33852713010566,106.03507450771296,-2.0,0.0,0.0,1,5,1,2,0,7,0,30.12,0.00,4.81,
12.623,119.34885271301056,105.99450745077128,-2.0,0.0,0.0,1,5,1,2,0,7,0,30.02,0.00,4.81,
12.638,119.34988527130105,106.00845074507713,-2.0,0.0,0.0,1,5,1,2,0,7,0,30.12,0.00,4.91,
12.652,119.2869885271301,105.9468450745077,-2.0,0.0,0.0,1,5,1,2,0,7,0,30.21,0.00,4.81,
12.665,119.27169885271302,105.94968450745077,-2.0,0.0,0.0,1,5,1,2,0,7,0,30.21,0.00,4.81,
12.68,119.2341698852713,105.89596845074507,-2.0,0.0,0.0,1,5,1,2,0,7,0,30.71,0.00,4.71,
12.694,119.29341698852713,105.88159684507451,-2.0,0.0,0.0,1,5,1,2,0,7,0,30.90,0.00,4.81,
12.707,119.35334169885272,105.86215968450745,-2.0,0.0,-1.0,1,5,1,2,0,7,0,31.00,0.00,4.91,
12.722,119.37733416988526,105.86921596845075,-2.0,0.0,-1.0,1,5,1,2,0,7,0,31.20,0.00,4.81,
12.736,119.44273341698853,105.82492159684507,-1.0,0.0,-2.0,1,5,1,2,0,7,0,31.29,0.00,4.81,
12.75,119.46727334169884,105.8384921596845,-1.0,0.0,-2.0,1,5,1,2,0,7,0,31.39,0.00,4.91,
12.765,119.49672733416988,105.92084921596845,-1.0,0.0,-2.0,1,5,1,2,0,7,0,31.49,0.00,4.81,
12.779,119.481672733417,105.92908492159684,0.0,0.0,-2.0,1,5,1,2,0,7,0,31.59,0.00,4.81,
12.792,119.5161672733417,105.91190849215968,0.0,0.0,-2.0,1,5,1,2,0,7,0,31.69,0.00,4.81,
12.807,119.52861672733417,105.90119084921596,0.0,0.0,-2.0,1,5,1,2,0,7,0,31.78,0.00,4.81,
12.821,119.45786167273343,105.9271190849216,0.0,-1.0,-2.0,1,5,1,2,0,8,0,31.78,0.00,4.71,
12.835,119.45078616727335,105.99271190849217,0.0,-1.0,-2.0,1,5,1,2,0,8,0,31.78,0.00,4.71,
12.849,119.36007861672732,105.99927119084921,0.0,0.0,-2.0,1,5,1,2,0,8,0,31.78,0.00,4.61,
12.863,119.27000786167274,105.99992711908493,0.0,0.0,-2.0,1,5,1,2,0,8,0,31.88,0.00,4.71,
12.877,119.25200078616727,106.00899271190849,-1.0,0.0,-2.0,1,5,1,2,0,8,0,31.98,0.00,4.71,
12.892,119.14220007861672,106.03689927119085,0.0,0.0,-2.0,1,5,1,2,0,8,0,31.98,0.00,4.71,
12.905,119.14922000786169,106.08468992711909,0.0,0.0,-2.0,1,5,1,2,0,8,0,32.18,0.00,4.71,
12.919,119.12292200078618,106.06246899271191,0.0,0.0,-2.0,1,5,1,2,0,8,0,32.27,0.00,4.71,
12.934,119.16529220007861,106.13224689927118,-1.0,0.0,-2.0,1,5,1,2,0,8,0,32.47,0.00,4.81,
12.948,119.30452922000785,106.22022468992711,-1.0,0.0,-1.0,1,5,1,2,0,8,0,32.67,0.00,4.71,
12.961,119.34545292200077,106.24702246899271,-1.0,0.0,-1.0,1,5,1,2,0,8,0,33.16,0.00,4.91,
12.976,119.42154529220008,106.25870224689928,-1.0,0.0,-1.0,1,5,1,2,0,8,0,33.26,0.00,5.00,
12.99,119.40215452922001,106.25987022468992,-1.0,0.0,-1.0,1,5,1,2,0,8,0,33.35,0.00,4.91,
13.004,119.40021545292201,106.313987022469,-1.0,0.0,-1.0,1,5,1,2,0,8,0,33.45,0.00,4.91,
13.019,119.35502154529219,106.3553987022469,-1.0,0.0,-1.0,1,5,1,2,0,8,0,33.55,0.00,4.91,
13.033,119.38650215452923,106.44953987022468,-2.0,0.0,0.0,1,5,1,2,0,8,0,33.65,0.00,4.91,
13.046,119.44365021545293,106.47695398702247,-2.0,0.0,0.0,1,5,1,2,0,8,0,33.84,0.00,4.91,
13.061,119.4763650215453,106.50669539870225,-2.0,0.0,0.0,1,5,1,2,0,8,0,33.94,0.00,4.81,
13.075,119.52463650215452,106.50066953987023,-2.0,0.0,0.0,1,5,1,2,0,8,0,34.04,0.00,4.91,
13.088,119.52046365021545,106.49106695398702,-2.0,0.0,0.0,1,5,1,2,0,8,0,34.14,0.00,4.91,
13.103,119.49304636502154,106.4271066953987,-2.0,1.0,0.0,1,5,1,2,0,8,0,34.24,0.00,4.91,
13.117,119.48130463650216,106.35771066953987,-2.0,1.0,0.0,1,5,1,2,0,8,0,34.53,0.00,4.71,
13.131,119.48913046365021,106.33277106695398,-2.0,1.0,0.0,1,5,1,2,0,8,0,34.83,0.00,4.71,
13.145,119.56191304636502,106.3122771066954,-2.0,1.0,0.0,1,5,1,2,0,8,0,35.32,0.00,4.71,
13.159,119.5961913046365,106.40922771066954,-2.0,1.0,0.0,1,5,1,2,0,8,0,35.51,0.00,4.71,
13.173,119.57261913046365,106.35592277106696,-2.0,0.0,0.0,1,5,1,2,0,8,0,35.71,0.00,4.61,
13.188,119.63326191304637,106.3685922771067,-2.0,0.0,0.0,1,5,1,2,0,8,0,35.81,0.00,4.71,
13.201,119.63032619130463,106.40585922771068,-2.0,0.0,0.0,1,5,1,2,0,8,0,36.00,0.00,4.71,
13.215,119.56703261913046,106.43658592277107,-2.0,0.0,0.0,1,5,1,2,0,8,0,36.00,0.00,4.71,
13.23,119.59670326191305,106.46665859227711,-2.0,0.0,0.0,1,5,1,2,0,8,0,36.10,0.00,4.71,
13.244,119.6446703261913,106.46966585922772,-2.0,1.0,0.0,1,5,1,2,0,8,0,36.20,0.00,4.61,
13.257,119.69446703261913,106.50596658592278,-2.0,1.0,0.0,1,5,1,2,0,8,0,36.30,0.00,4.71,
13.272,119.67244670326191,106.50059665859229,-3.0,0.0,0.0,1,5,1,2,0,8,0,36.49,0.00,4.71,
13.286,119.68824467032618,106.44605966585924,-3.0,0.0,0.0,1,5,1,2,0,8,0,36.49,0.00,4.71,
13.299,119.71682446703262,106.39560596658592,-3.0,1.0,0.0,1,5,1,2,0,8,0,36.69,0.00,4.61,
13.314,119.62068244670326,106.32756059665859,-3.0,1.0,0.0,1,5,1,2,0,8,0,37.08,0.00,4.81,
13.328,119.67406824467032,106.37475605966586,-2.0,1.0,0.0,1,5,1,2,0,8,0,37.28,0.00,4.61,
13.342,119.75140682446704,106.31647560596659,-3.0,1.0,0.0,1,5,1,2,0,8,0,37.38,0.00,4.61,
13.356,119.80414068244671,106.28364756059666,-3.0,1.0,0.0,1,5,1,2,0,8,0,37.57,0.00,4.61,
13.37,119.91741406824468,106.28936475605967,-3.0,0.0,0.0,1,5,1,2,0,8,0,37.87,0.00,4.51,
13.384,119.98274140682446,106.25393647560597,-3.0,0.0,0.0,1,5,1,2,0,8,0,37.87,0.00,4.51,
13.399,119.99827414068244,106.1963936475606,-3.0,0.0,0.0,1,5,1,2,0,8,0,38.06,0.00,4.51,
13.412,120.01782741406824,106.14563936475605,-3.0,0.0,0.0,1,5,1,2,0,8,0,38.06,0.00,4.51,
13.426,120.00178274140683,106.06856393647561,-3.0,0.0,0.0,1,5,1,2,0,8,0,37.87,0.00,4.51,
13.441,119.95517827414068,106.04285639364757,-3.0,0.0,0.0,1,5,1,2,0,8,0,37.77,0.00,4.41,
13.455,119.89651782741406,105.95928563936477,-2.0,0.0,0.0,1,5,1,2,0,8,0,37.77,0.00,4.41,
13.468,119.8366517827414,105.96892856393647,-2.0,0.0,0.0,1,5,1,2,0,8,0,37.77,0.00,4.41,
13.483,119.85766517827413,106.01489285639363,-2.0,0.0,0.0,1,5,1,2,0,8,0,37.77,0.00,4.41,
13.497,119.89576651782743,105.96548928563935,-2.0,0.0,0.0,1,5,1,2,0,8,0,37.57,0.00,4.41,
13.511,119.89957665178275,105.98754892856392,-2.0,0.0,0.0,1,5,1,2,0,8,0,37.47,0.00,4.51,
13.524,119.94495766517826,105.9987548928564,-2.0,0.0,0.0,1,5,1,2,0,8,0,37.47,0.00,4.61,
13.539,119.95849576651783,106.01787548928563,-2.0,0.0,0.0,1,5,1,2,0,8,0,37.28,0.00,4.51,
13.553,119.99584957665178,106.07378754892855,-2.0,0.0,0.0,1,5,1,2,0,8,0,37.08,0.00,4.61,
13.566,120.02658495766518,106.02537875489284,-2.0,0.0,0.0,1,5,1,2,0,8,0,36.98,0.00,4.51,
13.581,120.03865849576651,106.03853787548928,-2.0,0.0,0.0,1,5,1,2,0,8,0,36.69,0.00,4.61,
13.595,120.02186584957664,106.03085378754893,-2.0,0.0,0.0,1,5,1,2,0,8,0,36.59,0.00,4.71,
13.609,119.94818658495765,106.00308537875489,-2.0,0.0,0.0,1,5,1,2,0,8,0,36.30,0.00,4.61,
13.623,119.88681865849576,106.0003085378755,-2.0,0.0,0.0,1,5,1,2,0,8,0,36.20,0.00,4.61,
13.637,119.96168186584957,106.00903085378755,-2.0,0.0,0.0,1,5,1,2,0,8,0,36.10,0.00,4.61,
13.651,119.96016818658495,105.99190308537874,-2.0,0.0,0.0,1,5,1,2,0,8,0,35.90,0.00,4.61,
13.666,119.94201681865849,105.99919030853788,-2.0,0.0,0.0,1,5,1,2,0,7,0,35.81,0.00,4.61,
13.679,120.04820168186585,105.95491903085379,-2.0,0.0,0.0,1,5,1,2,0,7,0,35.81,0.00,4.51,
13.693,120.05882016818659,105.96849190308538,-2.0,0.0,0.0,1,5,1,2,0,7,0,35.71,0.00,4.61,
13.708,120.01488201681866,105.96984919030854,-2.0,0.0,0.0,1,5,1,2,0,7,0,35.51,0.00,4.61,
13.722,119.94748820168186,105.94298491903085,-2.0,0.0,0.0,1,5,1,2,0,7,0,35.41,0.00,4.61,
13.735,119.91374882016818,105.90429849190309,-2.0,0.0,0.0,1,5,1,2,0,7,0,35.51,0.00,4.71,
13.75,119.92837488201683,105.9004298491903,-2.0,0.0,0.0,1,5,1,2,0,7,0,35.51,0.00,4.71,
13.764,119.93883748820167,105.93604298491903,-2.0,0.0,-1.0,1,5,1,2,0,7,0,35.51,0.00,4.71,
13.778,119.90388374882018,105.9126042984919,-2.0,0.0,0.0,1,5,1,2,0,7,0,35.51,0.00,4.71,
13.792,119.90038837488203,105.91926042984919,-2.0,0.0,0.0,1,5,1,2,0,7,0,35.61,0.00,4.71,
13.806,119.8910388374882,105.90192604298491,-2.0,0.0,0.0,1,5,1,2,0,7,0,35.61,0.00,4.71,
13.82,119.87210388374882,105.8731926042985,-2.0,0.0,0.0,1,5,1,2,0,7,0,35.61,0.00,4.61,
13.834,119.87921038837487,105.88831926042985,-2.0,0.0,-1.0,1,5,1,2,0,7,0,35.71,0.00,4.61,
13.848,119.91592103883748,105.85383192604299,-2.0,0.0,-1.0,1,5,1,2,0,7,0,35.71,0.00,4.61,
13.862,119.91059210388374,105.8323831926043,-2.0,0.0,0.0,1,5,1,2,0,7,0,35.61,0.00,4.71,
13.877,119.89205921038837,105.84823831926043,-2.0,0.0,-1.0,1,5,1,2,0,7,0,35.51,0.00,4.71,
13.891,119.89920592103884,105.79582383192606,-2.0,0.0,0.0,1,5,1,2,0,7,0,35.51,0.00,4.81,
13.904,119.94492059210388,105.8175823831926,-2.0,0.0,-1.0,1,5,1,2,0,7,0,35.32,0.00,4.71,
13.919,119.94949205921039,105.82875823831925,-2.0,0.0,0.0,1,5,1,2,0,7,0,35.22,0.00,4.81,
13.933,119.93194920592104,105.85687582383193,-2.0,0.0,0.0,1,5,1,2,0,7,0,35.12,0.00,4.81,
13.947,120.0291949205921,105.82368758238319,-2.0,0.0,0.0,1,5,1,2,0,7,0,34.83,0.00,4.91,
13.961,119.9669194920592,105.86536875823832,-2.0,0.0,-1.0,1,5,1,2,0,7,0,34.63,0.00,4.71,
13.975,119.93369194920592,105.84253687582382,-2.0,0.0,-1.0,1,5,1,2,0,7,0,34.43,0.00,1,
14.314,120.1013691949206,105.76825368758239,-1.0,-2.0,-2.0,1,5,1,2,0,6,0,31.88,0.00,4.81,
14.328,120.10913691949206,105.76982536875823,0.0,-3.0,-2.0,1,5,1,2,0,6,0,31.59,0.00,4.71,
14.342,120.1279136919492,105.72498253687581,0.0,-4.0,-3.0,1,5,1,2,0,6,0,31.10,0.00,4.81,
14.356,120.19279136919492,105.7024982536876,0.0,-7.0,-4.0,1,5,1,2,0,6,0,29.53,0.00,4.71,
14.37,120.1812791369195,105.77224982536876,0.0,-8.0,-4.0,1,4,1,2,0,6,0,28.55,0.00,4.71,
14.385,120.06312791369194,105.94122498253687,0.0,-9.0,-4.0,1,4,1,2,0,6,0,27.27,0.00,4.71,
14.399,119.94331279136921,106.09312249825368,-1.0,-10.0,-3.0,1,4,1,1,0,5,0,26.09,0.00,4.71,
14.412,119.69733127913692,106.25231224982537,-3.0,-9.0,-2.0,0,4,1,1,0,4,0,23.05,0.00,4.91,
14.427,119.43873312791368,106.42123122498253,-4.0,-8.0,0.0,0,4,1,1,0,4,0,21.48,0.00,5.10,
14.441,119.19687331279137,106.33912312249825,-4.0,-5.0,0.0,0,4,1,1,0,3,0,20.01,3.34,5.10,
14.455,118.91168733127914,106.31291231224982,-3.0,-4.0,0.0,0,4,1,1,0,3,0,18.74,3.63,5.10,
14.469,118.70316873312792,106.01329123122498,0.0,-2.0,0.0,0,4,1,1,0,3,0,16.97,0.39,5.00,
14.483,118.53831687331278,106.0013291231225,0.0,0.0,0.0,0,4,1,1,0,3,0,16.48,0.00,4.91,
14.496,118.26983168733128,106.19813291231225,1.0,3.0,3.0,0,4,1,1,0,3,0,16.28,0.00,5.00,
14.511,118.11698316873311,106.36181329123123,0.0,7.0,6.0,0,4,1,1,0,3,0,16.28,0.00,5.10,
14.525,117.9936983168733,106.65718132912312,0.0,12.0,9.0,0,4,1,1,0,3,0,16.48,0.88,5.10,
14.538,117.94536983168733,106.6417181329123,1.0,18.0,11.0,1,4,1,1,0,3,0,17.76,0.88,5.10,
14.553,118.17453698316874,106.46917181329124,3.0,22.0,11.0,1,4,1,1,0,4,0,19.23,3.63,5.00,
14.567,118.52145369831688,106.20891718132913,4.0,23.0,8.0,1,5,1,1,0,4,0,21.39,3.83,4.91,
14.58,119.0061453698317,106.0838917181329,4.0,23.0,6.0,1,5,1,2,0,5,0,24.33,4.71,4.71,
14.595,119.79261453698317,106.17938917181328,2.0,21.0,4.0,1,5,1,2,0,5,0,32.96,1.77,4.41,
14.609,120.4922614536983,106.28793891718132,-1.0,21.0,4.0,1,5,1,2,0,6,0,38.16,0.00,4.12,
14.622,120.94022614536982,106.30779389171813,-4.0,21.0,3.0,1,5,1,2,0,6,0,43.36,0.00,3.63,
14.637,121.156022614537,106.4447793891718,-4.0,22.0,6.0,1,6,1,2,0,7,0,48.66,6.28,2.84,
14.651,121.3576022614537,106.35047793891718,-3.0,21.0,8.0,1,6,1,2,0,7,0,59.55,5.40,2.55,
14.665,121.80076022614536,106.16104779389171,-2.0,20.0,8.0,1,6,1,2,0,8,0,64.84,1.37,2.35,
14.68,122.38507602261453,106.02510477938918,-1.0,18.0,7.0,1,6,2,2,0,8,0,70.14,0.00,2.26,
14.694,122.83050760226145,105.78651047793893,0.0,14.0,4.0,1,6,2,2,0,8,0,75.24,0.00,2.26,
14.707,123.28005076022615,105.61865104779389,0.0,10.0,1.0,1,6,2,2,0,9,0,83.88,0.00,2.16,
14.722,123.64000507602262,105.6198651047794,0.0,5.0,0.0,1,6,2,2,0,9,0,87.21,0.00,2.16,
14.736,123.79300050760226,105.69198651047795,0.0,3.0,0.0,1,6,2,2,0,9,0,89.86,0.00,2.26,
14.749,124.15930005076022,105.78019865104781,1.0,0.0,0.0,1,6,2,2,0,9,0,91.43,0.00,2.45,
14.764,124.18693000507602,105.96901986510477,3.0,-2.0,0.0,1,6,2,2,0,9,0,92.21,0.00,2.55,
14.778,124.2436930005076,106.11390198651047,4.0,-4.0,2.0,1,6,2,2,0,9,0,91.13,0.00,2.84,
14.791,124.35736930005076,106.29939019865105,5.0,-7.0,2.0,1,6,2,2,0,9,0,89.47,0.00,2.94,
14.806,124.32373693000507,106.48893901986511,5.0,-9.0,2.0,1,7,2,2,0,9,0,87.11,0.00,3.43,
14.82,124.2933736930005,106.55289390198652,4.0,-10.0,1.0,1,7,2,2,0,9,0,84.46,0.00,3.73,
14.834,124.01133736930005,106.82928939019865,2.0,-9.0,2.0,1,7,2,2,0,9,0,78.48,0.00,4.02,
14.849,124.01913373693,106.82992893901987,2.0,-9.0,2.0,1,7,2,2,0,9,0,75.54,0.00,5.10,
14.862,124.04691337369299,106.87499289390198,1.0,-10.0,2.0,1,7,2,2,0,9,0,72.99,0.00,5.79,
14.876,123.9236913373693,106.9154992893902,0.0,-10.0,2.0,1,7,2,2,0,8,0,70.63,0.00,6.57,
14.891,123.50636913373691,106.86554992893902,0.0,-8.0,2.0,1,7,2,2,0,8,0,65.24,0.00,7.46,
14.905,123.1316369133737,106.83355499289391,0.0,-6.0,2.0,1,7,2,2,0,8,0,62.78,0.00,9.32,
14.918,122.74316369133737,106.7673554992894,0.0,-4.0,2.0,1,7,2,2,0,8,0,60.72,0.00,10.01,
14.932,122.67731636913373,106.65273554992893,0.0,-4.0,0.0,1,7,2,2,0,8,0,59.15,0.00,10.59,
14.947,122.51773163691337,106.57827355499289,0.0,-2.0,0.0,1,7,2,2,0,8,0,56.70,0.00,11.18,
14.961,122.50177316369134,106.48082735549929,0.0,-2.0,-3.0,1,7,2,2,0,8,0,55.92,0.00,11.87,
14.976,122.41017731636914,106.43508273554993,-1.0,-1.0,-6.0,1,7,2,2,0,8,0,55.43,0.00,12.16,
14.99,122.32001773163692,106.43050827355499,-1.0,0.0,-7.0,1,7,2,2,0,8,0,55.23,0.00,12.36,
15.004,122.20300177316369,106.3760508273555,-1.0,0.0,-8.0,1,7,2,2,0,8,0,56.02,0.00,12.65,
15.017,122.14630017731636,106.39760508273555,0.0,1.0,-10.0,1,7,2,2,0,8,0,56.80,0.00,12.65,
15.032,122.16763001773164,106.52576050827356,0.0,1.0,-10.0,1,8,2,2,0,9,0,57.88,0.00,12.75,
15.046,122.52076300177316,106.52957605082736,2.0,-3.0,-10.0,1,8,2,2,0,9,0,59.15,0.00,12.75,
15.06,122.64607630017731,106.70995760508274,2.0,-5.0,-12.0,1,8,2,2,0,9,0,61.61,0.00,13.15,
15.075,122.87460763001775,106.79999576050828,2.0,-7.0,-13.0,1,8,2,2,0,9,0,61.80,0.00,13.54,
15.089,122.70846076300178,106.92599957605083,3.0,-8.0,-14.0,1,8,2,2,0,9,0,61.61,0.59,14.13,
15.104,122.59284607630018,107.33459995760508,4.0,-9.0,-13.0,1,8,2,2,0,10,0,60.82,2.06,15.89,
15.118,122.23928460763003,107.60945999576052,5.0,-7.0,-13.0,1,8,2,2,0,10,0,60.33,0.00,16.97,
15.132,121.92492846076301,107.66394599957606,5.0,-6.0,-13.0,1,8,2,2,0,10,0,59.94,0.00,18.05,
15.147,121.5604928460763,107.90339459995762,5.0,-7.0,-13.0,1,8,2,2,0,10,0,59.64,0.00,19.23,
15.161,121.67704928460763,108.06233945999577,6.0,-6.0,-12.0,1,8,2,2,0,11,0,58.96,0.00,21.48,
15.176,121.82370492846077,108.09623394599957,7.0,-7.0,-15.0,1,8,2,2,0,11,0,58.86,0.00,22.56,
15.191,121.68537049284608,108.04562339459996,7.0,-8.0,-19.0,1,8,2,2,0,11,0,58.76,0.00,23.74,
15.205,121.41053704928461,108.22956233945999,7.0,-7.0,-19.0,1,8,2,2,0,11,1,58.76,0.00,26.59,
15.219,121.41005370492846,108.48195623394601,9.0,-7.0,-19.0,1,8,2,2,0,12,1,58.96,0.00,28.15,
15.234,121.34700537049285,108.7501956233946,12.0,-7.0,-18.0,1,8,1,2,0,12,1,59.06,0.00,29.72,
15.248,121.26870053704928,108.75001956233946,13.0,-4.0,-19.0,0,8,1,2,0,1,1,58.96,0.00,33.65,
15.262,122.25087005370492,108.70500195623394,14.0,3.0,-23.0,0,8,1,2,0,2,1,57.58,0.00,36.10,
15.277,121.32308700537048,109.0785001956234,18.0,0.0,-22.0,0,8,1,2,0,3,1,56.41,2.65,38.85,
15.291,120.65430870053706,109.35885001956234,22.0,6.0,-22.0,0,8,1,2,0,4,1,55.33,3.04,41.89,
15.305,119.81343087005371,109.62088500195624,23.0,9.0,-24.0,0,8,1,2,0,6,2,54.45,3.43,47.48,
15.32,119.45034308700536,109.87208850019563,27.0,27.0,-22.0,0,7,0,3,0,8,2,53.66,0.00,49.34,
15.334,119.40503430870054,109.91520885001955,33.0,27.0,-19.0,0,6,0,3,0,10,2,54.05,0.00,50.42,
15.349,120.39950343087006,110.31552088500194,39.0,13.0,-29.0,0,6,0,3,0,11,2,54.45,0.00,51.01,
15.364,120.840950343087,110.67955208850019,45.0,14.0,-33.0,0,5,0,3,0,12,2,53.76,0.00,51.99,
15.378,121.02009503430871,110.76095520885002,51.0,14.0,-36.0,0,4,0,3,0,13,3,49.34,0.00,53.27,
15.392,120.05700950343086,111.174095520885,53.0,32.0,-34.0,0,3,0,3,0,14,3,46.79,0.00,55.62,
15.407,120.2667009503431,112.4124095520885,61.0,27.0,-31.0,0,3,0,3,0,16,3,44.54,0.00,56.51,
15.421,121.60167009503431,113.61624095520885,64.0,24.0,-37.0,0,3,0,3,0,17,3,40.02,0.00,56.90,
15.435,122.05916700950343,114.04262409552089,63.0,21.0,-57.0,0,2,0,3,0,19,3,37.87,0.00,56.60,
15.45,122.42891670095034,114.6612624095521,70.0,27.0,-43.0,0,2,0,3,0,19,3,35.51,0.00,52.68,
15.464,122.31289167009503,114.8581262409552,77.0,25.0,-56.0,0,2,0,3,0,19,2,32.77,0.00,49.44,
15.478,123.31828916700951,114.71581262409552,86.0,20.0,-66.0,0,2,0,3,0,19,3,26.19,0.00,46.30,
15.493,123.49982891670093,115.69158126240954,96.0,28.0,-64.0,0,2,0,2,0,19,3,22.37,0.00,38.26,
15.507,124.9849828916701,116.37415812624096,105.0,0.0,-76.0,0,2,0,1,0,18,3,18.74,0.00,32.96,
15.521,128.17549828916702,117.8644158126241,115.0,21.0,-99.0,0,2,0,1,0,17,3,15.79,0.00,26.68,
15.536,130.3575498289167,120.89344158126241,123.0,12.0,-67.0,0,2,0,0,0,14,3,12.65,0.00,442.14,
15.558,130.65675498289167,122.37534415812624,127.0,12.0,-72.0,0,2,0,0,0,10,3,11.38,0.00,15.70,
15.572,130.83967549828918,123.30653441581262,133.0,31.0,-81.0,0,1,0,1,0,0,3,8.53,0.00,12.36,
15.587,130.97496754982893,123.83165344158127,136.0,44.0,-87.0,0,1,0,1,0,10,2,7.06,0.00,8.93,
15.601,131.9154967549829,123.56916534415814,132.0,58.0,-99.0,0,1,0,1,0,8,2,5.79,0.00,6.18,
15.616,133.24254967549828,124.97391653441582,126.0,68.0,-120.0,0,1,0,2,0,6,1,3.83,0.00,3.04,
15.63,134.90525496754984,126.8063916534416,122.0,69.0,-128.0,0,1,0,1,0,4,0,2.94,1.67,2.06,
15.643,141.929525496755,136.32263916534416,122.0,25.0,-80.0,0,1,0,1,0,2,0,2.16,0.00,1.18,
15.657,144.55795254967552,139.35326391653442,116.0,55.0,-136.0,0,1,0,0,0,1,0,1.57,0.00,0.59,
15.672,143.24579525496753,137.49632639165344,103.0,88.0,-132.0,0,1,0,0,0,0,0,0.10,0.00,0.00,
15.685,139.83857952549675,134.78163263916534,84.0,54.0,-167.0,0,1,0,0,0,0,0,0.00,0.00,0.00,
15.699,135.1958579525497,133.16916326391654,109.0,52.0,-156.0,0,1,0,0,0,0,0,0.00,0.29,0.00,
15.713,131.43758579525496,133.06191632639167,107.0,83.0,-138.0,0,1,0,0,0,0,0,0.00,3.04,0.00,
15.727,128.8207585795255,134.77919163263917,94.0,64.0,-120.0,0,1,0,0,0,0,0,0.00,5.69,0.00,
15.74,129.72907585795255,138.9469191632639,76.0,52.0,-86.0,0,1,0,0,0,0,0,0.00,2.16,0.00,
15.754,127.75890758579526,142.1086919163264,59.0,36.0,-48.0,0,1,0,0,0,0,0,0.00,0.00,0.00,
15.768,125.32989075857952,144.95386919163266,36.0,20.0,-18.0,0,2,0,0,0,0,0,0.00,0.00,0.00,
15.781,124.76298907585796,148.26238691916325,12.0,7.0,17.0,0,2,0,0,0,0,0,0.00,0.00,0.00,
15.795,122.9512989075858,151.12223869191632,-13.0,-19.0,52.0,0,2,0,0,0,0,0,0.00,0.00,0.00,
15.809,120.42112989075858,152.12822386919166,-42.0,-34.0,77.0,0,2,0,0,0,0,0,0.00,0.00,0.00,
15.822,117.11711298907586,151.04982238691917,-72.0,-31.0,94.0,0,2,0,0,0,0,0,0.00,0.00,0.00,
15.837,115.32871129890759,149.14198223869192,-101.0,-40.0,98.0,0,2,0,0,0,0,0,0.00,0.00,0.00,
15.85,113.29587112989074,146.28719822386918,-135.0,-36.0,92.0,0,2,0,0,0,0,0,0.00,0.00,0.00,
15.864,114.39758711298907,142.19471982238693,-156.0,-36.0,82.0,0,2,0,0,0,0,0,0.00,0.00,0.00,
15.878,113.91375871129891,137.2674719822387,-169.0,-22.0,71.0,0,2,0,0,0,0,0,0.00,0.00,0.00,
15.892,113.42437587112988,133.57974719822386,-170.0,-5.0,72.0,0,2,0,0,0,0,0,0.00,0.00,0.00,
15.905,114.30243758711299,131.95997471982238,-171.0,-26.0,65.0,0,2,0,0,0,0,0,0.00,0.20,0.00,
15.919,112.50024375871129,129.14299747198226,-177.0,-40.0,57.0,0,2,0,0,0,0,0,0.00,0.00,0.00,
15.933,110.08802437587111,126.82729974719823,-180.0,-32.0,52.0,0,2,0,0,0,0,0,0.00,0.00,0.00,
15.946,107.7408024375871,125.24572997471982,-180.0,-22.0,59.0,0,2,0,0,0,0,0,0.00,0.00,0.00,
15.961,105.79608024375871,124.82657299747198,-173.0,-22.0,74.0,0,2,0,0,0,0,0,0.00,0.00,0.00,
15.974,104.12560802437588,123.7046572997472,-170.0,-37.0,91.0,0,2,0,0,0,0,0,0.00,0.49,0.00,
15.988,102.98656080243758,122.62046572997471,-168.0,-49.0,110.0,0,2,0,0,0,0,0,0.00,0.00,0.00,
16.002,102.14365608024376,121.25204657299746,-175.0,-48.0,118.0,0,2,0,0,0,0,0,0.00,0.00,0.00,
16.016,103.13036560802436,119.81020465729975,-163.0,-39.0,132.0,0,2,0,0,0,0,0,0.00,0.00,0.00,
16.03,104.36303656080243,119.53102046572997,-160.0,-57.0,125.0,0,2,0,0,0,0,0,0.00,0.00,0.00,
16.044,105.82730365608023,117.460102046573,-153.0,-55.0,132.0,0,2,0,0,0,0,0,0.00,0.69,0.00,
16.058,107.14373036560802,115.6510102046573,-149.0,-55.0,129.0,0,2,0,0,0,0,0,0.00,3.53,0.00,
16.072,109.3723730365608,114.09310102046574,-147.0,-50.0,121.0,0,2,0,0,0,0,0,0.00,3.63,0.00,
16.086,111.04423730365608,112.80331010204658,-151.0,-31.0,120.0,0,2,0,0,0,0,0,0.00,2.75,0.00,
16.1,113.04742373036561,112.31433101020465,-148.0,-23.0,120.0,0,2,0,0,0,0,0,0.00,0.00,0.00,
16.114,115.13774237303657,111.54543310102045,-148.0,-22.0,107.0,0,2,0,0,0,0,0,0.00,0.00,0.00,
16.128,115.38277423730365,109.95654331010205,-147.0,-18.0,105.0,0,2,0,0,0,0,0,0.00,6.77,0.00,
16.142,116.87427742373038,109.73465433101019,-148.0,-20.0,87.0,0,2,0,0,0,0,0,0.00,9.52,0.00,
16.155,118.78742774237304,109.97346543310101,-146.0,-7.0,81.0,0,2,0,0,0,0,0,0.00,8.04,0.00,
16.169,120.52674277423729,110.3393465433101,-145.0,3.0,65.0,0,2,0,0,0,0,0,0.00,7.75,0.00,
16.183,121.97867427742372,110.951934654331,-145.0,13.0,52.0,0,2,0,0,0,0,0,0.00,3.14,0.00,
16.196,122.87086742774237,111.6791934654331,-139.0,30.0,51.0,0,2,0,0,0,0,0,0.00,0.00,0.00,
16.21,123.35608674277424,112.8409193465433,-137.0,46.0,43.0,0,2,0,0,0,0,0,0.00,0.00,0.00,
16.224,123.53060867427742,114.31609193465434,-129.0,50.0,40.0,0,2,0,0,0,0,0,0.00,0.00,0.00,
16.238,123.59306086742774,116.09260919346544,-120.0,45.0,37.0,0,2,0,0,0,0,0,0.00,0.00,0.00,
16.251,123.42830608674278,117.74626091934655,-106.0,37.0,30.0,0,2,0,0,0,0,0,0.00,0.00,0.00,
16.698,122.98883060867428,107.73262609193466,-5.0,-1.0,-3.0,0,6,2,2,0,7,0,40.32,2.26,57.68,
16.712,123.07988306086743,106.46126260919347,-6.0,-2.0,-3.0,0,6,2,2,0,7,0,40.22,0.39,61.31,
16.727,123.01698830608674,106.36112626091935,-7.0,-4.0,-3.0,0,6,2,2,0,6,0,39.14,1.96,66.81,
16.741,122.93869883060869,106.35111262609193,-10.0,-2.0,0.0,0,6,2,2,0,6,0,38.36,2.35,68.38,
16.755,122.65186988306087,106.15211126260918,-11.0,0.0,0.0,0,6,2,2,0,6,0,37.38,2.26,69.16,
16.77,122.4251869883061,106.04221112626092,-10.0,0.0,1.0,0,6,2,2,0,6,0,35.51,1.08,67.89,
16.784,122.3125186988306,105.5992211126261,-8.0,3.0,1.0,1,6,2,2,0,6,0,34.92,0.78,66.81,
16.798,122.15725186988305,105.41992211126262,-6.0,5.0,0.0,1,6,2,2,0,6,0,34.43,4.41,65.73,
16.813,122.52872518698831,105.14999221112626,-4.0,4.0,0.0,1,6,2,2,0,6,0,34.34,3.43,64.94,
16.827,122.82687251869882,105.02399922111262,-3.0,2.0,0.0,1,6,2,2,0,6,0,34.73,4.22,64.06,
16.84,123.06368725186988,104.93039992211126,-2.0,0.0,-1.0,1,6,2,2,0,5,0,34.92,2.75,63.96,
16.855,123.10536872518699,104.93003999221114,-3.0,0.0,-1.0,1,6,2,2,0,5,0,34.92,2.65,64.35,
16.869,123.1365368725187,104.95700399922112,-3.0,0.0,-1.0,1,6,2,2,0,5,0,34.83,1.47,65.53,
16.883,123.01365368725187,104.96870039992211,-5.0,0.0,-1.0,1,6,2,2,0,5,0,34.53,1.57,65.73,
16.898,123.00136536872519,104.8618700399922,-4.0,1.0,0.0,1,6,2,2,0,5,0,34.43,0.88,65.53,
16.912,123.0631365368725,104.81518700399923,-3.0,0.0,0.0,1,6,2,2,0,5,0,34.43,0.00,64.94,
16.926,123.04231365368724,104.81051870039992,-3.0,0.0,0.0,1,6,2,2,0,5,0,34.53,1.18,63.57,
16.94,123.12123136536871,104.74705187003998,-4.0,0.0,0.0,1,6,2,2,0,5,0,35.12,0.00,62.88,
16.954,122.95812313653687,104.63270518700399,-3.0,0.0,0.0,1,6,2,2,0,5,0,35.32,0.00,62.20,
16.968,123.08581231365368,104.4772705187004,-3.0,0.0,-1.0,1,6,2,2,0,5,0,35.32,0.00,60.53,
16.983,123.27858123136537,104.23672705187003,-3.0,-2.0,-3.0,1,6,2,2,0,5,0,35.61,0.29,59.94,
16.997,123.27985812313653,104.15867270518702,-3.0,-4.0,-5.0,1,6,2,2,0,5,0,36.00,0.00,59.55,
17.011,123.22598581231365,104.0608672705187,-3.0,-5.0,-7.0,1,6,2,2,0,5,0,36.00,0.00,59.55,
17.026,123.56259858123136,104.46508672705188,-3.0,-7.0,-8.0,1,6,2,2,0,5,0,35.71,1.67,59.74,
17.04,123.73125985812314,104.27150867270518,-13.0,-8.0,-11.0,1,6,2,2,0,6,0,35.41,0.39,59.74,
17.054,123.95512598581232,104.67515086727052,3.0,-6.0,-11.0,1,6,2,2,0,6,0,34.14,1.28,59.64,
17.069,123.81551259858124,104.68851508672705,-3.0,-11.0,-12.0,1,6,2,2,0,6,0,33.16,0.49,58.96,
17.083,123.55855125985812,104.7708515086727,-5.0,-12.0,-12.0,1,6,2,2,0,6,0,31.88,0.98,58.17,
17.097,122.78585512598582,104.79708515086726,-5.0,-11.0,-9.0,1,6,2,2,0,5,0,30.61,0.59,56.80,
17.112,121.81758551259858,104.80870851508674,-4.0,-4.0,-3.0,1,6,2,2,0,5,0,28.06,3.14,54.74,
17.126,121.62175855125986,104.59387085150867,-4.0,-1.0,-3.0,1,5,2,2,0,5,0,27.08,3.24,48.56,
17.14,121.53017585512598,104.50938708515086,-5.0,0.0,-5.0,1,5,1,2,0,5,0,26.19,0.00,45.03,
17.155,121.86301758551261,104.16793870851508,-5.0,-3.0,-10.0,1,5,1,2,0,5,0,24.62,2.16,41.20,
17.169,122.31930175855126,103.83679387085151,-4.0,-8.0,-15.0,0,4,1,2,0,5,0,23.64,0.00,32.47,
17.184,122.28393017585513,103.88467938708516,-3.0,-10.0,-18.0,0,4,1,2,0,5,0,22.46,0.00,28.15,
17.199,122.1363930175855,103.89846793870852,-1.0,-11.0,-17.0,0,4,1,2,0,5,0,21.09,0.00,24.23,
17.213,122.03163930175855,103.98084679387084,1.0,-14.0,-17.0,0,4,0,2,0,5,0,18.84,0.00,17.17,
17.227,121.55316393017586,104.44808467938708,2.0,-13.0,-14.0,0,4,0,2,0,5,0,18.05,0.00,14.42,
17.242,121.34331639301759,104.5938084679387,3.0,-12.0,-13.0,0,4,0,2,0,5,0,17.17,0.00,12.26,
17.256,120.83633163930176,104.97738084679386,1.0,-9.0,-14.0,0,4,0,2,0,5,0,16.48,0.00,10.69,
17.27,120.24563316393018,105.43873808467939,-1.0,-5.0,-13.0,0,4,1,2,0,5,0,15.50,0.00,8.63,
17.285,119.79956331639302,105.83587380846794,-5.0,0.0,-11.0,0,4,1,2,0,6,0,15.70,0.00,7.46,
17.299,119.6289563316393,105.9115873808468,-7.0,5.0,-7.0,0,4,1,2,0,6,0,16.28,0.39,6.38,
17.313,119.99889563316393,105.71215873808467,-7.0,2.0,-5.0,0,4,1,2,0,6,0,17.27,0.00,4.91,
17.328,120.35088956331639,105.52121587380847,-7.0,0.0,-5.0,0,4,1,2,0,6,0,19.82,0.00,4.41,
17.341,120.31408895633164,105.43012158738084,-8.0,-1.0,-5.0,0,4,1,2,0,6,0,20.60,0.20,4.22,
17.355,120.26540889563317,105.33101215873808,-8.0,-1.0,-4.0,0,4,1,2,0,6,0,20.99,0.00,4.22,
17.37,120.27854088956332,105.25810121587381,-8.0,-1.0,-5.0,0,4,0,2,0,6,0,21.19,0.00,4.22,
17.384,120.12685408895634,105.12481012158739,-8.0,0.0,-6.0,0,4,0,2,0,6,0,21.09,0.00,4.02,
17.398,119.76968540889564,104.97648101215873,-7.0,1.0,-7.0,0,4,0,2,0,6,0,20.99,0.00,3.92,
17.413,119.49096854088955,104.88964810121587,-7.0,4.0,-7.0,0,4,0,2,0,6,0,21.09,0.00,3.73,
17.427,119.80509685408896,104.71896481012159,-4.0,4.0,-5.0,0,4,0,2,0,6,0,21.58,0.00,3.73,
17.44,120.0975096854089,104.71089648101214,-2.0,0.0,-5.0,0,4,0,2,0,6,0,23.05,0.00,3.73,
17.455,120.2617509685409,104.94408964810121,-1.0,-2.0,-4.0,0,4,0,2,0,6,0,23.74,0.00,3.63,
17.469,120.26917509685408,105.18340896481011,-1.0,-2.0,-3.0,0,4,0,2,0,6,0,24.03,0.00,3.73,
17.483,120.14391750968541,105.24334089648102,-2.0,-2.0,-3.0,0,4,0,2,0,6,0,23.94,0.00,3.73,
17.498,119.94239175096854,105.2313340896481,-2.0,-1.0,-3.0,0,4,0,2,0,6,0,23.94,0.00,3.63,
17.512,119.86823917509685,105.11313340896481,-2.0,-1.0,-3.0,0,4,0,2,0,6,0,24.13,0.00,3.63,
17.526,119.77982391750967,105.12831334089648,-2.0,0.0,-3.0,0,4,1,2,0,7,0,24.43,0.00,3.53,
17.541,119.65398239175097,105.11183133408964,-4.0,2.0,-4.0,0,4,0,2,0,7,0,24.92,0.00,3.43,
17.554,119.6503982391751,105.05618313340896,-4.0,4.0,-5.0,0,4,0,2,0,7,0,26.00,0.00,3.43,
17.568,120.07303982391751,104.95161831334089,-4.0,2.0,-5.0,0,4,0,2,0,7,0,26.88,0.00,3.34,
17.583,120.20530398239175,104.91416183133408,-4.0,0.0,-6.0,0,4,0,2,0,7,0,27.47,0.00,3.34,
17.597,120.29053039823917,104.8924161831334,-4.0,0.0,-7.0,0,4,0,2,0,7,0,28.15,0.00,3.34,
17.611,120.29905303982392,104.67424161831335,-5.0,-2.0,-10.0,0,4,0,2,0,7,0,29.33,0.00,3.24,
17.626,120.07490530398239,104.58942416183133,-4.0,-1.0,-11.0,0,4,0,2,0,7,0,30.31,0.00,2.65,
17.64,119.84549053039822,104.60794241618314,-2.0,0.0,-10.0,0,4,0,2,0,7,0,31.78,0.00,2.16,
17.653,119.98454905303981,104.67279424161832,0.0,-1.0,-9.0,0,4,0,2,0,7,0,35.81,0.00,1.67,
17.668,119.97145490530397,104.82327942416184,0.0,-1.0,-9.0,0,4,0,2,0,7,0,37.57,0.00,0.98,
17.682,120.0061454905304,104.87432794241617,0.0,-2.0,-8.0,0,3,0,2,0,7,0,38.85,0.00,0.78,
17.696,120.12661454905304,104.91543279424161,0.0,-3.0,-9.0,0,3,0,2,0,7,0,39.73,0.00,0.69,
17.711,120.1656614549053,104.92854327942418,0.0,-4.0,-11.0,0,3,0,2,0,8,0,40.91,0.00,0.20,
17.725,120.28656614549053,105.01085432794241,0.0,-10.0,-10.0,0,3,0,2,0,8,0,41.30,0.00,0.00,
17.739,120.12765661454905,105.02808543279424,-1.0,-6.0,-12.0,0,3,0,2,0,8,0,41.40,0.00,0.00,
17.754,120.11176566145491,105.14680854327943,-3.0,-6.0,-12.0,0,3,0,2,0,8,0,41.30,0.00,0.00,
17.768,120.1011765661455,104.96968085432793,-6.0,-1.0,-14.0,0,3,0,2,0,8,0,40.61,0.00,0.00,
17.782,119.63211765661455,104.9069680854328,-6.0,-1.0,-13.0,0,3,0,2,0,9,0,40.32,0.00,0.00,
17.797,119.29721176566146,104.92769680854329,-6.0,2.0,-11.0,0,3,0,2,0,9,0,39.93,0.00,0.00,
17.811,119.34472117656614,105.19076968085433,-5.0,0.0,-12.0,0,3,0,2,0,9,0,39.44,0.00,0.00,
17.824,119.3494721176566,105.12707696808543,-6.0,4.0,-10.0,0,3,0,2,0,9,0,38.46,0.00,0.10,
17.839,119.22394721176566,104.98570769680853,-4.0,2.0,-9.0,0,3,0,2,0,9,0,37.87,0.00,0.10,
17.853,119.13939472117656,105.37657076968085,-5.0,3.0,-8.0,0,3,0,2,0,9,0,37.57,0.00,0.20,
17.867,119.02293947211766,105.7216570769681,-5.0,0.0,-11.0,0,3,0,2,0,9,0,37.28,0.00,0.29,
17.882,119.03829394721177,106.0711657076968,-4.0,-1.0,-9.0,0,3,0,2,0,9,0,36.40,0.00,0.29,
17.896,118.83282939472117,106.66411657076968,-2.0,0.0,-7.0,0,3,0,2,0,9,0,35.71,0.00,0.29,
17.91,118.31728293947212,107.14641165707697,0.0,-1.0,-3.0,0,3,0,2,0,9,0,34.83,0.00,0.20,
17.924,118.15772829394722,107.23064116570768,0.0,1.0,0.0,0,3,0,2,0,9,0,33.55,0.00,0.00,
17.938,118.21377282939471,107.10406411657077,0.0,1.0,1.0,0,3,0,2,0,9,0,30.61,0.00,0.10,
17.952,118.21937728293946,107.14540641165708,0.0,2.0,3.0,0,4,0,2,0,8,0,29.23,0.00,0.49,
17.966,118.30993772829395,107.05054064116572,0.0,2.0,3.0,0,4,0,2,0,8,0,28.45,0.00,0.78,
17.98,118.35499377282939,106.93305406411658,0.0,2.0,4.0,0,4,0,2,0,8,0,28.15,0.00,0.88,
17.994,118.45849937728295,106.93030540641166,-1.0,3.0,5.0,0,4,0,2,0,8,0,27.76,0.00,1.08,
18.008,118.6308499377283,106.87603054064117,-1.0,3.0,6.0,0,4,0,2,0,8,0,27.47,0.00,1.18,
18.022,118.78308499377283,106.75360305406411,-1.0,3.0,6.0,0,4,0,2,0,8,0,27.27,0.00,1.28,
18.036,118.88830849937729,106.56136030540642,-1.0,2.0,4.0,0,4,0,2,0,8,0,26.98,0.00,1.47,
18.051,119.08783084993772,106.37113603054064,-1.0,2.0,2.0,0,4,0,2,0,8,0,26.68,0.00,1.57,
18.064,119.13478308499377,106.23511360305406,-1.0,1.0,1.0,0,4,0,2,0,8,0,26.29,0.00,1.57,
18.078,119.22047830849938,106.2215113603054,-1.0,1.0,0.0,0,4,0,2,0,8,1,26.29,0.00,1.47,
18.093,119.24704783084994,106.16615113603054,0.0,1.0,1.0,0,4,0,2,0,9,1,26.29,0.00,1.28,
18.106,119.303704783085,106.18761511360304,0.0,0.0,0.0,0,4,0,2,0,9,1,26.19,0.00,1.28,
18.12,119.33637047830851,106.1717615113603,0.0,0.0,0.0,0,4,0,2,0,9,1,26.19,0.00,1.28,
18.135,119.42963704783084,106.21517615113602,0.0,0.0,0.0,0,4,0,2,0,9,1,26.00,0.00,1.37,
18.148,119.53796370478308,106.2105176151136,0.0,0.0,0.0,0,4,0,2,0,9,1,26.09,0.00,1.37,
18.162,119.51279637047831,106.21005176151135,0.0,0.0,0.0,0,4,0,2,0,9,1,26.19,0.00,1.37,
18.177,119.55527963704783,106.18300517615114,0.0,0.0,0.0,0,4,0,2,0,9,1,26.19,0.00,1.47,
18.19,119.63152796370478,106.18930051761511,-1.0,0.0,0.0,0,4,0,2,0,9,1,26.19,0.00,1.47,
18.204,119.65715279637048,106.21693005176151,-1.0,0.0,0.0,0,4,0,2,0,9,1,26.39,0.00,1.57,
18.219,119.74071527963704,106.23769300517614,-1.0,-1.0,-1.0,0,5,0,2,0,9,1,26.39,0.00,1.57,
18.233,119.6590715279637,106.29376930051761,-1.0,0.0,-1.0,0,5,0,2,0,9,1,26.68,0.00,1.77,
18.246,119.74090715279637,106.29937693005176,-1.0,-1.0,-1.0,0,5,0,2,0,9,1,26.78,0.00,1.77,
18.26,119.58709071527963,106.39893769300518,-1.0,-1.0,-1.0,0,5,0,2,0,9,1,26.78,0.00,1.77,
18.275,119.47270907152796,106.50789376930051,-1.0,-2.0,-1.0,0,5,1,2,0,9,1,26.68,0.00,1.86,
18.289,119.3082709071528,106.58178937693006,-2.0,-1.0,-2.0,0,5,1,2,0,9,1,26.68,0.00,1.96,
18.304,119.33682709071529,106.553178937693,-1.0,0.0,-1.0,0,5,1,2,0,9,1,26.59,0.00,1.86,
18.318,119.31268270907154,106.5143178937693,-1.0,0.0,0.0,0,5,1,2,0,10,1,26.59,0.00,1.77,
18.332,119.32826827090716,106.47443178937694,-1.0,-1.0,-1.0,0,5,1,2,0,10,1,26.68,0.00,1.86,
18.347,119.39282682709072,106.51544317893769,-1.0,0.0,-1.0,0,5,1,2,0,10,1,26.68,0.00,1.77,
18.361,119.41728268270907,106.54654431789376,-1.0,0.0,0.0,0,5,1,2,0,10,1,26.59,0.00,1.86,
18.375,119.4377282682709,106.63065443178937,-2.0,0.0,0.0,0,5,1,2,0,10,1,26.59,0.00,1.96,
18.39,119.4757728268271,106.56706544317895,-2.0,0.0,0.0,0,5,1,2,0,10,1,26.68,0.00,1.96,
18.404,119.38057728268271,106.51570654431791,-2.0,0.0,0.0,0,5,1,2,0,10,1,26.88,0.00,2.06,
18.417,119.37105772826827,106.54657065443179,-1.0,1.0,0.0,0,5,1,2,0,10,1,27.17,0.00,2.06,
18.432,119.53210577282682,106.48665706544318,-2.0,0.0,0.0,0,5,1,2,0,10,1,27.37,0.00,2.16,
18.446,119.62921057728268,106.50766570654433,-2.0,0.0,0.0,0,5,1,2,0,10,1,27.57,0.00,2.35,
18.46,119.64792105772827,106.50976657065443,-1.0,0.0,0.0,0,5,1,2,0,10,1,27.57,0.00,2.26,
18.475,119.54179210577283,106.50097665706545,-1.0,0.0,0.0,0,5,1,2,0,10,1,27.47,0.00,2.26,
18.489,119.45017921057728,106.49109766570653,-1.0,0.0,0.0,0,5,1,2,0,10,1,27.47,0.00,2.35,
18.503,119.51301792105772,106.47210976657065,-1.0,1.0,0.0,0,5,1,2,0,10,1,27.47,0.00,2.55,
18.518,119.59130179210577,106.52421097665707,-1.0,0.0,0.0,0,5,1,2,0,10,1,27.57,0.00,2.65,
18.532,119.68913017921058,106.58342109766572,-1.0,0.0,0.0,0,5,1,2,0,10,1,27.76,0.00,2.65,
18.546,119.71691301792106,106.62534210976656,-2.0,0.0,0.0,0,5,1,2,0,10,1,27.86,0.00,2.65,
18.561,119.69269130179211,106.59353421097667,-2.0,0.0,0.0,0,5,1,2,0,10,1,27.86,0.00,2.65,
18.575,119.71726913017922,106.53635342109767,-2.0,0.0,-1.0,0,5,1,2,0,10,1,28.06,0.00,2.65,
18.589,119.71072691301791,106.53963534210978,-2.0,0.0,-1.0,0,5,1,2,0,10,1,28.35,0.00,2.65,
18.604,119.80907269130178,106.54896353421097,-2.0,0.0,0.0,0,5,1,2,0,10,1,28.65,0.00,2.55,
18.618,119.87290726913017,106.5588963534211,-2.0,0.0,-1.0,0,5,1,2,0,10,1,28.94,0.00,2.55,
18.632,119.85229072691301,106.55988963534212,-1.0,0.0,0.0,0,5,1,2,0,10,1,29.14,0.00,2.65,
18.647,119.80522907269129,106.54198896353422,-2.0,0.0,0.0,0,5,1,2,0,10,1,29.33,0.00,2.65,
18.661,119.82752290726913,106.56719889635342,-1.0,0.0,0.0,0,5,1,2,0,10,1,29.33,0.00,2.75,
18.674,119.78475229072691,106.59671988963534,-1.0,0.0,0.0,0,5,1,2,0,10,1,29.43,0.00,2.65,
18.689,119.77147522907268,106.58167198896354,-1.0,0.0,0.0,0,5,1,2,0,10,1,29.63,0.00,2.75,
18.703,119.75214752290726,106.61616719889636,-2.0,0.0,0.0,0,5,1,2,0,10,1,29.63,0.00,2.84,
18.717,119.79521475229072,106.66461671988964,-2.0,0.0,0.0,0,5,1,2,0,10,1,29.72,0.00,2.84,
18.732,119.80852147522907,106.60646167198895,-2.0,0.0,0.0,0,5,1,2,0,10,1,29.92,0.00,2.84,
18.746,119.8548521475229,106.63664616719889,-2.0,1.0,0.0,0,5,1,2,0,10,1,30.12,0.00,2.84,
18.76,119.8954852147523,106.6216646167199,-2.0,0.0,0.0,0,5,1,2,0,10,1,30.31,0.00,2.84,
18.775,119.89054852147522,106.60216646167198,-2.0,1.0,0.0,0,5,1,2,0,10,1,30.61,0.00,2.84,
18.789,119.86305485214751,106.61821664616721,-2.0,1.0,0.0,0,5,1,2,0,10,1,31.00,0.00,2.94,
18.803,119.86930548521475,106.59282166461674,-2.0,1.0,0.0,0,5,1,2,0,10,1,31.29,0.00,2.94,
18.818,119.91493054852147,106.50928216646167,-2.0,0.0,0.0,0,5,1,2,0,10,1,31.59,0.00,2.75,
18.832,119.91949305485214,106.43792821664617,-2.0,0.0,0.0,0,5,1,2,0,10,1,31.78,0.00,2.84,
18.846,119.9109493054852,106.39479282166462,-2.0,0.0,0.0,0,5,1,2,0,10,1,31.88,0.00,2.84,
18.861,119.87409493054852,106.39947928216647,-2.0,0.0,0.0,0,5,1,2,0,10,1,31.98,0.00,2.75,
18.874,119.88840949305485,106.39094792821665,-2.0,1.0,0.0,0,5,1,2,0,10,1,32.08,0.00,2.84,
18.888,119.91684094930548,106.32709479282167,-2.0,1.0,0.0,0,5,1,2,0,10,1,32.27,0.00,2.94,
18.903,120.00068409493055,106.37470947928217,-2.0,1.0,0.0,0,5,1,2,0,10,1,32.67,0.00,2.84,
18.917,120.06306840949306,106.45147094792821,-2.0,0.0,0.0,0,5,1,2,0,10,1,32.86,0.00,2.84,
18.931,120.07830684094931,106.45914709479281,-2.0,0.0,0.0,0,5,1,2,0,10,1,33.06,0.00,2.94,
18.946,120.06183068409493,106.61291470947927,-3.0,0.0,0.0,0,5,1,2,0,10,1,33.26,0.00,2.94,
18.96,120.06018306840949,106.58329147094793,-2.0,1.0,0.0,0,5,1,2,0,10,1,33.45,0.00,2.84,
18.974,120.07801830684095,106.5623291470948,-3.0,1.0,0.0,0,5,1,2,0,10,1,33.65,0.00,2.94,
18.989,120.1878018306841,106.55123291470947,-2.0,0.0,0.0,0,5,1,2,0,10,1,33.84,0.00,2.94,
19.003,120.1267801830684,106.58612329147095,-2.0,0.0,0.0,0,5,1,2,0,10,1,34.14,0.00,2.84,
19.017,120.12967801830685,106.5086123291471,-2.0,0.0,0.0,0,5,1,2,0,10,1,34.34,0.00,2.94,
19.032,120.22896780183068,106.47386123291471,-3.0,0.0,0.0,0,5,1,2,0,10,1,34.43,0.00,3.14,
19.046,120.23889678018305,106.44338612329148,-2.0,0.0,0.0,0,5,1,2,0,10,1,34.43,0.00,3.04,
19.06,120.28488967801832,106.44933861232916,-3.0,0.0,0.0,0,5,1,2,0,10,1,34.63,0.00,3.14,
19.075,120.27148896780183,106.41393386123292,-3.0,0.0,0.0,0,5,1,2,0,10,1,34.63,0.00,3.14,
19.088,120.29714889678017,106.44639338612329,-3.0,0.0,0.0,0,5,1,2,0,10,1,34.73,0.00,3.14,
19.102,120.29071488967803,106.43163933861233,-3.0,0.0,0.0,0,5,1,2,0,10,1,34.73,0.00,3.24,
19.117,120.2450714889678,106.29516393386123,-3.0,0.0,0.0,0,5,1,2,0,10,1,34.92,0.00,3.14,
19.131,120.24050714889677,106.31751639338613,-3.0,1.0,0.0,0,5,1,2,0,9,1,34.92,0.00,3.34,
19.145,120.32105071488967,106.2207516393386,-3.0,0.0,0.0,0,5,1,2,0,9,1,35.12,0.00,3.24,
19.16,120.37410507148897,106.20207516393386,-3.0,0.0,0.0,0,5,1,2,0,9,1,35.22,0.00,3.24,
19.174,120.41541050714889,106.20920751639338,-3.0,0.0,0.0,0,5,1,2,0,9,1,35.41,0.00,3.24,
19.187,120.47354105071489,106.15592075163934,-3.0,0.0,0.0,0,5,1,2,0,9,1,35.51,0.00,3.34,
19.202,120.5243541050715,106.11459207516393,-2.0,0.0,0.0,0,5,1,2,0,9,1,35.81,0.00,3.34,
19.216,120.49343541050715,106.0654592075164,-3.0,0.0,0.0,0,5,1,2,0,9,1,35.81,0.00,3.24,
19.23,120.47234354105072,106.04254592075165,-3.0,0.0,0.0,0,5,1,2,0,9,1,35.90,0.00,3.24,
19.244,120.47923435410507,106.02225459207516,-3.0,0.0,0.0,0,5,1,2,0,9,1,35.90,0.00,3.43,
19.258,120.48892343541051,105.98422545920752,-3.0,1.0,0.0,0,5,1,2,0,9,1,35.90,0.00,3.34,
19.272,120.43589234354107,105.98042254592076,-3.0,0.0,0.0,0,5,1,2,0,9,1,36.00,0.00,3.34,
19.287,120.4485892343541,105.97104225459208,-3.0,0.0,0.0,0,5,1,2,0,9,1,36.30,0.00,3.34,
19.3,120.48585892343542,105.93410422545921,-3.0,0.0,0.0,0,5,1,2,0,9,1,36.30,0.00,3.34,
19.736,120.81358589234354,105.85841042254592,-2.0,0.0,0.0,0,5,1,2,0,8,0,35.41,0.00,3.53,
19.75,120.88235858923436,105.83284104225459,-2.0,0.0,0.0,0,5,1,2,0,8,0,35.32,0.00,3.43,
19.765,120.86223585892344,105.81228410422545,-3.0,0.0,0.0,0,5,1,2,0,8,0,35.22,0.00,3.43,
19.778,120.85122358589234,105.76522841042255,-3.0,0.0,0.0,0,5,1,2,0,8,0,35.12,0.00,3.53,
19.792,120.84112235858923,105.71552284104224,-3.0,0.0,0.0,0,5,1,2,0,8,0,35.02,0.00,3.53,
19.807,120.84911223585893,105.69255228410421,-2.0,0.0,0.0,0,5,1,2,0,8,0,35.12,0.00,3.43,
19.821,120.84991122358589,105.68125522841042,-2.0,0.0,0.0,0,5,1,2,0,8,0,34.92,0.00,3.34,
19.834,120.92199112235859,105.68912552284104,-2.0,0.0,0.0,0,5,1,2,0,8,0,34.83,0.00,3.43,
19.849,120.92919911223586,105.67191255228411,-2.0,0.0,0.0,0,5,1,2,0,8,0,34.92,0.00,3.43,
19.863,120.91191991122359,105.61619125522842,-2.0,0.0,0.0,0,5,1,2,0,8,0,35.02,0.00,3.43,
19.877,120.91019199112236,105.56561912552284,-2.0,0.0,-1.0,0,5,1,2,0,8,0,34.92,0.00,3.43,
19.891,120.93701919911224,105.59656191255227,-2.0,0.0,-1.0,0,5,1,2,0,8,0,35.02,0.00,3.43,
19.905,120.93070191991123,105.50965619125523,-2.0,0.0,-1.0,0,5,1,2,0,8,0,35.12,0.00,3.53,
19.919,120.90307019199112,105.52796561912552,-2.0,0.0,0.0,0,5,1,2,0,8,0,35.12,0.00,3.43,
19.934,120.86430701919912,105.50279656191255,-2.0,0.0,-1.0,0,5,1,2,0,8,0,35.02,0.00,3.53,
19.948,120.84243070191991,105.55427965619126,-2.0,0.0,0.0,0,5,1,2,0,8,0,35.02,0.00,3.53,
19.961,120.88524307019199,105.56842796561911,-2.0,0.0,0.0,0,5,1,2,0,8,0,35.02,0.00,3.53,
19.976,120.9345243070192,105.5698427965619,-2.0,0.0,0.0,0,5,1,2,0,8,0,35.12,0.00,3.53,
19.99,120.96645243070192,105.5429842796562,-2.0,0.0,0.0,0,5,1,2,0,8,0,35.22,0.00,3.53,
20.004,121.00564524307019,105.55829842796562,-2.0,0.0,0.0,0,5,1,2,0,8,0,35.22,0.00,3.63,
20.018,121.00956452430702,105.55982984279656,-2.0,0.0,0.0,0,5,1,2,0,8,0,35.12,0.00,3.43,
20.032,121.0009564524307,105.55098298427966,-3.0,0.0,0.0,0,5,1,2,0,8,0,35.12,0.00,3.43,
20.046,120.99109564524306,105.51409829842797,-2.0,0.0,0.0,0,5,1,2,0,8,0,35.22,0.00,3.63,
20.06,121.0261095645243,105.5374098298428,-2.0,0.0,0.0,0,5,1,2,0,8,0,35.32,0.00,3.53,
20.074,121.03861095645243,105.50374098298428,-2.0,0.0,0.0,0,5,1,2,0,8,0,35.41,0.00,3.63,
20.088,121.03086109564525,105.49137409829842,-2.0,0.0,-1.0,0,5,1,2,0,8,0,35.51,0.00,3.63,
20.103,121.00308610956452,105.50813740982984,-2.0,0.0,-1.0,0,5,1,2,0,8,0,35.41,0.00,3.63,
20.117,121.02730861095645,105.46481374098298,-2.0,0.0,0.0,0,5,1,2,0,8,0,35.51,0.00,3.63,
20.13,121.00273086109564,105.42448137409829,-2.0,0.0,0.0,0,5,1,2,0,8,0,35.51,0.00,3.63,
20.145,120.93727308610957,105.34844813740983,-2.0,0.0,-1.0,0,5,1,2,0,8,0,35.61,0.00,3.73,
20.159,120.85872730861095,105.32284481374097,-2.0,0.0,-1.0,0,5,1,2,0,8,0,35.51,0.00,3.73,
20.173,120.9048727308611,105.41028448137409,-2.0,0.0,-1.0,0,5,1,2,0,8,0,35.51,0.00,3.63,
20.188,120.85548727308611,105.41002844813741,-2.0,0.0,-1.0,0,5,1,2,0,8,0,35.51,0.00,3.63,
20.201,120.8685487273086,105.33800284481373,-2.0,0.0,-1.0,0,5,1,2,0,8,0,35.51,0.00,3.63,
20.215,120.88785487273086,105.31280028448138,-2.0,0.0,-1.0,0,5,1,2,0,8,0,35.51,0.00,3.53,
20.23,120.83578548727309,105.28328002844815,-2.0,0.0,-1.0,0,5,1,2,0,8,0,35.41,0.00,3.63,
20.244,120.8215785487273,105.37032800284481,-2.0,0.0,-1.0,0,5,1,2,0,8,0,35.41,0.00,3.53,
20.258,120.82915785487273,105.38803280028448,-2.0,0.0,-1.0,0,5,1,2,0,8,0,35.41,0.00,3.63,
20.272,120.90191578548728,105.39880328002846,-2.0,0.0,-1.0,0,5,1,2,0,8,0,35.32,0.00,3.63,
20.286,120.90019157854873,105.39988032800285,-2.0,0.0,-1.0,0,5,1,2,0,8,0,35.22,0.00,3.63,
20.3,120.94501915785487,105.40898803280028,-2.0,0.0,-1.0,0,5,1,2,0,8,0,35.22,0.00,3.63,
20.315,120.92250191578549,105.40989880328003,-2.0,0.0,-1.0,0,5,1,2,0,8,0,35.32,0.00,3.63,
20.329,120.86625019157854,105.382989880328,-2.0,0.0,-1.0,0,5,1,2,0,8,0,35.32,0.00,3.63,
20.343,120.83362501915785,105.3712989880328,-2.0,0.0,-1.0,0,5,1,2,0,8,0,35.22,0.00,3.63,
20.357,120.82136250191579,105.37912989880327,-2.0,0.0,-1.0,0,5,1,2,0,8,0,35.22,0.00,3.53,
20.371,120.81113625019158,105.42491298988034,-2.0,0.0,-1.0,0,5,1,2,0,8,0,35.22,0.00,3.53,
20.385,120.82811362501916,105.42049129898803,-2.0,0.0,-1.0,0,5,1,2,0,8,0,35.32,0.00,3.63,
20.4,120.85681136250192,105.40204912989881,-2.0,0.0,-1.0,0,5,1,2,0,8,0,35.22,0.00,3.63,
20.414,120.91368113625019,105.39120491298988,-2.0,0.0,-1.0,0,5,1,2,0,8,0,35.32,0.00,3.63,
20.427,120.89236811362503,105.399120491299,-2.0,0.0,-1.0,0,5,1,2,0,8,0,35.32,0.00,3.53,
20.442,120.9262368113625,105.39991204912991,-2.0,0.0,-1.0,1,5,1,2,0,8,0,35.32,0.00,3.53,
20.456,120.96562368113625,105.36399120491299,-2.0,0.0,-1.0,1,5,1,2,0,8,0,35.32,0.00,3.73,
20.47,120.93356236811363,105.3603991204913,-2.0,0.0,-1.0,1,5,1,2,0,8,0,35.32,0.00,3.63,
20.485,120.95735623681135,105.36003991204913,-2.0,0.0,-1.0,1,5,1,2,0,8,0,35.22,0.00,3.53,
20.498,120.95073562368114,105.42300399120492,-2.0,0.0,-1.0,1,5,1,2,0,8,0,35.22,0.00,3.53,
20.512,120.95007356236812,105.4563003991205,-2.0,0.0,-1.0,1,5,1,2,0,8,0,35.12,0.00,3.53,
20.527,121.03100735623681,105.50463003991204,-2.0,0.0,-1.0,1,5,1,2,0,8,0,35.32,0.00,3.63,
20.541,120.94910073562369,105.4734630039912,-2.0,0.0,-1.0,1,5,1,2,0,8,0,35.22,0.00,3.53,
20.555,120.94091007356236,105.47934630039911,-2.0,0.0,-1.0,1,5,1,2,0,8,0,35.12,0.00,3.53,
20.57,120.95809100735622,105.43493463003992,-2.0,0.0,-1.0,1,5,1,2,0,8,0,35.22,0.00,3.63,
20.583,120.91480910073562,105.403493463004,-2.0,0.0,-1.0,1,5,1,2,0,8,0,35.12,0.00,3.63,
20.597,120.89248091007356,105.40034934630042,-2.0,0.0,-1.0,1,5,1,2,0,8,0,35.12,0.00,3.63,
20.612,120.89024809100735,105.35503493463004,-2.0,0.0,-1.0,1,5,1,2,0,8,0,35.22,0.00,3.63,
20.626,120.88102480910074,105.39550349346301,-2.0,0.0,-1.0,1,5,1,2,0,8,0,35.12,0.00,3.63,
20.64,120.89810248091007,105.34555034934631,-2.0,0.0,-1.0,1,5,1,2,0,8,0,35.12,0.00,3.63,
20.655,120.818810248091,105.25955503493464,-2.0,0.0,-1.0,1,5,1,2,0,8,0,35.12,0.00,3.63,
20.668,120.82888102480909,105.31395550349346,-2.0,0.0,-1.0,1,5,1,2,0,8,0,35.22,0.00,3.63,
20.682,120.79388810248092,105.29239555034935,-2.0,0.0,-1.0,1,5,1,2,0,8,0,35.02,0.00,3.63,
20.697,120.85338881024809,105.31723955503493,-2.0,0.0,-1.0,1,5,1,2,0,8,0,35.12,0.00,3.63,
20.711,120.90433888102481,105.31972395550349,-2.0,0.0,0.0,1,5,1,2,0,8,0,35.02,0.00,3.53,
20.725,120.88243388810248,105.32897239555034,-2.0,0.0,-1.0,1,5,1,2,0,8,0,35.12,0.00,3.63,
20.739,120.89824338881024,105.31189723955504,-2.0,0.0,-1.0,1,5,1,2,0,8,0,35.12,0.00,3.73,
20.753,120.80982433888101,105.31018972395552,-2.0,0.0,-1.0,1,5,1,2,0,8,0,34.92,0.00,3.73,
20.767,120.8369824338881,105.35501897239554,-2.0,0.0,0.0,1,5,1,2,0,8,0,34.92,0.00,3.73,
20.782,120.83069824338881,105.38650189723955,-2.0,0.0,-1.0,1,5,1,2,0,8,0,34.92,0.00,3.63,
20.796,120.83906982433888,105.38965018972395,-2.0,0.0,0.0,1,5,1,2,0,8,0,34.83,0.00,3.73,
20.809,120.84890698243389,105.41696501897239,-2.0,0.0,0.0,1,5,1,2,0,8,0,34.92,0.00,3.73,
20.824,120.82289069824338,105.42869650189725,-2.0,0.0,0.0,1,5,1,2,0,8,0,34.83,0.00,3.73,
20.838,120.85628906982434,105.45686965018973,-2.0,0.0,-1.0,1,5,1,2,0,8,0,34.73,0.00,3.73,
20.852,120.80562890698243,105.43268696501899,-2.0,0.0,0.0,1,5,1,2,0,8,0,34.73,0.00,3.73,
20.866,120.73756289069826,105.43026869650191,-2.0,0.0,0.0,1,5,1,2,0,8,0,34.53,0.00,3.73,
20.88,120.87475628906982,105.44802686965019,-2.0,0.0,0.0,1,5,1,2,0,8,0,34.53,0.00,3.83,
20.894,120.87947562890699,105.41380268696501,-2.0,0.0,0.0,1,5,1,2,0,8,0,34.53,0.00,3.73,
20.908,120.84394756289069,105.3563802686965,-2.0,0.0,0.0,1,5,1,2,0,8,0,34.43,0.00,3.73,
20.922,120.79539475628908,105.33263802686965,-2.0,0.0,0.0,1,5,1,2,0,8,0,34.43,0.00,3.73,
20.936,120.7995394756289,105.30326380268696,-2.0,0.0,0.0,1,5,1,2,0,8,0,34.34,0.00,3.73,
20.951,120.78195394756288,105.2913263802687,-2.0,0.0,0.0,1,5,1,2,0,8,0,34.34,0.00,3.63,
20.964,120.74419539475628,105.29013263802688,-2.0,0.0,0.0,1,5,1,2,0,8,0,34.24,0.00,3.73,
20.978,120.79441953947563,105.31701326380268,-2.0,0.0,0.0,1,5,1,2,0,8,0,34.24,0.00,3.63,
20.993,120.75444195394756,105.26570132638028,-2.0,0.0,0.0,1,5,1,2,0,8,0,34.24,0.00,3.73,
21.007,120.73244419539476,105.23357013263804,-2.0,0.0,0.0,1,5,1,2,0,8,0,34.14,0.00,3.73,
21.02,120.73924441953947,105.14935701326381,-2.0,0.0,0.0,1,5,1,2,0,8,0,34.04,0.00,3.73,
21.035,120.74892444195395,105.14093570132638,-2.0,0.0,-1.0,1,5,1,2,0,8,0,34.04,0.00,3.63,
21.049,120.7948924441954,105.21209357013264,-2.0,0.0,-1.0,1,5,1,2,0,8,0,34.14,0.00,3.73,
21.063,120.82648924441953,105.16520935701327,-2.0,0.0,-1.0,1,5,1,2,0,8,0,34.04,0.00,3.83,
21.076,120.85664892444196,105.20552093570132,-2.0,0.0,-1.0,1,5,1,2,0,8,0,34.14,0.00,3.83,
21.091,120.87766489244419,105.24555209357014,-2.0,0.0,-1.0,1,5,1,2,0,8,0,34.04,0.00,3.83,
21.105,120.87076648924442,105.24955520935703,-2.0,0.0,-1.0,1,5,1,2,0,8,0,34.04,0.00,3.73,
21.12,120.88807664892444,105.24995552093571,-2.0,0.0,-1.0,1,5,1,2,0,8,0,34.04,0.00,3.73,
21.134,120.91680766489245,105.22299555209358,-2.0,0.0,-1.0,1,5,1,2,0,8,0,34.04,0.00,3.73,
21.148,120.94668076648925,105.26529955520935,-2.0,0.0,-1.0,1,5,1,2,0,8,0,34.14,0.00,3.73,
21.161,120.89566807664892,105.22452995552094,-2.0,0.0,-1.0,1,5,1,2,0,8,0,34.14,0.00,3.63,
21.176,120.9085668076649,105.17545299555209,-2.0,0.0,-1.0,1,5,1,2,0,8,0,34.14,0.00,3.83,
21.19,120.95485668076648,105.26954529955522,-1.0,0.0,-1.0,1,5,1,2,0,8,0,34.14,0.00,3.73,
21.204,120.95048566807665,105.26995452995551,-2.0,0.0,-1.0,1,5,1,2,0,8,0,34.14,0.00,3.73,
21.219,120.93204856680767,105.24299545299554,-2.0,0.0,-1.0,1,5,1,2,0,8,0,34.04,0.00,3.73,
21.233,120.86720485668076,105.24929954529956,-2.0,0.0,0.0,1,5,1,2,0,8,0,34.04,0.00,3.73,
21.246,120.87872048566807,105.32192995452995,-2.0,0.0,0.0,1,5,1,2,0,8,0,33.94,0.00,3.83,
21.261,120.91587204856681,105.338192995453,-2.0,0.0,0.0,1,5,1,2,0,8,0,33.94,0.00,3.73,
21.275,120.91958720485668,105.28581929954531,-2.0,0.0,0.0,1,5,1,2,0,8,0,33.94,0.00,3.73,
21.289,120.92895872048567,105.28058192995454,-2.0,0.0,0.0,1,5,1,2,0,8,0,34.04,0.00,3.73,
21.303,120.93889587204856,105.26205819299545,-2.0,0.0,0.0,1,5,1,2,0,8,0,33.94,0.00,3.73,
21.317,120.94888958720486,105.28720581929956,-2.0,0.0,-1.0,1,5,1,2,0,8,0,33.94,0.00,3.73,
21.331,120.91388895872049,105.27172058192994,-2.0,0.0,0.0,1,5,1,2,0,8,0,33.84,0.00,3.83,
21.346,120.91038889587205,105.234172058193,-2.0,0.0,0.0,1,5,1,2,0,7,0,33.84,0.00,3.83,
21.359,120.8920388895872,105.2394172058193,-2.0,0.0,0.0,1,5,1,2,0,7,0,33.75,0.00,3.83,
21.373,120.89020388895872,105.21294172058192,-2.0,0.0,0.0,1,5,1,2,0,7,0,33.65,0.00,3.83,
21.388,120.89002038889588,105.2462941720582,-2.0,0.0,0.0,1,5,1,2,0,7,0,33.65,0.00,3.73,
21.401,120.88100203888959,105.24962941720582,-2.0,0.0,0.0,1,5,1,2,0,7,0,33.55,0.00,3.73,
21.415,120.92510020388896,105.28596294172058,-2.0,0.0,0.0,1,5,1,2,0,7,0,33.65,0.00,3.83,
21.43,120.9115100203889,105.31659629417206,-2.0,0.0,0.0,1,5,1,2,0,7,0,33.65,0.00,3.83,
21.444,120.91915100203889,105.3556596294172,-2.0,0.0,0.0,1,5,1,2,0,7,0,33.65,0.00,3.73,
21.457,120.9379151002039,105.30556596294171,-2.0,0.0,0.0,1,5,1,2,0,7,0,33.55,0.00,3.73,
21.472,120.90379151002038,105.29155659629419,-2.0,0.0,0.0,1,5,1,2,0,7,0,33.55,0.00,3.73,
21.486,120.90937915100204,105.28115565962942,-2.0,0.0,0.0,1,5,1,2,0,7,0,33.35,0.00,3.73,
21.5,120.8649379151002,105.23511556596294,-2.0,0.0,0.0,1,5,1,2,0,7,0,33.45,0.00,3.83,
21.514,120.89649379151003,105.2755115565963,-2.0,0.0,0.0,1,5,1,2,0,7,0,33.45,0.00,3.73,
21.528,120.899649379151,105.27055115565962,-2.0,0.0,0.0,1,5,1,2,0,7,0,33.55,0.00,3.73,
21.542,120.8819649379151,105.28805511556597,-2.0,0.0,0.0,1,5,1,2,0,7,0,33.45,0.00,3.83,
21.557,120.86219649379152,105.2718055115566,-2.0,0.0,0.0,1,5,1,2,0,7,0,33.35,0.00,3.83,
21.57,120.91421964937915,105.25218055115566,-2.0,0.0,-1.0,1,5,1,2,0,7,0,33.45,0.00,3.83,
21.584,120.89242196493791,105.17821805511556,-2.0,0.0,0.0,1,5,1,2,0,7,0,33.45,0.00,3.83,
21.599,120.87224219649379,105.21582180551157,-2.0,0.0,-1.0,1,5,1,2,0,7,0,33.26,0.00,3.83,
21.613,120.85222421964937,105.19258218055116,-2.0,0.0,-1.0,1,5,1,2,0,7,0,33.26,0.00,3.73,
21.626,120.85922242196493,105.13625821805512,-2.0,0.0,-1.0,1,5,1,2,0,7,0,33.26,0.00,3.73,
21.641,120.84192224219649,105.13962582180551,-2.0,0.0,-1.0,1,5,1,2,0,7,0,33.16,0.00,3.73,
21.655,120.84919222421965,105.14896258218056,-2.0,0.0,-1.0,1,5,1,2,0,7,0,33.26,0.00,3.83,
21.669,120.84091922242196,105.15889625821806,-2.0,0.0,-1.0,1,5,1,2,0,7,0,33.26,0.00,3.73,
21.684,120.8400919222422,105.1688896258218,-2.0,0.0,-1.0,1,5,1,2,0,7,0,33.16,0.00,3.73,
21.698,120.81300919222421,105.25088896258218,-2.0,0.0,-1.0,1,5,1,2,0,7,0,33.06,0.00,3.73,
21.711,120.83730091922241,105.2410888962582,-2.0,0.0,-1.0,1,5,1,2,0,7,0,33.16,0.00,3.92,
21.726,120.83973009192223,105.24910888962583,-2.0,0.0,-1.0,1,5,1,2,0,7,0,33.16,0.00,3.83,
21.74,120.83097300919222,105.24091088896257,-2.0,0.0,-1.0,1,5,1,2,0,7,0,33.26,0.00,3.83,
21.754,120.89309730091922,105.28509108889627,-2.0,0.0,-1.0,1,5,1,2,0,7,0,33.16,0.00,3.83,
21.769,120.9803097300919,105.24450910888962,-2.0,0.0,-1.0,1,5,1,2,0,7,0,33.16,0.00,3.92,
21.782,120.97103097300919,105.30345091088897,-2.0,0.0,-1.0,1,5,1,2,0,7,0,33.16,0.00,3.92,
21.796,120.97910309730092,105.3093450910889,-2.0,0.0,-1.0,1,5,1,2,0,7,0,33.06,0.00,3.83,
21.811,120.9529103097301,105.34593450910889,-2.0,0.0,0.0,1,5,1,2,0,7,0,33.06,0.00,3.83,
21.825,120.977291030973,105.3135934509109,-2.0,0.0,0.0,1,5,1,2,0,7,0,33.06,0.00,3.92,
21.839,120.9797291030973,105.31935934509109,-2.0,0.0,-1.0,1,5,1,2,0,7,0,33.16,0.00,3.92,
21.853,120.91697291030972,105.3019359345091,-2.0,0.0,-1.0,1,5,1,2,0,7,0,33.06,0.00,3.92,
21.867,120.89269729103097,105.29119359345091,-2.0,0.0,-1.0,1,5,1,2,0,7,0,33.16,0.00,3.83,
21.881,120.8272697291031,105.2811193593451,-2.0,0.0,-1.0,1,5,1,2,0,7,0,33.16,0.00,4.02,
21.896,120.86572697291031,105.25311193593451,-2.0,0.0,-1.0,1,5,1,2,0,7,0,33.16,0.00,4.02,
21.91,120.87857269729103,105.30431119359346,-1.0,0.0,-1.0,1,5,1,2,0,7,0,33.06,0.00,4.02,
21.923,120.8258572697291,105.29143111935936,-1.0,0.0,-1.0,1,5,1,2,0,7,0,32.86,0.00,3.92,
21.938,120.84758572697291,105.29914311193593,-2.0,0.0,0.0,1,5,1,2,0,7,0,32.77,0.00,3.92,
21.952,120.86775857269728,105.2909143111936,-2.0,0.0,-1.0,1,5,1,2,0,7,0,32.77,0.00,3.92,
21.966,120.92377585726973,105.28109143111936,-2.0,0.0,0.0,1,5,1,2,0,7,0,32.77,0.00,3.83,
21.981,120.99237758572697,105.29810914311193,-2.0,0.0,-1.0,1,5,1,2,0,7,0,32.67,0.00,3.83,
21.994,121.0352377585727,105.2548109143112,-2.0,0.0,0.0,1,5,1,2,0,7,0,32.67,0.00,3.92,
22.008,121.03952377585728,105.20548109143112,-2.0,0.0,-1.0,1,5,1,2,0,7,0,32.67,0.00,3.92,
22.023,121.03095237758573,105.20054810914311,-2.0,0.0,-1.0,1,5,1,2,0,7,0,32.67,0.00,3.92,
22.037,121.00309523775857,105.22705481091431,-2.0,0.0,-1.0,1,5,1,2,0,7,0,32.67,0.00,3.92,
22.051,121.00030952377585,105.23870548109142,-2.0,0.0,-1.0,1,5,1,2,0,7,0,32.57,0.00,3.92,
22.065,120.97303095237758,105.25787054810915,-2.0,0.0,-1.0,1,5,1,2,0,7,0,32.57,0.00,3.83,
22.079,120.91630309523777,105.25078705481093,-2.0,0.0,-1.0,1,5,1,2,0,7,0,32.47,0.00,3.92,
22.093,120.96463030952378,105.24107870548109,-2.0,0.0,-1.0,1,5,1,2,0,7,0,32.47,0.00,3.83,
22.108,120.97846303095238,105.25810787054812,-2.0,0.0,-1.0,1,5,1,2,0,7,0,32.57,0.00,3.92,
22.122,120.99784630309524,105.3138107870548,-2.0,0.0,-1.0,1,5,1,2,0,7,0,32.67,0.00,3.92,
22.136,120.94578463030953,105.26538107870549,-2.0,0.0,0.0,1,5,1,2,0,7,0,32.77,0.00,4.02,
22.15,120.89557846303096,105.25153810787056,-2.0,0.0,-1.0,1,5,1,2,0,7,0,32.86,0.00,3.92,
