time,pitch,roll,gyrx,gyry,gyrz,f1,f2,f3,f4,f5,f6,f7,g1,g2,g3
0.33,20.01,9.72,-1.0,0.0,-1.0,0.0,0.0,0.0,0.0,0.0,0.0,0.0,0.0,0.0,0.0,
0.344,24.105,11.808,-1.0,0.0,0.0,0.0,0.0,0.0,0.0,0.0,0.0,0.0,0.0,0.0,0.0,
0.356,27.9255,13.7628,-2.0,1.0,0.0,0.0,0.0,0.0,0.0,0.0,0.0,0.0,0.0,0.0,0.0,
0.369,31.16955,15.39828,-2.0,1.0,1.0,0.0,0.0,0.0,0.0,0.0,0.0,0.0,0.0,0.0,0.0,
0.382,34.139955,16.830827999999997,-2.0,0.0,1.0,0.0,0.0,0.0,0.0,0.0,0.0,0.0,0.0,0.0,0.0,
0.395,36.8489955,18.1350828,-1.0,0.0,0.0,0.0,0.0,0.0,0.0,0.0,0.0,0.0,0.1,0.0,0.0,
0.408,39.34289955,19.309508280000003,-1.0,0.0,-1.0,0.0,0.0,0.0,0.0,0.0,0.0,0.0,0.0,0.1,0.0,
0.421,41.365289955,20.272950828,-1.0,0.0,0.0,0.0,0.0,0.0,0.0,0.0,0.0,0.0,0.1,0.0,0.1,
0.435,42.9265289955,21.044295082799998,-1.0,0.0,0.0,0.0,0.0,0.0,0.0,0.0,0.0,0.0,0.1,0.0,0.0,
0.447,44.10865289955,21.63442950828,-1.0,0.0,0.0,0.0,0.0,0.0,0.0,0.0,0.0,0.0,0.1,0.1,0.0,
0.46,44.991865289955,22.134442950828,-2.0,0.0,0.0,0.0,0.0,0.0,0.0,0.0,0.0,0.0,0.1,0.1,0.0,
0.474,45.665186528995505,22.4904442950828,-2.0,0.0,0.0,0.0,0.0,0.0,0.0,0.0,0.0,0.0,0.1,0.0,0.0,
0.487,46.425518652899555,22.778044429508277,-3.0,0.0,1.0,0.0,0.0,0.0,0.0,0.0,0.0,0.0,0.1,0.0,0.0,
0.499,47.19455186528995,23.076804442950827,-3.0,-1.0,0.0,0.0,0.0,0.0,0.0,0.0,0.0,0.0,0.1,0.0,0.0,
0.513,47.991455186528995,23.385680444295083,-3.0,0.0,-1.0,0.0,0.0,0.0,0.0,0.0,0.0,0.0,0.0,0.0,0.0,
0.526,48.7281455186529,23.65956804442951,-2.0,0.0,-1.0,0.0,0.0,0.0,0.0,0.0,0.0,0.0,0.1,0.0,0.0,
0.539,49.35081455186529,23.90295680444295,-2.0,0.0,-2.0,0.0,0.0,0.0,0.0,0.0,0.0,0.0,0.1,0.0,0.0,
0.552,49.854081455186524,24.134295680444296,-2.0,0.0,-2.0,0.0,0.0,0.0,0.0,0.0,0.0,0.0,0.1,0.0,0.0,
0.565,50.210408145518656,24.30142956804443,-2.0,0.0,-1.0,0.0,0.0,0.0,0.0,0.0,0.0,0.0,0.1,0.0,0.0,
0.578,50.47104081455187,24.390142956804443,-2.0,0.0,0.0,0.0,0.0,0.0,0.0,0.0,0.0,0.0,0.1,0.0,0.0,
0.591,50.776104081455195,24.570014295680444,-3.0,0.0,0.0,0.0,0.0,0.0,0.0,0.0,0.0,0.0,0.1,0.0,0.0,
0.605,50.84261040814552,24.615001429568046,-2.0,0.0,0.0,0.0,0.0,0.0,0.0,0.0,0.0,0.0,0.1,0.0,0.1,
0.617,51.17326104081455,24.808500142956802,-2.0,0.0,-1.0,0.0,0.0,0.0,0.0,0.0,0.0,0.0,0.1,0.0,0.1,
0.63,51.404326104081456,24.91785001429568,-2.0,0.0,-1.0,0.0,0.0,0.0,0.0,0.0,0.0,0.0,0.2,0.0,0.0,
0.644,51.60743261040815,25.135785001429568,-2.0,0.0,0.0,0.0,0.0,0.0,0.0,0.0,0.0,0.0,0.2,0.0,0.0,
0.657,51.57374326104082,25.18457850014296,-2.0,0.0,0.0,0.0,0.0,0.0,0.0,0.0,0.0,0.0,0.1,0.0,0.0,
0.669,51.55237432610408,25.207457850014293,-1.0,0.0,-1.0,0.0,0.0,0.0,0.0,0.0,0.0,0.0,0.0,0.0,0.0,
0.683,51.424237432610404,25.16474578500143,-2.0,0.0,-1.0,0.0,0.0,0.0,0.0,0.0,0.0,0.0,0.1,0.0,0.1,
0.696,51.47442374326104,25.214474578500145,-2.0,0.0,0.0,0.0,0.0,0.0,0.0,0.0,0.0,0.0,0.1,0.0,0.0,
0.709,51.57844237432611,25.27344745785002,-2.0,0.0,0.0,0.0,0.0,0.0,0.0,0.0,0.0,0.0,0.1,0.0,0.0,
0.721,51.822844237432605,25.369344745785,-2.0,0.0,0.0,0.0,0.0,0.0,0.0,0.0,0.0,0.0,0.2,0.0,0.0,
0.735,52.135284423743265,25.5409344745785,-1.0,0.0,-1.0,0.0,0.0,0.0,0.0,0.0,0.0,0.0,0.1,0.0,0.0,
0.748,52.30152844237433,25.54909344745785,0.0,0.0,-2.0,0.0,0.0,0.0,0.0,0.0,0.0,0.0,0.1,0.0,0.0,
0.761,52.44415284423743,25.558909344745782,0.0,0.0,-2.0,0.0,0.0,0.0,0.0,0.0,0.0,0.0,0.1,0.0,0.0,
0.774,52.36841528442375,25.51489093447458,0.0,0.0,-1.0,0.0,0.0,0.0,0.0,0.0,0.0,0.0,0.1,0.0,0.1,
0.787,52.22584152844238,25.46548909344746,-1.0,0.0,-1.0,0.0,0.0,0.0,0.0,0.0,0.0,0.0,0.2,0.0,0.0,
0.8,52.22958415284423,25.47854890934475,-1.0,0.0,-1.0,0.0,0.0,0.0,0.0,0.0,0.0,0.0,0.2,0.0,0.0,
0.814,52.40095841528443,25.596854890934473,-1.0,0.0,-1.0,0.0,0.0,0.0,0.0,0.0,0.0,0.0,0.1,0.0,0.0,
0.826,52.46309584152844,25.545685489093447,0.0,0.0,-1.0,0.0,0.0,0.0,0.0,0.0,0.0,0.0,0.1,0.0,0.0,
0.839,52.56830958415284,25.567568548909346,0.0,0.0,-2.0,0.0,0.0,0.0,0.0,0.0,0.0,0.0,0.1,0.0,0.0,
0.852,52.452830958415284,25.560756854890933,0.0,0.0,-1.0,0.0,0.0,0.0,0.0,0.0,0.0,0.0,0.2,0.0,0.0,
0.865,52.08128309584153,25.44307568548909,0.0,0.0,0.0,0.0,0.0,0.0,0.0,0.0,0.0,0.0,0.2,0.0,0.0,
0.878,51.84612830958415,25.31430756854891,0.0,0.0,-1.0,0.0,0.0,0.0,0.0,0.0,0.0,0.0,0.1,0.0,0.0,
0.891,51.705612830958415,25.27443075685489,-1.0,0.0,0.0,0.0,0.0,0.0,0.0,0.0,0.0,0.0,0.1,0.0,0.0,
0.904,51.78156128309584,25.32444307568549,-1.0,0.0,0.0,0.0,0.0,0.0,0.0,0.0,0.0,0.0,0.2,0.0,0.0,
0.917,51.92415612830958,25.34744430756855,-1.0,0.0,0.0,0.0,0.0,0.0,0.0,0.0,0.0,0.0,0.1,0.0,0.0,
0.93,51.82141561283096,25.28674443075686,-1.0,0.0,-1.0,0.0,0.0,0.0,0.0,0.0,0.0,0.0,0.1,0.1,0.0,
0.944,51.667141561283096,25.190674443075686,-1.0,0.0,-1.0,0.0,0.0,0.0,0.0,0.0,0.0,0.0,0.1,0.1,0.0,
0.956,51.588714156128304,25.154067444307564,-1.0,0.0,0.0,0.0,0.0,0.0,0.0,0.0,0.0,0.0,0.2,0.0,0.0,
0.969,51.52687141561283,25.087406744430755,-2.0,0.0,0.0,0.0,0.0,0.0,0.0,0.0,0.0,0.0,0.1,0.0,0.0,
0.983,51.47568714156128,25.062740674443074,-2.0,0.0,0.0,0.0,0.0,0.0,0.0,0.0,0.0,0.0,0.1,0.0,0.0,
0.996,51.41656871415613,24.997274067444305,-3.0,0.0,0.0,0.0,0.0,0.0,0.0,0.0,0.0,0.0,0.2,0.1,0.0,
1.008,51.509656871415615,25.03572740674443,-3.0,0.0,-1.0,0.0,0.0,0.0,0.0,0.0,0.0,0.0,0.2,0.1,0.1,
1.021,51.653965687141564,25.05757274067444,-3.0,0.0,-1.0,0.0,0.0,0.0,0.0,0.0,0.0,0.0,0.2,0.0,0.0,
1.035,51.88439656871416,25.149757274067447,-3.0,0.0,-1.0,0.0,0.0,0.0,0.0,0.0,0.0,0.0,0.1,0.0,0.0,
1.048,51.835439656871415,25.17697572740674,-3.0,0.0,-1.0,0.0,0.0,0.0,0.0,0.0,0.0,0.0,0.1,0.0,0.0,
1.06,51.84854396568714,25.269697572740675,-2.0,0.0,-1.0,0.0,0.0,0.0,0.0,0.0,0.0,0.0,0.1,0.0,0.0,
1.074,51.822854396568715,25.323969757274067,-2.0,0.0,-1.0,0.0,0.0,0.0,0.0,0.0,0.0,0.0,0.1,0.0,0.1,
1.087,51.892285439656874,25.419396975727405,-2.0,0.0,-1.0,0.0,0.0,0.0,0.0,0.0,0.0,0.0,0.1,0.0,0.0,
1.1,52.124228543965685,25.545939697572738,-2.0,0.0,0.0,0.0,0.0,0.0,0.0,0.0,0.0,0.0,0.1,0.0,0.0,
1.114,52.21042285439656,25.540593969757275,-3.0,0.0,0.0,0.0,0.0,0.0,0.0,0.0,0.0,0.0,0.1,0.0,0.0,
1.126,52.35404228543965,25.56705939697573,-2.0,0.0,-1.0,0.0,0.0,0.0,0.0,0.0,0.0,0.0,0.1,0.0,0.0,
1.139,52.44040422854397,25.623705939697572,-2.0,0.0,-1.0,0.0,0.0,0.0,0.0,0.0,0.0,0.0,0.1,0.0,0.0,
1.153,52.37704042285439,25.557370593969758,-2.0,0.0,-1.0,0.0,0.0,0.0,0.0,0.0,0.0,0.0,0.1,0.0,0.0,
1.166,52.32570404228544,25.541737059396976,-2.0,0.0,-1.0,0.0,0.0,0.0,0.0,0.0,0.0,0.0,0.1,0.1,0.0,
1.179,52.37457040422854,25.5131737059397,-3.0,-1.0,-1.0,0.0,0.0,0.0,0.0,0.0,0.0,0.0,0.2,0.0,0.0,
1.191,52.65845704042285,25.61831737059397,-2.0,0.0,-1.0,0.0,0.0,0.0,0.0,0.0,0.0,0.0,962.16,0.0,0.0,
1.205,52.78584570404228,25.646831737059397,-2.0,0.0,-2.0,0.0,0.0,0.0,0.0,0.0,0.0,0.0,1866.25,0.0,0.0,
1.218,52.96958457040423,25.70368317370594,-2.0,0.0,-1.0,0.0,0.0,0.0,0.0,0.0,0.0,0.0,0.2,0.0,0.0,
1.231,53.01495845704042,25.691368317370596,-2.0,0.0,0.0,0.0,0.0,0.0,0.0,0.0,0.0,0.0,0.1,0.0,0.0,
1.245,52.92049584570404,25.627136831737058,-2.0,0.0,0.0,0.0,0.0,0.0,0.0,0.0,0.0,0.0,0.1,0.1,0.0,
1.258,52.8750495845704,25.620713683173705,-2.0,0.0,0.0,0.0,0.0,0.0,0.0,0.0,0.0,0.0,0.1,0.0,0.0,
1.27,52.789504958457044,25.54807136831737,-2.0,0.0,0.0,0.0,0.0,0.0,0.0,0.0,0.0,0.0,0.1,0.1,0.0,
1.284,52.60095049584571,25.396807136831736,-2.0,0.0,0.0,0.0,0.0,0.0,0.0,0.0,0.0,0.0,0.1,0.1,0.0,
1.297,52.72609504958457,25.354680713683173,-2.0,0.0,-1.0,0.0,0.0,0.0,0.0,0.0,0.0,0.0,0.2,0.1,0.0,
1.31,52.747609504958454,25.323468071368318,-2.0,0.0,-1.0,0.0,0.0,0.0,0.0,0.0,0.0,0.0,0.1,0.0,0.0,
1.323,52.884760950495846,25.410346807136836,-2.0,0.0,-1.0,0.0,0.0,0.0,0.0,0.0,0.0,0.0,0.2,0.0,0.0,
1.336,53.04247609504959,25.518034680713683,-2.0,0.0,-1.0,0.0,0.0,0.0,0.0,0.0,0.0,0.0,0.1,0.0,0.0,
1.349,53.00424760950496,25.555803468071367,-2.0,0.0,-1.0,0.0,0.0,0.0,0.0,0.0,0.0,0.0,0.1,0.1,0.0,
1.362,52.87442476095049,25.631580346807137,-1.0,0.0,0.0,0.0,0.0,0.0,0.0,0.0,0.0,0.0,0.1,0.0,0.0,
1.375,52.744442476095045,25.603158034680717,-1.0,0.0,-1.0,0.0,0.0,0.0,0.0,0.0,0.0,0.0,0.2,0.1,0.0,
1.388,52.6324442476095,25.59131580346807,-1.0,0.0,0.0,0.0,0.0,0.0,0.0,0.0,0.0,0.0,0.1,0.0,0.0,
1.401,52.59424442476095,25.51813158034681,-2.0,0.0,0.0,0.0,0.0,0.0,0.0,0.0,0.0,0.0,0.0,0.1,0.0,
1.415,52.6624244424761,25.474813158034678,-2.0,0.0,0.0,0.0,0.0,0.0,0.0,0.0,0.0,0.0,0.1,0.0,0.0,
1.427,52.84024244424761,25.578481315803465,-2.0,0.0,0.0,0.0,0.0,0.0,0.0,0.0,0.0,0.0,0.2,0.1,0.0,
1.44,53.01102424442476,25.615848131580346,-2.0,0.0,-1.0,0.0,0.0,0.0,0.0,0.0,0.0,0.0,0.1,0.1,0.0,
1.454,52.98310242444247,25.673584813158037,-1.0,0.0,-2.0,0.0,0.0,0.0,0.0,0.0,0.0,0.0,0.1,0.1,0.0,
1.467,52.98031024244424,25.760358481315805,-1.0,0.0,-2.0,0.0,0.0,0.0,0.0,0.0,0.0,0.0,0.1,0.1,0.0,
1.479,52.73703102424442,25.75103584813158,0.0,0.0,0.0,0.0,0.0,0.0,0.0,0.0,0.0,0.0,0.2,0.0,0.0,
1.492,52.52370310242444,25.642103584813157,-2.0,0.0,0.0,0.0,0.0,0.0,0.0,0.0,0.0,0.0,0.1,0.0,0.0,
1.506,52.51137031024244,25.604210358481318,-2.0,0.0,0.0,0.0,0.0,0.0,0.0,0.0,0.0,0.0,0.1,0.0,0.0,
1.519,52.47413703102424,25.528421035848133,-3.0,0.0,0.0,0.0,0.0,0.0,0.0,0.0,0.0,0.0,0.1,0.1,0.0,
1.531,52.60541370310242,25.511842103584815,-2.0,0.0,0.0,0.0,0.0,0.0,0.0,0.0,0.0,0.0,0.1,0.1,0.0,
1.545,52.64554137031024,25.456184210358483,-2.0,-1.0,-1.0,0.0,0.0,0.0,0.0,0.0,0.0,0.0,0.1,0.1,0.0,
1.558,52.70355413703102,25.549618421035845,-1.0,0.0,-1.0,0.0,0.0,0.0,0.0,0.0,0.0,0.0,0.1,0.1,0.0,
1.571,52.6823554137031,25.594961842103586,-1.0,0.0,0.0,0.0,0.0,0.0,0.0,0.0,0.0,0.0,0.1,0.1,0.0,
1.584,52.635235541370314,25.76149618421036,-1.0,1.0,0.0,0.0,0.0,0.0,0.0,0.0,0.0,0.0,0.1,0.0,0.1,
1.597,52.58552355413703,25.823149618421034,-1.0,0.0,1.0,0.0,0.0,0.0,0.0,0.0,0.0,0.0,0.1,0.1,0.0,
1.61,52.8955523554137,25.964314961842106,0.0,0.0,0.0,0.0,0.0,0.0,0.0,0.0,0.0,0.0,0.1,0.1,0.0,
1.623,53.28655523554137,26.12243149618421,0.0,0.0,1.0,0.0,0.0,0.0,0.0,0.0,0.0,0.0,0.1,0.0,0.0,
1.636,53.937655523554135,26.435243149618422,1.0,0.0,1.0,0.0,0.0,0.0,0.0,0.0,0.0,0.0,0.1,0.1,0.0,
1.649,54.68676555235542,26.70952431496184,2.0,1.0,-1.0,0.0,0.0,0.0,0.0,0.0,0.0,0.0,0.2,0.1,0.0,
1.661,55.72467655523555,26.988952431496184,4.0,0.0,-5.0,0.0,0.0,0.0,0.0,0.0,0.0,0.0,0.2,0.1,0.0,
1.675,56.90846765552355,27.54789524314962,7.0,-2.0,-9.0,0.0,0.0,0.0,0.0,0.0,0.0,0.0,0.2,0.1,0.0,
1.688,58.91684676555235,28.58478952431496,10.0,-6.0,-15.0,0.0,0.0,0.0,0.0,0.0,0.0,0.0,0.2,0.0,0.0,
1.701,61.66468467655524,30.488478952431493,12.0,-11.0,-26.0,0.0,0.0,0.0,0.0,0.0,0.0,0.0,0.29,0.0,0.0,
1.715,64.26146846765552,33.26184789524315,18.0,-12.0,-34.0,0.0,0.0,0.0,0.0,0.0,0.0,0.0,0.29,0.0,0.0,
1.728,66.53714684676555,35.89718478952431,28.0,-6.0,-32.0,0.0,0.0,0.0,0.0,0.0,0.0,0.0,0.49,0.1,0.0,
1.741,68.09671468467656,38.14071847895243,35.0,0.0,-26.0,0.0,0.0,0.0,0.0,0.0,0.0,0.0,0.69,0.0,0.0,
1.755,69.47667146846764,39.56207184789524,46.0,3.0,-21.0,0.0,0.0,0.0,0.0,0.0,0.0,0.0,0.88,0.1,0.0,
1.768,70.51466714684676,40.65820718478953,58.0,6.0,-10.0,0.0,0.0,0.0,0.0,0.0,0.0,0.0,1.47,0.29,0.0,
1.781,70.91546671468467,41.17282071847895,67.0,10.0,4.0,0.0,0.0,0.0,0.0,0.0,0.0,0.0,1.67,0.49,0.0,
1.795,70.64054667146847,40.855282071847896,70.0,16.0,20.0,0.0,0.0,0.0,0.0,0.0,0.0,0.0,1.96,0.69,0.0,
1.808,69.41605466714685,39.644528207184784,68.0,24.0,35.0,0.0,0.0,0.0,0.0,0.0,0.0,0.0,2.26,0.88,0.0,
1.82,67.58360546671469,37.95745282071848,63.0,21.0,38.0,0.0,0.0,0.0,0.0,0.0,0.0,0.0,2.55,1.37,0.0,
1.833,66.44636054667146,36.65474528207185,52.0,11.0,31.0,0.0,0.0,0.0,0.0,0.0,0.0,0.0,2.65,1.77,0.0,
1.847,65.72063605466714,36.06547452820718,47.0,2.0,23.0,0.0,0.0,0.0,0.0,0.0,0.0,0.0,2.75,1.96,0.0,
1.86,65.60306360546672,36.06954745282072,44.0,-6.0,7.0,0.0,0.0,0.0,0.0,0.0,0.0,0.0,2.75,1.96,0.0,
1.873,65.69930636054667,36.98795474528208,45.0,-13.0,-11.0,0.0,0.0,0.0,0.0,0.0,0.0,0.0,2.65,1.96,0.0,
1.887,66.06893063605467,38.807795474528206,48.0,-13.0,-23.0,0.0,0.0,0.0,0.0,0.0,0.0,0.0,2.65,1.67,0.0,
1.9,66.33089306360547,40.942779547452815,57.0,-9.0,-26.0,0.0,0.0,0.0,0.0,0.0,0.0,0.0,2.84,1.57,0.0,
1.913,66.22208930636054,43.50527795474528,64.0,3.0,-20.0,0.0,0.0,0.0,0.0,0.0,0.0,0.0,3.04,1.37,0.0,
1.927,66.70620893063605,46.03852779547453,66.0,17.0,-13.0,0.0,0.0,0.0,0.0,0.0,0.0,0.0,3.04,1.37,0.0,
1.94,67.4206208930636,48.19985277954745,71.0,25.0,-6.0,0.0,0.0,0.0,0.0,0.0,0.0,0.0,3.14,1.37,0.0,
1.953,68.23906208930636,50.413985277954744,76.0,20.0,0.0,0.0,0.0,0.0,0.0,0.0,0.0,0.0,3.14,1.37,0.0,
1.966,69.13090620893064,52.579398527795476,79.0,22.0,5.0,0.0,0.0,0.0,0.0,0.0,0.0,0.0,3.24,1.47,0.0,
1.979,70.57909062089306,54.71293985277955,79.0,24.0,-1.0,0.0,0.0,0.0,0.0,0.0,0.0,0.0,3.34,1.37,0.0,
1.992,72.37990906208931,56.897293985277955,82.0,21.0,-5.0,0.0,0.0,0.0,0.0,0.0,0.0,0.0,3.63,1.47,0.0,
2.006,74.00899090620894,58.88872939852779,87.0,29.0,-6.0,0.0,0.0,0.0,0.0,0.0,0.0,0.0,3.83,1.57,0.0,
2.019,75.53989909062089,60.47387293985278,91.0,37.0,-16.0,0.0,0.0,0.0,0.0,0.0,0.0,0.0,4.02,1.57,0.0,
2.032,76.77298990906208,62.00038729398528,93.0,41.0,-22.0,0.0,0.0,0.0,0.0,0.0,0.0,0.0,4.22,1.57,0.0,
2.045,77.88629899090621,63.341038729398534,92.0,37.0,-24.0,0.0,0.0,0.0,0.0,0.0,0.0,0.0,4.32,1.67,0.0,
2.059,78.57362989909063,64.44710387293985,88.0,37.0,-15.0,0.0,0.0,0.0,0.0,0.0,0.0,0.0,4.41,1.77,0.0,
2.072,79.18236298990907,64.45871038729398,86.0,36.0,-12.0,0.0,0.0,0.0,0.0,0.0,0.0,0.0,4.51,1.86,0.0,
2.085,79.1442362989909,63.9108710387294,86.0,42.0,-9.0,0.0,0.0,0.0,0.0,0.0,0.0,0.0,4.51,1.86,0.0,
2.099,78.1414236298991,62.49708710387294,83.0,46.0,5.0,0.0,0.0,0.0,0.0,0.0,0.0,0.0,4.51,1.77,0.0,
2.111,76.9791423629899,61.6897087103873,72.0,44.0,0.0,0.0,0.0,0.0,0.0,0.0,0.0,0.0,4.41,1.86,0.0,
2.124,76.08891423629898,60.645970871038735,63.0,36.0,-3.0,0.0,0.0,0.0,0.0,0.0,0.0,0.0,4.32,1.86,0.0,
2.138,77.21489142362991,59.84859708710387,54.0,21.0,-12.0,0.0,0.0,0.0,0.0,0.0,0.0,0.0,4.12,1.86,0.0,
2.151,78.65048914236299,60.53385970871039,48.0,2.0,-29.0,0.0,0.0,0.0,0.0,0.0,0.0,0.0,3.83,1.77,0.0,
2.164,79.9190489142363,61.63738597087104,49.0,5.0,-43.0,0.0,0.0,0.0,0.0,0.0,0.0,0.0,3.73,1.67,0.0,
2.178,80.44190489142363,62.638738597087105,51.0,22.0,-40.0,0.0,0.0,0.0,0.0,0.0,0.0,0.0,3.73,1.67,0.0,
2.191,80.61119048914236,63.42287385970871,49.0,41.0,-43.0,0.0,0.0,0.0,0.0,0.0,0.0,0.0,3.92,1.57,0.0,
2.204,83.35511904891423,70.33228738597086,28.0,77.0,35.0,0.0,0.0,0.0,0.0,0.0,0.0,0.0,4.02,1.57,0.0,
2.216,84.10651190489142,69.89822873859708,34.0,16.0,-52.0,0.0,0.0,0.0,0.0,0.0,0.0,0.0,3.83,1.57,0.0,
2.23,83.58765119048914,69.39582287385971,39.0,2.0,-75.0,0.0,0.0,0.0,0.0,0.0,0.0,0.0,3.63,1.57,0.0,
2.243,82.57276511904891,68.96758228738598,37.0,13.0,-66.0,0.0,0.0,0.0,0.0,0.0,0.0,0.0,3.63,1.47,0.0,
2.256,81.39127651190489,66.92675822873859,36.0,44.0,-22.0,0.0,0.0,0.0,0.0,0.0,0.0,0.0,3.73,1.67,0.0,
2.27,80.48112765119049,64.04967582287385,29.0,77.0,-18.0,0.0,0.0,0.0,0.0,0.0,0.0,0.0,3.83,1.77,0.0,
2.283,80.05711276511904,59.45096758228738,26.0,99.0,-2.0,0.0,0.0,0.0,0.0,0.0,0.0,0.0,3.73,1.67,0.0,
2.296,78.14271127651192,54.85109675822874,22.0,76.0,-7.0,0.0,0.0,0.0,0.0,0.0,0.0,0.0,3.92,1.77,0.0,
2.31,76.1242711276512,50.94410967582287,20.0,39.0,-24.0,0.0,0.0,0.0,0.0,0.0,0.0,0.0,3.92,1.86,0.0,
2.323,74.43742711276512,48.17741096758228,16.0,5.0,-33.0,0.0,0.0,0.0,0.0,0.0,0.0,0.0,3.73,1.77,0.0,
2.336,94.30274271127652,69.90574109675822,-10.0,-119.0,250.0,0.0,0.0,0.0,0.0,0.0,0.0,0.0,3.53,1.67,0.0,
2.35,93.91327427112765,70.39557410967582,3.0,-22.0,-39.0,0.0,0.0,0.0,0.0,0.0,0.0,0.0,3.34,1.57,0.0,
2.363,88.06932742711277,66.95255741096757,-8.0,-39.0,-50.0,0.0,0.0,0.0,0.0,0.0,0.0,0.0,3.14,1.47,0.0,
2.376,86.14393274271129,65.13225574109676,12.0,9.0,-20.0,0.0,0.0,0.0,0.0,0.0,0.0,0.0,2.94,1.37,0.0,
2.39,84.99739327427113,62.84422557410968,14.0,33.0,-10.0,0.0,0.0,0.0,0.0,0.0,0.0,0.0,3.04,1.28,0.0,
2.403,84.00973932742711,60.07742255741097,6.0,28.0,-27.0,0.0,0.0,0.0,0.0,0.0,0.0,0.0,3.14,1.28,0.0,
2.416,82.57897393274271,58.4237422557411,-2.0,3.0,-41.0,0.0,0.0,0.0,0.0,0.0,0.0,0.0,2.94,1.28,0.0,
2.429,81.97689739327427,56.70137422557411,-9.0,0.0,-15.0,0.0,0.0,0.0,0.0,0.0,0.0,0.0,2.45,1.28,0.0,
2.443,80.88168973932744,55.485137422557415,-12.0,-27.0,-30.0,0.0,0.0,0.0,0.0,0.0,0.0,0.0,2.06,1.37,0.0,
2.456,76.14616897393275,54.130513742255744,21.0,-93.0,74.0,0.0,0.0,0.0,0.0,0.0,0.0,0.0,1.47,1.57,0.0,
2.469,77.50861689739328,50.89905137422557,-10.0,-116.0,30.0,0.0,0.0,0.0,0.0,0.0,0.0,0.0,1.28,1.77,0.0,
2.483,79.49886168973933,50.656905137422555,-2.0,0.0,-10.0,0.0,0.0,0.0,0.0,0.0,0.0,0.0,1.08,3.73,0.0,
2.496,80.93988616897393,51.25369051374226,-2.0,43.0,0.0,0.0,0.0,0.0,0.0,0.0,0.0,0.0,0.98,7.26,0.0,
2.509,83.2709886168974,52.76236905137422,6.0,9.0,-11.0,0.0,0.0,0.0,0.0,0.0,0.0,0.0,0.88,7.36,0.0,
2.522,84.06209886168975,56.05423690513743,8.0,-14.0,-14.0,0.0,0.0,0.0,0.0,0.0,0.0,0.0,1.08,4.91,0.0,
2.535,84.25820988616897,59.26342369051374,3.0,-18.0,-17.0,0.0,0.0,0.0,0.0,0.0,0.0,0.0,1.18,3.34,0.0,
2.548,84.2778209886169,61.90634236905137,0.0,-11.0,-2.0,0.0,0.0,0.0,0.0,0.0,0.0,0.0,1.08,3.43,0.0,
2.562,84.63978209886169,62.80963423690513,-1.0,-5.0,1.0,0.0,0.0,0.0,0.0,0.0,0.0,0.0,0.98,5.1,0.0,
2.575,84.67597820988617,63.64696342369051,-1.0,-2.0,-4.0,0.0,0.0,0.0,0.0,0.0,0.0,0.0,0.98,10.3,0.0,
2.588,84.36459782098862,64.96369634236905,1.0,7.0,-1.0,0.0,0.0,0.0,0.0,0.0,0.0,0.0,0.98,11.28,0.0,
2.601,85.12545978209886,66.1753696342369,8.0,11.0,3.0,0.0,0.0,0.0,0.0,0.0,0.0,0.0,1.18,9.81,0.0,
2.614,86.20954597820989,67.4935369634237,10.0,2.0,-20.0,0.0,0.0,0.0,0.0,0.0,0.0,0.0,1.18,6.47,0.0,
2.627,87.18195459782099,68.81335369634236,11.0,-6.0,-34.0,0.0,0.0,0.0,0.0,0.0,0.0,0.0,1.28,2.84,0.0,
2.64,87.76519545978209,70.15133536963423,11.0,-16.0,-46.0,0.0,0.0,0.0,0.0,0.0,0.0,0.0,1.18,0.0,0.0,
2.654,87.78751954597821,71.96813353696342,16.0,-21.0,-50.0,0.0,0.0,0.0,0.0,0.0,0.0,0.0,1.28,0.0,0.0,
2.668,86.66475195459783,72.82481335369634,7.0,4.0,-14.0,0.0,0.0,0.0,0.0,0.0,0.0,0.0,1.28,0.0,0.0,
2.68,87.25447519545978,72.81148133536965,2.0,6.0,-12.0,0.0,0.0,0.0,0.0,0.0,0.0,0.0,1.37,0.0,0.0,
2.694,87.20544751954598,72.25214813353696,-3.0,0.0,-6.0,0.0,0.0,0.0,0.0,0.0,0.0,0.0,1.28,0.2,0.0,
2.707,87.07454475195459,70.6122148133537,11.0,11.0,-23.0,0.0,0.0,0.0,0.0,0.0,0.0,0.0,1.08,1.18,0.0,
2.72,86.70145447519546,70.65522148133537,12.0,16.0,3.0,0.0,0.0,0.0,0.0,0.0,0.0,0.0,0.98,0.98,0.1,
2.735,86.45714544751955,70.03852214813354,2.0,10.0,46.0,0.0,0.0,0.0,0.0,0.0,0.0,0.0,0.78,0.49,0.1,
2.748,83.74171454475196,66.94385221481335,10.0,42.0,-27.0,0.0,0.0,0.0,0.0,0.0,0.0,0.0,0.49,0.29,0.29,
2.761,82.72317145447519,63.13338522148133,0.0,-1.0,-6.0,0.0,0.0,0.0,0.0,0.0,0.0,0.0,0.39,0.39,0.59,
2.775,80.85731714544752,59.314338522148134,-8.0,-12.0,5.0,0.0,0.0,0.0,0.0,0.0,0.0,0.0,0.2,3.24,0.78,
2.788,80.95873171454475,57.60943385221481,-1.0,-20.0,-36.0,0.0,0.0,0.0,0.0,0.0,0.0,0.0,0.1,7.36,1.28,
2.801,81.45487317145448,59.463943385221484,8.0,-54.0,-67.0,0.0,1.0,0.0,0.0,0.0,0.0,0.0,0.1,13.44,1.37,
2.816,82.24248731714545,63.06039433852215,-4.0,-24.0,-38.0,0.0,1.0,0.0,0.0,0.0,0.0,0.0,0.0,19.33,1.47,
2.829,81.63724873171454,66.09303943385223,-9.0,10.0,7.0,0.0,1.0,0.0,0.0,0.0,0.0,0.0,0.0,22.46,1.37,
2.842,81.50472487317144,64.29930394338521,-16.0,-3.0,62.0,0.0,0.0,0.0,0.0,0.0,0.0,0.0,0.0,20.31,1.18,
2.856,82.04047248731715,63.77793039433852,-7.0,13.0,0.0,0.0,0.0,0.0,0.0,0.0,0.0,0.0,0.0,17.95,1.08,
2.87,83.39004724873172,63.68979303943385,-2.0,-9.0,-14.0,0.0,0.0,0.0,0.0,0.0,0.0,0.0,0.0,16.38,1.08,
2.883,83.18300472487317,64.34697930394339,-3.0,-3.0,-4.0,0.0,0.0,0.0,0.0,0.0,0.0,0.0,0.1,15.7,0.98,
2.896,83.36030047248732,64.95269793039434,-1.0,6.0,0.0,0.0,0.0,0.0,0.0,0.0,0.0,0.0,0.1,15.89,0.98,
2.91,83.75603004724873,65.59826979303944,0.0,2.0,-1.0,0.0,0.0,0.0,0.0,0.0,0.0,0.0,0.0,15.99,1.08,
2.923,84.29960300472487,66.01382697930394,-1.0,-1.0,0.0,0.0,0.0,0.0,0.0,0.0,0.0,0.0,0.0,15.99,1.08,
2.936,84.57896030047249,66.5593826979304,-1.0,-3.0,-1.0,0.0,0.0,0.0,0.0,0.0,0.0,0.0,0.0,15.79,1.08,
2.951,84.62489603004725,67.14493826979303,-3.0,-4.0,-2.0,0.0,0.0,0.0,0.0,0.0,0.0,0.0,0.0,15.5,1.08,
2.964,84.62048960300473,67.59049382697931,-5.0,0.0,-1.0,0.0,0.0,0.0,0.0,0.0,0.0,0.0,0.0,14.32,1.18,
2.977,84.69204896030047,67.27504938269793,-5.0,-4.0,2.0,0.0,0.0,0.0,0.0,0.0,0.0,0.0,0.0,13.64,1.18,
2.991,84.56420489603005,67.2705049382698,-1.0,-5.0,-4.0,0.0,1.0,0.0,0.0,0.0,0.0,0.0,0.0,13.05,1.18,
3.004,84.54242048960302,67.42305049382698,-1.0,-5.0,-4.0,0.0,1.0,0.0,0.0,0.0,0.0,0.0,0.0,12.85,1.28,
3.018,84.84624204896029,67.6453050493827,-1.0,-4.0,-5.0,0.0,1.0,0.0,0.0,0.0,0.0,0.0,0.0,13.34,1.28,
3.032,84.69662420489603,68.32453050493828,-1.0,-6.0,-4.0,0.0,1.0,0.0,0.0,0.0,0.0,0.0,0.0,13.64,1.47,
3.045,84.7536624204896,69.40945305049384,0.0,-1.0,5.0,0.0,1.0,0.0,0.0,0.0,0.0,0.0,0.0,13.64,1.47,
3.058,84.84036624204896,70.18394530504938,1.0,1.0,2.0,0.0,1.0,0.0,0.0,0.0,0.0,0.0,0.0,13.05,1.47,
3.072,84.83103662420488,71.00839453050493,3.0,-1.0,6.0,0.0,1.0,0.0,0.0,0.0,0.0,0.0,0.0,12.07,1.47,
3.085,84.98310366242049,71.41483945305049,3.0,4.0,7.0,0.0,1.0,0.0,0.0,0.0,0.0,0.0,0.0,9.91,1.47,
3.098,85.04331036624205,70.92448394530506,2.0,2.0,11.0,0.0,1.0,0.0,0.0,0.0,0.0,0.0,0.0,9.32,1.57,
3.111,84.71633103662421,69.80444839453051,1.0,1.0,15.0,0.0,1.0,0.0,0.0,0.0,0.0,0.0,0.1,9.22,1.57,
3.125,84.95363310366241,68.54044483945306,-1.0,-11.0,17.0,0.0,1.0,0.0,0.0,0.0,0.0,0.0,0.1,9.61,1.67,
3.138,85.13936331036625,67.81104448394531,-3.0,0.0,-1.0,0.0,1.0,0.0,0.0,0.0,0.0,0.0,0.1,10.69,1.77,
3.151,84.88793633103661,67.13510444839454,-2.0,-1.0,-5.0,0.0,1.0,0.0,0.0,0.0,0.0,0.0,0.1,11.77,1.77,
3.166,84.62879363310365,67.19351044483946,-1.0,0.0,1.0,0.0,1.0,0.0,0.0,0.0,0.0,0.0,0.2,11.28,1.67,
3.179,84.67487936331037,67.41535104448394,-1.0,-1.0,0.0,0.0,1.0,0.0,0.0,0.0,0.0,0.0,0.29,10.5,1.67,
3.192,84.67948793633104,67.5275351044484,-1.0,0.0,0.0,0.0,1.0,0.0,0.0,0.0,0.0,0.0,0.2,9.81,1.77,
3.206,84.49994879363311,67.51175351044485,-1.0,1.0,0.0,0.0,1.0,0.0,0.0,0.0,0.0,0.0,0.1,9.61,1.77,
3.219,84.36499487936331,67.54617535104448,-1.0,2.0,0.0,0.0,1.0,0.0,0.0,0.0,0.0,0.0,0.1,10.99,1.86,
3.232,84.40549948793632,67.60361753510445,0.0,2.0,0.0,0.0,1.0,0.0,0.0,0.0,0.0,0.0,0.1,11.97,1.96,
3.246,84.42754994879364,67.82536175351044,0.0,1.0,0.0,0.0,1.0,0.0,0.0,0.0,0.0,0.0,0.2,13.05,2.16,
3.259,84.29475499487937,67.94653617535104,1.0,1.0,1.0,0.0,1.0,0.0,0.0,0.0,0.0,0.0,0.2,14.22,2.35,
3.272,84.25447549948794,68.0846536175351,1.0,3.0,3.0,0.0,1.0,0.0,0.0,0.0,0.0,0.0,0.1,15.99,2.35,
3.287,84.31344754994879,68.03546536175351,2.0,3.0,2.0,0.0,1.0,0.0,0.0,0.0,0.0,0.0,0.1,16.68,2.55,
3.3,84.45434475499488,68.10254653617535,2.0,0.0,0.0,0.0,1.0,0.0,0.0,0.0,0.0,0.0,0.2,17.27,2.65,
3.313,84.58543447549948,68.35225465361754,1.0,-1.0,0.0,0.0,1.0,0.0,0.0,0.0,0.0,0.0,0.1,17.95,2.65,
3.326,84.56254344754994,68.55722546536175,1.0,0.0,1.0,0.0,1.0,0.0,0.0,0.0,0.0,0.0,0.1,18.64,2.65,
3.341,84.47025434475499,68.79372254653617,0.0,0.0,1.0,0.0,1.0,0.0,0.0,0.0,0.0,0.0,0.1,19.91,2.84,
3.354,84.3980254344755,68.87137225465361,0.0,0.0,2.0,0.0,1.0,0.0,0.0,0.0,0.0,0.0,0.1,20.21,2.84,
3.367,84.40880254344754,68.85213722546536,0.0,0.0,1.0,0.0,1.0,0.0,0.0,0.0,0.0,0.0,0.1,20.31,2.75,
3.381,84.37388025434475,68.92221372254654,0.0,0.0,0.0,0.0,1.0,1.0,0.0,0.0,0.0,0.0,0.1,20.4,2.75,
3.394,84.42438802543448,69.01922137225466,0.0,-2.0,0.0,0.0,1.0,1.0,0.0,0.0,0.0,0.0,0.1,20.4,2.75,
3.407,84.47443880254346,69.10092213722547,-1.0,-2.0,-2.0,0.0,1.0,1.0,0.0,0.0,0.0,0.0,0.0,20.7,2.75,
3.422,84.38944388025433,69.28009221372254,-1.0,-3.0,-1.0,0.0,1.0,1.0,0.0,0.0,0.0,0.0,0.0,21.09,2.84,
3.435,84.27294438802544,69.43300922137226,-1.0,-2.0,0.0,0.0,1.0,1.0,0.0,0.0,0.0,0.0,0.1,21.39,2.84,
3.449,84.26129443880255,69.52930092213722,-2.0,-1.0,0.0,0.0,1.0,1.0,0.0,0.0,0.0,0.0,0.2,21.78,2.75,
3.463,84.20612944388026,69.60193009221372,-2.0,-2.0,0.0,0.0,1.0,1.0,0.0,0.0,0.0,0.0,0.1,21.97,2.65,
3.476,84.18261294438804,69.57319300922137,-2.0,-1.0,1.0,0.0,1.0,1.0,0.0,0.0,0.0,0.0,0.2,21.88,2.65,
3.49,84.25226129443881,69.48031930092213,-2.0,0.0,0.0,0.0,1.0,1.0,0.0,0.0,0.0,0.0,0.2,21.68,2.55,
3.504,84.28622612944389,69.45303193009221,-2.0,-1.0,0.0,0.0,1.0,1.0,0.0,0.0,0.0,0.0,0.2,21.29,2.55,
3.517,84.32562261294439,69.48630319300922,-2.0,-2.0,0.0,0.0,1.0,1.0,0.0,0.0,0.0,0.0,0.2,21.29,2.45,
3.531,84.29356226129444,69.47163031930093,-3.0,-1.0,0.0,0.0,1.0,1.0,0.0,0.0,0.0,0.0,0.2,21.39,2.55,
3.545,84.26335622612945,69.4701630319301,-3.0,0.0,0.0,0.0,1.0,1.0,0.0,0.0,0.0,0.0,0.29,21.29,2.45,
3.558,84.29633562261294,69.425016303193,-2.0,-1.0,0.0,0.0,1.0,1.0,0.0,0.0,0.0,0.0,0.29,21.19,2.35,
3.572,84.1916335622613,69.42950163031931,-2.0,0.0,0.0,0.0,1.0,1.0,0.0,0.0,0.0,0.0,0.29,20.7,2.35,
3.586,84.19016335622612,69.44795016303193,-2.0,0.0,0.0,0.0,1.0,1.0,0.0,0.0,0.0,0.0,0.29,20.4,2.35,
3.599,84.14501633562261,69.3957950163032,-2.0,-1.0,0.0,0.0,1.0,0.0,0.0,0.0,0.0,0.0,0.29,20.11,2.35,
3.613,84.20350163356227,69.38157950163031,-2.0,-1.0,0.0,0.0,1.0,1.0,0.0,0.0,0.0,0.0,0.29,19.82,2.35,
3.627,84.15535016335625,69.35315795016302,-2.0,-1.0,-1.0,0.0,1.0,1.0,0.0,0.0,0.0,0.0,0.29,19.62,2.26,
3.64,84.18653501633563,69.3773157950163,-2.0,0.0,0.0,0.0,1.0,1.0,0.0,0.0,0.0,0.0,0.29,19.42,2.16,
3.654,84.23465350163356,69.34373157950164,-2.0,0.0,-1.0,0.0,1.0,1.0,0.0,0.0,0.0,0.0,0.2,19.62,2.26,
3.667,84.22146535016336,69.32237315795015,-2.0,0.0,0.0,0.0,1.0,1.0,0.0,0.0,0.0,0.0,0.2,19.91,2.16,
3.681,84.13014653501635,69.36523731579501,-2.0,0.0,0.0,0.0,1.0,1.0,0.0,0.0,0.0,0.0,0.1,20.11,2.26,
3.695,84.12101465350165,69.4055237315795,-2.0,0.0,0.0,0.0,1.0,1.0,0.0,0.0,0.0,0.0,0.2,20.4,2.06,
3.708,84.18310146535016,69.42755237315797,-2.0,0.0,0.0,0.0,1.0,1.0,0.0,0.0,0.0,0.0,0.2,20.4,2.16,
3.722,84.23431014653502,69.4027552373158,-2.0,0.0,0.0,0.0,1.0,1.0,0.0,0.0,0.0,0.0,0.2,20.31,2.16,
3.735,84.1944310146535,69.45427552373158,-2.0,-1.0,0.0,0.0,1.0,1.0,0.0,0.0,0.0,0.0,0.1,20.31,2.16,
3.749,84.12744310146536,69.45042755237316,-2.0,-1.0,0.0,0.0,1.0,1.0,0.0,0.0,0.0,0.0,0.2,20.5,2.26,
3.763,84.08474431014653,69.4860427552373,-2.0,0.0,0.0,0.0,1.0,1.0,0.0,0.0,0.0,0.0,0.2,20.5,2.16,
3.776,84.09847443101465,69.52560427552373,-2.0,-1.0,0.0,0.0,1.0,1.0,0.0,0.0,0.0,0.0,0.2,20.4,2.16,
3.79,84.09084744310148,69.50256042755238,-2.0,-1.0,0.0,0.0,1.0,1.0,0.0,0.0,0.0,0.0,0.2,20.21,2.16,
3.804,84.09008474431016,69.51825604275524,-2.0,-2.0,0.0,0.0,1.0,1.0,0.0,0.0,0.0,0.0,0.1,20.11,2.16,
3.817,84.08100847443102,69.49282560427552,-2.0,-2.0,0.0,0.0,1.0,1.0,0.0,0.0,0.0,0.0,0.1,20.4,2.06,
3.831,84.0441008474431,69.43628256042756,-2.0,-2.0,0.0,0.0,1.0,1.0,0.0,0.0,0.0,0.0,0.29,20.6,2.06,
3.845,84.02241008474431,69.49362825604275,-2.0,-1.0,0.0,0.0,1.0,1.0,0.0,0.0,0.0,0.0,0.2,20.8,2.16,
3.858,83.99324100847443,69.46336282560426,-2.0,0.0,0.0,0.0,1.0,1.0,0.0,0.0,0.0,0.0,0.2,20.8,2.16,
3.872,83.96332410084743,69.44233628256043,-2.0,0.0,0.0,0.0,1.0,1.0,0.0,0.0,0.0,0.0,0.29,20.6,2.16,
3.886,83.92433241008474,69.42223362825604,-2.0,0.0,0.0,0.0,1.0,1.0,0.0,0.0,0.0,0.0,0.39,20.7,2.06,
3.899,83.94743324100848,69.42922336282561,-2.0,0.0,-1.0,0.0,1.0,1.0,0.0,0.0,0.0,0.0,0.29,20.8,2.06,
3.913,83.93174332410085,69.44792233628256,-2.0,0.0,0.0,0.0,1.0,1.0,0.0,0.0,0.0,0.0,0.39,20.99,2.06,
3.927,83.91217433241009,69.44079223362826,-2.0,1.0,0.0,0.0,1.0,1.0,0.0,0.0,0.0,0.0,0.39,21.09,2.06,
3.94,84.04521743324102,69.41307922336283,-2.0,2.0,-1.0,0.0,1.0,1.0,0.0,0.0,0.0,0.0,0.39,21.19,2.16,
3.954,84.04952174332409,69.41930792233629,-2.0,1.0,-1.0,0.0,1.0,1.0,0.0,0.0,0.0,0.0,0.29,21.29,2.06,
3.968,84.1039521743324,69.42893079223364,-2.0,2.0,-2.0,0.0,1.0,1.0,0.0,0.0,0.0,0.0,0.39,21.48,2.16,
3.981,84.11839521743325,69.52889307922337,-2.0,2.0,0.0,0.0,1.0,1.0,0.0,0.0,0.0,0.0,0.39,21.68,2.16,
3.995,84.24583952174332,69.43988930792234,-2.0,1.0,-1.0,0.0,1.0,1.0,0.0,0.0,0.0,0.0,0.29,22.37,2.16,
4.008,84.13258395217434,69.48498893079223,-2.0,0.0,-1.0,0.0,1.0,1.0,0.0,0.0,0.0,0.0,0.29,22.86,2.16,
4.022,84.12125839521744,69.48949889307922,-2.0,1.0,-2.0,0.0,1.0,1.0,0.0,0.0,0.0,0.0,0.39,23.25,2.16,
4.036,84.08412583952173,69.48094988930792,-2.0,1.0,-1.0,0.0,1.0,1.0,0.0,0.0,0.0,0.0,0.39,23.45,2.16,
4.049,84.08941258395218,69.4440949889308,-2.0,1.0,-1.0,0.0,1.0,1.0,0.0,0.0,0.0,0.0,0.39,23.64,2.16,
4.063,84.13494125839522,69.47640949889308,-2.0,1.0,0.0,0.0,1.0,1.0,0.0,0.0,0.0,0.0,0.29,23.54,2.16,
4.077,84.15749412583952,69.41664094988931,-2.0,0.0,-1.0,0.0,1.0,1.0,0.0,0.0,0.0,0.0,0.29,23.35,2.16,
4.09,84.13274941258395,69.38366409498893,-1.0,0.0,0.0,0.0,1.0,1.0,0.0,0.0,0.0,0.0,0.2,23.45,2.16,
4.104,84.13927494125839,69.38036640949889,-1.0,0.0,0.0,0.0,1.0,1.0,0.0,0.0,0.0,0.0,0.29,23.54,2.26,
4.117,84.14892749412586,69.3710366409499,-1.0,-1.0,0.0,0.0,1.0,1.0,0.0,0.0,0.0,0.0,0.29,23.45,2.26,
4.131,84.24889274941259,69.35210366409498,-1.0,0.0,0.0,0.0,1.0,1.0,0.0,0.0,0.0,0.0,0.29,23.15,2.26,
4.145,84.27688927494125,69.44921036640949,-1.0,-1.0,0.0,0.0,1.0,1.0,0.0,0.0,0.0,0.0,0.29,22.86,2.26,
4.158,84.26168892749413,69.40492103664096,-1.0,-1.0,0.0,0.0,1.0,1.0,0.0,0.0,0.0,0.0,0.2,22.66,2.26,
4.172,84.26016889274942,69.35549210366409,-1.0,-1.0,0.0,0.0,1.0,1.0,0.0,0.0,0.0,0.0,0.2,22.27,2.16,
4.186,84.23301688927495,69.42254921036641,-1.0,-2.0,0.0,0.0,1.0,1.0,0.0,0.0,0.0,0.0,0.2,22.27,2.16,
4.199,84.18530168892751,69.46525492103665,-1.0,-1.0,0.0,0.0,1.0,1.0,0.0,0.0,0.0,0.0,0.2,22.17,2.16,
4.213,84.15353016889276,69.44252549210367,-2.0,-2.0,0.0,0.0,1.0,1.0,0.0,0.0,0.0,0.0,0.29,21.88,2.26,
4.227,84.03335301688927,69.43125254921037,-2.0,-2.0,0.0,0.0,1.0,1.0,0.0,0.0,0.0,0.0,0.29,21.39,2.16,
4.241,83.95833530168893,69.44812525492104,-2.0,-2.0,0.0,0.0,1.0,1.0,0.0,0.0,0.0,0.0,0.2,20.8,2.16,
4.254,83.93283353016889,69.4408125254921,-2.0,-1.0,1.0,0.0,1.0,1.0,0.0,0.0,0.0,0.0,0.2,20.01,1.96,
4.268,83.96628335301689,69.50308125254921,-2.0,-2.0,1.0,0.0,1.0,1.0,0.0,0.0,0.0,0.0,0.2,19.13,1.96,
4.282,84.01462833530168,69.49130812525492,-2.0,-2.0,1.0,0.0,1.0,0.0,0.0,0.0,0.0,0.0,0.39,18.15,1.86,
4.295,83.96546283353015,69.5081308125255,-2.0,-3.0,1.0,0.0,1.0,0.0,0.0,0.0,0.0,0.0,0.39,16.97,1.77,
4.308,83.92454628335302,69.50981308125256,-2.0,-2.0,1.0,0.0,1.0,0.0,0.0,0.0,0.0,0.0,0.39,16.78,1.77,
4.323,83.9024546283353,69.51898130812525,-2.0,-2.0,1.0,0.0,1.0,0.0,0.0,0.0,0.0,0.0,0.39,16.48,1.86,
4.336,83.90024546283354,69.53789813081252,-2.0,-2.0,0.0,0.0,1.0,0.0,0.0,0.0,0.0,0.0,0.39,16.28,1.77,
4.35,83.90902454628336,69.51278981308126,-2.0,-1.0,0.0,0.0,1.0,0.0,0.0,0.0,0.0,0.0,0.29,15.99,1.67,
4.364,83.83790245462833,69.50127898130813,-2.0,-1.0,0.0,0.0,1.0,0.0,0.0,0.0,0.0,0.0,0.39,15.89,1.67,
4.377,83.79479024546283,69.57212789813082,-2.0,-2.0,0.0,0.0,1.0,0.0,0.0,0.0,0.0,0.0,0.39,15.79,1.67,
4.391,83.76347902454629,69.60621278981309,-2.0,-1.0,0.0,0.0,1.0,0.0,0.0,0.0,0.0,0.0,0.39,15.79,1.67,
4.405,83.76934790245463,69.5826212789813,-2.0,-1.0,0.0,0.0,1.0,0.0,0.0,0.0,0.0,0.0,0.39,15.7,1.67,
4.418,83.76993479024546,69.55326212789812,-2.0,0.0,0.0,0.0,1.0,0.0,0.0,0.0,0.0,0.0,0.39,15.4,1.57,
4.432,83.74299347902455,69.49632621278981,-2.0,0.0,0.0,0.0,1.0,0.0,0.0,0.0,0.0,0.0,0.49,15.4,1.57,
4.446,83.69529934790245,69.52663262127899,-2.0,0.0,0.0,0.0,1.0,0.0,0.0,0.0,0.0,0.0,0.49,15.4,1.57,
4.459,83.63652993479025,69.5746632621279,-2.0,0.0,0.0,0.0,1.0,0.0,0.0,0.0,0.0,0.0,0.39,15.4,1.47,
4.472,83.63065299347902,69.6064663262128,-2.0,0.0,0.0,0.0,1.0,0.0,0.0,0.0,0.0,0.0,0.39,15.5,1.57,
4.487,83.60306529934789,69.57364663262128,-2.0,0.0,0.0,0.0,1.0,0.0,0.0,0.0,0.0,0.0,0.39,15.5,1.57,
4.5,83.5643065299348,69.57936466326213,-2.0,0.0,-1.0,0.0,1.0,0.0,0.0,0.0,0.0,0.0,0.39,15.5,1.57,
4.513,83.56043065299349,69.5709364663262,-2.0,0.0,0.0,0.0,1.0,0.0,0.0,0.0,0.0,0.0,0.49,15.6,1.57,
4.528,83.62304306529934,69.60609364663262,-2.0,0.0,0.0,0.0,1.0,0.0,0.0,0.0,0.0,0.0,0.49,15.99,1.67,
4.541,83.64730430652995,69.66360936466326,-2.0,0.0,-1.0,0.0,1.0,0.0,0.0,0.0,0.0,0.0,0.49,15.99,1.67,
4.554,83.595730430653,69.64236093646633,-2.0,0.0,0.0,0.0,1.0,0.0,0.0,0.0,0.0,0.0,0.49,16.09,1.67,
4.568,83.5365730430653,69.61323609364663,-2.0,0.0,-1.0,0.0,1.0,0.0,0.0,0.0,0.0,0.0,0.49,15.99,1.77,
4.582,83.55765730430653,69.61932360936467,-2.0,0.0,-1.0,0.0,1.0,0.0,0.0,0.0,0.0,0.0,0.49,16.19,1.86,
4.595,83.53276573043065,69.63793236093647,-2.0,0.0,-1.0,0.0,1.0,0.0,0.0,0.0,0.0,0.0,0.49,16.28,1.77,
4.609,83.51227657304307,69.59479323609365,-2.0,0.0,0.0,0.0,1.0,0.0,0.0,0.0,0.0,0.0,0.49,16.48,1.67,
4.623,83.52822765730431,69.57247932360936,-2.0,0.0,0.0,0.0,1.0,0.0,0.0,0.0,0.0,0.0,0.49,16.68,1.67,
4.636,83.57482276573043,69.57024793236093,-2.0,0.0,0.0,0.0,1.0,0.0,0.0,0.0,0.0,0.0,0.49,16.87,1.86,
4.649,83.53448227657304,69.59702479323609,-2.0,0.0,0.0,0.0,1.0,0.0,0.0,0.0,0.0,0.0,0.59,16.87,1.86,
4.664,83.52144822765729,69.5727024793236,-2.0,0.0,0.0,0.0,1.0,0.0,0.0,0.0,0.0,0.0,0.69,16.87,1.77,
4.677,83.57414482276572,69.57027024793236,-2.0,0.0,-1.0,0.0,1.0,0.0,0.0,0.0,0.0,0.0,0.59,16.97,1.86,
4.69,83.55241448227656,69.57902702479323,-2.0,0.0,0.0,0.0,1.0,0.0,0.0,0.0,0.0,0.0,0.49,16.97,1.86,
4.704,83.58624144822767,69.58890270247933,-2.0,0.0,-1.0,0.0,1.0,0.0,0.0,0.0,0.0,0.0,0.49,16.97,1.77,
4.718,83.57162414482276,69.63489027024794,-2.0,0.0,0.0,0.0,1.0,0.0,0.0,0.0,0.0,0.0,0.49,17.07,1.77,
4.731,83.54316241448228,69.6664890270248,-2.0,0.0,-1.0,0.0,1.0,0.0,0.0,0.0,0.0,0.0,0.59,17.27,1.67,
4.745,83.49531624144822,69.62464890270249,-2.0,0.0,0.0,0.0,1.0,0.0,0.0,0.0,0.0,0.0,0.59,17.36,1.77,
4.759,83.53553162414482,69.60246489027024,-2.0,0.0,0.0,0.0,1.0,0.0,0.0,0.0,0.0,0.0,0.59,17.46,1.77,
4.772,83.6115531624145,69.57324648902701,-2.0,0.0,-1.0,0.0,1.0,0.0,0.0,0.0,0.0,0.0,0.69,17.46,1.77,
4.786,83.66415531624145,69.5703246489027,-2.0,0.0,-1.0,0.0,1.0,0.0,0.0,0.0,0.0,0.0,0.69,17.56,1.77,
4.8,83.70541553162414,69.57003246489026,-2.0,1.0,0.0,0.0,1.0,1.0,0.0,0.0,0.0,0.0,0.69,17.85,1.77,
4.813,83.67354155316241,69.62400324648902,-2.0,0.0,0.0,0.0,1.0,1.0,0.0,0.0,0.0,0.0,0.59,17.95,1.86,
4.827,83.78735415531624,69.6024003246489,-2.0,0.0,0.0,0.0,1.0,1.0,0.0,0.0,0.0,0.0,0.59,18.05,1.86,
4.84,83.72673541553162,69.5192400324649,-2.0,0.0,-1.0,0.0,1.0,1.0,0.0,0.0,0.0,0.0,0.59,18.15,1.86,
4.854,83.76567354155316,69.52892400324649,-2.0,1.0,0.0,0.0,1.0,1.0,0.0,0.0,0.0,0.0,0.59,18.34,1.86,
4.868,83.75156735415531,69.50289240032465,-2.0,0.0,-1.0,0.0,1.0,1.0,0.0,0.0,0.0,0.0,0.59,18.44,1.77,
4.881,83.81315673541553,69.50928924003247,-2.0,0.0,0.0,0.0,1.0,1.0,0.0,0.0,0.0,0.0,0.59,18.84,1.96,
4.895,83.77431567354155,69.55492892400325,-2.0,0.0,-1.0,0.0,1.0,1.0,0.0,0.0,0.0,0.0,0.59,18.93,1.96,
4.909,83.75243156735415,69.55949289240033,-2.0,0.0,0.0,0.0,1.0,1.0,0.0,0.0,0.0,0.0,0.59,18.93,1.86,
4.922,83.78624315673541,69.54194928924004,-2.0,0.0,-1.0,0.0,1.0,1.0,0.0,0.0,0.0,0.0,0.59,18.93,1.96,
4.936,83.70862431567353,69.549194928924,-2.0,0.0,0.0,0.0,1.0,1.0,0.0,0.0,0.0,0.0,0.69,19.13,1.96,
4.95,83.76386243156735,69.5409194928924,-2.0,0.0,-1.0,0.0,1.0,0.0,0.0,0.0,0.0,0.0,0.69,19.13,1.96,
4.963,83.79638624315673,69.51309194928925,-2.0,0.0,0.0,0.0,1.0,0.0,0.0,0.0,0.0,0.0,0.69,19.03,1.86,
4.977,83.79063862431568,69.48330919492892,-2.0,0.0,0.0,0.0,1.0,1.0,0.0,0.0,0.0,0.0,0.69,18.74,1.86,
4.99,83.76306386243157,69.46233091949289,-2.0,0.0,0.0,0.0,1.0,1.0,0.0,0.0,0.0,0.0,0.69,18.54,1.86,
5.004,83.74230638624316,69.5322330919493,-2.0,-1.0,0.0,0.0,1.0,1.0,0.0,0.0,0.0,0.0,0.69,18.34,1.86,
5.017,83.69523063862431,69.62022330919493,-2.0,-1.0,0.0,0.0,1.0,0.0,0.0,0.0,0.0,0.0,0.69,18.05,1.77,
5.031,83.68152306386244,69.5210223309195,-2.0,-1.0,2.0,0.0,1.0,0.0,0.0,0.0,0.0,0.0,0.78,17.36,1.77,
5.045,83.67115230638623,69.52010223309195,-1.0,-3.0,2.0,0.0,1.0,0.0,0.0,0.0,0.0,0.0,0.88,16.19,1.77,
5.058,83.63411523063861,69.52001022330919,-1.0,-3.0,4.0,0.0,1.0,0.0,0.0,0.0,0.0,0.0,0.88,12.75,1.57,
5.072,83.54041152306387,69.5650010223309,-1.0,-5.0,6.0,0.0,1.0,0.0,0.0,0.0,0.0,0.0,0.88,10.79,1.37,
5.086,83.46804115230637,69.6145001022331,-1.0,-6.0,9.0,0.0,1.0,0.0,0.0,0.0,0.0,0.0,0.98,8.73,1.28,
5.099,83.43380411523064,69.6284500102233,-1.0,-5.0,9.0,0.0,1.0,0.0,0.0,0.0,0.0,0.0,0.98,6.67,1.08,
5.112,83.08838041152306,69.83684500102233,0.0,-6.0,11.0,0.0,1.0,0.0,0.0,0.0,0.0,0.0,0.98,4.71,0.78,
5.126,83.2608380411523,69.56068450010224,0.0,-6.0,10.0,0.0,1.0,0.0,0.0,0.0,0.0,0.0,0.88,1.28,0.59,
5.139,83.03508380411523,69.77606845001023,-1.0,-9.0,9.0,0.0,1.0,0.0,0.0,0.0,0.0,0.0,0.88,0.1,0.49,
5.152,83.02150838041152,69.77960684500103,-1.0,-10.0,7.0,0.0,0.0,0.0,0.0,0.0,0.0,0.0,0.88,0.0,0.39,
5.167,82.91215083804116,69.8249606845001,-3.0,-4.0,8.0,0.0,0.0,0.0,0.0,0.0,0.0,0.0,0.78,0.0,0.29,
5.18,82.82921508380412,69.71249606845001,-4.0,-1.0,6.0,0.0,0.0,0.0,0.0,0.0,0.0,0.0,0.69,0.0,0.1,
5.193,82.82092150838041,69.674249606845,-4.0,-2.0,3.0,0.0,0.0,0.0,0.0,0.0,0.0,0.0,0.69,0.0,0.1,
5.207,82.73909215083805,69.7604249606845,-4.0,-4.0,1.0,0.0,0.0,0.0,0.0,0.0,0.0,0.0,0.59,0.0,0.0,
5.22,82.60490921508381,69.93104249606846,-5.0,-4.0,1.0,0.0,0.0,0.0,0.0,0.0,0.0,0.0,0.49,0.0,0.0,
5.233,82.41149092150837,69.97510424960686,-5.0,-3.0,0.0,0.0,0.0,0.0,0.0,0.0,0.0,0.0,0.39,0.0,0.0,
5.246,82.33814909215083,69.98851042496068,-5.0,-2.0,3.0,0.0,0.0,0.0,0.0,0.0,0.0,0.0,0.29,0.0,0.0,
5.26,82.35781490921508,69.95385104249607,-4.0,-2.0,0.0,0.0,0.0,0.0,0.0,0.0,0.0,0.0,0.2,0.0,0.0,
5.273,82.34178149092152,69.9683851042496,-4.0,-3.0,0.0,0.0,0.0,0.0,0.0,0.0,0.0,0.0,0.0,0.0,0.0,
5.286,82.43917814909214,69.91583851042496,-5.0,-2.0,-2.0,0.0,0.0,0.0,0.0,0.0,0.0,0.0,0.0,0.0,0.0,
5.3,82.52991781490921,69.7935838510425,-5.0,-2.0,-4.0,0.0,0.0,0.0,0.0,0.0,0.0,0.0,0.0,0.0,0.0,
5.313,82.62899178149092,69.64635838510424,-5.0,-1.0,-6.0,0.0,0.0,0.0,0.0,0.0,0.0,0.0,0.0,0.0,0.0,
5.326,82.6208991781491,69.46963583851043,-6.0,-1.0,-10.0,0.0,0.0,0.0,0.0,0.0,0.0,0.0,0.0,0.0,0.0,
5.34,82.5660899178149,69.37096358385104,-7.0,0.0,-14.0,0.0,0.0,0.0,0.0,0.0,0.0,0.0,0.0,0.0,0.0,
5.353,82.6326089917815,69.4150963583851,-9.0,2.0,-17.0,0.0,0.0,0.0,0.0,0.0,0.0,0.0,0.0,0.0,0.0,
5.367,82.63026089917815,69.49150963583851,-11.0,3.0,-19.0,0.0,0.0,0.0,0.0,0.0,0.0,0.0,0.0,0.69,0.0,
5.381,82.52202608991782,69.47215096358386,-12.0,3.0,-20.0,0.0,0.0,0.0,0.0,0.0,0.0,0.0,0.0,3.53,0.0,
5.394,82.58320260899178,69.2542150963584,-12.0,3.0,-18.0,0.0,0.0,0.0,0.0,0.0,0.0,0.0,0.0,5.3,0.0,
5.407,82.64332026089919,68.89042150963583,-13.0,5.0,-24.0,0.0,0.0,0.0,0.0,0.0,0.0,0.0,0.0,7.55,0.0,
5.421,82.92833202608992,68.35004215096359,-12.0,10.0,-23.0,0.0,0.0,0.0,0.0,0.0,0.0,0.0,0.0,10.2,0.0,
5.435,83.064833202609,68.03500421509636,-11.0,13.0,-25.0,0.0,0.0,0.0,0.0,0.0,0.0,0.0,0.0,13.15,0.0,
5.448,83.44748332026089,67.18450042150964,-10.0,21.0,-29.0,0.0,0.0,0.0,0.0,0.0,0.0,0.0,0.0,20.9,0.0,
5.462,83.70174833202609,66.66745004215096,-8.0,20.0,-28.0,0.0,0.0,0.0,0.0,0.0,0.0,0.0,0.0,26.49,0.0,
5.476,84.04217483320261,66.7147450042151,-3.0,8.0,-27.0,0.0,0.0,0.0,0.0,0.0,0.0,0.0,0.0,34.14,0.0,
5.489,83.96821748332025,66.63847450042151,-3.0,10.0,-25.0,0.0,0.0,0.0,0.0,0.0,0.0,0.0,0.0,43.95,0.0,
5.502,84.07782174833204,66.40584745004215,-4.0,24.0,-24.0,0.0,0.0,0.0,0.0,0.0,0.0,0.0,0.0,67.49,0.0,
5.516,84.6287821748332,66.43658474500421,-1.0,14.0,-30.0,0.0,0.0,0.0,0.0,0.0,0.0,0.0,0.0,79.66,0.0,
5.53,85.20587821748332,66.88065847450042,3.0,2.0,-24.0,0.0,0.0,0.0,0.0,0.0,0.0,0.0,0.0,92.7,0.0,
5.543,85.47958782174834,67.47406584745005,5.0,-3.0,-25.0,0.0,0.0,0.0,0.0,0.0,0.0,0.0,0.0,105.85,0.0,
5.558,85.59695878217484,67.767406584745,4.0,2.0,-16.0,0.0,0.0,0.0,0.0,0.0,0.0,0.0,0.0,131.65,0.0,
5.571,85.52769587821749,68.0487406584745,7.0,4.0,-7.0,0.0,0.0,1.0,0.0,0.0,0.0,0.0,0.0,143.72,0.0,
5.584,85.58376958782175,68.20287406584745,6.0,4.0,-7.0,0.0,0.0,1.0,0.0,0.0,0.0,0.0,0.0,155.59,0.0,
5.599,85.42737695878218,68.70428740658475,3.0,2.0,-7.0,1.0,0.0,1.0,0.0,0.0,0.0,0.0,0.0,166.48,0.0,
5.612,85.46573769587822,68.73642874065847,3.0,-5.0,-13.0,1.0,0.0,1.0,0.0,0.0,0.0,0.0,0.0,175.89,0.0,
5.626,85.54157376958783,68.98264287406586,0.0,6.0,-5.0,1.0,0.0,1.0,0.0,0.0,0.0,0.0,0.0,189.92,0.0,
5.64,85.78315737695878,68.99826428740658,0.0,10.0,-3.0,1.0,0.0,1.0,0.0,0.0,0.0,0.0,0.0,195.12,0.0,
5.653,86.00531573769588,68.96382642874065,0.0,9.0,-4.0,1.0,0.0,1.0,0.0,0.0,0.0,0.0,0.0,198.65,0.0,
5.667,86.04553157376958,68.82538264287406,0.0,6.0,-3.0,1.0,0.0,1.0,0.0,0.0,0.0,0.0,0.0,201.6,0.0,
5.681,86.34655315737696,68.6675382642874,1.0,5.0,-3.0,1.0,0.0,1.0,0.0,0.0,0.0,0.0,0.0,204.54,0.0,
5.694,86.63765531573769,68.84075382642874,2.0,-2.0,-7.0,1.0,0.0,1.0,0.0,0.0,0.0,0.0,0.0,204.54,0.0,
5.708,86.87376553157378,68.88507538264288,3.0,-2.0,-3.0,2.0,0.0,1.0,0.0,0.0,0.0,0.0,0.0,203.66,0.1,
5.722,87.01437655315738,68.7815075382643,4.0,-4.0,0.0,2.0,0.0,1.0,0.0,0.0,0.0,0.0,0.0,201.89,0.0,
5.736,87.07343765531573,68.86115075382644,5.0,-5.0,1.0,2.0,0.0,1.0,0.0,0.0,0.0,0.0,0.0,197.67,0.2,
5.749,87.12434376553158,68.97711507538264,5.0,-6.0,1.0,2.0,0.0,1.0,0.0,0.0,0.0,0.0,0.0,195.42,0.29,
5.763,86.99443437655317,69.16871150753826,5.0,-7.0,1.0,2.0,1.0,1.0,0.0,0.0,0.0,0.0,0.0,193.45,0.29,
5.777,86.88244343765533,69.30487115075383,2.0,-7.0,0.0,2.0,1.0,1.0,0.0,0.0,0.0,0.0,0.0,191.79,0.49,
5.79,86.72724434376553,69.36348711507539,0.0,-8.0,-1.0,2.0,1.0,1.0,0.0,0.0,0.0,0.0,0.0,189.63,0.59,
5.804,86.54072443437654,69.41434871150754,-1.0,-9.0,-1.0,2.0,1.0,1.0,0.0,0.0,0.0,0.0,0.0,189.33,0.59,
5.818,86.37807244343766,69.44643487115076,-3.0,-7.0,-1.0,2.0,1.0,1.0,0.0,0.0,0.0,0.0,0.0,188.74,0.49,
5.832,86.35280724434377,69.47664348711508,-3.0,-6.0,0.0,2.0,1.0,1.0,0.0,0.0,0.0,0.0,0.0,187.47,0.49,
5.846,86.36828072443438,69.35366434871152,-3.0,-6.0,0.0,2.0,1.0,1.0,0.0,0.0,0.0,0.0,0.0,185.7,0.49,
5.859,86.25282807244344,69.35036643487115,-5.0,-7.0,0.0,2.0,1.0,1.0,0.0,0.0,0.0,0.0,0.0,181.68,0.39,
5.873,86.06128280724435,69.17903664348711,-4.0,-7.0,0.0,2.0,1.0,1.0,0.0,0.0,0.0,0.0,0.0,179.82,0.39,
5.886,86.01512828072444,69.14390366434871,-3.0,-4.0,0.0,2.0,1.0,1.0,0.0,0.0,0.0,0.0,0.0,177.95,0.29,
5.901,85.89351282807245,69.01439036643487,-2.0,-5.0,2.0,2.0,1.0,1.0,0.0,0.0,0.0,0.0,0.0,175.89,0.29,
5.914,85.75535128280724,68.95643903664349,-2.0,-5.0,1.0,1.0,1.0,1.0,0.0,0.0,0.0,0.0,0.0,170.99,0.39,
5.928,85.66053512828073,69.04964390366435,-3.0,-5.0,0.0,1.0,1.0,1.0,0.0,0.0,0.0,0.0,0.0,168.05,0.39,
5.942,85.61505351282808,69.04996439036643,-4.0,-4.0,1.0,1.0,0.0,1.0,0.0,0.0,0.0,0.0,0.0,164.91,0.39,
5.955,85.63750535128281,69.04999643903663,-4.0,-3.0,1.0,1.0,0.0,1.0,0.0,0.0,0.0,0.0,0.0,161.77,0.39,
5.969,85.65775053512827,68.95099964390366,-2.0,-3.0,3.0,1.0,0.0,1.0,0.0,0.0,0.0,0.0,0.0,155.19,0.2,
5.983,85.60577505351282,68.92309996439037,0.0,-4.0,4.0,1.0,1.0,1.0,0.0,0.0,0.0,0.0,0.0,152.15,0.2,
5.997,85.51957750535128,68.88430999643903,0.0,-6.0,5.0,1.0,1.0,1.0,0.0,0.0,0.0,0.0,0.0,148.92,0.29,
6.01,85.38495775053514,68.8534309996439,1.0,-5.0,8.0,2.0,1.0,1.0,0.0,0.0,0.0,0.0,0.0,145.58,0.59,
6.024,85.3804957750535,68.76034309996439,5.0,-3.0,10.0,2.0,1.0,1.0,0.0,0.0,0.0,0.0,0.0,138.22,0.69,
6.038,85.68604957750534,68.42703430999644,10.0,-1.0,15.0,2.0,1.0,1.0,0.0,0.0,0.0,0.0,0.0,134.3,0.88,
6.051,86.12160495775053,68.23170343099964,13.0,-12.0,35.0,3.0,2.0,1.0,0.0,0.0,1.0,0.0,0.0,130.37,1.28,
6.066,85.58916049577506,69.82317034309996,8.0,-38.0,32.0,2.0,2.0,2.0,0.0,0.0,1.0,0.0,0.0,126.25,2.06,
6.079,85.23891604957751,70.31531703431,2.0,-3.0,7.0,2.0,2.0,1.0,0.0,0.0,1.0,0.0,0.0,117.62,2.35,
6.093,84.82589160495776,70.463531703431,0.0,-3.0,5.0,2.0,2.0,2.0,0.0,0.0,1.0,0.0,0.0,113.8,2.55,
6.107,84.83858916049579,70.3883531703431,-1.0,-1.0,4.0,3.0,2.0,1.0,0.0,0.0,1.0,0.0,0.0,110.17,2.55,
6.12,84.63285891604957,70.04783531703431,0.0,-1.0,6.0,2.0,2.0,2.0,0.0,0.0,1.0,0.0,0.0,107.03,2.45,
6.134,84.60328589160495,69.96878353170342,1.0,-6.0,7.0,2.0,2.0,2.0,0.0,0.0,1.0,0.0,0.0,101.93,2.45,
6.148,84.2583285891605,70.34787835317034,2.0,-7.0,13.0,3.0,2.0,2.0,0.0,0.0,1.0,0.0,0.0,99.38,2.45,
6.162,84.17883285891605,70.39478783531703,3.0,-4.0,13.0,3.0,2.0,2.0,0.0,0.0,1.0,0.0,0.0,96.43,2.55,
6.175,83.8198832858916,70.7144787835317,1.0,-5.0,14.0,3.0,3.0,2.0,0.0,0.0,1.0,0.0,0.0,93.29,2.75,
6.189,83.64898832858916,70.65644787835318,2.0,-2.0,9.0,3.0,3.0,2.0,0.0,0.0,1.0,0.0,0.0,89.86,3.24,
6.203,83.64089883285891,70.60564478783532,2.0,-2.0,8.0,4.0,3.0,2.0,0.0,0.0,1.0,0.0,0.0,83.88,3.53,
6.216,83.55908988328588,70.71756447878353,0.0,-3.0,7.0,4.0,3.0,2.0,0.0,0.0,1.0,0.0,0.0,81.91,3.73,
6.23,83.3439089883286,70.81875644787836,-1.0,-4.0,6.0,4.0,3.0,2.0,0.0,0.0,1.0,0.0,0.0,80.64,3.83,
6.244,83.27739089883286,71.04487564478782,-3.0,-6.0,7.0,4.0,3.0,2.0,0.0,0.0,1.0,0.0,0.0,79.76,4.02,
6.257,83.06373908988328,71.02248756447878,-3.0,-6.0,6.0,4.0,3.0,2.0,0.0,0.0,1.0,0.0,0.0,77.7,4.12,
6.27,82.89837390898833,70.75024875644787,-1.0,-4.0,7.0,4.0,3.0,2.0,0.0,0.0,1.0,0.0,0.0,76.42,4.02,
6.285,82.75583739089882,70.71402487564478,-1.0,-4.0,9.0,4.0,3.0,2.0,0.0,0.0,1.0,0.0,0.0,75.24,4.02,
6.298,82.86758373908988,71.21440248756448,0.0,-4.0,7.0,4.0,4.0,2.0,0.0,0.0,1.0,0.0,0.0,74.46,4.22,
6.311,82.81575837390899,71.30044024875644,-1.0,0.0,7.0,4.0,4.0,2.0,0.0,0.0,1.0,0.0,0.0,72.79,4.32,
6.325,82.71157583739091,71.03904402487565,0.0,1.0,5.0,4.0,4.0,2.0,0.0,0.0,1.0,0.0,0.0,71.42,4.41,
6.339,82.74615758373909,70.69790440248757,0.0,1.0,7.0,4.0,4.0,2.0,0.0,0.0,1.0,0.0,0.0,70.24,4.51,
6.352,83.08261575837392,71.82479044024876,0.0,-9.0,5.0,4.0,4.0,2.0,0.0,0.0,1.0,0.0,0.0,69.55,4.71,
6.366,83.12526157583738,71.91947904402488,0.0,2.0,0.0,4.0,4.0,2.0,0.0,0.0,1.0,0.0,0.0,69.55,5.1,
6.379,82.97652615758373,71.96494790440248,-1.0,7.0,0.0,4.0,4.0,2.0,0.0,0.0,1.0,0.0,0.0,69.36,5.2,
6.393,82.73665261575836,71.06049479044025,4.0,2.0,1.0,4.0,4.0,2.0,0.0,0.0,2.0,0.0,0.0,69.06,5.49,
6.407,82.59566526157583,71.61804947904403,-1.0,-2.0,1.0,4.0,4.0,2.0,0.0,0.0,2.0,0.0,0.0,68.96,5.69,
6.42,82.41056652615758,71.9528049479044,1.0,5.0,3.0,4.0,5.0,2.0,0.0,0.0,2.0,0.0,0.0,69.16,6.28,
6.433,82.51805665261575,71.82428049479044,1.0,6.0,1.0,4.0,5.0,2.0,0.0,0.0,2.0,0.0,0.0,70.63,6.47,
6.447,82.81680566526157,71.82942804947905,2.0,5.0,2.0,5.0,5.0,2.0,0.0,0.0,2.0,0.0,0.0,71.81,6.77,
6.461,82.86468056652618,71.7669428049479,0.0,4.0,-3.0,5.0,5.0,2.0,0.0,0.0,2.0,0.0,0.0,72.79,6.97,
6.474,82.78846805665262,71.8596942804948,0.0,9.0,-5.0,5.0,5.0,2.0,0.0,0.0,2.0,0.0,0.0,73.48,7.16,
6.488,82.96984680566527,71.83296942804948,1.0,11.0,-1.0,5.0,5.0,3.0,0.0,0.0,2.0,0.0,0.0,73.97,7.55,
6.502,83.06898468056653,71.93829694280495,0.0,7.0,-1.0,5.0,5.0,3.0,0.0,0.0,2.0,0.0,0.0,75.83,7.85,
6.515,83.17789846805664,71.7958296942805,0.0,11.0,-3.0,5.0,5.0,3.0,0.0,0.0,2.0,0.0,0.0,76.91,8.04,
6.529,83.31478984680567,71.96158296942806,0.0,12.0,-3.0,5.0,5.0,3.0,0.0,0.0,2.0,0.0,0.0,78.09,8.34,
6.543,83.48147898468056,71.99615829694281,0.0,12.0,0.0,5.0,6.0,3.0,0.0,0.0,3.0,0.0,0.0,79.56,8.93,
6.556,83.61514789846805,72.14361582969428,0.0,9.0,-1.0,5.0,6.0,3.0,0.0,0.0,3.0,0.0,962.16,82.89,9.32,
6.579,83.6375147898468,72.01436158296943,0.0,15.0,-2.0,5.0,6.0,3.0,0.0,0.0,3.0,0.0,0.49,86.23,9.81,
6.593,83.69375147898468,72.38843615829695,0.0,14.0,-6.0,5.0,6.0,3.0,0.0,0.0,3.0,0.0,0.59,87.7,10.2,
6.606,83.82537514789847,72.2368436158297,-2.0,11.0,-6.0,5.0,6.0,3.0,0.0,0.0,3.0,0.0,0.78,89.27,10.59,
6.621,83.99153751478985,72.26668436158296,-2.0,11.0,-8.0,5.0,6.0,3.0,0.0,0.0,3.0,0.0,0.88,90.84,11.09,
6.635,84.16115375147899,72.26966843615828,-1.0,7.0,-4.0,5.0,6.0,3.0,0.0,0.0,3.0,0.0,0.98,94.18,11.38,
6.648,84.3401153751479,72.20696684361583,-1.0,5.0,-1.0,5.0,6.0,3.0,0.0,0.0,3.0,0.0,1.18,95.45,11.48,
6.663,84.6280115375148,72.17369668436159,-1.0,8.0,0.0,5.0,6.0,3.0,0.0,0.0,3.0,0.0,1.28,96.63,11.67,
6.676,84.62080115375147,72.30536966843616,-1.0,4.0,-5.0,5.0,6.0,3.0,0.0,0.0,3.0,0.0,1.28,97.71,12.07,
6.69,84.85408011537514,72.27353696684361,-4.0,9.0,-10.0,5.0,6.0,3.0,0.0,0.0,3.0,0.0,1.37,100.06,12.16,
6.704,84.98540801153752,72.11735369668436,-3.0,6.0,-4.0,5.0,6.0,3.0,0.0,0.0,3.0,0.0,1.47,101.24,12.26,
6.718,85.06154080115375,72.02973536966843,-3.0,4.0,-4.0,5.0,6.0,3.0,0.0,0.0,3.0,0.0,1.57,102.12,12.36,
6.732,85.18615408011539,72.02097353696684,-3.0,4.0,-2.0,5.0,6.0,3.0,0.0,0.0,3.0,0.0,1.67,102.71,12.65,
6.746,85.37861540801156,71.9840973536967,-3.0,4.0,-4.0,5.0,6.0,3.0,0.0,0.0,3.0,0.0,1.67,103.89,12.75,
6.76,85.43386154080116,71.82740973536967,-3.0,4.0,-4.0,5.0,6.0,3.0,0.0,0.0,3.0,0.0,1.77,104.77,12.85,
6.774,85.2593861540801,71.68574097353697,-5.0,8.0,-5.0,5.0,6.0,3.0,0.0,0.0,3.0,0.0,1.77,105.65,12.95,
6.788,85.38593861540802,71.62657409735371,-3.0,0.0,-1.0,5.0,6.0,3.0,0.0,0.0,3.0,0.0,1.77,106.73,13.15,
6.802,85.4075938615408,71.58465740973537,-3.0,5.0,-5.0,5.0,6.0,3.0,0.0,0.0,3.0,0.0,1.77,108.4,13.34,
6.816,85.52675938615408,71.61646574097355,-2.0,2.0,-2.0,5.0,6.0,3.0,0.0,0.0,3.0,0.0,1.77,108.6,13.34,
6.83,85.58367593861541,71.75464657409736,-2.0,1.0,0.0,5.0,6.0,3.0,0.0,0.0,3.0,0.0,1.86,108.5,13.54,
6.844,85.71536759386154,71.78646465740974,-1.0,1.0,-1.0,5.0,6.0,3.0,0.0,0.0,3.0,0.0,1.86,108.4,13.64,
6.857,85.80953675938615,71.82564646574097,-2.0,2.0,0.0,5.0,6.0,3.0,0.0,0.0,3.0,0.0,1.96,108.6,13.73,
6.872,85.86395367593862,71.8025646465741,-1.0,1.0,-1.0,5.0,6.0,3.0,0.0,0.0,3.0,0.0,1.96,108.69,13.83,
6.886,85.96839536759387,71.7282564646574,-1.0,1.0,-1.0,5.0,6.0,3.0,0.0,0.0,3.0,0.0,2.06,108.5,13.93,
6.899,85.98783953675938,71.66682564646574,-2.0,5.0,-3.0,5.0,6.0,3.0,0.0,0.0,3.0,0.0,2.26,107.22,14.03,
6.914,86.02578395367594,71.81368256464658,-1.0,0.0,-1.0,5.0,6.0,3.0,0.0,0.0,3.0,0.0,2.26,106.63,14.03,
6.927,86.17357839536758,71.99936825646465,-1.0,0.0,3.0,5.0,6.0,3.0,0.0,0.0,3.0,0.0,2.26,106.34,14.13,
6.941,86.15235783953676,72.08993682564646,-1.0,0.0,0.0,5.0,6.0,3.0,0.0,0.0,3.0,0.0,2.35,106.24,14.32,
6.955,86.19523578395368,72.09899368256464,-1.0,0.0,-1.0,5.0,6.0,3.0,0.0,0.0,3.0,0.0,2.45,105.75,14.42,
6.969,86.27152357839537,71.98289936825645,-1.0,4.0,-5.0,5.0,6.0,3.0,0.0,0.0,3.0,0.0,2.35,104.87,14.42,
6.983,86.31515235783954,71.97128993682564,-1.0,0.0,0.0,5.0,6.0,3.0,0.0,0.0,4.0,0.0,2.45,103.59,14.42,
6.996,86.31951523578395,72.00612899368258,-1.0,1.0,-1.0,5.0,6.0,3.0,0.0,0.0,4.0,0.0,2.45,102.32,14.52,
7.011,86.2659515235784,71.96461289936825,0.0,2.0,0.0,5.0,6.0,3.0,0.0,0.0,4.0,0.0,2.55,99.38,14.52,
7.024,86.40459515235784,72.06846128993682,-1.0,0.0,0.0,5.0,6.0,3.0,0.0,0.0,4.0,0.0,2.65,97.81,14.52,
7.038,86.36445951523578,72.14184612899368,0.0,1.0,0.0,5.0,6.0,3.0,0.0,0.0,4.0,0.0,2.65,96.43,14.62,
7.052,86.43244595152359,72.16718461289938,0.0,0.0,0.0,5.0,6.0,3.0,0.0,0.0,4.0,0.0,2.75,94.86,14.91,
7.065,86.56524459515235,72.25971846128994,-1.0,1.0,0.0,5.0,6.0,3.0,0.0,0.0,4.0,0.0,2.84,1044.67,15.01,
7.088,86.61452445951525,72.331971846129,-1.0,0.0,-1.0,5.0,6.0,3.0,0.0,0.0,4.0,0.0,2.84,90.15,15.11,
7.102,86.67345244595154,72.30319718461288,-1.0,0.0,-1.0,6.0,6.0,3.0,0.0,0.0,4.0,0.0,3.04,89.27,15.21,
7.115,86.65234524459517,72.2283197184613,-1.0,0.0,0.0,6.0,6.0,3.0,0.0,0.0,4.0,0.0,3.04,88.49,15.21,
7.13,86.70423452445952,72.20283197184614,-1.0,1.0,-1.0,6.0,6.0,4.0,0.0,0.0,4.0,0.0,3.04,87.51,15.3,
7.143,86.76342345244595,72.21828319718462,0.0,0.0,-1.0,6.0,6.0,4.0,0.0,0.0,4.0,0.0,3.04,86.52,15.3,
7.157,86.7693423452446,72.23782831971845,0.0,0.0,-1.0,6.0,6.0,4.0,0.0,0.0,4.0,0.0,3.14,83.97,15.4,
7.171,86.69793423452445,72.07778283197185,0.0,5.0,-5.0,6.0,6.0,4.0,0.0,0.0,4.0,0.0,3.24,82.6,15.5,
7.185,86.69979342345245,72.00777828319718,-1.0,0.0,0.0,6.0,6.0,4.0,0.0,0.0,4.0,0.0,3.34,81.32,15.6,
7.198,86.78097934234525,72.03677782831973,-1.0,0.0,0.0,6.0,6.0,4.0,0.0,0.0,4.0,0.0,3.43,80.25,15.6,
7.213,86.81609793423452,72.07567778283197,-1.0,0.0,-1.0,6.0,6.0,4.0,0.0,0.0,4.0,0.0,3.53,78.68,15.7,
7.226,86.80160979342345,72.06156777828319,-1.0,0.0,0.0,6.0,7.0,4.0,0.0,0.0,4.0,0.0,3.53,78.19,15.7,
7.24,86.87216097934234,72.11415677782831,-1.0,0.0,0.0,6.0,7.0,4.0,0.0,0.0,4.0,0.0,3.43,77.6,15.79,
7.254,86.87921609793423,72.12841567778283,-1.0,0.0,-1.0,6.0,7.0,4.0,0.0,0.0,4.0,0.0,3.53,76.91,15.79,
7.268,86.94292160979343,72.14784156777829,-1.0,0.0,-1.0,6.0,7.0,4.0,0.0,0.0,4.0,0.0,3.63,75.73,15.79,
7.281,86.89529216097935,72.20378415677781,-1.0,0.0,0.0,6.0,7.0,4.0,0.0,0.0,4.0,0.0,3.73,75.14,15.79,
7.296,86.91752921609795,72.28137841567779,-1.0,0.0,0.0,6.0,7.0,4.0,0.0,0.0,4.0,0.0,3.83,74.65,15.89,
7.309,86.91075292160978,72.35213784156777,-1.0,0.0,0.0,6.0,7.0,4.0,0.0,0.0,4.0,0.0,3.83,74.16,15.89,
7.322,86.95507529216097,72.36821378415678,-1.0,0.0,0.0,6.0,7.0,4.0,0.0,0.0,4.0,0.0,3.92,73.48,15.89,
7.336,86.90550752921611,72.40582137841568,-1.0,0.0,0.0,6.0,7.0,4.0,0.0,0.0,4.0,0.0,3.92,73.18,15.89,
7.35,86.90055075292162,72.40958213784157,-1.0,0.0,-1.0,6.0,7.0,4.0,0.0,0.0,4.0,0.0,4.02,72.89,15.99,
7.364,86.90905507529216,72.40095821378416,-2.0,0.0,0.0,6.0,7.0,4.0,0.0,0.0,4.0,0.0,4.02,72.4,16.09,
7.377,86.9549055075292,72.45409582137842,-1.0,0.0,-1.0,6.0,7.0,4.0,0.0,0.0,4.0,0.0,3.92,71.71,16.09,
7.392,86.95049055075293,72.45940958213784,-2.0,0.0,0.0,6.0,7.0,4.0,0.0,0.0,4.0,0.0,4.12,71.51,16.09,
7.405,86.9320490550753,72.46894095821378,-2.0,0.0,-1.0,6.0,7.0,4.0,0.0,0.0,4.0,0.0,4.22,71.32,16.09,
7.419,86.93920490550752,72.49689409582138,-2.0,0.0,-1.0,6.0,7.0,4.0,0.0,0.0,4.0,0.0,4.22,71.12,16.19,
7.433,86.92192049055076,72.52668940958213,-2.0,0.0,0.0,6.0,7.0,4.0,0.0,0.0,4.0,0.0,4.22,70.93,16.09,
7.447,86.93819204905508,72.52066894095822,-2.0,0.0,-1.0,6.0,7.0,4.0,0.0,0.0,4.0,0.0,4.22,70.93,16.09,
7.461,86.9848192049055,72.50206689409582,-2.0,0.0,-1.0,6.0,7.0,4.0,0.0,0.0,4.0,0.0,4.22,70.83,16.19,
7.475,87.02548192049055,72.50920668940958,-2.0,0.0,-1.0,6.0,7.0,4.0,0.0,0.0,4.0,0.0,4.22,70.63,16.09,
7.489,87.03854819204906,72.52792066894096,-2.0,0.0,-1.0,6.0,7.0,4.0,0.0,0.0,4.0,0.0,4.22,70.34,16.09,
7.502,87.10285481920491,72.5567920668941,-2.0,0.0,0.0,6.0,7.0,4.0,0.0,0.0,4.0,0.0,4.22,70.24,16.09,
7.517,87.1092854819205,72.54167920668941,-2.0,0.0,0.0,5.0,7.0,4.0,0.0,0.0,4.0,0.0,4.22,70.34,15.99,
7.53,87.09192854819204,72.50416792066893,-2.0,0.0,0.0,5.0,7.0,4.0,0.0,0.0,4.0,0.0,4.22,70.44,15.99,
7.544,87.0721928548192,72.47341679206689,-2.0,0.0,0.0,6.0,7.0,4.0,0.0,0.0,4.0,0.0,4.12,70.53,15.99,
7.558,87.04321928548194,72.46134167920668,-2.0,0.0,0.0,6.0,7.0,4.0,0.0,0.0,4.0,0.0,4.12,70.53,15.89,
7.571,87.1033219285482,72.46913416792067,-2.0,0.0,0.0,5.0,7.0,4.0,0.0,0.0,4.0,0.0,4.12,70.44,15.79,
7.585,87.09133219285482,72.43391341679208,-2.0,0.0,0.0,6.0,7.0,4.0,0.0,0.0,4.0,0.0,4.12,70.44,15.89,
7.599,87.06313321928548,72.4393913416792,-2.0,0.0,-1.0,5.0,7.0,4.0,0.0,0.0,4.0,0.0,4.02,70.34,15.89,
7.613,87.04231332192856,72.44893913416792,-2.0,0.0,0.0,5.0,7.0,4.0,0.0,0.0,4.0,0.0,4.02,70.04,15.79,
7.626,87.06723133219285,72.49489391341679,-2.0,0.0,0.0,5.0,7.0,4.0,0.0,0.0,4.0,0.0,4.02,69.85,15.7,
7.641,86.99772313321928,72.54448939134168,-2.0,0.0,0.0,5.0,7.0,4.0,0.0,0.0,4.0,0.0,4.02,69.65,15.7,
7.654,87.01777231332193,72.54944893913417,-2.0,0.0,-1.0,5.0,7.0,4.0,0.0,0.0,4.0,0.0,4.02,69.45,15.7,
7.668,87.01977723133218,72.45094489391342,-2.0,0.0,0.0,5.0,7.0,4.0,0.0,0.0,4.0,0.0,4.02,69.26,15.7,
7.682,87.01997772313321,72.46809448939133,-2.0,0.0,0.0,5.0,7.0,4.0,0.0,0.0,4.0,0.0,4.02,69.26,15.79,
7.696,87.02899777231332,72.47880944893913,-2.0,0.0,0.0,5.0,7.0,4.0,0.0,0.0,4.0,0.0,4.12,69.26,15.7,
7.709,87.00289977723133,72.4528809448939,-2.0,0.0,0.0,5.0,7.0,4.0,0.0,0.0,4.0,0.0,4.02,69.06,15.7,
7.724,87.03628997772314,72.49528809448938,-2.0,0.0,-1.0,5.0,7.0,4.0,0.0,0.0,4.0,0.0,3.92,69.06,15.7,
7.737,87.03062899777231,72.46352880944893,-2.0,0.0,0.0,5.0,7.0,4.0,0.0,0.0,4.0,0.0,3.92,68.87,15.7,
7.751,87.00306289977723,72.4963528809449,-1.0,0.0,0.0,5.0,7.0,4.0,0.0,0.0,4.0,0.0,4.02,68.67,15.7,
7.764,87.00930628997773,72.4726352880945,-1.0,0.0,0.0,5.0,7.0,4.0,0.0,0.0,4.0,0.0,4.12,68.18,15.79,
7.779,87.06393062899777,72.47026352880945,-1.0,0.0,-1.0,5.0,7.0,4.0,0.0,0.0,4.0,0.0,4.12,67.69,15.79,
7.792,87.03339306289978,72.45202635288095,-1.0,0.0,-1.0,5.0,7.0,4.0,0.0,0.0,4.0,0.0,4.12,67.1,15.89,
7.806,87.03933930628999,72.4592026352881,-1.0,0.0,-1.0,5.0,7.0,4.0,0.0,0.0,4.0,0.0,4.22,66.51,16.09,
7.82,87.039933930629,72.5229202635288,-1.0,0.0,0.0,5.0,7.0,4.0,0.0,0.0,4.0,0.0,4.22,65.83,16.09,
7.834,87.0939933930629,72.54729202635288,-1.0,0.0,0.0,5.0,7.0,4.0,0.0,0.0,4.0,0.0,4.22,65.43,16.09,
7.847,87.07239933930629,72.54072920263529,-1.0,0.0,0.0,5.0,7.0,4.0,0.0,0.0,4.0,0.0,4.22,65.24,16.19,
7.862,87.03423993393062,72.53107292026353,-2.0,0.0,0.0,5.0,7.0,4.0,0.0,0.0,4.0,0.0,4.32,64.94,16.28,
7.875,87.02142399339306,72.53910729202636,-2.0,0.0,0.0,5.0,7.0,4.0,0.0,0.0,4.0,0.0,4.32,64.65,16.28,
7.889,87.03814239933932,72.55791072920263,-2.0,0.0,-1.0,5.0,7.0,4.0,0.0,0.0,4.0,0.0,4.22,64.06,16.28,
7.903,87.03981423993395,72.57779107292026,-1.0,0.0,-1.0,5.0,7.0,4.0,0.0,0.0,4.0,0.0,4.22,63.77,16.38,
7.917,87.1029814239934,72.55277910729203,-1.0,0.0,0.0,5.0,7.0,4.0,0.0,0.0,5.0,0.0,4.22,63.37,16.48,
7.93,87.12729814239934,72.5232779107292,-1.0,0.0,0.0,5.0,7.0,4.0,0.0,0.0,5.0,0.0,4.32,62.98,16.58,
7.945,87.12072981423994,72.52932779107292,-2.0,0.0,0.0,5.0,7.0,4.0,0.0,0.0,5.0,0.0,4.32,62.1,16.58,
7.958,87.14707298142399,72.53893277910728,-2.0,0.0,0.0,5.0,7.0,4.0,0.0,0.0,5.0,0.0,4.32,61.8,16.58,
7.971,87.1587072981424,72.55789327791072,-2.0,0.0,-1.0,5.0,7.0,4.0,0.0,0.0,5.0,0.0,4.32,61.61,16.58,
7.986,87.12387072981424,72.55078932779108,-2.0,0.0,0.0,5.0,7.0,4.0,0.0,0.0,5.0,0.0,4.32,61.41,16.58,
7.999,87.12038707298143,72.56807893277912,-2.0,0.0,0.0,5.0,7.0,4.0,0.0,0.0,5.0,0.0,4.32,61.02,16.68,
8.013,87.12903870729815,72.62380789327791,-1.0,0.0,0.0,5.0,7.0,4.0,0.0,0.0,5.0,0.0,4.32,60.92,16.58,
8.027,87.13890387072982,72.6383807893278,-1.0,0.0,-1.0,5.0,7.0,4.0,0.0,0.0,5.0,0.0,4.41,60.92,16.68,
8.041,87.11289038707298,72.65783807893278,-2.0,0.0,0.0,5.0,7.0,4.0,0.0,0.0,5.0,0.0,4.41,60.92,16.68,
8.054,87.1192890387073,72.62378380789328,-2.0,0.0,0.0,5.0,7.0,4.0,0.0,0.0,5.0,0.0,4.41,61.12,16.87,
8.069,87.11992890387073,72.63837838078933,-1.0,0.0,0.0,5.0,7.0,4.0,0.0,0.0,5.0,0.0,4.41,61.21,16.87,
8.082,87.13799289038707,72.69383783807893,-2.0,0.0,-1.0,5.0,7.0,4.0,0.0,0.0,5.0,1.0,4.41,61.12,16.97,
8.096,87.1577992890387,72.7443837838079,-2.0,0.0,-2.0,5.0,7.0,4.0,0.0,0.0,5.0,1.0,4.51,61.02,16.97,
8.11,87.15977992890387,72.6774383783808,-2.0,0.0,-1.0,5.0,7.0,4.0,0.0,0.0,5.0,1.0,4.41,60.43,16.97,
8.124,87.10597799289039,72.64374383783809,-2.0,0.0,0.0,5.0,7.0,4.0,0.0,0.0,5.0,1.0,4.51,60.14,16.97,
8.137,87.09159779928903,72.67637438378381,-2.0,0.0,-1.0,5.0,7.0,4.0,0.0,0.0,5.0,1.0,4.51,59.94,17.07,
8.152,87.0991597799289,72.62563743837839,-1.0,0.0,0.0,5.0,7.0,4.0,0.0,0.0,5.0,1.0,4.51,59.74,17.07,
8.166,87.07291597799289,72.66556374383785,-1.0,0.0,0.0,5.0,7.0,4.0,0.0,0.0,5.0,1.0,4.51,59.45,17.27,
8.179,87.10629159779928,72.66955637438379,-2.0,0.0,0.0,5.0,7.0,4.0,0.0,0.0,5.0,1.0,4.51,59.25,17.27,
8.193,87.13662915977993,72.71495563743838,-2.0,0.0,0.0,5.0,7.0,4.0,0.0,0.0,5.0,1.0,4.61,59.06,17.27,
8.207,87.12166291597799,72.71949556374385,-2.0,0.0,-1.0,5.0,7.0,4.0,0.0,0.0,5.0,1.0,4.51,58.86,17.27,
8.22,87.0661662915978,72.69294955637439,-2.0,0.0,0.0,5.0,7.0,4.0,0.0,0.0,5.0,1.0,4.61,58.66,17.27,
8.235,87.10561662915978,72.69929495563744,-2.0,0.0,-1.0,5.0,7.0,4.0,0.0,0.0,5.0,1.0,4.61,58.57,17.27,
8.248,87.07356166291598,72.70892949556374,-2.0,0.0,-1.0,5.0,7.0,4.0,0.0,0.0,5.0,1.0,4.51,58.57,17.27,
8.262,87.08835616629159,72.68289294955638,-2.0,0.0,-1.0,5.0,7.0,4.0,0.0,0.0,5.0,1.0,4.51,58.57,17.27,
8.276,87.10783561662916,72.67128929495564,-2.0,0.0,-1.0,5.0,7.0,4.0,0.0,0.0,5.0,0.0,4.41,58.66,17.27,
8.29,87.10078356166292,72.64312892949556,-2.0,0.0,0.0,5.0,7.0,4.0,0.0,0.0,5.0,0.0,4.41,58.76,17.27,
8.304,87.09107835616629,72.69431289294957,-2.0,0.0,0.0,5.0,7.0,4.0,0.0,0.0,5.0,0.0,4.41,58.96,17.27,
8.317,87.05410783561663,72.69043128929496,-2.0,0.0,0.0,5.0,7.0,4.0,0.0,0.0,5.0,0.0,4.41,59.25,17.17,
8.331,87.05041078356166,72.6990431289295,-2.0,0.0,0.0,5.0,7.0,4.0,0.0,0.0,5.0,0.0,4.32,59.94,17.17,
8.345,87.05004107835616,72.70890431289294,-2.0,0.0,-1.0,5.0,7.0,4.0,0.0,0.0,5.0,0.0,4.32,60.23,17.17,
8.358,87.08600410783562,72.6738904312893,-2.0,0.0,-1.0,5.0,7.0,4.0,0.0,0.0,5.0,0.0,4.22,60.33,17.07,
8.373,87.11660041078356,72.67938904312894,-2.0,0.0,0.0,5.0,7.0,4.0,0.0,0.0,5.0,0.0,4.22,60.43,17.07,
8.387,87.12866004107836,72.76993890431291,-2.0,-1.0,0.0,5.0,7.0,4.0,0.0,0.0,5.0,0.0,4.12,60.92,16.97,
8.4,87.11186600410784,72.76999389043128,-3.0,0.0,-1.0,5.0,7.0,4.0,0.0,0.0,5.0,0.0,4.12,61.12,16.97,
8.415,87.11018660041078,72.68899938904313,-2.0,-1.0,0.0,5.0,7.0,4.0,0.0,0.0,5.0,0.0,4.02,61.41,16.68,
8.428,87.06501866004108,72.64489993890432,-3.0,0.0,-1.0,5.0,7.0,4.0,0.0,0.0,4.0,0.0,4.02,61.8,16.68,
8.442,87.0515018660041,72.68548999389044,-2.0,0.0,0.0,5.0,7.0,4.0,0.0,0.0,4.0,0.0,3.92,62.29,16.58,
8.456,87.0051501866004,72.64454899938904,-2.0,0.0,0.0,5.0,7.0,4.0,0.0,0.0,4.0,0.0,3.83,62.59,16.48,
8.47,87.00951501866005,72.6224548999389,-3.0,0.0,-1.0,5.0,7.0,4.0,0.0,0.0,4.0,0.0,3.83,62.88,16.38,
8.483,87.00995150186601,72.60224548999389,-2.0,0.0,-1.0,5.0,7.0,4.0,0.0,0.0,4.0,0.0,3.73,62.98,16.28,
8.498,87.03699515018661,72.6272245489994,-2.0,0.0,-1.0,5.0,7.0,4.0,0.0,0.0,4.0,0.0,3.83,62.98,16.19,
8.511,87.02169951501865,72.66572245489995,-2.0,0.0,0.0,5.0,7.0,4.0,0.0,0.0,4.0,0.0,3.83,62.88,16.19,
8.525,86.99316995150186,72.62457224549,-2.0,0.0,-1.0,5.0,7.0,4.0,0.0,0.0,4.0,0.0,3.83,62.98,16.19,
8.539,86.9543169951502,72.602457224549,-2.0,-1.0,0.0,5.0,7.0,4.0,0.0,0.0,4.0,0.0,3.73,62.98,16.09,
8.553,86.96843169951501,72.5822457224549,-2.0,0.0,-1.0,5.0,7.0,4.0,0.0,0.0,4.0,0.0,3.83,62.98,15.99,
8.566,87.0058431699515,72.5802245722455,-2.0,0.0,-1.0,5.0,7.0,4.0,0.0,0.0,4.0,0.0,3.83,62.88,15.99,
8.581,87.00958431699516,72.57102245722456,-2.0,0.0,-1.0,5.0,7.0,4.0,0.0,0.0,4.0,0.0,3.83,62.59,16.09,
8.594,87.04595843169952,72.56110224572245,-2.0,0.0,0.0,5.0,7.0,4.0,0.0,0.0,4.0,0.0,3.83,62.1,15.99,
8.608,87.07659584316995,72.57811022457224,-2.0,0.0,-1.0,5.0,7.0,4.0,0.0,0.0,4.0,0.0,3.92,61.21,16.09,
8.622,87.106659584317,72.59781102245722,-2.0,0.0,0.0,5.0,7.0,4.0,0.0,0.0,4.0,0.0,3.92,61.02,16.09,
8.636,87.0916659584317,72.58178110224573,-2.0,0.0,0.0,5.0,7.0,4.0,0.0,0.0,4.0,0.0,3.92,60.82,15.99,
8.649,87.07216659584317,72.63417811022458,-2.0,0.0,0.0,5.0,7.0,4.0,0.0,0.0,4.0,0.0,4.02,60.82,16.09,
8.664,87.04321665958433,72.58541781102247,-2.0,0.0,-1.0,5.0,7.0,4.0,0.0,0.0,4.0,0.0,4.02,60.72,16.09,
8.677,87.07632166595843,72.56254178110225,-2.0,0.0,-1.0,5.0,7.0,4.0,0.0,0.0,4.0,0.0,3.92,60.53,16.09,
8.691,87.00763216659584,72.55125417811023,-2.0,0.0,-1.0,5.0,7.0,4.0,0.0,0.0,4.0,0.0,3.92,60.33,16.09,
8.706,87.0367632166596,72.50512541781102,-2.0,0.0,-1.0,5.0,7.0,4.0,0.0,0.0,4.0,0.0,3.92,59.94,16.19,
8.719,87.02167632166595,72.56351254178111,-2.0,0.0,0.0,5.0,7.0,4.0,0.0,0.0,4.0,0.0,4.02,59.06,16.19,
8.733,87.02016763216659,72.56035125417812,-2.0,0.0,-1.0,5.0,7.0,4.0,0.0,0.0,4.0,0.0,4.02,58.66,16.19,
8.747,87.05601676321666,72.63203512541781,-2.0,0.0,0.0,5.0,7.0,4.0,0.0,0.0,4.0,0.0,4.02,58.57,16.19,
8.761,87.09560167632166,72.64820351254178,-2.0,0.0,0.0,5.0,7.0,4.0,0.0,0.0,4.0,0.0,4.12,58.47,16.19,
8.774,87.09956016763216,72.61382035125418,-2.0,0.0,0.0,5.0,7.0,4.0,0.0,0.0,4.0,0.0,4.12,58.57,16.19,
8.787,87.08195601676321,72.59238203512542,-2.0,0.0,0.0,5.0,7.0,4.0,0.0,0.0,4.0,0.0,4.02,58.86,16.28,
8.802,87.09819560167632,72.56323820351254,-2.0,0.0,0.0,5.0,7.0,4.0,0.0,0.0,5.0,0.0,4.12,59.15,16.38,
8.815,87.09981956016763,72.57832382035126,-2.0,0.0,0.0,5.0,7.0,4.0,0.0,0.0,4.0,0.0,4.12,59.15,16.28,
8.829,87.04598195601677,72.61583238203512,-2.0,0.0,-1.0,5.0,7.0,4.0,0.0,0.0,4.0,0.0,4.12,59.35,16.38,
8.843,87.08559819560168,72.59258323820352,-2.0,0.0,0.0,5.0,7.0,4.0,0.0,0.0,4.0,0.0,4.22,59.45,16.28,
8.857,87.05355981956016,72.58125832382035,-2.0,0.0,-1.0,5.0,7.0,4.0,0.0,0.0,4.0,0.0,4.12,59.55,16.28,
8.87,87.05035598195602,72.58912583238204,-2.0,0.0,0.0,5.0,7.0,4.0,0.0,0.0,4.0,0.0,4.22,59.55,16.28,
8.885,87.1040355981956,72.5359125832382,-2.0,0.0,0.0,5.0,7.0,4.0,0.0,0.0,4.0,0.0,4.12,59.64,16.38,
8.898,87.08240355981955,72.55759125832382,-2.0,0.0,-1.0,5.0,7.0,4.0,0.0,0.0,4.0,0.0,4.22,59.64,16.38,
8.912,87.01724035598197,72.59575912583239,-2.0,0.0,0.0,5.0,7.0,4.0,0.0,0.0,4.0,0.0,4.22,59.55,16.48,
8.926,87.0107240355982,72.60857591258323,-2.0,0.0,-1.0,5.0,7.0,4.0,0.0,0.0,4.0,0.0,4.22,59.45,16.48,
8.94,87.01007240355983,72.60085759125832,-2.0,0.0,0.0,5.0,7.0,4.0,0.0,0.0,4.0,0.0,4.22,59.55,16.38,
8.953,87.01000724035599,72.58208575912583,-2.0,0.0,0.0,5.0,7.0,4.0,0.0,0.0,4.0,0.0,4.22,59.64,16.38,
8.968,87.0100007240356,72.53520857591258,-2.0,0.0,0.0,5.0,7.0,4.0,0.0,0.0,5.0,0.0,4.22,59.84,16.38,
8.981,87.03700007240357,72.51252085759126,-2.0,0.0,0.0,5.0,7.0,4.0,0.0,0.0,5.0,0.0,4.22,60.23,16.38,
8.995,87.05770000724036,72.56425208575912,-2.0,0.0,-1.0,5.0,7.0,4.0,0.0,0.0,5.0,0.0,4.22,60.53,16.38,
9.009,86.99677000072403,72.5424252085759,-2.0,0.0,0.0,5.0,7.0,4.0,0.0,0.0,5.0,0.0,4.22,60.92,16.48,
9.023,86.9906770000724,72.53124252085759,-2.0,0.0,0.0,5.0,7.0,4.0,0.0,0.0,4.0,0.0,4.22,61.02,16.48,
9.036,86.99006770000723,72.51212425208575,-2.0,0.0,0.0,5.0,7.0,4.0,0.0,0.0,5.0,0.0,4.22,61.02,16.58,
9.051,87.00800677000073,72.48321242520858,-2.0,0.0,0.0,5.0,6.0,4.0,0.0,0.0,5.0,0.0,4.32,61.31,16.58,
9.064,86.99180067700007,72.47132124252086,-3.0,0.0,0.0,5.0,6.0,4.0,0.0,0.0,4.0,0.0,4.32,61.9,16.58,
9.078,87.0531800677,72.52413212425209,-3.0,0.0,-1.0,5.0,6.0,4.0,0.0,0.0,4.0,0.0,4.32,62.2,16.68,
9.092,87.04131800677001,72.55641321242521,-3.0,-1.0,-1.0,5.0,6.0,4.0,0.0,0.0,4.0,0.0,4.41,62.59,16.68,
9.106,87.022131800677,72.48764132124252,-4.0,0.0,-1.0,5.0,6.0,4.0,0.0,0.0,4.0,0.0,4.41,62.98,16.68,
9.119,87.01121318006771,72.50776413212425,-4.0,-2.0,-1.0,5.0,6.0,4.0,0.0,0.0,4.0,0.0,4.51,63.96,16.78,
9.134,86.97412131800677,72.46477641321242,-4.0,-1.0,-2.0,5.0,6.0,4.0,0.0,0.0,4.0,0.0,4.51,64.55,16.87,
9.148,87.01541213180067,72.48747764132123,-4.0,-1.0,-2.0,5.0,6.0,4.0,0.0,0.0,4.0,0.0,4.71,65.14,17.07,
9.161,87.12754121318007,72.46274776413212,-4.0,1.0,-3.0,5.0,6.0,4.0,0.0,0.0,4.0,0.0,4.71,65.53,17.17,
9.176,87.129754121318,72.38827477641321,-4.0,-2.0,-3.0,5.0,6.0,4.0,0.0,0.0,4.0,0.0,4.81,66.22,17.27,
9.189,87.0939754121318,72.38082747764132,-4.0,0.0,-2.0,5.0,6.0,4.0,0.0,0.0,4.0,0.0,4.81,66.71,17.27,
9.203,87.09939754121318,72.28108274776412,-4.0,0.0,-2.0,5.0,6.0,4.0,0.0,0.0,4.0,0.0,4.81,67.2,17.27,
9.218,87.06393975412132,72.3251082747764,-4.0,-1.0,-2.0,5.0,6.0,3.0,0.0,0.0,4.0,0.0,5.0,67.79,17.27,
9.231,87.09639397541213,72.30251082747763,-4.0,0.0,-1.0,5.0,6.0,3.0,0.0,0.0,4.0,0.0,5.0,68.96,17.36,
9.244,87.08163939754121,72.31825108274775,-4.0,-1.0,-2.0,5.0,6.0,3.0,0.0,0.0,3.0,0.0,5.0,69.65,17.27,
9.259,87.09816393975412,72.23882510827478,-4.0,-1.0,-2.0,5.0,5.0,3.0,0.0,0.0,3.0,0.0,5.2,70.44,17.17,
9.273,87.08181639397542,72.23988251082747,-4.0,-2.0,-2.0,5.0,5.0,3.0,0.0,0.0,3.0,0.0,5.2,71.42,17.17,
9.286,87.07118163939754,72.18598825108275,-4.0,-1.0,-2.0,5.0,5.0,3.0,0.0,0.0,3.0,0.0,5.1,73.67,17.07,
9.3,87.04311816393977,72.21659882510828,-4.0,-2.0,-2.0,5.0,5.0,3.0,0.0,0.0,3.0,0.0,5.0,74.95,17.07,
9.314,86.986311816394,72.20165988251082,-4.0,-1.0,-3.0,5.0,5.0,3.0,0.0,0.0,3.0,0.0,4.91,76.22,16.97,
9.328,86.98063118163941,72.11916598825108,-4.0,-2.0,-2.0,5.0,5.0,3.0,0.0,0.0,3.0,0.0,4.81,77.2,16.87,
9.341,86.94406311816394,72.02991659882511,-4.0,-1.0,-3.0,5.0,5.0,3.0,0.0,0.0,3.0,0.0,4.81,79.26,16.87,
9.356,86.88640631181639,71.96699165988251,-4.0,-1.0,-1.0,5.0,5.0,3.0,0.0,0.0,3.0,0.0,4.91,80.05,16.78,
9.369,86.88964063118165,71.91569916598824,-4.0,0.0,-2.0,4.0,5.0,3.0,0.0,0.0,2.0,0.0,4.91,80.83,16.68,
9.383,86.89896406311817,71.91056991659882,-4.0,-1.0,-1.0,4.0,5.0,3.0,0.0,0.0,2.0,0.0,4.91,81.62,16.68,
9.397,86.82789640631181,71.90105699165989,-4.0,-2.0,-1.0,4.0,5.0,3.0,0.0,0.0,2.0,0.0,5.0,82.99,16.48,
9.411,86.79378964063119,71.85510569916597,-4.0,-1.0,-1.0,4.0,5.0,3.0,0.0,0.0,2.0,0.0,5.0,83.68,16.48,
9.424,86.72737896406312,71.7785105699166,-3.0,-1.0,-1.0,4.0,5.0,3.0,0.0,0.0,2.0,0.0,5.0,84.56,16.38,
9.439,86.2527378964063,71.27585105699166,-1.0,1.0,3.0,4.0,5.0,3.0,0.0,0.0,2.0,0.0,5.0,85.45,16.38,
9.452,86.85327378964064,71.60358510569917,-3.0,8.0,0.0,4.0,5.0,3.0,0.0,0.0,2.0,0.0,5.2,86.43,16.38,
9.466,86.73332737896406,71.60935851056992,-1.0,-6.0,-1.0,4.0,5.0,3.0,0.0,0.0,2.0,0.0,5.98,86.82,16.58,
9.48,86.6133327378964,72.00593585105699,-2.0,1.0,3.0,4.0,5.0,3.0,0.0,0.0,2.0,0.0,6.18,87.01,16.58,
9.493,86.83533327378964,72.02759358510569,-2.0,0.0,-3.0,5.0,5.0,3.0,0.0,0.0,2.0,0.0,6.38,87.01,16.48,
9.507,86.61453332737898,72.01175935851057,-2.0,0.0,1.0,5.0,5.0,3.0,0.0,0.0,2.0,0.0,6.47,87.01,16.48,
9.521,86.7634533327379,72.01017593585107,-2.0,0.0,-2.0,5.0,5.0,3.0,0.0,0.0,2.0,0.0,6.57,86.72,16.68,
9.535,86.77834533327379,72.0010175935851,-2.0,0.0,-2.0,5.0,5.0,3.0,0.0,0.0,2.0,0.0,6.67,86.43,16.87,
9.548,86.76183453332737,71.8921017593585,-2.0,0.0,0.0,5.0,5.0,3.0,0.0,0.0,2.0,0.0,6.77,86.03,16.97,
9.562,86.73318345333274,71.82721017593585,-1.0,0.0,0.0,5.0,5.0,3.0,0.0,0.0,2.0,0.0,6.77,84.95,16.97,
9.576,86.77531834533328,71.82072101759357,-1.0,0.0,0.0,5.0,5.0,3.0,0.0,0.0,2.0,0.0,6.87,84.46,17.07,
9.589,86.71653183453333,71.91007210175937,-1.0,0.0,0.0,5.0,5.0,3.0,0.0,0.0,3.0,0.0,6.87,83.88,17.27,
9.604,86.79165318345333,71.94600721017595,-1.0,0.0,1.0,5.0,5.0,3.0,0.0,0.0,3.0,0.0,6.87,83.48,17.36,
9.617,86.79016531834533,71.95860072101759,-1.0,0.0,1.0,5.0,5.0,3.0,0.0,0.0,3.0,0.0,6.87,82.7,17.56,
9.63,86.85301653183454,71.98686007210175,0.0,0.0,1.0,5.0,5.0,3.0,0.0,0.0,3.0,0.0,6.87,82.4,17.76,
9.644,86.97630165318346,72.01668600721017,0.0,0.0,0.0,5.0,5.0,3.0,0.0,0.0,3.0,0.0,6.97,82.21,18.05,
9.658,86.88963016531834,72.04666860072102,-1.0,0.0,2.0,5.0,5.0,3.0,0.0,0.0,3.0,0.0,7.16,82.01,18.15,
9.671,86.85396301653182,72.02266686007209,-1.0,0.0,0.0,4.0,5.0,3.0,0.0,0.0,3.0,0.0,7.26,81.91,18.15,
9.684,86.75139630165319,72.0202666860072,-1.0,0.0,1.0,4.0,5.0,3.0,0.0,0.0,3.0,0.0,7.26,81.82,18.25,
9.699,86.76813963016532,72.07402666860072,-1.0,0.0,1.0,4.0,5.0,3.0,0.0,0.0,3.0,0.0,7.16,81.91,18.25,
9.712,86.80581396301653,72.07040266686008,-1.0,0.0,1.0,4.0,5.0,3.0,0.0,0.0,3.0,0.0,7.06,81.91,18.25,
9.726,86.80058139630165,72.07004026668601,-1.0,0.0,1.0,4.0,5.0,3.0,0.0,0.0,3.0,0.0,6.97,82.01,18.15,
9.74,86.77305813963017,72.0880040266686,-2.0,0.0,1.0,4.0,5.0,3.0,0.0,0.0,3.0,0.0,6.97,82.7,18.05,
9.753,86.82430581396302,72.05380040266685,-2.0,0.0,1.0,4.0,5.0,3.0,0.0,0.0,3.0,0.0,6.87,83.38,17.95,
9.767,86.81143058139631,72.08638004026669,-2.0,0.0,0.0,4.0,5.0,3.0,0.0,0.0,3.0,0.0,6.77,84.07,17.66,
9.781,86.78314305813963,72.09863800402667,-2.0,0.0,0.0,4.0,5.0,3.0,0.0,0.0,3.0,0.0,6.67,84.86,17.56,
9.794,86.71731430581396,72.09986380040266,-2.0,0.0,0.0,4.0,5.0,3.0,0.0,0.0,3.0,0.0,6.57,85.84,17.36,
9.808,86.72873143058139,72.08198638004026,-2.0,0.0,0.0,4.0,5.0,3.0,0.0,0.0,3.0,0.0,6.57,86.13,17.27,
9.822,86.71187314305814,72.15219863800402,-2.0,0.0,0.0,4.0,5.0,3.0,0.0,0.0,3.0,0.0,6.38,86.52,16.97,
9.835,86.71018731430581,72.1052198638004,-2.0,0.0,0.0,4.0,5.0,3.0,0.0,0.0,3.0,0.0,6.38,86.82,16.97,
9.849,86.73701873143058,72.12752198638005,-2.0,0.0,0.0,4.0,5.0,3.0,0.0,0.0,3.0,0.0,6.38,87.11,16.87,
9.863,86.65870187314307,72.111752198638,-2.0,0.0,0.0,4.0,5.0,3.0,0.0,0.0,3.0,0.0,6.28,87.6,16.78,
9.876,86.62387018731432,72.1371752198638,-2.0,0.0,0.0,4.0,5.0,3.0,0.0,0.0,3.0,0.0,6.38,87.9,16.68,
9.89,86.67438701873145,72.13971752198638,-2.0,0.0,0.0,4.0,5.0,3.0,0.0,0.0,4.0,0.0,6.38,88.09,16.58,
9.904,86.62543870187315,72.18497175219863,-2.0,0.0,0.0,4.0,5.0,3.0,0.0,0.0,4.0,0.0,6.28,88.09,16.58,
9.917,86.67454387018734,72.20749717521986,-2.0,0.0,0.0,4.0,5.0,3.0,0.0,0.0,4.0,0.0,6.38,88.09,16.48,
9.931,86.63445438701874,72.13774971752198,-2.0,0.0,0.0,4.0,5.0,3.0,0.0,0.0,4.0,0.0,6.38,88.19,16.48,
9.945,86.62144543870188,72.1127749717522,-2.0,0.0,0.0,4.0,5.0,3.0,0.0,0.0,4.0,0.0,6.28,88.19,16.48,
9.958,86.58414454387018,72.11027749717522,-2.0,0.0,0.0,4.0,5.0,3.0,0.0,0.0,4.0,0.0,6.28,88.19,16.38,
9.972,86.60741445438701,72.14602774971752,-2.0,0.0,0.0,5.0,5.0,3.0,0.0,0.0,4.0,0.0,6.28,88.29,16.38,
9.986,86.6907414454387,72.17660277497176,-2.0,0.0,0.0,5.0,5.0,3.0,0.0,0.0,4.0,0.0,6.28,88.29,16.38,
9.999,86.66307414454387,72.14366027749718,-2.0,0.0,0.0,4.0,5.0,3.0,0.0,0.0,4.0,0.0,6.38,88.29,16.38,
10.013,86.63330741445438,72.16736602774972,-2.0,0.0,0.0,5.0,5.0,3.0,0.0,0.0,4.0,0.0,6.38,88.39,16.38,
10.027,86.57633074144543,72.16973660277498,-2.0,0.0,0.0,5.0,5.0,3.0,0.0,0.0,4.0,0.0,6.38,88.29,16.28,
10.041,86.63363307414454,72.1789736602775,-2.0,0.0,0.0,5.0,5.0,3.0,0.0,0.0,4.0,0.0,6.28,88.29,16.19,
10.054,86.59436330741447,72.19789736602775,-2.0,0.0,0.0,5.0,5.0,3.0,0.0,0.0,4.0,0.0,6.38,88.19,16.38,
10.067,86.62643633074144,72.19078973660278,-2.0,0.0,0.0,5.0,5.0,3.0,0.0,0.0,4.0,0.0,6.38,88.09,16.38,
10.082,86.56664363307415,72.14507897366028,-2.0,0.0,0.0,5.0,5.0,3.0,0.0,0.0,4.0,0.0,6.38,88.09,16.28,
10.095,86.62366436330741,72.12250789736603,-2.0,0.0,0.0,5.0,5.0,3.0,0.0,0.0,4.0,0.0,6.38,88.29,16.28,
10.109,86.61136643633074,72.1652507897366,-2.0,0.0,0.0,5.0,5.0,3.0,0.0,0.0,4.0,0.0,6.28,88.19,16.38,
10.123,86.61013664363307,72.15152507897366,-2.0,0.0,0.0,5.0,5.0,3.0,0.0,0.0,4.0,0.0,6.38,88.09,16.38,
10.137,86.63701366436331,72.17715250789738,-2.0,0.0,0.0,5.0,5.0,3.0,0.0,0.0,4.0,0.0,6.38,87.9,16.38,
10.15,86.62170136643634,72.15271525078974,-2.0,0.0,-1.0,5.0,5.0,3.0,0.0,0.0,4.0,0.0,6.38,87.6,16.28,
10.165,86.58417013664364,72.15027152507898,-2.0,0.0,-1.0,5.0,5.0,3.0,0.0,0.0,4.0,0.0,6.38,87.51,16.28,
10.179,86.58041701366436,72.1590271525079,-2.0,0.0,0.0,5.0,5.0,3.0,0.0,0.0,4.0,0.0,6.38,87.41,16.19,
10.192,86.60704170136643,72.1689027152508,-2.0,0.0,0.0,5.0,5.0,3.0,0.0,0.0,4.0,0.0,6.38,87.31,16.28,
10.207,86.64570417013665,72.13389027152508,-2.0,0.0,0.0,5.0,5.0,3.0,0.0,0.0,4.0,0.0,6.38,87.21,16.28,
10.22,86.69457041701367,72.1213890271525,-2.0,0.0,0.0,5.0,5.0,3.0,0.0,0.0,4.0,0.0,6.38,87.21,16.38,
10.234,86.64545704170136,72.15613890271526,-2.0,0.0,0.0,5.0,5.0,3.0,0.0,0.0,4.0,0.0,6.38,87.21,16.48,
10.248,86.62254570417015,72.23161389027152,-2.0,0.0,0.0,5.0,5.0,3.0,0.0,0.0,4.0,0.0,6.38,87.31,16.48,
10.262,86.62925457041702,72.29316138902715,-2.0,-1.0,0.0,5.0,5.0,3.0,0.0,0.0,4.0,0.0,6.47,87.31,16.48,
10.276,86.6659254570417,72.26331613890272,-2.0,0.0,-1.0,5.0,5.0,3.0,0.0,0.0,4.0,0.0,6.38,87.31,16.48,
10.29,86.59759254570417,72.27833161389027,-2.0,0.0,0.0,5.0,5.0,3.0,0.0,0.0,4.0,0.0,6.38,87.41,16.58,
10.304,86.64475925457043,72.27983316138904,-2.0,0.0,0.0,5.0,5.0,3.0,0.0,0.0,4.0,0.0,6.38,87.51,16.48,
10.317,86.61347592545704,72.28898331613891,-2.0,0.0,0.0,5.0,5.0,3.0,0.0,0.0,4.0,0.0,6.38,87.7,16.48,
10.332,86.6013475925457,72.2808983316139,-2.0,0.0,-1.0,5.0,5.0,3.0,0.0,0.0,4.0,0.0,6.38,87.7,16.38,
10.346,86.59113475925457,72.2800898331614,-2.0,0.0,0.0,5.0,5.0,3.0,0.0,0.0,4.0,0.0,6.38,87.7,16.38,
10.359,86.62611347592545,72.28000898331615,-2.0,0.0,0.0,5.0,5.0,3.0,0.0,0.0,4.0,0.0,6.28,87.41,16.38,
10.374,86.58461134759254,72.25300089833162,-2.0,0.0,0.0,5.0,5.0,3.0,0.0,0.0,4.0,0.0,6.28,86.92,16.28,
10.387,86.55346113475925,72.20530008983316,-2.0,0.0,-1.0,5.0,5.0,3.0,0.0,0.0,4.0,0.0,6.28,86.92,16.28,
10.401,86.54134611347594,72.20953000898331,-2.0,0.0,0.0,5.0,5.0,3.0,0.0,0.0,4.0,0.0,6.18,86.92,16.19,
10.415,86.5311346113476,72.19195300089834,-2.0,0.0,0.0,5.0,5.0,3.0,0.0,0.0,4.0,0.0,6.18,87.01,16.19,
10.429,86.50311346113477,72.23519530008983,-2.0,-1.0,0.0,5.0,5.0,3.0,0.0,0.0,4.0,0.0,6.28,87.21,16.19,
10.443,86.51831134611348,72.22151953000899,-2.0,0.0,0.0,4.0,5.0,3.0,0.0,0.0,4.0,0.0,6.28,87.41,16.09,
10.457,86.44783113461135,72.2651519530009,-2.0,0.0,0.0,4.0,5.0,3.0,0.0,0.0,4.0,0.0,6.18,87.51,16.19,
10.471,86.58478311346113,72.26051519530009,-2.0,0.0,-1.0,4.0,5.0,3.0,0.0,0.0,4.0,0.0,6.18,87.41,16.09,
10.484,86.58047831134611,72.21505151953,-2.0,0.0,-1.0,4.0,5.0,3.0,0.0,0.0,4.0,0.0,6.08,87.31,15.99,
10.499,86.5800478311346,72.192505151953,-2.0,0.0,0.0,4.0,5.0,3.0,0.0,0.0,4.0,0.0,6.18,87.41,15.89,
10.512,86.51700478311346,72.1812505151953,-2.0,-1.0,0.0,4.0,5.0,3.0,0.0,0.0,4.0,0.0,6.08,87.41,15.79,
10.526,86.54670047831134,72.15312505151954,-2.0,0.0,0.0,4.0,5.0,3.0,0.0,0.0,4.0,0.0,5.98,87.6,15.79,
10.541,86.54967004783113,72.22231250515196,-2.0,0.0,0.0,4.0,5.0,3.0,0.0,0.0,4.0,0.0,5.98,87.8,15.79,
10.554,86.54096700478313,72.21123125051518,-2.0,-1.0,0.0,4.0,5.0,3.0,0.0,0.0,4.0,0.0,5.98,88.0,15.7,
10.568,86.5670967004783,72.21912312505152,-2.0,0.0,0.0,4.0,5.0,3.0,0.0,0.0,4.0,0.0,5.98,88.19,15.79,
10.582,86.49770967004783,72.21991231250516,-2.0,0.0,0.0,4.0,5.0,3.0,0.0,0.0,4.0,0.0,5.89,88.58,15.6,
10.596,86.48177096700479,72.18399123125052,-2.0,0.0,0.0,4.0,5.0,3.0,0.0,0.0,4.0,0.0,5.89,88.58,15.5,
10.609,86.47117709670049,72.19839912312506,-2.0,-1.0,-1.0,4.0,5.0,3.0,0.0,0.0,4.0,0.0,5.89,88.58,15.4,
10.624,86.47911770967005,72.19983991231251,-2.0,0.0,0.0,4.0,5.0,3.0,0.0,0.0,4.0,0.0,5.79,88.58,15.3,
10.637,86.470911770967,72.19098399123125,-2.0,-1.0,-1.0,4.0,5.0,3.0,0.0,0.0,4.0,0.0,5.69,88.88,15.3,
10.651,86.4790911770967,72.16309839912313,-2.0,0.0,0.0,4.0,5.0,3.0,0.0,0.0,4.0,0.0,5.59,88.98,15.3,
10.664,86.48890911770967,72.11530983991231,-2.0,0.0,0.0,4.0,5.0,3.0,0.0,0.0,4.0,0.0,5.59,88.98,15.11,
10.679,86.53489091177097,72.17353098399123,-2.0,0.0,0.0,4.0,5.0,3.0,0.0,0.0,4.0,0.0,5.59,88.88,15.11,
10.692,86.5394890911771,72.14335309839912,-2.0,-1.0,0.0,4.0,5.0,3.0,0.0,0.0,4.0,0.0,5.69,89.17,15.01,
10.706,86.48594890911772,72.14933530983991,-2.0,0.0,0.0,4.0,5.0,3.0,0.0,0.0,4.0,0.0,5.59,89.47,15.01,
10.72,86.45359489091177,72.14993353098399,-2.0,0.0,0.0,4.0,5.0,3.0,0.0,0.0,4.0,0.0,5.59,89.76,15.01,
10.734,86.43235948909118,72.1589933530984,-2.0,0.0,0.0,4.0,5.0,3.0,0.0,0.0,4.0,0.0,5.59,89.96,14.91,
10.748,86.38523594890913,72.24089933530985,-2.0,0.0,0.0,4.0,5.0,3.0,0.0,0.0,4.0,0.0,5.59,90.35,14.91,
10.762,86.37152359489092,72.18608993353098,-2.0,0.0,0.0,4.0,5.0,3.0,0.0,0.0,4.0,0.0,5.49,90.45,15.01,
10.776,86.3341523594891,72.23460899335309,-2.0,0.0,0.0,4.0,5.0,3.0,0.0,0.0,4.0,0.0,5.49,90.45,15.01,
10.789,86.3034152359489,72.2394608993353,-2.0,0.0,0.0,4.0,5.0,3.0,0.0,0.0,4.0,0.0,5.49,90.45,14.91,
10.804,86.3453415235949,72.24894608993354,-2.0,0.0,0.0,4.0,5.0,3.0,0.0,0.0,4.0,0.0,5.4,90.35,14.91,
10.817,86.3585341523595,72.29489460899335,-2.0,0.0,0.0,4.0,5.0,3.0,0.0,0.0,4.0,0.0,5.49,90.45,15.01,
10.831,86.34185341523595,72.29048946089934,-2.0,0.0,0.0,4.0,5.0,3.0,0.0,0.0,4.0,0.0,5.59,90.45,14.91,
10.845,86.3581853415236,72.25404894608994,-2.0,0.0,0.0,4.0,5.0,3.0,0.0,0.0,4.0,0.0,5.59,90.45,14.91,
10.859,86.41381853415237,72.26840489460898,-2.0,0.0,-1.0,4.0,5.0,3.0,0.0,0.0,4.0,0.0,5.59,90.25,14.91,
10.873,86.37438185341524,72.2788404894609,-2.0,0.0,0.0,4.0,5.0,3.0,0.0,0.0,4.0,0.0,5.69,90.15,15.01,
10.887,86.38843818534153,72.29788404894609,-2.0,0.0,0.0,4.0,5.0,3.0,0.0,0.0,4.0,0.0,5.69,90.06,15.11,
10.901,86.35384381853416,72.3267884048946,-2.0,0.0,0.0,4.0,5.0,3.0,0.0,0.0,4.0,0.0,5.59,89.96,15.11,
10.914,86.35038438185342,72.26667884048946,-2.0,0.0,0.0,4.0,5.0,3.0,0.0,0.0,4.0,0.0,5.69,89.76,15.11,
10.929,86.36803843818535,72.26966788404894,-2.0,0.0,0.0,4.0,5.0,3.0,0.0,0.0,4.0,0.0,5.69,89.66,15.11,
10.942,86.34280384381853,72.2069667884049,-2.0,0.0,0.0,4.0,5.0,3.0,0.0,0.0,4.0,0.0,5.69,89.66,15.11,
10.956,86.36728038438186,72.25469667884049,-2.0,0.0,-1.0,4.0,5.0,3.0,0.0,0.0,4.0,0.0,5.59,89.47,15.11,
10.97,86.30672803843818,72.22346966788405,-2.0,0.0,0.0,4.0,5.0,3.0,0.0,0.0,4.0,0.0,5.69,88.58,15.11,
10.984,86.38167280384383,72.15734696678841,-1.0,0.0,0.0,4.0,5.0,3.0,0.0,0.0,4.0,0.0,5.69,87.51,14.81,
10.998,86.41616728038439,72.22273469667884,-1.0,0.0,0.0,4.0,5.0,3.0,0.0,0.0,4.0,0.0,5.59,85.94,14.52,
11.012,86.50061672803845,72.25627346966789,-2.0,-1.0,0.0,4.0,5.0,3.0,0.0,0.0,3.0,0.0,5.4,83.78,14.22,
11.026,86.58106167280386,72.19662734696679,-3.0,-1.0,-3.0,4.0,5.0,3.0,0.0,0.0,3.0,0.0,5.4,78.48,13.83,
11.039,86.58010616728038,72.20866273469667,-3.0,-4.0,-5.0,4.0,5.0,3.0,0.0,0.0,3.0,0.0,5.3,75.24,12.75,
11.054,86.52601061672803,72.16486627346967,-3.0,-1.0,-5.0,4.0,5.0,3.0,0.0,0.0,3.0,0.0,4.51,71.42,11.97,
11.068,86.5656010616728,72.09748662734697,-4.0,-3.0,-6.0,4.0,4.0,3.0,0.0,0.0,2.0,0.0,4.02,67.1,11.18,
11.081,86.42556010616728,72.01874866273471,-4.0,-3.0,-8.0,3.0,4.0,3.0,0.0,0.0,2.0,0.0,3.63,57.29,10.3,
11.096,86.15055601061674,71.94787486627347,-5.0,-6.0,0.0,3.0,4.0,2.0,0.0,0.0,2.0,0.0,3.14,52.19,8.53,
11.109,86.45605560106166,71.92278748662736,-5.0,-8.0,-8.0,3.0,4.0,2.0,0.0,0.0,2.0,0.0,2.94,46.99,7.75,
11.123,86.18060556010617,72.01027874866273,-3.0,-10.0,-3.0,2.0,3.0,2.0,0.0,0.0,2.0,0.0,2.45,41.69,6.97,
11.138,86.03606055601061,72.12702787486627,-1.0,-8.0,-1.0,2.0,3.0,2.0,0.0,0.0,2.0,0.0,2.26,31.1,6.28,
11.151,86.39960605560107,71.95870278748662,-3.0,-4.0,5.0,2.0,3.0,2.0,0.0,0.0,1.0,0.0,2.16,26.29,5.1,
11.165,86.49896060556011,71.91487027874865,-2.0,-7.0,1.0,1.0,3.0,2.0,0.0,0.0,1.0,0.0,1.86,22.27,4.51,
11.179,86.11289606055601,72.06348702787486,-3.0,-9.0,1.0,1.0,3.0,2.0,0.0,0.0,1.0,0.0,1.47,19.23,3.83,
11.192,86.01128960605561,72.22234870278747,-5.0,-7.0,-1.0,1.0,2.0,1.0,0.0,0.0,1.0,0.0,1.18,15.7,3.24,
11.206,85.86612896060556,71.99523487027874,-6.0,-5.0,-1.0,1.0,2.0,1.0,0.0,0.0,1.0,0.0,0.88,15.01,2.55,
11.219,85.59961289606055,71.96352348702787,-6.0,-5.0,0.0,1.0,2.0,1.0,0.0,0.0,0.0,0.0,0.59,14.72,2.26,
11.234,85.40196128960605,71.9063523487028,-5.0,-1.0,0.0,1.0,2.0,1.0,0.0,0.0,0.0,0.0,0.29,15.01,1.96,
11.247,85.4181961289606,71.84663523487029,-5.0,-1.0,0.0,1.0,2.0,1.0,0.0,0.0,0.0,0.0,0.2,18.25,1.77,
11.261,85.33881961289606,71.94866352348703,-5.0,1.0,0.0,1.0,2.0,1.0,0.0,0.0,0.0,0.0,0.0,21.29,1.47,
11.275,85.25888196128962,71.8958663523487,-4.0,3.0,0.0,1.0,2.0,1.0,0.0,0.0,0.0,0.0,0.0,25.31,1.37,
11.288,85.16088819612897,71.84558663523488,-4.0,6.0,0.0,1.0,2.0,1.0,0.0,0.0,0.0,0.0,0.0,30.21,1.47,
11.301,85.01608881961289,71.73255866352349,-2.0,9.0,1.0,2.0,2.0,2.0,0.0,0.0,0.0,0.0,0.0,36.3,1.67,
11.316,85.05560888196129,71.64025586635235,0.0,14.0,0.0,2.0,3.0,2.0,0.0,0.0,0.0,0.0,0.0,51.11,1.86,
11.329,85.04156088819613,71.66702558663523,1.0,14.0,0.0,3.0,3.0,2.0,0.0,0.0,0.0,0.0,0.0,59.64,2.65,
11.343,85.38215608881961,71.71470255866352,0.0,16.0,0.0,3.0,4.0,2.0,0.0,0.0,0.0,0.0,0.0,68.87,3.53,
11.357,85.55121560888195,71.80947025586634,1.0,18.0,-1.0,3.0,4.0,3.0,0.0,0.0,0.0,0.0,0.0,78.48,4.51,
11.371,85.8921215608882,71.65694702558663,1.0,18.0,-3.0,4.0,5.0,3.0,0.0,0.0,0.0,0.0,0.0,98.1,5.49,
11.384,86.15121215608883,71.65969470255867,1.0,20.0,-5.0,4.0,5.0,3.0,0.0,0.0,1.0,0.0,0.0,107.81,8.04,
11.399,86.59112121560888,71.64196947025586,1.0,18.0,-2.0,4.0,6.0,3.0,0.0,0.0,1.0,0.0,0.2,116.94,9.91,
11.413,86.98611212156088,71.68519694702559,2.0,14.0,0.0,5.0,6.0,4.0,0.0,0.0,2.0,1.0,1.18,125.57,11.97,
11.426,87.30461121215609,71.67151969470255,2.0,12.0,0.0,5.0,6.0,4.0,0.0,0.0,2.0,1.0,3.43,140.09,13.83,
11.441,87.64246112121562,71.74215196947026,1.0,15.0,-1.0,5.0,7.0,4.0,0.0,0.0,3.0,1.0,4.61,146.07,17.56,
11.455,87.97324611212156,71.98321519694704,1.0,10.0,0.0,5.0,7.0,4.0,0.0,0.0,3.0,1.0,5.79,151.27,19.42,
11.468,88.08732461121215,72.0163215196947,1.0,5.0,-1.0,5.0,8.0,4.0,0.0,0.0,3.0,1.0,6.87,159.8,21.09,
11.483,88.29673246112121,72.11863215196946,1.0,6.0,0.0,5.0,8.0,4.0,0.0,0.0,3.0,1.0,8.93,163.04,24.52,
11.497,88.22767324611212,72.20986321519695,0.0,5.0,-1.0,5.0,8.0,4.0,0.0,0.0,4.0,2.0,10.01,165.79,26.19,
11.51,88.47276732461121,72.3269863215197,0.0,5.0,-4.0,5.0,9.0,4.0,0.0,0.0,4.0,2.0,10.99,167.95,27.86,
11.525,88.27227673246111,72.61769863215197,0.0,5.0,-4.0,4.0,9.0,4.0,0.0,0.0,4.0,2.0,11.97,170.79,29.63,
11.539,88.40522767324612,72.6917698632152,0.0,4.0,-6.0,4.0,9.0,4.0,0.0,0.0,4.0,2.0,13.64,171.87,31.78,
11.552,88.41852276732462,72.80717698632151,-1.0,5.0,-6.0,3.0,9.0,4.0,0.0,0.0,4.0,2.0,14.52,172.75,32.18,
11.567,88.59985227673246,72.90871769863215,-1.0,3.0,-5.0,3.0,9.0,4.0,0.0,0.0,4.0,2.0,15.21,173.83,32.47,
11.581,88.59998522767324,72.90087176986323,-2.0,4.0,-6.0,3.0,9.0,4.0,0.0,0.0,4.0,2.0,15.99,177.66,32.47,
11.595,88.69899852276733,72.85508717698632,-3.0,2.0,-5.0,3.0,10.0,4.0,0.0,0.0,4.0,2.0,17.36,179.92,32.77,
11.61,88.79889985227673,72.81450871769864,-3.0,1.0,-4.0,3.0,10.0,4.0,0.0,0.0,4.0,2.0,17.85,181.68,33.16,
11.624,88.85388998522768,72.71145087176987,-3.0,1.0,-4.0,4.0,10.0,4.0,0.0,0.0,4.0,2.0,18.34,182.96,33.55,
11.638,89.08438899852277,72.683145087177,-3.0,1.0,-4.0,4.0,10.0,4.0,0.0,0.0,4.0,2.0,18.54,185.61,34.14,
11.652,88.99943889985227,72.6893145087177,-2.0,1.0,-4.0,7.0,10.0,4.0,0.0,0.0,4.0,2.0,19.03,186.88,33.84,
11.666,89.10794388998524,72.64493145087178,-2.0,1.0,-3.0,7.0,10.0,4.0,0.0,0.0,4.0,2.0,19.42,188.45,33.35,
11.68,89.05579438899852,72.58649314508718,-2.0,1.0,-2.0,7.0,10.0,4.0,0.0,0.0,4.0,2.0,19.82,191.49,32.67,
11.695,89.11357943889986,72.58964931450872,-2.0,0.0,-2.0,7.0,10.0,4.0,0.0,0.0,4.0,2.0,20.11,192.86,31.69,
11.709,89.17335794389,72.62596493145088,-2.0,0.0,-3.0,7.0,10.0,4.0,0.0,0.0,4.0,2.0,20.7,193.94,31.29,
11.723,89.314335794389,72.57559649314508,-1.0,0.0,-3.0,7.0,10.0,4.0,0.0,0.0,4.0,2.0,20.99,194.53,31.0,
11.738,89.2564335794389,72.5525596493145,-1.0,-1.0,-3.0,7.0,10.0,4.0,0.0,0.0,4.0,2.0,21.39,193.26,30.8,
11.752,89.28664335794389,72.59525596493145,-1.0,0.0,-3.0,7.0,11.0,4.0,0.0,0.0,4.0,2.0,21.78,191.79,30.71,
11.766,89.37066433579437,72.61752559649315,-1.0,0.0,-3.0,7.0,11.0,4.0,0.0,0.0,4.0,2.0,22.56,189.92,30.71,
11.781,89.39706643357944,72.63775255964931,-1.0,-1.0,-4.0,7.0,11.0,4.0,0.0,0.0,4.0,2.0,22.96,185.9,30.9,
11.795,89.39970664335794,72.60377525596493,-1.0,0.0,-4.0,7.0,11.0,4.0,0.0,0.0,4.0,2.0,23.25,183.84,31.29,
11.808,89.45397066433578,72.5733775255965,0.0,-1.0,-3.0,7.0,11.0,4.0,0.0,0.0,4.0,2.0,23.64,181.09,31.69,
11.823,89.36939706643358,72.60633775255965,0.0,-2.0,-3.0,7.0,11.0,4.0,0.0,0.0,4.0,2.0,23.74,177.56,32.27,
11.837,89.30693970664336,72.53763377525597,0.0,-1.0,-3.0,7.0,11.0,4.0,0.0,0.0,5.0,2.0,23.74,167.85,34.92,
11.851,89.35469397066434,72.5667633775256,0.0,0.0,-4.0,7.0,11.0,4.0,0.0,0.0,5.0,2.0,23.84,162.06,36.69,
11.866,89.29646939706643,72.61467633775257,0.0,0.0,-4.0,7.0,11.0,4.0,0.0,0.0,5.0,2.0,23.74,156.27,38.75,
11.88,89.54264693970664,72.68246763377526,1.0,0.0,-4.0,7.0,11.0,4.0,0.0,0.0,5.0,2.0,23.45,144.5,40.81,
11.893,89.49526469397065,72.66224676337752,0.0,-1.0,-2.0,7.0,11.0,4.0,0.0,0.0,6.0,2.0,23.25,138.71,44.93,
11.908,89.76052646939706,72.67822467633776,0.0,0.0,-4.0,7.0,11.0,4.0,0.0,0.0,6.0,2.0,23.25,133.51,46.7,
11.922,89.8950526469397,72.71582246763379,1.0,0.0,0.0,7.0,11.0,4.0,0.0,0.0,6.0,2.0,23.64,128.81,48.17,
11.936,90.02550526469398,72.89958224676337,1.0,-1.0,-2.0,7.0,11.0,4.0,0.0,0.0,6.0,2.0,23.84,120.66,49.54,
11.951,89.9125505264694,72.94495822467634,1.0,-2.0,-1.0,7.0,11.0,4.0,0.0,0.0,6.0,2.0,24.23,117.43,51.21,
11.965,89.87425505264694,73.12049582246765,1.0,-1.0,-2.0,7.0,11.0,4.0,0.0,0.0,6.0,2.0,24.72,114.68,51.7,
11.979,89.8434255052647,73.17404958224677,1.0,-2.0,0.0,7.0,11.0,4.0,0.0,0.0,6.0,2.0,25.41,109.68,52.29,
11.993,89.84934255052646,73.17940495822468,1.0,0.0,-1.0,7.0,11.0,5.0,0.0,0.0,6.0,2.0,25.7,107.13,53.37,
12.007,89.85893425505265,73.19794049582248,2.0,-1.0,-1.0,7.0,11.0,4.0,0.0,0.0,6.0,2.0,25.9,104.77,53.76,
12.021,89.76089342550527,73.19079404958224,1.0,0.0,-1.0,7.0,11.0,4.0,0.0,0.0,6.0,2.0,26.19,102.61,54.05,
12.036,89.70608934255053,73.27107940495821,1.0,0.0,-1.0,8.0,11.0,4.0,0.0,0.0,7.0,2.0,27.08,99.38,54.25,
12.049,89.74560893425506,73.30610794049582,2.0,0.0,-1.0,7.0,11.0,4.0,0.0,0.0,7.0,2.0,27.66,98.1,54.54,
12.063,89.74956089342551,73.41761079404958,2.0,0.0,0.0,8.0,11.0,4.0,0.0,0.0,7.0,2.0,28.15,96.73,54.45,
12.078,89.79495608934255,73.50976107940495,1.0,1.0,0.0,8.0,11.0,4.0,0.0,0.0,7.0,2.0,28.84,95.65,54.15,
12.091,90.06949560893426,73.7079761079405,0.0,-1.0,0.0,8.0,11.0,4.0,0.0,0.0,7.0,2.0,30.51,95.84,52.88,
12.105,89.98894956089342,73.82679761079405,1.0,0.0,0.0,8.0,12.0,4.0,0.0,0.0,7.0,2.0,31.29,96.92,51.89,
12.12,89.95389495608934,73.8836797610794,1.0,-1.0,0.0,8.0,12.0,4.0,0.0,0.0,7.0,2.0,31.98,98.49,50.91,
12.134,89.90538949560894,73.95236797610794,1.0,-4.0,1.0,8.0,12.0,4.0,0.0,0.0,7.0,2.0,32.57,99.87,49.83,
12.147,89.8555389495609,74.05823679761079,0.0,1.0,-1.0,8.0,12.0,4.0,0.0,0.0,7.0,2.0,33.65,101.73,47.87,
12.162,89.76955389495609,74.12282367976107,1.0,-6.0,3.0,8.0,12.0,4.0,0.0,0.0,7.0,2.0,34.24,102.32,46.79,
12.176,89.7519553894956,74.1562823679761,0.0,0.0,0.0,8.0,12.0,5.0,0.0,0.0,7.0,2.0,34.73,102.91,45.81,
12.19,89.45319553894957,74.13262823679761,0.0,-1.0,0.0,8.0,1.0,5.0,0.0,0.0,7.0,2.0,35.22,104.28,44.64,
12.205,89.43231955389496,74.13026282367976,0.0,-4.0,2.0,8.0,0.0,5.0,0.0,0.0,7.0,2.0,36.4,104.67,42.48,
12.219,89.1782319553895,74.12102628236799,0.0,-3.0,2.0,8.0,0.0,5.0,0.0,0.0,7.0,2.0,36.98,104.77,41.3,
12.233,89.15282319553896,74.2011026282368,0.0,-2.0,1.0,8.0,0.0,5.0,0.0,0.0,7.0,2.0,37.57,104.77,40.22,
12.247,88.7722823195539,74.08311026282368,0.0,-3.0,2.0,8.0,1.0,5.0,0.0,0.0,7.0,2.0,38.16,104.38,38.16,
12.261,88.74322823195538,74.14331102628238,0.0,0.0,0.0,8.0,1.0,5.0,0.0,0.0,7.0,2.0,39.14,103.5,37.38,
12.275,88.84832282319555,74.17633110262825,0.0,-1.0,1.0,8.0,1.0,5.0,0.0,0.0,7.0,3.0,39.73,102.32,36.59,
12.29,88.84983228231955,74.33263311026282,0.0,-4.0,1.0,8.0,1.0,5.0,0.0,0.0,7.0,3.0,40.12,99.57,36.0,
12.304,88.85898322823195,74.38426331102629,0.0,0.0,0.0,8.0,1.0,5.0,0.0,0.0,7.0,3.0,40.61,98.49,35.02,
12.317,88.8688983228232,74.38942633110264,0.0,-1.0,1.0,8.0,1.0,5.0,0.0,0.0,8.0,3.0,41.4,97.81,34.63,
12.332,88.65388983228232,74.45294263311025,0.0,0.0,0.0,8.0,1.0,5.0,0.0,0.0,8.0,3.0,41.79,97.22,34.53,
12.346,88.80338898322823,74.50429426331104,-2.0,1.0,0.0,8.0,2.0,5.0,0.0,0.0,8.0,3.0,42.18,96.14,34.43,
12.359,88.77333889832282,74.5454294263311,-2.0,-1.0,1.0,8.0,1.0,5.0,0.0,0.0,8.0,3.0,42.18,95.94,33.75,
12.374,88.84233388983228,74.47754294263311,-3.0,1.0,0.0,8.0,1.0,5.0,0.0,0.0,8.0,3.0,41.01,96.14,33.16,
12.388,88.86723338898324,74.4707542942633,-2.0,0.0,0.0,8.0,1.0,5.0,0.0,0.0,8.0,3.0,40.12,96.92,32.47,
12.402,88.93272333889833,74.47907542942635,-1.0,0.0,1.0,8.0,1.0,5.0,0.0,0.0,8.0,3.0,39.14,99.47,31.2,
12.417,88.98427233388982,74.46190754294263,-1.0,-2.0,2.0,8.0,1.0,5.0,0.0,0.0,8.0,3.0,38.26,100.55,30.51,
12.431,88.88142723338899,74.53219075429428,-1.0,-1.0,2.0,8.0,1.0,5.0,0.0,0.0,8.0,3.0,36.98,101.44,30.21,
12.444,88.8261427233389,74.53021907542943,0.0,-1.0,0.0,8.0,1.0,5.0,0.0,0.0,8.0,3.0,36.59,101.34,29.92,
12.459,88.82961427233388,74.50302190754294,1.0,-1.0,0.0,8.0,2.0,5.0,0.0,0.0,8.0,3.0,36.2,100.26,30.12,
12.473,88.78496142723338,74.5363021907543,3.0,-3.0,0.0,8.0,1.0,5.0,0.0,0.0,8.0,3.0,36.1,97.81,30.8,
12.487,88.77149614272334,74.62963021907544,4.0,-1.0,0.0,8.0,12.0,5.0,0.0,0.0,9.0,3.0,36.89,93.69,31.88,
12.502,88.86014961427233,74.80996302190754,5.0,-5.0,0.0,8.0,0.0,5.0,0.0,0.0,9.0,3.0,37.57,81.23,34.43,
12.516,88.74301496142724,74.89999630219074,5.0,-3.0,0.0,8.0,1.0,5.0,0.0,0.0,9.0,3.0,38.36,74.56,35.71,
12.529,88.74930149614272,75.05299963021908,6.0,-5.0,0.0,8.0,0.0,5.0,0.0,0.0,9.0,3.0,39.44,68.38,37.08,
12.544,88.69593014961427,75.10429996302192,9.0,-7.0,0.0,8.0,1.0,5.0,0.0,0.0,10.0,3.0,42.08,62.39,38.55,
12.558,88.33959301496142,75.19942999630219,11.0,-6.0,-2.0,8.0,1.0,5.0,0.0,0.0,10.0,3.0,43.65,49.15,41.89,
12.572,88.40295930149614,75.35294299963023,11.0,-8.0,-5.0,8.0,2.0,5.0,0.0,0.0,10.0,3.0,45.42,41.59,44.05,
12.587,88.22029593014962,75.59329429996303,15.0,-11.0,-9.0,8.0,2.0,5.0,0.0,0.0,11.0,3.0,49.64,33.55,46.4,
12.601,87.88702959301496,75.59932942999629,18.0,-1.0,18.0,8.0,2.0,5.0,0.0,0.0,11.0,3.0,52.09,16.87,51.4,
12.615,88.31270295930149,75.99593294299963,17.0,-1.0,1.0,8.0,2.0,5.0,0.0,0.0,12.0,3.0,54.45,9.61,54.05,
12.63,88.22927029593015,76.81859329429996,22.0,-12.0,4.0,8.0,1.0,5.0,0.0,0.0,0.0,3.0,56.8,3.53,56.6,
12.644,87.84292702959301,76.84685932942999,25.0,0.0,-2.0,7.0,1.0,5.0,0.0,0.0,1.0,3.0,61.21,0.0,58.96,
12.658,87.8762927029593,77.65068593294299,32.0,-4.0,-3.0,6.0,0.0,5.0,1.0,0.0,2.0,3.0,63.27,0.0,62.59,
12.672,87.41162927029592,78.3160685932943,41.0,0.0,-2.0,5.0,12.0,5.0,1.0,0.0,4.0,3.0,65.43,0.0,63.08,
12.686,86.9151629270296,78.41860685932943,47.0,23.0,25.0,5.0,11.0,4.0,1.0,0.0,5.0,3.0,67.49,0.0,62.59,
12.7,88.10751629270295,78.14986068593295,48.0,27.0,-8.0,3.0,11.0,4.0,1.0,0.0,8.0,3.0,70.34,1.08,61.02,
12.715,88.5597516292703,77.9069860685933,58.0,11.0,-37.0,2.0,11.0,4.0,1.0,0.0,6.0,3.0,71.22,1.28,56.11,
12.729,88.22697516292702,77.83769860685932,68.0,0.0,-22.0,0.0,9.0,3.0,1.0,0.0,7.0,3.0,72.3,0.98,52.48,
12.743,88.16669751629269,77.81276986068595,75.0,3.0,-28.0,0.0,8.0,2.0,1.0,0.0,8.0,4.0,73.28,0.69,47.77,
12.756,87.83666975162926,78.84527698606858,114.0,20.0,-80.0,0.0,7.0,1.0,1.0,0.0,8.0,4.0,73.58,0.1,34.34,
12.771,87.20066697516293,79.52452769860686,123.0,37.0,-61.0,0.0,6.0,0.0,1.0,0.0,8.0,4.0,72.99,0.0,26.19,
12.785,86.9750666975163,78.44945276986068,125.0,33.0,-12.0,0.0,6.0,0.0,0.0,0.0,6.0,4.0,71.61,0.0,19.03,
12.8,88.05050666975164,81.27594527698608,72.0,18.0,28.0,0.0,5.0,0.0,0.0,0.0,5.0,4.0,69.06,0.0,14.32,
12.814,89.00405066697516,82.08959452769861,120.0,21.0,-13.0,0.0,5.0,0.0,0.0,0.0,3.0,4.0,59.84,0.0,7.46,
12.828,90.24240506669751,83.62895945276986,120.0,2.0,-9.0,0.0,5.0,0.0,0.0,0.0,1.0,4.0,52.88,0.0,4.91,
12.841,90.55524050666975,84.295895945277,131.0,10.0,-15.0,0.0,6.0,0.0,0.0,0.0,12.0,3.0,44.54,0.0,3.04,
12.856,91.69352405066697,86.0005895945277,132.0,0.0,-15.0,0.0,6.0,0.0,0.0,0.0,11.0,3.0,34.92,0.0,1.86,
12.869,92.45535240506669,88.22305895945277,120.0,-2.0,-6.0,0.0,6.0,0.0,0.0,0.0,9.0,3.0,18.25,0.0,0.69,
12.883,92.36953524050666,90.67730589594528,116.0,0.0,-4.0,0.0,6.0,0.0,0.0,0.0,8.0,3.0,12.36,0.0,0.39,
12.897,93.43195352405066,93.68573058959453,113.0,0.0,-3.0,0.0,6.0,0.0,0.0,0.0,7.0,3.0,8.93,0.0,0.29,
12.911,94.24019535240507,94.95857305895946,107.0,-23.0,13.0,0.0,6.0,0.0,0.0,0.0,6.0,3.0,7.36,0.0,0.1,
12.924,95.1940195352405,96.53485730589594,92.0,-43.0,16.0,0.0,5.0,0.0,0.0,0.0,5.0,3.0,4.71,0.0,0.1,
12.939,95.61340195352405,97.79048573058961,95.0,-55.0,31.0,0.0,4.0,0.0,0.0,0.0,4.0,2.0,3.14,0.0,0.2,
12.952,96.01534019535241,98.14104857305897,93.0,-69.0,37.0,0.0,3.0,0.0,0.0,0.0,3.0,2.0,1.67,0.0,0.29,
12.966,96.31653401953524,98.3381048573059,80.0,-59.0,21.0,0.0,3.0,0.0,0.0,0.0,2.0,1.0,0.2,0.0,0.39,
12.98,94.98765340195354,97.43981048573059,73.0,-35.0,3.0,0.0,2.0,0.0,0.0,0.0,1.0,1.0,0.0,0.0,0.39,
12.993,94.72876534019535,96.79198104857306,54.0,0.0,-20.0,0.0,2.0,0.0,0.0,0.0,1.0,0.0,0.0,0.0,0.29,
13.006,94.90087653401953,96.96119810485732,48.0,-1.0,-31.0,0.0,1.0,0.0,0.0,0.0,1.0,0.0,0.0,0.0,0.2,
13.021,94.90008765340195,97.68011981048573,36.0,-4.0,-97.0,0.0,0.0,0.0,0.0,0.0,1.0,0.0,0.0,0.0,0.1,
13.034,91.57000876534019,99.04801198104857,43.0,-42.0,-54.0,0.0,0.0,0.0,0.0,0.0,1.0,0.0,0.0,0.0,0.0,
13.047,90.346000876534,97.65480119810485,46.0,-64.0,-34.0,0.0,0.0,0.0,0.0,0.0,1.0,0.0,0.0,0.0,0.0,
13.061,89.13460008765341,95.94048011981047,28.0,-66.0,-157.0,0.0,0.0,0.0,0.0,0.0,1.0,0.0,0.0,0.0,0.0,
13.074,85.86346000876534,98.61304801198105,17.0,-107.0,-145.0,0.0,0.0,0.0,0.0,0.0,1.0,0.0,0.0,0.0,0.0,
13.088,82.41334600087653,99.26730480119811,20.0,-79.0,-92.0,0.0,0.0,0.0,0.0,0.0,1.0,0.0,0.0,0.0,0.2,
13.102,79.89033460008766,100.3497304801198,-3.0,-3.0,-129.0,0.0,0.0,0.0,0.0,0.0,1.0,0.0,0.0,0.0,0.29,
13.115,78.40503346000877,100.56597304801198,-4.0,57.0,-111.0,0.0,0.0,0.0,0.0,0.0,1.0,0.0,0.29,0.0,0.29,
13.129,77.66250334600088,101.5775973048012,6.0,94.0,-63.0,0.0,0.0,0.0,0.0,0.0,1.0,0.0,0.49,0.0,0.29,
13.143,78.0652503346001,103.57775973048012,3.0,71.0,-47.0,0.0,0.0,0.0,0.0,0.0,1.0,0.0,0.69,0.0,0.2,
13.156,78.52852503346,104.12877597304801,9.0,8.0,-9.0,0.0,0.0,0.0,0.0,0.0,1.0,0.0,0.69,0.0,0.0,
13.169,76.918852503346,104.49887759730481,8.0,-12.0,1.0,0.0,0.0,0.0,0.0,0.0,1.0,0.0,0.59,0.0,0.0,
13.182,75.83088525033459,105.27388775973047,9.0,1.0,4.0,0.0,0.0,0.0,0.0,0.0,1.0,0.0,0.49,0.0,0.0,
13.196,74.90308852503345,104.90138877597303,9.0,10.0,6.0,0.0,0.0,0.0,0.0,0.0,1.0,0.0,0.88,0.0,0.1,
13.209,73.88330885250335,105.4491388775973,3.0,-3.0,-5.0,0.0,0.0,0.0,0.0,0.0,1.0,0.0,1.08,0.0,0.0,
13.222,73.18733088525033,105.89091388775974,4.0,-14.0,12.0,0.0,0.0,0.0,0.0,0.0,1.0,0.0,1.08,0.0,0.0,
13.236,72.66773308852504,106.56509138877597,0.0,9.0,9.0,0.0,0.0,0.0,0.0,0.0,1.0,0.0,1.08,0.0,0.0,
13.249,72.98477330885251,106.6505091388776,-3.0,6.0,3.0,0.0,0.0,0.0,0.0,0.0,1.0,0.0,0.98,0.0,0.0,
13.262,72.80047733088526,106.52405091388776,-6.0,0.0,-10.0,0.0,0.0,0.0,0.0,0.0,1.0,0.0,0.98,0.0,0.0,
13.277,72.71004773308853,106.23240509138877,-8.0,-11.0,-6.0,0.0,0.0,0.0,0.0,0.0,1.0,0.0,1.08,0.0,0.1,
13.29,72.13400477330885,106.38324050913889,-14.0,-2.0,-13.0,0.0,0.0,0.0,0.0,0.0,1.0,0.0,1.08,0.0,0.0,
13.303,72.31940047733089,106.55132405091388,-21.0,4.0,-8.0,0.0,0.0,0.0,0.0,0.0,1.0,0.0,1.08,0.0,0.0,
13.317,72.8419400477331,107.00913240509138,-30.0,-16.0,-5.0,0.0,0.0,0.0,0.0,0.0,1.0,0.0,0.98,0.0,0.0,
13.331,73.34419400477331,107.36991324050913,-38.0,-32.0,-6.0,0.0,0.0,0.0,0.0,0.0,1.0,0.0,0.98,0.0,0.0,
13.344,73.40341940047733,107.4509913240509,-38.0,-23.0,0.0,0.0,0.0,0.0,0.0,0.0,1.0,0.0,1.18,0.0,0.0,
13.358,74.05734194004773,107.6570991324051,-39.0,-1.0,0.0,0.0,0.0,0.0,0.0,0.0,1.0,0.0,1.28,0.0,0.0,
13.371,74.92373419400477,107.5517099132405,-38.0,-11.0,11.0,0.0,0.0,0.0,0.0,0.0,1.0,0.0,1.37,0.0,0.0,
13.385,75.37037341940048,107.50517099132405,-41.0,-13.0,15.0,0.0,0.0,0.0,0.0,0.0,1.0,0.0,1.37,0.0,0.0,
13.399,75.82003734194005,107.3475170991324,-47.0,-15.0,12.0,0.0,0.0,0.0,0.0,0.0,0.0,0.0,1.37,0.0,0.0,
13.413,75.910003734194,107.24175170991325,-53.0,-13.0,13.0,0.0,0.0,0.0,0.0,0.0,0.0,0.0,1.37,0.0,0.0,
13.426,76.0900003734194,107.23117517099132,-56.0,-13.0,11.0,0.0,0.0,0.0,0.0,0.0,0.0,0.0,1.28,0.0,0.0,
13.44,76.16200003734194,107.14011751709913,-60.0,-16.0,11.0,0.0,0.0,0.0,0.0,0.0,0.0,0.0,1.28,0.0,0.0,
13.454,76.3042000037342,107.21201175170991,-65.0,-16.0,12.0,0.0,0.0,0.0,0.0,0.0,0.0,0.0,1.28,0.0,0.1,
13.467,76.47142000037341,107.201201175171,-69.0,-23.0,10.0,0.0,0.0,0.0,0.0,0.0,0.0,0.0,1.47,0.0,0.1,
13.48,76.47914200003734,106.62412011751711,-72.0,-25.0,8.0,0.0,0.0,0.0,0.0,0.0,0.0,0.0,1.37,0.0,0.1,
13.495,76.10191420000373,106.0804120117517,-71.0,-11.0,17.0,0.0,0.0,0.0,0.0,0.0,0.0,0.0,1.37,0.0,0.0,
13.508,76.18119142000037,103.61404120117517,-75.0,1.0,7.0,0.0,0.0,0.0,0.0,0.0,0.0,0.0,1.47,0.0,0.0,
13.521,76.71111914200004,102.62040412011751,-74.0,-20.0,20.0,0.0,0.0,0.0,0.0,0.0,0.0,0.0,1.47,0.0,0.1,
13.535,76.7551119142,101.13504041201176,-83.0,-25.0,0.0,0.0,0.0,0.0,0.0,0.0,0.0,0.0,1.37,0.0,0.2,
13.549,76.58851119142,99.33050404120118,-93.0,-31.0,-10.0,0.0,0.0,0.0,0.0,0.0,0.0,0.0,1.37,0.0,0.2,
13.562,76.877851119142,96.57605040412011,-99.0,-24.0,-20.0,0.0,0.0,0.0,0.0,0.0,0.0,0.0,1.37,0.0,0.2,
13.576,76.4117851119142,95.31060504041201,-105.0,-25.0,-24.0,0.0,0.0,0.0,0.0,0.0,0.0,0.0,1.47,0.0,0.2,
13.59,75.84317851119141,93.6450605040412,-110.0,-16.0,-22.0,0.0,0.0,0.0,0.0,0.0,0.0,0.0,1.47,0.0,0.2,
13.603,75.25531785111914,92.54250605040411,-115.0,-20.0,-19.0,0.0,0.0,0.0,0.0,0.0,0.0,0.0,1.47,0.0,0.2,
13.617,74.45853178511192,91.6222506050404,-121.0,-17.0,-12.0,0.0,0.0,0.0,0.0,0.0,0.0,0.0,1.37,0.0,0.2,
13.631,73.65885317851118,90.59422506050404,-126.0,-15.0,-1.0,0.0,0.0,0.0,0.0,0.0,0.0,0.0,1.47,0.0,0.2,
13.644,73.08388531785113,89.2314225060504,-130.0,-10.0,5.0,0.0,0.0,0.0,0.0,0.0,0.0,0.0,1.47,0.0,0.29,
13.658,73.17038853178512,87.56514225060504,-133.0,-2.0,8.0,0.0,0.0,0.0,0.0,0.0,0.0,0.0,1.47,0.0,0.2,
13.671,73.63803885317851,85.94051422506051,-136.0,-2.0,6.0,0.0,0.0,0.0,0.0,0.0,0.0,0.0,1.47,0.0,0.2,
13.684,74.12580388531786,84.30205142250607,-138.0,-1.0,6.0,0.0,0.0,0.0,0.0,0.0,0.0,0.0,1.47,0.0,0.2,
13.698,74.69658038853179,82.6622051422506,-138.0,0.0,6.0,0.0,0.0,0.0,0.0,0.0,0.0,0.0,1.47,0.0,0.1,
13.711,75.23065803885319,81.34622051422505,-137.0,-1.0,1.0,0.0,0.0,0.0,0.0,0.0,0.0,0.0,1.47,0.0,0.1,
13.724,75.59906580388532,80.4316220514225,-137.0,-1.0,0.0,0.0,0.0,0.0,0.0,0.0,0.0,0.0,1.47,0.0,0.1,
13.737,75.61790658038854,79.79116220514226,-136.0,3.0,8.0,0.0,0.0,0.0,0.0,0.0,0.0,0.0,1.57,0.0,0.1,
13.751,75.65579065803885,79.07911622051424,-135.0,14.0,16.0,0.0,0.0,0.0,0.0,0.0,0.0,0.0,1.47,0.0,0.0,
13.764,76.0465790658039,78.04491162205144,-135.0,20.0,23.0,0.0,0.0,0.0,0.0,0.0,0.0,0.0,1.47,0.0,0.1,
13.778,76.26565790658039,76.82549116220514,-134.0,20.0,24.0,0.0,0.0,0.0,0.0,0.0,0.0,0.0,1.57,0.0,0.0,
13.792,76.80956579065804,75.13754911622051,-129.0,24.0,27.0,0.0,0.0,0.0,0.0,0.0,0.0,0.0,1.67,0.0,0.0,
13.805,77.2779565790658,73.61875491162205,-127.0,21.0,22.0,0.0,0.0,0.0,0.0,0.0,0.0,0.0,1.67,0.0,0.0,
13.818,77.59479565790659,72.20687549116221,-125.0,11.0,12.0,0.0,0.0,0.0,0.0,0.0,0.0,0.0,1.67,0.0,0.0,
13.832,77.60847956579066,71.18368754911621,-118.0,5.0,5.0,0.0,0.0,0.0,0.0,0.0,0.0,0.0,1.77,0.0,0.0,
13.845,77.59184795657907,70.49636875491161,-110.0,9.0,7.0,0.0,0.0,0.0,0.0,0.0,0.0,0.0,1.77,0.0,0.0,
13.858,77.9951847956579,69.66263687549116,-102.0,7.0,4.0,0.0,0.0,0.0,0.0,0.0,0.0,0.0,1.77,0.0,0.0,
13.872,78.3865184795658,69.16526368754911,-94.0,0.0,3.0,0.0,0.0,0.0,0.0,0.0,0.0,0.0,1.86,0.0,0.0,
13.885,78.76765184795659,68.59352636875491,-87.0,-2.0,5.0,0.0,0.0,0.0,0.0,0.0,0.0,0.0,1.86,0.0,0.0,
13.898,79.33676518479567,67.8343526368755,-83.0,-7.0,5.0,0.0,0.0,0.0,0.0,0.0,0.0,0.0,1.86,0.0,0.0,
13.912,79.42967651847957,67.11043526368755,-78.0,-17.0,-10.0,0.0,0.0,0.0,0.0,0.0,0.0,0.0,1.86,0.0,0.0,
13.925,79.04296765184796,66.70504352636875,-74.0,-10.0,-10.0,0.0,0.0,0.0,0.0,0.0,0.0,0.0,1.77,0.0,0.0,
13.939,78.96829676518479,66.16950435263688,-70.0,-6.0,-19.0,0.0,0.0,0.0,0.0,0.0,0.0,0.0,1.86,0.0,0.0,
13.953,78.69982967651848,65.6479504352637,-62.0,-3.0,-25.0,0.0,0.0,0.0,0.0,0.0,0.0,0.0,1.86,0.0,0.0,
13.966,77.61998296765185,65.48779504352638,-53.0,5.0,-20.0,0.0,0.0,0.0,0.0,0.0,0.0,0.0,1.86,0.0,0.0,
13.979,77.17899829676519,64.78777950435263,-48.0,19.0,-13.0,0.0,0.0,0.0,0.0,0.0,0.0,0.0,1.86,0.0,0.0,
13.993,77.14389982967651,63.97077795043526,-45.0,9.0,-1.0,0.0,0.0,0.0,0.0,0.0,0.0,0.0,1.86,0.0,0.0,
14.007,76.87938998296764,63.22307779504352,-48.0,-9.0,7.0,0.0,0.0,0.0,0.0,0.0,0.0,0.0,1.77,0.0,0.0,
14.02,76.40293899829676,62.39230777950435,-52.0,-34.0,7.0,0.0,0.0,0.0,0.0,0.0,0.0,0.0,1.77,0.0,0.0,
14.033,74.85229389982968,61.94923077795043,-57.0,-33.0,-5.0,0.0,0.0,0.0,0.0,0.0,0.0,0.0,1.77,0.0,0.0,
14.047,73.30222938998295,62.03992307779504,-55.0,-11.0,-8.0,0.0,0.0,0.0,0.0,0.0,0.0,0.0,1.77,0.0,0.0,
14.06,72.79622293899828,61.8959923077795,-45.0,19.0,0.0,0.0,0.0,0.0,0.0,0.0,0.0,0.0,1.86,0.0,0.0,
14.073,73.07862229389983,61.54859923077795,-31.0,33.0,6.0,0.0,0.0,0.0,0.0,0.0,0.0,0.0,1.96,0.0,0.0,
14.088,74.02486222938998,61.2078599230778,-17.0,35.0,23.0,0.0,0.0,0.0,0.0,0.0,0.0,0.0,1.96,0.0,0.0,
14.101,75.397486222939,60.597785992307784,-10.0,25.0,36.0,0.0,0.0,0.0,0.0,0.0,0.0,0.0,2.06,0.0,0.0,
14.114,76.2367486222939,59.98777859923078,-8.0,2.0,44.0,0.0,0.0,0.0,0.0,0.0,0.0,0.0,2.16,0.0,0.0,
14.128,76.5546748622294,59.76477785992308,-12.0,-3.0,45.0,0.0,0.0,0.0,0.0,0.0,0.0,0.0,2.06,0.0,0.0,
14.141,76.59546748622293,59.70647778599231,-16.0,4.0,18.0,0.0,0.0,0.0,0.0,0.0,0.0,0.0,2.06,0.0,0.0,
14.154,76.1405467486223,59.90764777859923,-11.0,20.0,10.0,0.0,0.0,0.0,0.0,0.0,0.0,0.0,2.16,0.0,0.0,
14.168,76.27505467486223,59.62176477785993,-1.0,46.0,7.0,0.0,0.0,0.0,0.0,0.0,0.0,0.0,2.26,0.0,0.0,
14.181,76.85550546748622,58.88217647778599,9.0,49.0,2.0,0.0,0.0,0.0,0.0,0.0,0.0,0.0,2.35,0.0,0.0,
14.194,76.98555054674861,58.016217647778596,20.0,37.0,3.0,0.0,0.0,0.0,0.0,0.0,0.0,0.0,2.35,0.0,0.0,
14.208,76.81855505467486,57.560621764777856,27.0,26.0,4.0,0.0,0.0,0.0,0.0,0.0,0.0,0.0,2.35,0.0,0.0,
14.221,76.42385550546749,57.560062176477786,32.0,9.0,10.0,0.0,0.0,0.0,0.0,0.0,0.0,0.0,2.16,0.0,0.0,
14.234,76.52838555054676,57.47000621764778,32.0,0.0,12.0,0.0,0.0,0.0,0.0,0.0,0.0,0.0,2.06,0.0,0.0,
14.247,75.84583855505467,57.67700062176478,35.0,1.0,0.0,0.0,0.0,0.0,0.0,0.0,0.0,0.0,1.96,0.0,0.0,
14.261,74.67058385550548,58.22870006217647,37.0,0.0,30.0,0.0,0.0,0.0,0.0,0.0,0.0,0.0,1.86,0.0,0.0,
14.274,76.59605838555055,56.72687000621765,50.0,-15.0,-12.0,0.0,0.0,0.0,0.0,0.0,0.0,0.0,1.86,0.0,0.0,
14.287,74.61960583855506,56.08168700062176,66.0,3.0,-18.0,0.0,0.0,0.0,0.0,0.0,0.0,0.0,1.77,2.65,0.2,
14.301,72.7569605838555,56.080168700062174,94.0,59.0,11.0,0.0,0.0,0.0,0.0,0.0,0.0,0.0,1.47,16.09,0.39,
14.315,74.32569605838555,54.96401687000622,126.0,73.0,-7.0,0.0,0.0,0.0,0.0,0.0,0.0,0.0,1.37,38.46,0.29,
14.328,76.17456960583856,57.48040168700062,115.0,35.0,-24.0,0.0,0.0,0.0,0.0,0.0,0.0,0.0,1.18,58.27,0.29,
14.342,77.31345696058385,60.981040168700055,99.0,46.0,-11.0,0.0,0.0,0.0,0.0,0.0,0.0,0.0,0.98,75.44,0.2,
14.355,79.47034569605837,63.23010401687,78.0,59.0,-28.0,0.0,0.0,0.0,0.0,0.0,0.0,0.0,0.59,78.58,0.2,
14.369,80.14503456960584,64.445010401687,81.0,24.0,3.0,0.0,0.0,0.0,0.0,0.0,0.0,0.0,0.0,83.29,0.39,
14.383,79.46550345696059,64.72850104016871,76.0,31.0,-3.0,0.0,0.0,0.0,0.0,0.0,0.0,0.0,0.0,89.37,0.59,
14.396,79.58655034569605,65.35985010401687,65.0,82.0,-29.0,0.0,0.0,0.0,0.0,0.0,0.0,0.0,0.0,95.35,0.98,
14.409,78.6536550345696,62.76798501040169,74.0,38.0,6.0,0.0,0.0,0.0,0.0,0.0,0.0,0.0,0.0,107.62,1.18,
14.423,80.99036550345696,63.61579850104017,55.0,110.0,-36.0,0.0,0.0,0.0,0.0,0.0,0.0,0.0,0.0,116.35,1.37,
14.437,82.7810365503457,64.48357985010402,79.0,17.0,4.0,0.0,1.0,0.0,0.0,0.0,0.0,0.0,0.0,127.43,1.47,
14.45,84.60710365503458,65.3443579850104,82.0,-1.0,9.0,0.0,1.0,0.0,0.0,0.0,0.0,0.0,0.0,139.5,1.57,
14.465,88.83071036550346,73.72843579850104,65.0,109.0,-10.0,0.0,1.0,0.0,0.0,0.0,0.0,0.0,0.0,164.81,1.96,
14.478,93.06007103655035,81.5868435798501,69.0,100.0,24.0,1.0,2.0,1.0,0.0,0.0,0.0,0.0,0.0,178.84,2.45,
14.492,93.99600710365503,80.93268435798501,64.0,56.0,-10.0,2.0,3.0,1.0,0.0,0.0,0.0,0.0,0.0,193.55,3.34,
14.505,93.0006007103655,79.8232684357985,60.0,50.0,-13.0,3.0,4.0,2.0,0.0,0.0,0.0,0.0,0.1,207.29,4.71,
14.52,92.93706007103657,80.96332684357986,19.0,43.0,-23.0,4.0,4.0,2.0,0.0,0.0,0.0,0.0,0.29,229.26,6.67,
14.534,93.37170600710365,80.38433268435799,20.0,36.0,12.0,4.0,5.0,3.0,0.0,0.0,0.0,0.0,0.29,237.99,7.16,
14.547,93.43317060071037,78.9944332684358,14.0,37.0,-8.0,5.0,6.0,3.0,0.0,0.0,0.0,0.0,1.18,245.05,7.75,
14.562,93.72731706007103,77.84744332684359,8.0,42.0,-21.0,5.0,6.0,3.0,0.0,0.0,1.0,0.0,2.06,250.16,8.73,
14.575,94.1527317060071,77.68774433268436,7.0,22.0,-12.0,5.0,6.0,3.0,0.0,0.0,1.0,0.0,3.04,255.26,11.18,
14.589,93.71827317060071,77.61777443326844,8.0,12.0,2.0,5.0,7.0,3.0,0.0,0.0,1.0,0.0,4.12,255.84,12.07,
14.604,95.28582731706007,77.73677744332684,6.0,0.0,6.0,6.0,7.0,3.0,0.0,0.0,2.0,0.0,6.08,255.55,13.05,
14.617,95.991582731706,76.9476777443327,-2.0,22.0,-12.0,6.0,7.0,3.0,0.0,0.0,2.0,0.0,6.97,254.57,15.3,
14.631,96.2511582731706,76.49076777443328,1.0,6.0,-5.0,6.0,7.0,4.0,0.0,0.0,2.0,0.0,7.65,252.71,16.09,
14.646,95.16111582731706,76.39107677744333,0.0,5.0,0.0,6.0,8.0,4.0,0.0,0.0,2.0,0.0,8.24,252.22,16.68,
14.659,93.7561115827317,75.99410767774434,-4.0,28.0,-7.0,6.0,8.0,4.0,0.0,0.0,2.0,0.0,8.73,252.61,17.27,
14.673,94.39861115827317,75.24341076777444,-1.0,16.0,-6.0,6.0,8.0,4.0,0.0,0.0,2.0,0.0,10.01,253.69,18.34,
14.688,95.52486111582732,74.96134107677746,4.0,-4.0,3.0,7.0,8.0,4.0,0.0,0.0,3.0,0.0,10.59,256.14,19.13,
14.702,96.51048611158274,74.62713410767775,5.0,-1.0,8.0,6.0,8.0,4.0,0.0,0.0,3.0,0.0,11.38,256.83,19.82,
14.716,97.23004861115828,74.94471341076778,4.0,-1.0,8.0,7.0,9.0,4.0,0.0,0.0,3.0,0.0,13.05,257.41,20.4,
14.731,98.93100486111584,75.25547134107678,7.0,-21.0,8.0,6.0,9.0,4.0,0.0,0.0,3.0,0.0,14.13,258.1,20.9,
14.744,99.41610048611157,74.49454713410768,5.0,0.0,-5.0,6.0,9.0,4.0,0.0,0.0,2.0,0.0,15.3,258.59,20.99,
14.758,96.38661004861115,75.40845471341078,2.0,24.0,5.0,6.0,9.0,4.0,0.0,0.0,2.0,0.0,16.58,258.79,20.8,
14.773,96.56066100486112,75.51784547134108,0.0,2.0,-1.0,6.0,10.0,4.0,0.0,0.0,2.0,0.0,19.42,258.79,20.21,
14.787,96.20006610048611,75.7897845471341,1.0,-3.0,-6.0,6.0,10.0,4.0,0.0,0.0,2.0,0.0,20.9,257.02,19.72,
14.801,97.41500661004861,75.66397845471342,7.0,-26.0,6.0,6.0,10.0,4.0,0.0,0.0,2.0,0.0,22.37,255.16,19.13,
14.816,97.23950066100487,75.66939784547135,0.0,2.0,-8.0,6.0,10.0,4.0,0.0,0.0,2.0,0.0,23.84,252.8,18.74,
14.83,96.42995006610049,75.52593978454713,0.0,1.0,-5.0,6.0,10.0,4.0,0.0,0.0,2.0,0.0,26.59,247.31,17.95,
14.844,95.79099500661005,75.60159397845472,0.0,-1.0,-5.0,6.0,11.0,4.0,0.0,0.0,2.0,0.0,27.96,244.96,17.46,
14.859,96.51009950066101,76.41015939784548,4.0,-42.0,19.0,6.0,11.0,4.0,0.0,0.0,2.0,1.0,29.23,243.19,16.87,
14.873,95.6190099500661,75.93301593978455,2.0,-5.0,5.0,6.0,11.0,4.0,0.0,0.0,2.0,1.0,30.31,241.82,15.89,
14.887,94.31490099500661,75.66930159397846,0.0,-9.0,-1.0,6.0,11.0,4.0,0.0,0.0,2.0,1.0,32.18,240.25,15.4,
14.902,94.31949009950065,76.16493015939784,-1.0,-13.0,5.0,6.0,11.0,4.0,0.0,0.0,2.0,1.0,32.96,239.85,15.01,
14.916,94.04094900995007,75.63849301593979,-1.0,-3.0,2.0,6.0,11.0,4.0,0.0,0.0,2.0,1.0,33.45,239.46,14.52,
14.93,93.806094900995,75.42384930159399,-4.0,0.0,-2.0,7.0,11.0,4.0,0.0,0.0,2.0,1.0,34.53,238.87,13.73,
14.945,93.8816094900995,74.9973849301594,-3.0,-2.0,-6.0,7.0,11.0,4.0,0.0,0.0,2.0,1.0,34.92,238.78,13.34,
14.959,93.62816094900994,74.86473849301593,-3.0,0.0,-5.0,7.0,11.0,4.0,0.0,0.0,1.0,1.0,35.22,238.58,13.05,
14.973,94.295816094901,74.0414738493016,-1.0,-26.0,7.0,7.0,12.0,4.0,0.0,0.0,1.0,1.0,35.41,238.68,12.46,
14.988,94.0205816094901,73.66214738493017,-1.0,-2.0,-3.0,7.0,12.0,4.0,0.0,0.0,1.0,1.0,35.81,239.66,12.16,
15.002,92.63405816094901,72.88621473849301,-3.0,-5.0,-2.0,7.0,12.0,4.0,0.0,0.0,1.0,1.0,35.9,240.25,11.77,
15.016,92.76540581609491,72.9706214738493,-3.0,1.0,-4.0,7.0,12.0,4.0,0.0,0.0,1.0,1.0,36.1,240.25,11.38,
15.031,92.93154058160948,73.16806214738493,-2.0,-1.0,1.0,7.0,12.0,4.0,0.0,0.0,1.0,1.0,36.2,238.68,11.38,
15.044,93.24515405816095,73.30480621473849,0.0,-10.0,3.0,7.0,12.0,4.0,0.0,0.0,1.0,1.0,35.81,237.21,11.38,
15.058,92.51151540581611,72.84148062147386,0.0,-2.0,-2.0,7.0,12.0,4.0,0.0,0.0,1.0,1.0,35.61,235.83,11.48,
15.073,92.46515154058162,72.80414806214738,-2.0,-5.0,0.0,7.0,12.0,4.0,0.0,0.0,1.0,1.0,35.51,234.75,11.67,
15.087,92.27151515405816,72.89941480621474,-2.0,0.0,-1.0,7.0,12.0,4.0,0.0,0.0,1.0,1.0,35.51,232.79,11.77,
15.101,92.36015151540582,73.12494148062149,-1.0,0.0,-2.0,7.0,12.0,4.0,0.0,0.0,1.0,1.0,35.51,231.71,11.97,
15.116,92.3690151515406,73.32749414806214,-1.0,1.0,-2.0,7.0,12.0,4.0,0.0,0.0,1.0,1.0,35.41,230.34,12.56,
15.13,92.02790151515406,73.23074941480621,0.0,-3.0,2.0,7.0,12.0,4.0,0.0,0.0,2.0,1.0,35.12,227.3,12.95,
15.144,91.7417901515154,73.38307494148063,-1.0,-2.0,1.0,7.0,12.0,4.0,0.0,0.0,2.0,1.0,35.02,225.73,13.34,
15.159,92.42417901515154,73.65930749414807,-2.0,-1.0,0.0,7.0,12.0,4.0,0.0,0.0,2.0,1.0,34.83,224.26,13.54,
15.173,91.80841790151516,74.01993074941481,-1.0,1.0,-2.0,7.0,12.0,4.0,0.0,0.0,2.0,1.0,34.73,222.79,14.13,
15.187,91.90884179015153,73.81299307494149,0.0,0.0,-1.0,7.0,12.0,4.0,0.0,0.0,2.0,1.0,34.53,219.45,14.52,
15.202,92.14388417901515,73.83729930749415,0.0,0.0,0.0,7.0,12.0,4.0,0.0,0.0,2.0,1.0,34.43,217.59,14.81,
15.215,92.08638841790152,73.85772993074941,0.0,-1.0,-1.0,7.0,12.0,4.0,0.0,0.0,2.0,1.0,34.34,215.82,15.5,
15.23,92.27863884179014,73.90477299307494,-1.0,-1.0,0.0,7.0,12.0,4.0,0.0,0.0,2.0,1.0,34.24,213.17,15.89,
15.244,92.30686388417902,73.9634772993075,0.0,-1.0,0.0,7.0,12.0,4.0,0.0,0.0,2.0,1.0,34.14,212.19,16.19,
15.258,92.3276863884179,74.04134772993075,0.0,-1.0,0.0,7.0,12.0,4.0,0.0,0.0,2.0,1.0,34.04,211.31,16.28,
15.272,92.32976863884178,74.10313477299307,-1.0,0.0,-1.0,7.0,0.0,4.0,0.0,0.0,2.0,1.0,34.14,210.23,16.87,
15.287,92.27597686388417,74.17231347729933,-1.0,0.0,-2.0,7.0,12.0,4.0,0.0,0.0,2.0,1.0,34.14,208.17,17.07,
15.301,92.30659768638841,74.27823134772993,-1.0,0.0,-2.0,7.0,0.0,4.0,0.0,0.0,2.0,1.0,34.14,207.58,17.36,
15.315,92.37265976863884,74.360823134773,0.0,0.0,-1.0,7.0,0.0,4.0,0.0,0.0,2.0,1.0,34.24,207.19,17.95,
15.33,92.38826597686388,74.4500823134773,0.0,0.0,0.0,7.0,0.0,4.0,0.0,0.0,2.0,1.0,34.24,206.6,18.44,
15.344,92.38082659768638,74.43200823134774,0.0,0.0,0.0,7.0,0.0,4.0,0.0,0.0,2.0,1.0,34.14,206.4,18.64,
15.357,92.43408265976863,74.50220082313479,0.0,0.0,0.0,7.0,0.0,4.0,0.0,0.0,2.0,1.0,34.24,205.91,18.84,
15.372,92.48440826597687,74.56322008231348,0.0,0.0,0.0,7.0,0.0,4.0,0.0,0.0,2.0,1.0,34.63,205.32,19.23,
15.386,92.50744082659769,74.55132200823135,0.0,-1.0,0.0,7.0,0.0,4.0,0.0,0.0,3.0,1.0,34.92,203.75,19.42,
15.4,92.52774408265977,74.61313220082313,0.0,0.0,0.0,7.0,0.0,4.0,0.0,0.0,3.0,1.0,35.12,202.87,19.62,
15.414,92.57477440826598,74.68231322008232,0.0,-1.0,1.0,7.0,0.0,4.0,0.0,0.0,3.0,1.0,35.32,201.69,19.91,
15.428,92.7054774408266,74.75223132200824,0.0,0.0,0.0,7.0,1.0,4.0,0.0,0.0,3.0,1.0,36.0,199.14,20.21,
15.442,92.65554774408267,74.73222313220083,0.0,-1.0,1.0,7.0,1.0,4.0,0.0,0.0,3.0,1.0,36.4,198.06,20.4,
15.457,92.60555477440826,74.67622231322008,0.0,-2.0,1.0,6.0,1.0,4.0,0.0,0.0,3.0,1.0,36.79,196.89,20.5,
15.471,92.42955547744083,74.76962223132202,0.0,0.0,0.0,6.0,1.0,4.0,0.0,0.0,3.0,1.0,37.18,195.81,20.8,
15.484,92.35795554774407,74.8509622231322,0.0,0.0,-1.0,7.0,1.0,4.0,0.0,0.0,3.0,1.0,37.96,192.28,20.8,
15.499,92.3777955547744,74.87709622231321,-1.0,0.0,-1.0,6.0,1.0,4.0,0.0,0.0,3.0,1.0,38.26,190.12,20.7,
15.513,92.27177955547745,74.95170962223132,-1.0,2.0,-2.0,6.0,1.0,4.0,0.0,0.0,3.0,1.0,38.55,188.35,20.8,
15.527,92.09017795554774,74.85117096222314,-2.0,1.0,-1.0,7.0,1.0,4.0,0.0,0.0,3.0,1.0,38.85,187.27,20.99,
15.542,92.06301779555477,74.8591170962223,-3.0,3.0,-3.0,7.0,1.0,4.0,0.0,0.0,3.0,1.0,39.34,187.37,21.19,
15.556,91.81730177955548,74.89591170962224,-2.0,3.0,-1.0,6.0,1.0,4.0,0.0,0.0,3.0,1.0,39.34,188.25,21.39,
15.57,92.03573017795554,74.98059117096223,-2.0,2.0,0.0,6.0,1.0,4.0,0.0,0.0,3.0,1.0,39.44,189.23,21.78,
15.585,92.16557301779555,74.94405911709622,-1.0,2.0,-2.0,7.0,2.0,4.0,0.0,0.0,3.0,1.0,39.73,191.3,21.88,
15.599,92.31355730177955,74.91340591170962,-2.0,3.0,-3.0,7.0,1.0,4.0,0.0,0.0,3.0,1.0,39.73,191.98,21.88,
15.613,92.53535573017795,74.89234059117095,-2.0,2.0,-1.0,7.0,2.0,4.0,0.0,0.0,3.0,1.0,39.73,192.08,21.97,
15.627,92.72853557301781,74.88123405911709,-1.0,3.0,-1.0,7.0,1.0,4.0,0.0,0.0,3.0,1.0,39.73,192.08,22.07,
15.641,92.8558535573018,74.74512340591171,-2.0,3.0,-1.0,7.0,2.0,4.0,0.0,0.0,3.0,1.0,39.44,191.39,22.17,
15.655,92.91358535573018,74.79451234059117,-2.0,3.0,-1.0,7.0,2.0,4.0,0.0,0.0,4.0,1.0,39.44,190.51,22.17,
15.67,93.00935853557301,74.7994512340591,-2.0,4.0,-2.0,7.0,2.0,4.0,0.0,0.0,4.0,1.0,39.24,189.53,22.17,
15.684,93.05493585355731,74.85394512340591,-2.0,4.0,-2.0,7.0,1.0,4.0,0.0,0.0,4.0,1.0,38.95,187.96,22.17,
15.698,93.00549358535574,74.83239451234058,-3.0,4.0,-3.0,7.0,1.0,4.0,0.0,0.0,4.0,1.0,38.06,187.37,22.27,
15.713,93.08154935853558,74.81223945123406,-3.0,4.0,-3.0,7.0,1.0,4.0,0.0,0.0,4.0,1.0,37.38,186.98,22.37,
15.727,93.24215493585356,74.86422394512341,-4.0,3.0,-3.0,7.0,1.0,4.0,0.0,0.0,4.0,1.0,36.59,186.98,22.96,
15.741,93.45621549358536,74.78842239451235,-5.0,5.0,-4.0,7.0,1.0,4.0,0.0,0.0,4.0,1.0,35.71,187.37,23.05,
15.756,93.61262154935852,74.68184223945124,-4.0,4.0,-4.0,7.0,0.0,4.0,0.0,0.0,4.0,1.0,33.94,188.35,23.35,
15.77,93.69126215493586,74.59918422394512,-4.0,3.0,-3.0,7.0,0.0,4.0,0.0,0.0,4.0,1.0,33.06,189.43,23.94,
15.784,93.70812621549358,74.5369184223945,-4.0,1.0,-2.0,7.0,1.0,4.0,0.0,0.0,4.0,1.0,32.18,188.84,23.94,
15.799,93.70981262154936,74.48569184223946,-3.0,0.0,-2.0,7.0,12.0,4.0,0.0,0.0,4.0,1.0,30.41,186.1,23.74,
15.813,93.26898126215494,74.57956918422394,0.0,3.0,2.0,7.0,12.0,4.0,0.0,0.0,4.0,1.0,29.43,181.29,23.25,
15.826,93.3598981262155,74.6249569184224,0.0,0.0,1.0,7.0,11.0,4.0,0.0,0.0,4.0,1.0,28.35,174.62,21.97,
15.841,92.56798981262155,74.52149569184225,-1.0,0.0,-2.0,7.0,11.0,4.0,0.0,0.0,4.0,1.0,27.27,156.37,21.09,
15.855,93.47879898126214,74.61914956918423,0.0,-2.0,2.0,7.0,11.0,3.0,0.0,0.0,4.0,1.0,25.11,145.78,20.01,
15.869,93.4888798981262,74.72791495691841,-2.0,-2.0,-1.0,7.0,11.0,3.0,0.0,0.0,4.0,1.0,24.13,135.67,18.15,
15.884,93.43588798981261,74.69379149569184,-2.0,-7.0,-2.0,7.0,11.0,3.0,0.0,0.0,4.0,0.0,23.15,117.62,17.36,
15.898,93.52958879898127,74.64537914956918,-3.0,-3.0,-5.0,7.0,11.0,3.0,0.0,0.0,3.0,0.0,22.37,109.68,16.68,
15.912,93.29595887989812,74.63153791495692,-1.0,0.0,-6.0,7.0,10.0,3.0,0.0,0.0,3.0,0.0,20.6,102.12,16.09,
15.927,93.25459588798981,74.30615379149569,-1.0,0.0,-6.0,7.0,10.0,3.0,0.0,0.0,3.0,0.0,19.72,95.06,14.91,
15.941,93.25045958879898,74.51661537914958,-1.0,-5.0,-2.0,6.0,10.0,3.0,0.0,0.0,3.0,0.0,18.84,82.7,14.22,
15.955,93.4480459588799,74.74466153791495,-2.0,-1.0,-1.0,6.0,10.0,3.0,0.0,0.0,3.0,0.0,18.05,77.3,13.54,
15.97,93.152804595888,74.83946615379149,-2.0,-5.0,-3.0,6.0,10.0,3.0,0.0,0.0,3.0,0.0,16.78,72.5,12.36,
15.984,93.3302804595888,74.86694661537916,-2.0,-6.0,-4.0,6.0,10.0,3.0,0.0,0.0,3.0,0.0,16.19,64.84,11.87,
15.998,93.19502804595889,74.89669466153792,-2.0,-5.0,-3.0,5.0,9.0,3.0,0.0,0.0,3.0,0.0,15.6,61.51,11.58,
16.013,93.19050280459588,74.9266694661538,-2.0,-6.0,-1.0,5.0,9.0,3.0,0.0,0.0,3.0,0.0,14.52,58.37,11.28,
16.026,92.94705028045959,74.97466694661537,-1.0,-10.0,-1.0,5.0,9.0,3.0,0.0,0.0,2.0,0.0,14.03,55.43,10.89,
16.04,92.96770502804596,74.97046669466154,-1.0,-8.0,-1.0,5.0,9.0,3.0,0.0,0.0,2.0,0.0,13.64,50.33,10.89,
16.055,92.7447705028046,74.91604666946616,0.0,-9.0,0.0,5.0,9.0,3.0,0.0,0.0,2.0,0.0,13.24,47.97,10.89,
16.069,92.66847705028046,74.86560466694661,-1.0,-7.0,0.0,5.0,9.0,3.0,0.0,0.0,2.0,0.0,12.56,45.62,10.4,
16.082,92.59784770502804,74.80656046669465,0.0,-8.0,0.0,5.0,9.0,3.0,0.0,0.0,2.0,0.0,12.36,41.2,10.2,
16.097,92.4827847705028,74.85465604666946,-1.0,-1.0,-2.0,5.0,9.0,3.0,0.0,0.0,2.0,0.0,12.07,38.95,9.91,
16.111,92.32727847705029,74.93146560466694,0.0,-4.0,-1.0,5.0,9.0,3.0,0.0,0.0,2.0,0.0,11.87,36.79,9.81,
16.124,92.32972784770502,74.9211465604667,0.0,-2.0,-2.0,5.0,9.0,3.0,0.0,0.0,2.0,0.0,11.77,34.73,9.61,
16.139,92.37497278477049,74.94711465604667,0.0,-2.0,-2.0,4.0,9.0,3.0,0.0,0.0,2.0,0.0,11.48,31.49,9.52,
16.153,92.37949727847705,74.95871146560467,-1.0,-1.0,-1.0,4.0,8.0,3.0,0.0,0.0,2.0,0.0,11.38,30.21,9.52,
16.166,92.3889497278477,74.97787114656046,-1.0,-1.0,-1.0,4.0,8.0,3.0,0.0,0.0,2.0,0.0,11.38,29.33,9.61,
16.181,92.30889497278476,74.97078711465605,-1.0,-1.0,0.0,4.0,8.0,3.0,0.0,0.0,2.0,0.0,11.28,28.55,9.71,
16.195,92.28288949727848,74.9700787114656,-1.0,0.0,0.0,4.0,8.0,3.0,0.0,0.0,2.0,0.0,11.18,27.47,9.71,
16.208,92.23528894972785,74.97000787114656,-1.0,-1.0,0.0,4.0,8.0,3.0,0.0,0.0,2.0,0.0,11.18,27.08,9.71,
16.223,92.12252889497279,75.03300078711466,-1.0,-1.0,-1.0,4.0,8.0,3.0,0.0,0.0,2.0,0.0,11.09,26.68,9.81,
16.237,92.11125288949728,75.09330007871147,-1.0,0.0,-1.0,4.0,8.0,3.0,0.0,0.0,2.0,0.0,11.09,26.09,9.91,
16.25,92.12812528894973,75.13533000787115,-2.0,0.0,-1.0,4.0,8.0,3.0,0.0,0.0,2.0,0.0,10.99,25.21,10.01,
16.265,92.12981252889497,75.17553300078711,-2.0,0.0,0.0,4.0,8.0,3.0,0.0,0.0,2.0,0.0,10.99,25.02,10.1,
16.279,92.20198125288948,75.15255330007872,-2.0,-1.0,0.0,5.0,8.0,3.0,0.0,0.0,2.0,0.0,10.99,24.92,10.3,
16.292,92.13719812528895,75.19525533000788,-2.0,0.0,0.0,5.0,8.0,3.0,0.0,0.0,2.0,0.0,10.99,24.92,10.3,
16.307,92.1217198125289,75.1995255330008,-2.0,0.0,-1.0,5.0,8.0,3.0,0.0,0.0,2.0,0.0,10.99,25.31,10.4,
16.321,92.1741719812529,75.21795255330008,-2.0,0.0,-1.0,5.0,8.0,3.0,0.0,0.0,2.0,0.0,10.99,25.7,10.5,
16.335,92.2424171981253,75.30079525533002,-2.0,0.0,0.0,5.0,8.0,3.0,0.0,0.0,2.0,0.0,10.89,26.0,10.69,
16.349,92.18624171981253,75.29107952553301,-2.0,-1.0,-1.0,5.0,8.0,3.0,0.0,0.0,2.0,0.0,10.99,26.19,10.89,
16.363,92.16262417198125,75.2991079525533,-1.0,0.0,0.0,5.0,8.0,3.0,0.0,0.0,2.0,0.0,11.09,25.9,10.99,
16.377,92.14226241719813,75.29991079525533,-1.0,0.0,0.0,5.0,8.0,3.0,0.0,0.0,2.0,0.0,11.18,25.41,10.99,
16.391,92.09522624171981,75.32699107952553,-1.0,0.0,0.0,5.0,8.0,3.0,0.0,0.0,2.0,0.0,11.28,24.82,11.09,
16.405,92.07252262417198,75.31169910795256,-1.0,0.0,0.0,5.0,8.0,3.0,0.0,0.0,3.0,0.0,11.38,23.84,11.18,
16.418,91.9982522624172,75.32816991079525,-1.0,0.0,0.0,5.0,8.0,3.0,0.0,0.0,3.0,0.0,11.87,23.64,11.28,
16.433,91.97282522624171,75.27581699107952,-1.0,0.0,0.0,5.0,8.0,3.0,0.0,0.0,3.0,0.0,11.97,23.54,11.38,
16.447,92.08728252262416,75.27958169910796,-1.0,0.0,0.0,5.0,8.0,3.0,0.0,0.0,3.0,0.0,12.16,23.45,11.58,
16.46,92.12572825226242,75.2619581699108,-1.0,0.0,0.0,5.0,8.0,4.0,0.0,0.0,3.0,0.0,12.16,23.64,11.77,
16.475,92.19257282522625,75.26919581699107,-1.0,0.0,0.0,5.0,8.0,4.0,0.0,0.0,3.0,0.0,12.46,23.94,11.87,
16.489,92.19925728252262,75.2699195816991,-1.0,0.0,0.0,5.0,8.0,4.0,0.0,0.0,3.0,0.0,12.56,24.13,12.07,
16.502,92.25392572825227,75.2159919581699,-1.0,0.0,0.0,5.0,8.0,4.0,0.0,0.0,3.0,0.0,12.75,24.43,12.46,
16.517,92.25939257282523,75.255599195817,-1.0,0.0,0.0,5.0,8.0,4.0,0.0,0.0,3.0,0.0,12.85,24.72,12.56,
16.531,92.25093925728252,75.3045599195817,-1.0,0.0,0.0,5.0,8.0,4.0,0.0,0.0,3.0,0.0,12.95,24.72,12.75,
16.544,92.19609392572825,75.33645599195818,-1.0,0.0,0.0,5.0,8.0,4.0,0.0,0.0,3.0,0.0,13.34,24.62,12.95,
16.559,92.19060939257282,75.38464559919582,-1.0,0.0,0.0,5.0,9.0,4.0,0.0,0.0,3.0,0.0,13.54,24.62,13.24,
16.572,92.16306093925728,75.35346455991957,-2.0,0.0,0.0,5.0,8.0,4.0,0.0,0.0,3.0,0.0,13.44,24.52,13.34,
16.586,92.16930609392573,75.33234645599195,-1.0,0.0,0.0,5.0,9.0,4.0,0.0,0.0,3.0,0.0,13.54,24.52,13.54,
16.601,92.09793060939256,75.3392346455992,-1.0,0.0,0.0,5.0,8.0,4.0,0.0,0.0,3.0,0.0,13.64,24.62,13.93,
16.614,92.09979306093925,75.32192346455992,-1.0,0.0,0.0,5.0,8.0,4.0,0.0,0.0,3.0,0.0,13.73,24.72,13.93,
16.628,92.11797930609393,75.32019234645598,-2.0,0.0,0.0,5.0,8.0,4.0,0.0,0.0,3.0,0.0,13.73,25.31,14.03,
16.643,92.1647979306094,75.3290192346456,-2.0,0.0,0.0,5.0,8.0,4.0,0.0,0.0,3.0,0.0,13.93,25.8,14.22,
