time,t1:pitch,t1:roll,t1:gyrx,t1:gyry,t1:gyrz,t2:pitch,t2:roll,t2:gyrx,t2:gyry,t2:gyrz,k1:pitch,k1:roll,k1:gyrx,k1:gyry,k1:gyrz,k2:pitch,k2:roll,k2:gyrx,k2:gyry,k2:gyrz,W:pitch,W:roll,W:gyrx,W:gyry,W:gyrz,B:pitch,B:roll,B:gyrx,B:gyry,B:gyrz
0.28500000000000003,13.5,13.5,0.0,-0.0,0.0,13.5,13.5,0.0,-0.0,0.0,-10.180350408512554,24.923556314615755,0.015267175572519083,-0.0,-0.05343511450381679,27.000648870387828,19.497729014489586,-0.26717557251908397,0.07633587786259542,0.015267175572519083,89.0,89.0,0.0,0.0,0.0,44.33,60.94,-4.0,0.0,1.0,
0.32,24.975,24.975,0.0,-0.0,0.0,38.762663542774575,31.64926348401257,0.0,0.015267175572519083,0.007633587786259542,-18.833648255748223,46.10857918203915,0.015267175572519083,-0.0,-0.05343511450381679,49.95120041021748,36.07079867680574,-0.26717557251908397,0.07633587786259542,0.015267175572519083,89.0,89.0,0.0,0.0,0.0,48.65,66.61,-4.0,2.0,-2.0,
0.356,34.728750000000005,34.728750000000005,0.0,-0.0,0.0,60.23592755413297,47.07613744542326,0.0,0.015267175572519083,0.007633587786259542,-26.188951425898544,64.11584861934904,0.015267175572519083,-0.0,-0.05343511450381679,69.45916921907269,50.157907889774464,-0.26717557251908397,0.07633587786259542,0.015267175572519083,89.0,89.0,0.0,0.0,0.0,51.95,71.13,-3.0,-1.0,0.0,
0.393,43.0194375,43.0194375,0.0,-0.0,0.0,78.4882019637876,60.188980312622334,0.0,0.015267175572519083,0.007633587786259542,-32.37545569289944,79.47533140561333,0.0,-0.0,0.015267175572519083,86.04094270659962,62.13195072079788,-0.26717557251908397,0.07633587786259542,0.015267175572519083,89.0,89.0,0.0,0.0,0.0,54.92,75.49,-4.0,1.0,-1.0,
0.43,50.066521875,50.066521875,0.0,-0.0,0.0,93.64497055115851,70.48199830318853,-0.007633587786259542,-0.015267175572519083,-0.007633587786259542,-37.63398431985021,92.53089177393797,0.0,-0.0,0.015267175572519083,100.1354501709975,72.30988712716778,-0.26717557251908397,0.07633587786259542,0.015267175572519083,89.0,89.0,0.0,0.0,0.0,57.22,78.72,-4.0,-4.0,0.0,
0.46599999999999997,56.05654359375,56.05654359375,0.0,-0.0,0.0,106.52822385042376,79.2310635951698,-0.007633587786259542,-0.015267175572519083,-0.007633587786259542,-42.05329275653419,103.54351557823637,0.007633587786259542,0.007633587786259542,-0.007633587786259542,112.1157815157357,80.9611330725822,-0.26717557251908397,0.07633587786259542,0.015267175572519083,89.0,89.0,0.0,0.0,0.0,59.41,81.87,-3.0,5.0,1.0,
0.503,46.952022144985634,70.46589772003419,0.030534351145038167,-0.0,0.0,117.47898915479922,86.66776909335388,-0.007633587786259542,-0.015267175572519083,-0.007633587786259542,-45.80970492771558,112.90424581189001,0.007633587786259542,0.007633587786259542,-0.007633587786259542,122.29906315876318,88.31469212618445,-0.26717557251908397,0.07633587786259542,0.015267175572519083,89.0,89.0,0.0,0.0,0.0,61.21,84.21,-4.0,-7.0,0.0,
0.5409999999999999,39.21317891353592,82.71384872737576,0.030534351145038167,-0.0,0.0,126.89215471092129,93.26374190795424,0.007633587786259542,0.03816793893129771,0.015267175572519083,-49.00265527321976,120.86086651049561,0.007633587786259542,0.007633587786259542,-0.007633587786259542,130.95485255533652,94.56521732174637,-0.26717557251908397,0.07633587786259542,0.015267175572519083,89.0,89.0,0.0,0.0,0.0,62.81,86.31,-4.0,8.0,0.0,
0.5800000000000001,32.42613290396003,93.13815236296885,0.007633587786259542,0.007633587786259542,0.0,134.89334543362506,98.87031880036454,0.007633587786259542,0.03816793893129771,0.015267175572519083,-51.716663066898306,127.62399410431038,0.007633587786259542,0.007633587786259542,-0.007633587786259542,138.31227354242384,99.878163737974,-0.26717557251908397,0.07633587786259542,0.015267175572519083,89.0,89.0,0.0,0.0,0.0,64.19,88.21,-5.0,0.0,0.0,
0.617,26.657143795820524,101.99881045322299,0.007633587786259542,0.007633587786259542,0.0,141.76327452678248,103.79001602981242,0.015267175572519083,0.04580152671755725,0.0,-54.023569691525076,133.37265255905294,0.007633587786259542,0.007633587786259542,-0.007633587786259542,144.56608138144807,104.39416819176749,-0.26717557251908397,0.07633587786259542,0.015267175572519083,89.0,89.0,0.0,0.0,0.0,65.26,89.61,-3.0,0.0,1.0,
0.655,21.753503053901944,109.53036982993899,0.007633587786259542,0.007633587786259542,0.0,147.6027142559663,107.97175867484312,0.015267175572519083,0.04580152671755725,0.0,-55.98444032245783,138.2590122455841,0.007633587786259542,0.007633587786259542,-0.007633587786259542,149.88246689958052,108.23316129046904,-0.22137404580152673,0.15267175572519084,0.022900763358778626,89.0,89.0,0.0,0.0,0.0,66.15,91.19,-3.0,8.0,0.0,
0.6930000000000001,17.58540842327115,115.9321953001476,0.007633587786259542,0.007633587786259542,0.0,152.57585851186937,111.5658253413078,0.0,0.015267175572519083,-0.015267175572519083,-57.65118035875067,142.41241797913557,0.007633587786259542,0.007633587786259542,-0.007633587786259542,154.40139458999312,111.49630542436536,-0.22137404580152673,0.15267175572519084,0.022900763358778626,89.0,89.0,0.0,0.0,0.0,66.94,92.16,-4.0,-6.0,0.0,
0.732,14.042527987234976,121.37374694982492,0.007633587786259542,0.007633587786259542,0.0,156.79590609887777,114.58106681862182,0.0,-0.0,-0.022900763358778626,-59.067909389599585,145.94281285265433,0.007633587786259542,0.007633587786259542,-0.007633587786259542,158.2424831268438,114.26997793817723,-0.22137404580152673,0.15267175572519084,0.022900763358778626,89.0,89.0,0.0,0.0,0.0,67.55,93.31,-4.0,2.0,1.0,
0.77,11.031079616604227,125.99906585205063,0.007633587786259542,0.007633587786259542,0.0,160.15400678016843,116.57437298036118,-0.007633587786259542,0.015267175572519083,0.0,-60.27212906582116,148.94364849514528,0.007633587786259542,0.007633587786259542,-0.007633587786259542,161.5074083831669,116.62759957491733,-0.22137404580152673,0.15267175572519084,0.022900763358778626,89.0,89.0,0.0,0.0,0.0,68.56,93.95,-4.0,-6.0,0.0,
0.808,8.473882897795821,130.79836162936803,0.0,-0.030534351145038167,-0.007633587786259542,163.00839235926549,118.26868321783964,-0.007633587786259542,0.015267175572519083,0.0,-61.2957157906095,151.49435879126258,0.007633587786259542,0.007633587786259542,-0.007633587786259542,164.28259485104152,118.63157796614641,-0.22137404580152673,0.15267175572519084,0.022900763358778626,89.0,89.0,0.0,0.0,0.0,68.98,94.67,-4.0,12.0,1.0,
0.847,6.300265686808675,134.8777630400878,0.0,-0.030534351145038167,-0.007633587786259542,165.43462010149798,119.70884691969633,-0.007633587786259542,0.015267175572519083,0.0,-62.16576450667959,153.6624625429623,0.007633587786259542,0.007633587786259542,-0.007633587786259542,166.64150334873494,120.33495959869113,-0.22137404580152673,0.15267175572519084,0.022900763358778626,89.0,89.0,0.0,0.0,0.0,69.96,95.14,-5.0,-1.0,-2.0,
0.885,4.2945506110406555,138.2171091139233,0.007633587786259542,-0.05343511450381679,0.0,167.49691368239561,120.93298606627451,-0.007633587786259542,0.015267175572519083,0.0,-62.90530591533916,155.50535073190704,0.007633587786259542,0.007633587786259542,-0.007633587786259542,168.64657557177435,121.78283398635413,-0.22137404580152673,0.15267175572519084,0.022900763358778626,89.0,89.0,0.0,0.0,0.0,69.9,95.56,-4.0,7.0,1.0,
0.923,2.4155270808806693,140.62611748648294,0.030534351145038167,-0.022900763358778626,0.04580152671755725,169.2498632261586,121.97350434086597,-0.007633587786259542,0.015267175572519083,0.0,-63.5339161126998,157.07180569251008,0.007633587786259542,0.007633587786259542,-0.007633587786259542,170.35088696135784,123.0135272158677,-0.22137404580152673,0.15267175572519084,0.022900763358778626,89.0,89.0,0.0,0.0,0.0,70.26,96.03,-6.0,3.0,-5.0,
0.961,1.054490366403086,142.4711908411296,0.022900763358778626,-0.030534351145038167,0.0,170.73987033835715,122.85794487426871,-0.007633587786259542,0.015267175572519083,0.0,-64.06823478045635,158.40329240902267,0.007633587786259542,0.007633587786259542,-0.007633587786259542,171.79955164250381,124.05961646095422,-0.22137404580152673,0.15267175572519084,0.022900763358778626,89.0,89.0,0.0,0.0,0.0,70.26,96.14,-3.0,0.0,4.0,
0.999,-0.10239084090285977,144.0395031925793,0.022900763358778626,-0.030534351145038167,0.0,172.00637638372592,123.60971932766104,-0.007633587786259542,0.015267175572519083,0.0,-64.52240564804941,159.53505611805838,0.007633587786259542,0.007633587786259542,-0.007633587786259542,173.0309166214779,124.94879231927777,-0.22137404580152673,0.15267175572519084,0.022900763358778626,89.0,89.0,0.0,0.0,0.0,71.24,96.69,-5.0,0.0,-3.0,
1.037,-1.0857398671129137,145.37256869131153,0.022900763358778626,-0.030534351145038167,0.0,173.08290652228936,124.24872761304452,-0.007633587786259542,0.015267175572519083,0.0,-64.90845088550351,160.4970552707387,0.007633587786259542,0.007633587786259542,-0.007633587786259542,174.07790128108678,125.70485134083752,-0.19083969465648856,0.19083969465648856,0.0,89.0,89.0,0.0,0.0,0.0,70.97,96.82,-3.0,-1.0,2.0,
1.075,-1.9215865393914595,146.50567436523392,0.022900763358778626,-0.030534351145038167,0.0,174.5332396507732,126.06668112354618,0.0,0.007633587786259542,0.0,-65.2365893373395,161.314754550517,0.007633587786259542,0.007633587786259542,-0.007633587786259542,174.96783824175432,126.34750150916331,-0.19083969465648856,0.19083969465648856,0.0,89.0,89.0,0.0,0.0,0.0,71.84,97.12,-4.0,12.0,-6.0,
1.1139999999999999,-2.6320562108282233,147.46881418806797,0.022900763358778626,-0.030534351145038167,0.0,175.16054792363732,126.18689613417949,-0.007633587786259542,-0.0,-0.015267175572519083,-65.51550702140008,162.00979893832854,0.007633587786259542,0.007633587786259542,-0.007633587786259542,175.72428465832175,126.89375415224023,-0.19083969465648856,0.19083969465648856,0.0,89.0,89.0,0.0,0.0,0.0,72.1,97.13,-4.0,-10.0,3.0,
1.1520000000000001,-3.325033370494224,148.55207580901742,0.015267175572519083,-0.015267175572519083,0.030534351145038167,175.69375995557184,126.28907889321782,-0.007633587786259542,-0.0,-0.015267175572519083,-65.75258705285158,162.60058666796837,0.007633587786259542,0.007633587786259542,-0.007633587786259542,176.36726411240406,127.35806889885562,-0.19083969465648856,0.19083969465648856,0.0,89.0,89.0,0.0,0.0,0.0,72.29,97.54,-5.0,14.0,0.0,
1.19,-3.9140639562103248,149.47284818682448,0.015267175572519083,-0.015267175572519083,0.030534351145038167,176.14699018271617,126.37593423840039,-0.007633587786259542,-0.0,-0.015267175572519083,-66.11942271359013,163.1456908198093,-0.007633587786259542,0.007633587786259542,0.0,176.91379664837402,127.7527364334787,-0.19083969465648856,0.19083969465648856,0.0,89.0,89.0,0.0,0.0,0.0,72.01,97.8,-4.0,-1.0,3.0,
1.229,-4.41473995406901,150.25550470796045,0.015267175572519083,-0.015267175572519083,0.030534351145038167,176.53223587578884,126.44976128180558,-0.007633587786259542,-0.0,-0.015267175572519083,-66.43123302521788,163.60902934887406,-0.007633587786259542,0.007633587786259542,0.0,177.37808976196374,128.08813895241212,-0.1984732824427481,0.16030534351145037,0.022900763358778626,89.0,89.0,0.0,0.0,0.0,72.0,97.69,-5.0,-1.0,-2.0,
1.267,-4.840314552248893,150.92076275092606,0.015267175572519083,-0.015267175572519083,0.030534351145038167,176.85969471490063,126.51251426869999,-0.007633587786259542,-0.0,-0.015267175572519083,-66.69627179010148,164.00286709857912,-0.007633587786259542,0.007633587786259542,0.0,177.77260913752264,128.37310132251318,-0.21374045801526717,0.1450381679389313,0.015267175572519083,89.0,89.0,0.0,0.0,0.0,72.02,97.78,-5.0,8.0,-1.0,
1.305,-5.202052960701793,151.4862320874468,0.015267175572519083,-0.015267175572519083,0.030534351145038167,177.44347549994268,127.34921144922883,0.0,-0.0,0.030534351145038167,-66.92155474025253,164.33762918582843,-0.007633587786259542,0.007633587786259542,0.0,178.1079506067477,128.6153193370991,-0.21374045801526717,0.1450381679389313,0.015267175572519083,89.0,89.0,0.0,0.0,0.0,71.83,98.02,-3.0,3.0,3.0,
1.342,-5.509530607886758,151.96688102348944,0.015267175572519083,-0.015267175572519083,0.030534351145038167,177.93968916722844,128.06040405267836,0.0,-0.0,0.030534351145038167,-66.95635489029034,164.64471414236561,0.03816793893129771,-0.022900763358778626,-0.022900763358778626,178.392990855589,128.8212046494971,-0.21374045801526717,0.1450381679389313,0.015267175572519083,89.0,89.0,0.0,0.0,0.0,72.15,98.05,-5.0,1.0,-1.0,
1.38,-5.831092426088944,152.53018231853832,0.0,-0.0,-0.05343511450381679,178.36147078442133,128.66491776561045,0.0,-0.0,0.030534351145038167,-66.98593501782248,164.90573635542222,0.03816793893129771,-0.022900763358778626,-0.022900763358778626,178.63527506710412,128.9962071650354,-0.21374045801526717,0.1450381679389313,0.015267175572519083,89.0,89.0,0.0,0.0,0.0,71.86,98.2,-6.0,11.0,-1.0,
1.418,-6.104419971560802,153.00898841932985,0.0,-0.0,-0.05343511450381679,178.71998515903528,129.17875442160275,0.0,-0.0,0.030534351145038167,-67.17234881480128,165.14714325773335,0.0,0.022900763358778626,-0.007633587786259542,178.84121664689195,129.14495930324296,-0.21374045801526717,0.1450381679389313,0.015267175572519083,89.0,89.0,0.0,0.0,0.0,72.27,98.29,-4.0,-6.0,0.0,
1.457,-6.182836457024237,153.52832799781294,0.030534351145038167,0.022900763358778626,0.015267175572519083,179.02472237745712,129.6155155791962,0.0,-0.0,0.030534351145038167,-67.33080054223326,165.3523391246978,0.0,0.022900763358778626,-0.007633587786259542,179.01626698971162,129.2713986207194,-0.21374045801526717,0.1450381679389313,0.015267175572519083,89.0,89.0,0.0,0.0,0.0,72.31,98.36,-4.0,0.0,2.0,
1.495,-6.249490469668158,153.96976663952356,0.030534351145038167,0.022900763358778626,0.015267175572519083,179.2837490131157,129.98676256315062,0.0,-0.0,0.030534351145038167,-67.46548451055044,165.5267556116176,0.0,0.022900763358778626,-0.007633587786259542,179.16505978110834,129.37887204057438,-0.21374045801526717,0.1450381679389313,0.015267175572519083,89.0,89.0,0.0,0.0,0.0,72.71,98.38,-5.0,3.0,1.0,
1.533,-6.069872241182773,154.0264621234114,0.0,0.04580152671755725,-0.03816793893129771,179.5039216534255,130.3023224995119,0.0,-0.0,0.030534351145038167,-67.57996588362005,165.67500962549943,0.0,0.022900763358778626,-0.007633587786259542,179.29153365379554,129.4702244474511,-0.21374045801526717,0.1450381679389313,0.015267175572519083,89.0,89.0,0.0,0.0,0.0,72.66,98.22,-4.0,1.0,1.0,
1.571,-6.286849903755886,155.0829405086129,0.015267175572519083,0.030534351145038167,0.0,179.6910683976888,130.57054844541895,0.0,-0.0,0.030534351145038167,-67.67727505072921,165.80102553729898,0.0,0.022900763358778626,-0.007633587786259542,179.39903644557967,129.54787399329632,-0.21374045801526717,0.1450381679389313,0.015267175572519083,89.0,89.0,0.0,0.0,0.0,72.91,98.15,-4.0,1.0,-1.0,
1.609,-6.436751733142677,155.31107374026516,0.0,-0.022900763358778626,-0.015267175572519083,179.85014313031263,130.79854049943995,0.0,-0.0,0.030534351145038167,-67.75998784277199,165.9081390623286,0.0,0.022900763358778626,-0.007633587786259542,179.49041381859618,129.61387610726473,-0.21374045801526717,0.1450381679389313,0.015267175572519083,89.0,89.0,0.0,0.0,0.0,72.94,97.97,-4.0,1.0,-1.0,
1.647,-6.56416828812145,155.5049869871696,0.0,-0.022900763358778626,-0.015267175572519083,180.30977428215058,131.71946045074898,0.030534351145038167,-0.007633587786259542,-0.015267175572519083,-67.83029371600836,165.99918555860376,0.0,0.022900763358778626,-0.007633587786259542,179.56808458566022,129.6699779041379,-0.21374045801526717,0.1450381679389313,0.015267175572519083,89.0,89.0,0.0,0.0,0.0,72.87,98.16,-4.0,5.0,-3.0,
1.685,-6.614712506760657,155.23201473125002,0.04580152671755725,-0.007633587786259542,0.015267175572519083,180.70046076121284,132.50224240936166,0.030534351145038167,-0.007633587786259542,-0.015267175572519083,-67.89005370825927,166.07657508043766,0.0,0.022900763358778626,-0.007633587786259542,179.63410473766464,129.7176644314801,-0.21374045801526717,0.1450381679389313,0.015267175572519083,89.0,89.0,0.0,0.0,0.0,73.55,98.33,-3.0,-8.0,-1.0,
1.723,-6.657675092603983,154.9999883137184,0.04580152671755725,-0.007633587786259542,0.015267175572519083,181.03254426841576,133.16760707418243,0.030534351145038167,-0.007633587786259542,-0.015267175572519083,-67.94084970167255,166.14235617399646,0.0,0.022900763358778626,-0.007633587786259542,179.6902218668684,129.75819797972096,-0.21374045801526717,0.1450381679389313,0.015267175572519083,89.0,89.0,0.0,0.0,0.0,73.12,98.48,-5.0,6.0,2.0,
1.761,-6.69419329057081,154.8027658588165,0.04580152671755725,-0.007633587786259542,0.015267175572519083,181.31481524953824,133.7331670392801,0.030534351145038167,-0.007633587786259542,-0.015267175572519083,-67.56159515800748,166.11611840111928,0.03816793893129771,-0.030534351145038167,-0.04580152671755725,179.7379214266916,129.7926514957257,-0.21374045801526717,0.1450381679389313,0.015267175572519083,89.0,89.0,0.0,0.0,0.0,73.82,98.39,-4.0,-8.0,-2.0,
1.799,-6.725233758842614,154.63512677214993,0.04580152671755725,-0.007633587786259542,0.015267175572519083,181.55474558349235,134.2138930096131,0.030534351145038167,-0.007633587786259542,-0.015267175572519083,-67.15652801730657,166.17892563024333,0.061068702290076333,-0.030534351145038167,-0.007633587786259542,179.77846605254132,129.8219369843297,-0.21374045801526717,0.1450381679389313,0.015267175572519083,89.0,89.0,0.0,0.0,0.0,73.2,98.43,-4.0,8.0,3.0,
1.837,-6.751618156873646,154.49263354848333,0.04580152671755725,-0.007633587786259542,0.015267175572519083,181.54397051431943,134.1394050362742,-0.015267175572519083,0.007633587786259542,-0.007633587786259542,-66.8122209477108,166.23231177499878,0.061068702290076333,-0.030534351145038167,-0.007633587786259542,179.81292898451358,129.84682964964313,-0.21374045801526717,0.1450381679389313,0.015267175572519083,89.0,89.0,0.0,0.0,0.0,73.97,98.5,-5.0,-1.0,-3.0,
1.875,-6.774044895200024,154.3715143083667,0.04580152671755725,-0.007633587786259542,0.015267175572519083,181.3384445684397,133.6080025562272,0.0,0.04580152671755725,-0.007633587786259542,-66.5195599385544,166.2776899980409,0.061068702290076333,-0.030534351145038167,-0.007633587786259542,179.84222247669,129.86798841515952,-0.21374045801526717,0.1450381679389313,0.015267175572519083,89.0,89.0,0.0,0.0,0.0,73.26,98.36,-4.0,-1.0,6.0,
1.913,-6.793107622777446,154.26856295426757,0.04580152671755725,-0.007633587786259542,0.015267175572519083,181.4875768581161,133.9316074667791,0.007633587786259542,0.061068702290076333,0.007633587786259542,-66.27079808077144,166.31626148762672,0.061068702290076333,-0.030534351145038167,-0.007633587786259542,179.86712194503997,129.88597336584849,-0.21374045801526717,0.1450381679389313,0.015267175572519083,89.0,89.0,0.0,0.0,0.0,73.77,98.58,-6.0,15.0,-3.0,
1.952,-6.8093109412182535,154.1810543032833,0.04580152671755725,-0.007633587786259542,0.015267175572519083,181.61433930434106,134.2066716407482,0.007633587786259542,0.061068702290076333,0.007633587786259542,-66.05935050165594,166.34904725377467,0.061068702290076333,-0.030534351145038167,-0.007633587786259542,179.88880557710692,129.90113080294174,-0.22900763358778625,0.20610687022900764,-0.04580152671755725,89.0,89.0,0.0,0.0,0.0,73.3,98.43,-3.0,-7.0,5.0,
1.99,-6.82308376189294,154.1066719499467,0.04580152671755725,-0.007633587786259542,0.015267175572519083,181.72208738363227,134.44047618862194,0.007633587786259542,0.061068702290076333,0.007633587786259542,-66.28168573904797,166.36434775142428,0.0,-0.022900763358778626,0.007633587786259542,179.90723666436384,129.91401462447098,-0.22900763358778625,0.20610687022900764,-0.04580152671755725,89.0,89.0,0.0,0.0,0.0,72.91,98.27,-6.0,25.0,0.0,
2.027,-6.834790659466424,154.04344694961057,0.04580152671755725,-0.007633587786259542,0.015267175572519083,181.8136732510298,134.63921005431462,0.007633587786259542,0.061068702290076333,0.007633587786259542,-66.48057662287344,166.3282253373172,0.0,-0.06870229007633588,0.03816793893129771,179.9229030885322,129.92496587277083,-0.22900763358778625,0.20610687022900764,-0.04580152671755725,89.0,89.0,0.0,0.0,0.0,73.73,98.39,-4.0,-5.0,4.0,
2.065,-6.844741522403885,153.98970569932487,0.04580152671755725,-0.007633587786259542,0.015267175572519083,181.8915212383177,134.8081338401534,0.007633587786259542,0.061068702290076333,0.007633587786259542,-66.74557995380184,166.3509349573686,0.030534351145038167,-0.1450381679389313,0.015267175572519083,179.9362195490753,129.9342744338257,-0.22900763358778625,0.20610687022900764,-0.04580152671755725,89.0,89.0,0.0,0.0,0.0,73.28,98.27,-4.0,7.0,4.0,
2.1029999999999998,-6.853199755900727,153.944025636582,0.04580152671755725,-0.007633587786259542,0.015267175572519083,181.95769202751242,134.95171905811637,0.007633587786259542,0.061068702290076333,0.007633587786259542,-66.97083278509098,166.3702381344123,0.030534351145038167,-0.1450381679389313,0.015267175572519083,179.94753854053695,129.94218671072235,-0.22900763358778625,0.20610687022900764,-0.04580152671755725,89.0,89.0,0.0,0.0,0.0,74.03,98.5,-5.0,14.0,0.0,
2.141,-6.860389254373042,153.90519758325058,0.04580152671755725,-0.007633587786259542,0.015267175572519083,182.01393719832794,135.07376649338488,0.007633587786259542,0.061068702290076333,0.007633587786259542,-67.12137049336555,166.3086115884536,0.04580152671755725,-0.35877862595419846,0.07633587786259542,179.95715968327934,129.94891214608452,-0.22900763358778625,0.20610687022900764,-0.04580152671755725,89.0,89.0,0.0,0.0,0.0,73.9,98.12,-7.0,13.0,3.0,
2.1799999999999997,-6.866500328074511,153.87219373791888,0.04580152671755725,-0.007633587786259542,0.015267175572519083,182.06174559352112,135.17750681336312,0.007633587786259542,0.061068702290076333,0.007633587786259542,-67.24932754539893,166.25622902438872,0.04580152671755725,-0.35877862595419846,0.07633587786259542,179.96851704392336,129.95592647606603,-0.07633587786259542,0.5801526717557252,-0.2366412213740458,89.0,89.0,0.0,0.0,0.0,74.08,98.2,-7.0,27.0,1.0,
2.218,-6.871694740720759,153.84414046938693,0.04580152671755725,-0.007633587786259542,0.015267175572519083,182.10238272943533,135.2656860853446,0.007633587786259542,0.061068702290076333,0.007633587786259542,-67.3580910396273,166.21170384493357,0.04580152671755725,-0.35877862595419846,0.07633587786259542,179.97992270886772,129.96195354204647,-0.06870229007633588,0.7862595419847328,-0.3816793893129771,89.0,89.0,0.0,0.0,0.0,74.67,97.85,-9.0,11.0,0.0,
2.256,-6.87610999147007,153.82029519113476,0.04580152671755725,-0.007633587786259542,0.015267175572519083,181.81093097537612,134.54195651198384,0.07633587786259542,-0.15267175572519084,0.05343511450381679,-67.45054000972142,166.1738574423967,0.04580152671755725,-0.35877862595419846,0.07633587786259542,179.98961752407044,129.96707654812985,-0.06870229007633588,0.7862595419847328,-0.3816793893129771,89.0,89.0,0.0,0.0,0.0,74.89,97.85,-5.0,23.0,1.0,
2.295,-6.879862954606985,153.80002670462042,0.04580152671755725,-0.007633587786259542,0.015267175572519083,181.5631969844258,133.92678637462717,0.07633587786259542,-0.15267175572519084,0.05343511450381679,-67.52912163430142,166.14168800024035,0.04580152671755725,-0.35877862595419846,0.07633587786259542,179.99922071241258,129.97279369872058,0.0916030534351145,0.9465648854961832,-0.2366412213740458,89.0,89.0,0.0,0.0,0.0,75.6,97.89,-8.0,22.0,0.0,
2.334,-6.883052973273362,153.78279849108324,0.04580152671755725,-0.007633587786259542,0.015267175572519083,181.35262309211802,133.403891757874,0.07633587786259542,-0.15267175572519084,0.05343511450381679,-67.59591601519442,166.11434397440746,0.04580152671755725,-0.35877862595419846,0.07633587786259542,180.0073834225034,129.97765327672266,0.0916030534351145,0.9465648854961832,-0.2366412213740458,89.0,89.0,0.0,0.0,0.0,76.19,97.61,-9.0,24.0,1.0,
2.372,-6.885764489139782,153.76815450957665,0.04580152671755725,-0.007633587786259542,0.015267175572519083,181.1736352836564,132.9594313336338,0.07633587786259542,-0.15267175572519084,0.05343511450381679,-67.65269123895347,166.0911015524495,0.04580152671755725,-0.35877862595419846,0.07633587786259542,180.0143217260806,129.98178391802446,0.0916030534351145,0.9465648854961832,-0.2366412213740458,89.0,89.0,0.0,0.0,0.0,76.83,97.76,-9.0,41.0,4.0,
2.41,-6.888069277626239,153.75570712529603,0.04580152671755725,-0.007633587786259542,0.015267175572519083,181.02149564646405,132.58163997302964,0.07633587786259542,-0.15267175572519084,0.05343511450381679,-67.70095017914866,166.07134549378523,0.04580152671755725,-0.35877862595419846,0.07633587786259542,180.02125745206013,129.98497053565006,0.05343511450381679,1.0687022900763359,-0.183206106870229,89.0,89.0,0.0,0.0,0.0,77.09,97.89,-9.0,31.0,7.0,
2.448,-6.890028347839728,153.7451268486575,0.04580152671755725,-0.007633587786259542,0.015267175572519083,180.89217695485053,132.2605173165161,0.07633587786259542,-0.15267175572519084,0.05343511450381679,-67.74197027831458,166.0545528439206,0.04580152671755725,-0.35877862595419846,0.07633587786259542,180.02715281914274,129.98767916063184,0.05343511450381679,1.0687022900763359,-0.183206106870229,89.0,89.0,0.0,0.0,0.0,77.77,97.84,-9.0,34.0,3.0,
2.487,-6.891693557521194,153.73613361351474,0.04580152671755725,-0.007633587786259542,0.015267175572519083,180.74047798405522,131.84620093005356,0.04580152671755725,0.21374045801526717,-0.25190839694656486,-67.7768373626056,166.04027909153567,0.04580152671755725,-0.35877862595419846,0.07633587786259542,180.03216388116297,129.98998149186633,0.05343511450381679,1.0687022900763359,-0.183206106870229,89.0,89.0,0.0,0.0,0.0,79.15,97.79,-8.0,35.0,2.0,
2.525,-6.893108985750439,153.7284893636434,0.04580152671755725,-0.007633587786259542,0.015267175572519083,180.6115338588792,131.4940320015604,0.04580152671755725,0.21374045801526717,-0.25190839694656486,-67.80647438425298,166.02814640200847,0.04580152671755725,-0.35877862595419846,0.07633587786259542,180.03642328388017,129.99193847341564,0.05343511450381679,1.0687022900763359,-0.183206106870229,89.0,89.0,0.0,0.0,0.0,80.11,97.26,-13.0,28.0,1.0,
2.564,-6.8943120997452985,153.72199175125277,0.04580152671755725,-0.007633587786259542,0.015267175572519083,180.3756526066403,130.92879507973876,0.12213740458015267,0.4122137404580153,-0.366412213740458,-67.83166585265324,166.01783361591035,0.04580152671755725,-0.35877862595419846,0.07633587786259542,180.04004377618978,129.99360190773257,0.05343511450381679,1.0687022900763359,-0.183206106870229,89.0,89.0,0.0,0.0,0.0,80.87,97.18,-13.0,23.0,2.0,
2.602,-6.895334746640929,153.71646878072073,0.04580152671755725,-0.007633587786259542,0.015267175572519083,180.1751535422372,130.44834369619036,0.12213740458015267,0.4122137404580153,-0.366412213740458,-67.85307860079347,166.00906774772696,0.04580152671755725,-0.35877862595419846,0.07633587786259542,180.04312119465294,129.99501582690198,0.05343511450381679,1.0687022900763359,-0.183206106870229,89.0,89.0,0.0,0.0,0.0,82.22,96.99,-6.0,9.0,7.0,
2.641,-6.896203996502214,153.71177425576852,0.04580152671755725,-0.007633587786259542,0.015267175572519083,180.0047293374946,130.03996002017422,0.12213740458015267,0.4122137404580153,-0.366412213740458,-71.05543515603077,165.9731382166205,0.10687022900763359,0.3969465648854962,0.4961832061068702,180.04573700034663,129.99621765819597,0.05343511450381679,1.0687022900763359,-0.183206106870229,89.0,89.0,0.0,0.0,0.0,83.76,96.59,-5.0,6.0,0.0,
2.68,-6.896942858884307,153.7077839095591,0.04580152671755725,-0.007633587786259542,0.015267175572519083,180.0802434180778,130.18077285454368,-0.09923664122137404,-0.32061068702290074,0.015267175572519083,-73.77743822798247,165.94259811518,0.10687022900763359,0.3969465648854962,0.4961832061068702,180.04796043518627,129.99723921479585,0.05343511450381679,1.0687022900763359,-0.183206106870229,89.0,89.0,0.0,0.0,0.0,84.75,96.5,-5.0,22.0,1.0,
2.718,-6.897570891909085,153.70439211528114,0.04580152671755725,-0.007633587786259542,0.015267175572519083,180.1444303865735,130.30046376375773,-0.09923664122137404,-0.32061068702290074,0.015267175572519083,-76.09114083914142,165.9166390289556,0.10687022900763359,0.3969465648854962,0.4961832061068702,180.04251829373126,129.9960312020279,-0.19083969465648856,0.20610687022900764,0.030534351145038167,89.0,89.0,0.0,0.0,0.0,86.08,96.5,-6.0,14.0,2.0,
2.757,-6.8981047199801475,153.70150909014484,0.04580152671755725,-0.007633587786259542,0.015267175572519083,180.19898930979485,130.40220103658967,-0.09923664122137404,-0.32061068702290074,0.015267175572519083,-78.05778805862653,165.89457380566483,0.10687022900763359,0.3969465648854962,0.4961832061068702,180.0378924734945,129.99500439117514,-0.19083969465648856,0.20610687022900764,0.030534351145038167,89.0,89.0,0.0,0.0,0.0,87.27,96.11,-9.0,16.0,0.0,
2.794,-6.89855847384055,153.699058518779,0.04580152671755725,-0.007633587786259542,0.015267175572519083,180.245364394533,130.48867771849683,-0.09923664122137404,-0.32061068702290074,0.015267175572519083,-79.72943819518888,165.8758183658677,0.10687022900763359,0.3969465648854962,0.4961832061068702,180.03396052629327,129.9941316019503,-0.19083969465648856,0.20610687022900764,0.030534351145038167,89.0,89.0,0.0,0.0,0.0,88.36,95.68,-9.0,19.0,-2.0,
2.833,-6.898944164621892,153.69697553311804,0.04580152671755725,-0.007633587786259542,0.015267175572519083,180.28478321656044,130.5621828981179,-0.09923664122137404,-0.32061068702290074,0.015267175572519083,-81.15034081126687,165.85987624204014,0.10687022900763359,0.3969465648854962,0.4961832061068702,180.0306183711722,129.99338973110918,-0.19083969465648856,0.20610687022900764,0.030534351145038167,89.0,89.0,0.0,0.0,0.0,89.4,95.4,-11.0,25.0,-7.0,
2.872,-7.945162856083924,154.09717083890447,0.12213740458015267,-0.17557251908396945,-0.1450381679389313,180.31828921528376,130.62466230079582,-0.09923664122137404,-0.32061068702290074,0.015267175572519083,-82.35810803493317,165.8463254367867,0.10687022900763359,0.3969465648854962,0.4961832061068702,180.02777753931932,129.99275914089424,-0.19083969465648856,0.20610687022900764,0.030534351145038167,89.0,89.0,0.0,0.0,0.0,90.5,95.46,-11.0,29.0,-8.0,
2.911,-8.791997695047082,154.6264754640334,0.09923664122137404,-0.09923664122137404,-0.022900763358778626,180.34676931419858,130.67776979307206,-0.09923664122137404,-0.32061068702290074,0.015267175572519083,-83.38471017504952,165.8348072523213,0.10687022900763359,0.3969465648854962,0.4961832061068702,180.02536283224435,129.99222313921152,-0.19083969465648856,0.20610687022900764,0.030534351145038167,89.0,89.0,0.0,0.0,0.0,91.39,95.54,-9.0,21.0,-6.0,
2.95,-9.55013225420663,154.7982730633706,0.11450381679389313,-0.007633587786259542,0.13740458015267176,180.37097739827618,130.72291116150686,-0.09923664122137404,-0.32061068702290074,0.015267175572519083,-84.25732199414841,165.8250167955257,0.10687022900763359,0.3969465648854962,0.4961832061068702,180.02331033123065,129.99176753778121,-0.19083969465648856,0.20610687022900764,0.030534351145038167,89.0,89.0,0.0,0.0,0.0,91.9,95.45,-8.0,17.0,0.0,
2.989,-10.194546629492246,154.94430102280722,0.11450381679389313,-0.007633587786259542,0.13740458015267176,180.39155426974213,130.76128132467642,-0.09923664122137404,-0.32061068702290074,0.015267175572519083,-84.99904204038248,165.81669490724943,0.10687022900763359,0.3969465648854962,0.4961832061068702,180.021565705369,129.99138027656545,-0.19083969465648856,0.20610687022900764,0.030534351145038167,89.0,89.0,0.0,0.0,0.0,92.61,95.16,-7.0,14.0,1.0,
3.028,-10.742298848485019,155.06842478832834,0.11450381679389313,-0.007633587786259542,0.13740458015267176,181.1065515275899,132.19603982203748,0.015267175572519083,0.015267175572519083,0.007633587786259542,-85.62950407968142,165.8096213022146,0.10687022900763359,0.3969465648854962,0.4961832061068702,180.02008277338658,129.99105110453206,-0.19083969465648856,0.20610687022900764,0.030534351145038167,89.0,89.0,0.0,0.0,0.0,93.29,94.91,-9.0,16.0,0.0,
3.067,-11.207888234628877,155.1739299890213,0.11450381679389313,-0.007633587786259542,0.13740458015267176,181.7142991967605,133.4155845447944,0.015267175572519083,0.015267175572519083,0.007633587786259542,-86.16539681308554,165.803608737935,0.10687022900763359,0.3969465648854962,0.4961832061068702,180.01882228120152,129.99077130830366,-0.19083969465648856,0.20610687022900764,0.030534351145038167,89.0,89.0,0.0,0.0,0.0,94.08,94.8,-11.0,13.0,-3.0,
3.106,-11.603639212851155,155.26360940961032,0.11450381679389313,-0.007633587786259542,0.13740458015267176,182.2308847155555,134.45219755913777,0.015267175572519083,0.015267175572519083,0.007633587786259542,-86.62090563647904,165.79849805829735,0.10687022900763359,0.3969465648854962,0.4961832061068702,180.01775086284422,129.99053348150954,-0.19083969465648856,0.20610687022900764,0.030534351145038167,89.0,89.0,0.0,0.0,0.0,94.77,94.71,-7.0,9.0,0.0,
3.144,-11.940027544340092,155.33983691711097,0.11450381679389313,-0.007633587786259542,0.13740458015267176,182.66998240653126,135.33331862132965,0.015267175572519083,0.015267175572519083,0.007633587786259542,-87.00808813636351,165.79415398060533,0.10687022900763359,0.3969465648854962,0.4961832061068702,180.01684015724052,129.99033132873453,-0.19083969465648856,0.20610687022900764,0.030534351145038167,89.0,89.0,0.0,0.0,0.0,95.25,94.57,-5.0,7.0,2.0,
3.183,-12.225957626105687,155.40463029848652,0.11450381679389313,-0.007633587786259542,0.13740458015267176,183.04321544386065,136.08227152419275,0.015267175572519083,0.015267175572519083,0.007633587786259542,-87.33719326126531,165.7904615145671,0.10687022900763359,0.3969465648854962,0.4961832061068702,180.0160660574774,129.99015949887576,-0.19083969465648856,0.20610687022900764,0.030534351145038167,89.0,89.0,0.0,0.0,0.0,95.7,94.26,-5.0,7.0,0.0,
3.221,-12.468998195606444,155.45970467265576,0.11450381679389313,-0.007633587786259542,0.13740458015267176,183.36046352559063,136.71888149162638,0.015267175572519083,0.015267175572519083,0.007633587786259542,-87.61693261743184,165.78732291843463,0.10687022900763359,0.3969465648854962,0.4961832061068702,180.01540807267872,129.9900134434958,-0.19083969465648856,0.20610687022900764,0.030534351145038167,89.0,89.0,0.0,0.0,0.0,96.15,94.01,-8.0,10.0,-2.0,
3.26,-12.675582679682087,155.5065178906996,0.11450381679389313,-0.007633587786259542,0.13740458015267176,183.6301243950611,137.25999996394495,0.015267175572519083,0.015267175572519083,0.007633587786259542,-87.8547110701734,165.78465511172203,0.10687022900763359,0.3969465648854962,0.4961832061068702,153.0146540982593,129.9896297544381,-0.22137404580152673,0.183206106870229,-0.015267175572519083,89.0,89.0,0.0,0.0,0.0,96.65,93.73,-9.0,7.0,-3.0,
3.299,-12.851179491146384,155.54630912603687,0.11450381679389313,-0.007633587786259542,0.13740458015267176,183.859336134111,137.71995066541575,0.015267175572519083,0.015267175572519083,0.007633587786259542,-35.61128961914829,166.02386674349344,0.015267175572519083,-0.007633587786259542,-0.030534351145038167,130.06401322000283,129.9893036187391,-0.22137404580152673,0.183206106870229,-0.015267175572519083,89.0,89.0,0.0,0.0,0.0,96.92,93.64,-6.0,3.0,-3.0,
3.337,-13.000436780891036,155.58013167607353,0.11450381679389313,-0.007633587786259542,0.13740458015267176,184.05416611230342,138.1109087616659,0.015267175572519083,0.015267175572519083,0.007633587786259542,8.834957804754712,166.20487998869095,0.007633587786259542,-0.007633587786259542,-0.022900763358778626,110.55596847348481,129.98902640339492,-0.22137404580152673,0.183206106870229,-0.015267175572519083,89.0,89.0,0.0,0.0,0.0,97.13,93.7,-4.0,2.0,-1.0,
3.376,-13.12730547717399,155.6088808436047,0.11450381679389313,-0.007633587786259542,0.13740458015267176,184.21977159376698,138.44322314347855,0.015267175572519083,0.015267175572519083,0.007633587786259542,46.614268115072264,166.35874124710884,0.007633587786259542,-0.007633587786259542,-0.022900763358778626,93.97413043894448,129.98879077035235,-0.22137404580152673,0.183206106870229,-0.015267175572519083,89.0,89.0,0.0,0.0,0.0,97.32,93.62,-5.0,0.0,-1.0,
3.415,-13.235143869014502,155.6333176360062,0.11450381679389313,-0.007633587786259542,0.13740458015267176,184.36053625301102,138.7256903680193,0.015267175572519083,0.015267175572519083,0.007633587786259542,78.72668187884219,166.48952331676404,0.007633587786259542,-0.007633587786259542,-0.022900763358778626,79.87956810958521,129.98859048226618,-0.22137404580152673,0.183206106870229,-0.015267175572519083,89.0,89.0,0.0,0.0,0.0,97.47,93.45,-5.0,2.0,-1.0,
3.453,-13.326806502078936,155.65408890954748,0.11450381679389313,-0.007633587786259542,0.13740458015267176,184.5595138380574,138.98214368697964,0.0,-0.0,0.0,106.02223357804661,166.60068807597096,0.007633587786259542,-0.007633587786259542,-0.022900763358778626,67.89919012962982,129.98842023739292,-0.22137404580152673,0.183206106870229,-0.015267175572519083,89.0,89.0,0.0,0.0,0.0,97.59,93.41,-6.0,2.0,-1.0,
3.492,-13.404719740183706,155.67174449205757,0.11450381679389313,-0.007633587786259542,0.13740458015267176,184.7286447853468,139.20012900809593,0.0,-0.0,0.0,129.22345252237037,166.69517812129686,0.007633587786259542,-0.007633587786259542,-0.022900763358778626,57.71586884666774,129.98827552925064,-0.22137404580152673,0.183206106870229,-0.015267175572519083,89.0,89.0,0.0,0.0,0.0,97.75,93.39,-5.0,1.0,0.0,
3.53,-13.47094599257276,155.68675173719114,0.11450381679389313,-0.007633587786259542,0.13740458015267176,184.8724060905428,139.3854165310448,0.0,-0.0,0.0,148.9065409763187,166.77293628048054,0.007633587786259542,-0.0,0.0,49.06004575614998,129.98815252732973,-0.22137404580152673,0.183206106870229,-0.015267175572519083,89.0,89.0,0.0,0.0,0.0,97.79,93.43,-4.0,0.0,0.0,
3.569,-13.527238307103456,155.6995078955547,0.11450381679389313,-0.007633587786259542,0.13740458015267176,185.06636281926623,139.71291020632785,0.0,-0.0,0.0,165.63716616217476,166.83903071578666,0.007633587786259542,-0.0,0.0,41.70259612920989,129.98804797569696,-0.22137404580152673,0.183206106870229,-0.015267175572519083,89.0,89.0,0.0,0.0,0.0,97.8,93.39,-4.0,0.0,1.0,
3.606,-13.283745317846627,155.78611152533273,0.015267175572519083,-0.0,-0.007633587786259542,185.23122603868114,139.99127983031843,0.0,-0.0,0.0,179.8581975701524,166.89521098579687,0.007633587786259542,-0.0,0.0,35.448763946310805,129.98795910680911,-0.22137404580152673,0.183206106870229,-0.015267175572519083,89.0,89.0,0.0,0.0,0.0,97.79,93.27,-4.0,0.0,0.0,
3.644,-13.076776276978322,155.85972461064407,0.015267175572519083,-0.0,-0.007633587786259542,185.3713597751838,140.22789401071043,0.0,-0.0,0.0,191.94607426693344,166.94296421530555,0.007633587786259542,-0.0,0.0,30.13300659084658,129.98788356825443,-0.22137404580152673,0.183206106870229,-0.015267175572519083,89.0,89.0,0.0,0.0,0.0,97.82,93.27,-4.0,0.0,0.0,
3.682,-12.900852592240263,155.9222957331587,0.015267175572519083,-0.0,-0.007633587786259542,185.49047345121107,140.42901606404362,0.0,-0.0,0.0,202.29670444989125,166.9530801349529,0.0,-0.0,0.0,25.614612838701987,129.98781936048294,-0.22137404580152673,0.183206106870229,-0.015267175572519083,89.0,89.0,0.0,0.0,0.0,97.84,93.25,-3.0,0.0,0.0,
3.721,-12.751317460212913,155.97548118729614,0.015267175572519083,-0.0,-0.007633587786259542,185.59172007583425,140.59996980937686,0.0,-0.0,0.0,211.09474010540538,166.96167866665317,0.0,-0.0,0.0,21.773978149379083,129.9877647838772,-0.22137404580152673,0.183206106870229,-0.015267175572519083,89.0,89.0,0.0,0.0,0.0,97.89,93.25,-3.0,0.0,0.0,
3.759,-12.624212597989667,156.02068882331295,0.015267175572519083,-0.0,-0.007633587786259542,185.6113091300031,140.58346060878324,0.0,-0.0,0.0,218.57307041259236,166.9689874185984,0.0,-0.0,0.0,18.509438663454617,129.9877183937623,-0.22137404580152673,0.183206106870229,-0.015267175572519083,89.0,89.0,0.0,0.0,0.0,97.87,93.22,-3.0,0.0,0.0,
3.798,-12.516173465099905,156.05911531392724,0.015267175572519083,-0.0,-0.007633587786259542,185.62795982604663,140.5694277882787,0.0,-0.0,0.0,224.9296511737013,166.97519985775185,0.0,-0.0,0.0,15.734580100418821,129.98767896216464,-0.22137404580152673,0.183206106870229,-0.015267175572519083,89.0,89.0,0.0,0.0,0.0,97.97,93.25,-4.0,0.0,-1.0,
3.836,-12.42434020214361,156.09177783094938,0.015267175572519083,-0.0,-0.007633587786259542,185.64211291768362,140.55749989084978,0.0,-0.0,0.0,230.30740880158575,167.02230735118292,0.0,-0.0,0.007633587786259542,13.375950321838395,129.9876454453066,-0.22137404580152673,0.183206106870229,-0.015267175572519083,89.0,89.0,0.0,0.0,0.0,97.99,93.27,-4.0,0.0,0.0,
3.874,-12.346281928630757,156.11954097041823,0.015267175572519083,-0.0,-0.007633587786259542,185.67959890828553,140.6436216346291,0.0,-0.0,0.0,234.87850278528754,167.06234872059932,0.0,-0.0,0.007633587786259542,11.371115010045035,129.9876169559773,-0.22137404580152673,0.183206106870229,-0.015267175572519083,89.0,89.0,0.0,0.0,0.0,97.95,93.3,-3.0,-1.0,0.0,
3.913,-12.279932396144833,156.14313963896674,0.015267175572519083,-0.0,-0.007633587786259542,185.71146200029716,140.71682511684156,0.0,-0.0,0.0,238.73302211588296,167.06420011537483,0.0,-0.0,0.0,9.667004995020678,129.98759274004738,-0.22137404580152673,0.183206106870229,-0.015267175572519083,89.0,89.0,0.0,0.0,0.0,97.88,93.4,-2.0,0.0,0.0,
3.951,-12.223535293531798,156.16319850723298,0.015267175572519083,-0.0,-0.007633587786259542,185.73854562850704,140.77904807672215,0.0,-0.0,0.0,242.02630006214312,167.05814493685716,0.0,-0.0,0.0,8.218511482249975,129.98757215650693,-0.22137404580152673,0.183206106870229,-0.015267175572519083,89.0,89.0,0.0,0.0,0.0,97.79,93.44,-4.0,0.0,0.0,
3.989,-12.133699419347007,156.03870668602937,0.022900763358778626,0.007633587786259542,0.0,185.76156671248543,140.83193759262062,0.0,-0.0,0.0,244.82558631646427,167.05299803511716,0.0,-0.0,0.0,6.987291996394877,129.98755466049755,-0.22137404580152673,0.183206106870229,-0.015267175572519083,89.0,89.0,0.0,0.0,0.0,97.79,93.43,-4.0,0.0,0.0,
4.027,-12.057338926289933,155.93288863800632,0.022900763358778626,0.007633587786259542,0.0,185.7318703332449,140.74327759348668,0.0,-0.0,0.0,247.20497963263725,167.04862316863813,0.0,-0.0,0.0,5.940755433418044,129.9875397888896,-0.22137404580152673,0.183206106870229,-0.015267175572519083,89.0,89.0,0.0,0.0,0.0,97.75,93.37,-3.0,0.0,0.0,
4.066,-11.99243250719142,155.84294329718674,0.022900763358778626,0.007633587786259542,0.0,185.7260278243705,140.70343304324305,0.0,-0.0,0.0,249.22746395138427,167.04490453213097,0.0,-0.0,0.0,5.051199354887736,129.98752714802282,-0.22137404580152673,0.183206106870229,-0.015267175572519083,89.0,89.0,0.0,0.0,0.0,97.79,93.34,-4.0,1.0,0.0,
4.104,-11.937262050957685,155.76648975749006,0.022900763358778626,0.007633587786259542,0.0,185.72106169182726,140.66956517553598,0.0,-0.0,0.0,250.94657562231924,167.0417436910999,0.0,-0.0,0.0,4.295076688136974,129.98751640328607,-0.22137404580152673,0.183206106870229,-0.015267175572519083,89.0,89.0,0.0,0.0,0.0,97.82,93.32,-4.0,0.0,0.0,
4.1419999999999995,-11.89036716315901,155.7015042487479,0.022900763358778626,0.007633587786259542,0.0,185.7168404791655,140.64077748798496,0.0,-0.0,0.0,252.40782054261396,167.03905697622346,0.0,-0.0,0.0,3.6523724213988262,129.98750727025984,-0.22137404580152673,0.183206106870229,-0.015267175572519083,89.0,89.0,0.0,0.0,0.0,97.83,93.35,-3.0,0.0,0.0,
4.181,-11.850506508530136,155.64626656631708,0.022900763358778626,0.007633587786259542,0.0,185.713252448403,140.6163079535666,0.0,-0.0,0.0,253.64987872486446,167.03677326857851,0.0,-0.0,0.0,3.1060737946714005,129.98749950718755,-0.22137404580152673,0.183206106870229,-0.015267175572519083,89.0,89.0,0.0,0.0,0.0,97.76,93.3,-4.0,0.0,0.0,
4.218999999999999,-11.816624952095594,155.59931453625086,0.022900763358778626,0.007633587786259542,0.0,185.73218844429707,140.6587602343969,0.0,-0.0,0.0,254.7056281797774,167.0348321170803,0.0,-0.0,0.0,2.641719961953089,129.9874929085761,-0.22137404580152673,0.183206106870229,-0.015267175572519083,89.0,89.0,0.0,0.0,0.0,97.74,93.33,-4.0,1.0,0.0,
4.258,-11.787825629126234,155.5594053106946,0.022900763358778626,0.007633587786259542,0.0,185.748284040807,140.69484467310266,0.0,-0.0,0.0,255.6030152164534,167.0331821383068,0.0,-0.0,0.0,2.2470192041425237,129.98748729975637,-0.22137404580152673,0.183206106870229,-0.015267175572519083,89.0,89.0,0.0,0.0,0.0,97.75,93.36,-4.0,1.0,0.0,
4.296,-11.763346204602277,155.52548246897175,0.022900763358778626,0.007633587786259542,0.0,185.74615378605117,140.6704409289663,0.0,-0.0,0.0,256.365794197628,167.03177965634936,0.0,-0.0,0.0,1.9115235600035434,129.9874825322596,-0.22137404580152673,0.183206106870229,-0.015267175572519083,89.0,89.0,0.0,0.0,0.0,97.78,93.38,-4.0,0.0,-1.0,
4.334,-11.742538693756913,155.49664805350733,0.022900763358778626,0.007633587786259542,0.0,185.74434306950872,140.64969774645036,0.0,-0.0,0.0,257.01415633162645,167.03058754668552,0.0,-0.0,0.0,1.62635226248541,129.98747847988733,-0.22137404580152673,0.183206106870229,-0.015267175572519083,89.0,89.0,0.0,0.0,0.0,97.72,93.43,-4.0,0.0,0.0,
4.372,-11.724852309538354,155.4721388003626,0.022900763358778626,0.007633587786259542,0.0,185.74280396044762,140.63206604131182,0.0,-0.0,0.0,257.5652641455251,167.02957425347125,0.0,-0.0,0.0,1.3839566595949968,129.9874750353709,-0.22137404580152673,0.183206106870229,-0.015267175572519083,89.0,89.0,0.0,0.0,0.0,97.77,93.43,-4.0,1.0,-1.0,
4.41,-11.709818882952579,155.45130593518954,0.022900763358778626,0.007633587786259542,0.0,185.7660928810729,140.66685312919424,0.0,-0.0,0.0,258.03370578733893,167.02871295423913,0.0,-0.0,0.0,1.1779203971381456,129.98747210753194,-0.22137404580152673,0.183206106870229,-0.015267175572519083,89.0,89.0,0.0,0.0,0.0,97.75,93.42,-4.0,1.0,0.0,
4.449,-11.69704047035467,155.43359799979245,0.022900763358778626,0.007633587786259542,0.0,185.78588846360438,140.69642215389428,0.0,-0.0,0.0,258.4318811828807,167.0279808498918,0.0,-0.0,0.0,1.002789574049822,129.98746961886883,-0.22137404580152673,0.183206106870229,-0.015267175572519083,89.0,89.0,0.0,0.0,0.0,97.84,93.42,-4.0,1.0,0.0,
4.487,-11.686178819646447,155.41854625470495,0.022900763358778626,0.007633587786259542,0.0,185.80271470875613,140.72155582488932,0.0,-0.0,0.0,258.77033026909123,167.0273585611966,0.0,-0.0,0.0,0.8539283744247471,129.98746750350517,-0.22137404580152673,0.183206106870229,-0.015267175572519083,89.0,89.0,0.0,0.0,0.0,97.88,93.47,-2.0,-1.0,1.0,
4.525,-11.676946416544457,155.40575227138055,0.022900763358778626,0.007633587786259542,0.0,185.81701701713513,140.74291944523512,0.0,-0.0,0.0,259.05801199237015,167.02682961580567,0.0,-0.0,0.0,0.7273963547434333,129.98746570544608,-0.22137404580152673,0.183206106870229,-0.015267175572519083,89.0,89.0,0.0,0.0,0.0,97.81,93.44,-3.0,0.0,0.0,
4.564,-11.669098873907766,155.39487738555482,0.022900763358778626,0.007633587786259542,0.0,185.80457681593006,140.71768943699007,0.0,-0.0,0.0,259.30254145715725,167.02638001222337,0.0,-0.0,0.0,0.6198441380143167,129.98746417709583,-0.22137404580152673,0.183206106870229,-0.015267175572519083,89.0,89.0,0.0,0.0,0.0,97.9,93.51,-4.0,0.0,0.0,
4.602,-11.662428462666579,155.38563373260294,0.022900763358778626,0.007633587786259542,0.0,185.79400264490576,140.6962439299818,0.0,-0.0,0.0,259.5103915022263,167.02599784917842,0.0,-0.0,0.0,0.5281652118098347,129.9875277634943,-0.21374045801526717,0.15267175572519084,0.0,89.0,89.0,0.0,0.0,0.0,97.95,93.48,-4.0,0.0,0.0,
4.64,-11.65675861311157,155.37777662759385,0.022900763358778626,0.007633587786259542,0.0,185.78501459953512,140.67801524902475,0.0,-0.0,0.0,259.68706404053495,167.02567301059022,0.0,-0.0,0.0,0.45023812453602496,129.98758181193304,-0.21374045801526717,0.15267175572519084,0.0,89.0,89.0,0.0,0.0,0.0,97.94,93.49,-4.0,0.0,-1.0,
4.679,-11.651939240989813,155.3710980883361,0.022900763358778626,0.007633587786259542,0.0,185.77737476097008,140.66252087021127,0.0,-0.0,0.0,259.83723569809734,167.02539689779024,0.0,-0.0,0.0,0.38400010035328674,129.98762775310595,-0.21374045801526717,0.15267175572519084,0.0,89.0,89.0,0.0,0.0,0.0,97.89,93.48,-3.0,0.0,0.0,
4.716,-11.64784277468632,155.36542132996703,0.022900763358778626,0.007633587786259542,0.0,185.77088089818977,140.6493506482198,0.0,-0.0,0.0,259.96488160702535,167.02516220191026,0.0,-0.0,0.0,0.3276977797979593,129.98766680310294,-0.21374045801526717,0.15267175572519084,0.0,89.0,89.0,0.0,0.0,0.0,97.83,93.45,-4.0,0.0,-1.0,
4.755,-11.64436077832835,155.36059608535334,0.022900763358778626,0.007633587786259542,0.0,185.76536111482653,140.63815595952707,0.0,-0.0,0.0,260.0733806296142,167.0249627104123,0.0,-0.0,0.0,0.2798408073259309,129.9876999956004,-0.21374045801526717,0.15267175572519084,0.0,89.0,89.0,0.0,0.0,0.0,97.81,93.44,-4.0,0.0,0.0,
4.793,-11.641401081424075,155.3564946274317,0.022900763358778626,0.007633587786259542,0.0,185.81067903000397,140.7284099143565,0.0,-0.0,0.0,260.1656047988147,167.024793142639,0.0,-0.0,0.0,0.2391623807247068,129.9877282092232,-0.21374045801526717,0.15267175572519084,0.0,89.0,89.0,0.0,0.0,0.0,97.79,93.46,-4.0,0.0,0.0,
4.831,-11.638885339055442,155.35300838819828,0.022900763358778626,0.007633587786259542,0.0,185.8491992579048,140.8051257759615,0.0,-0.0,0.0,260.2439953426351,167.0246490100317,0.0,-0.0,0.0,0.2045857181136663,129.9877521908026,-0.21374045801526717,0.15267175572519084,0.0,89.0,89.0,0.0,0.0,0.0,97.79,93.52,-4.0,0.0,-1.0,
4.869,-11.636746958042103,155.35004508484988,0.022900763358778626,0.007633587786259542,0.0,185.8819414516205,140.87033425832576,0.0,-0.0,0.0,260.3106273048825,167.02452649731552,0.0,-0.0,0.0,0.17519555489428187,129.98770768964891,-0.22137404580152673,0.15267175572519084,0.0,89.0,89.0,0.0,0.0,0.0,97.78,93.53,-4.0,0.0,0.0,
4.908,-11.634929334180766,155.34752627700374,0.022900763358778626,0.007633587786259542,0.0,185.90977231627883,140.92576146833537,0.0,-0.0,0.0,260.3672644727927,167.02442236150677,0.0,-0.0,0.0,0.1502139161578051,129.98766986366826,-0.22137404580152673,0.15267175572519084,0.0,89.0,89.0,0.0,0.0,0.0,97.67,93.55,-4.0,0.0,0.0,
4.946,-11.633384353898629,155.34538529033452,0.022900763358778626,0.007633587786259542,0.0,185.93342855123842,140.97287459684352,0.0,-0.0,0.0,260.41540606551644,167.0243338460693,0.0,-0.0,0.0,0.12897952323179984,129.9877025970809,-0.21374045801526717,0.15267175572519084,0.0,89.0,89.0,0.0,0.0,0.0,97.63,93.5,-3.0,0.0,0.0,
4.985,-11.632071120658813,155.34356545166568,0.022900763358778626,0.007633587786259542,0.0,185.95353635095407,141.01292075607546,0.0,-0.0,0.0,260.4563264193316,167.02425860794747,0.0,-0.0,0.0,0.11093028924469538,129.98773042048163,-0.21374045801526717,0.15267175572519084,0.0,89.0,89.0,0.0,0.0,0.0,97.62,93.57,-4.0,0.0,0.0,
5.023,-11.631019757901152,155.34195370330102,0.015267175572519083,-0.0,0.0,185.97062798071238,141.04695999142263,0.0,-0.0,0.0,260.4911087200745,167.0241946555439,0.0,-0.0,0.0,0.09558844035565657,129.98775407037226,-0.21374045801526717,0.15267175572519084,0.0,89.0,89.0,0.0,0.0,0.0,97.54,93.46,-4.0,0.0,0.0,
5.061,-11.624746035468798,155.39649772915345,0.015267175572519083,-0.0,-0.007633587786259542,185.98515586600692,141.07589334146772,0.0,-0.0,0.0,260.52067367570595,167.0241402960009,0.0,-0.0,0.0,0.08254786879997358,129.9877741727793,-0.21374045801526717,0.15267175572519084,0.0,89.0,89.0,0.0,0.0,0.0,97.5,93.5,-3.0,0.0,0.0,
5.099,-11.619413371401297,155.442860151128,0.015267175572519083,-0.0,-0.007633587786259542,185.99750456850728,141.10048668900603,0.0,-0.0,0.0,260.5458038879927,167.02409409038933,0.0,-0.0,0.0,0.07146338297764306,129.98779125982526,-0.21374045801526717,0.15267175572519084,0.0,89.0,89.0,0.0,0.0,0.0,97.45,93.57,-3.0,0.0,0.0,
5.137,-11.61488060694392,155.48226820980636,0.015267175572519083,-0.0,-0.007633587786259542,186.0080009656326,141.1213910344136,0.0,-0.0,0.0,260.5671645684364,167.02405481561948,0.0,-0.0,0.0,0.062041570028662105,129.98780578381434,-0.21374045801526717,0.15267175572519084,0.0,89.0,89.0,0.0,0.0,0.0,97.43,93.62,-4.0,0.0,-1.0,
5.175,-11.611027757155151,155.51576505968296,0.015267175572519083,-0.0,-0.007633587786259542,186.0169229031891,141.13915972801001,0.0,-0.0,0.0,260.58532114681356,167.02402143206513,0.0,-0.0,0.0,0.0540330290220283,129.98781812920507,-0.21374045801526717,0.15267175572519084,0.0,89.0,89.0,0.0,0.0,0.0,97.42,93.61,-4.0,0.0,0.0,
5.214,-11.607752834834697,155.5442373820781,0.015267175572519083,-0.0,-0.007633587786259542,186.02450655011216,141.15426311756698,0.0,-0.0,0.0,260.6106060922242,167.00540268869642,0.0,-0.0,0.0,0.04722576916638956,129.98782862278716,-0.21374045801526717,0.15267175572519084,0.0,89.0,89.0,0.0,0.0,0.0,97.42,93.6,-4.0,0.0,0.0,
5.252,-11.604969150862312,155.56843885611397,0.015267175572519083,-0.0,-0.007633587786259542,186.03095264999675,141.16710099869042,0.0,-0.0,0.0,260.6320982958233,166.98957675683303,0.0,-0.0,0.0,0.04143959828909664,129.98783754233196,-0.21374045801526717,0.15267175572519084,0.0,89.0,89.0,0.0,0.0,0.0,97.41,93.65,-4.0,1.0,0.0,
5.29,-11.602603019485784,155.58901010904447,0.015267175572519083,-0.0,-0.007633587786259542,186.03643183489865,141.17801319764533,0.0,-0.0,0.0,260.6503666688825,166.97612471474915,0.0,-0.0,0.0,0.03652135304339765,129.98784512394502,-0.21374045801526717,0.15267175572519084,0.0,89.0,89.0,0.0,0.0,0.0,97.38,93.7,-4.0,0.0,0.0,
5.329,-11.600591807815734,155.6064956740354,0.015267175572519083,-0.0,-0.007633587786259542,186.00599321379997,141.11649424789707,0.0,-0.0,0.0,260.6658947859828,166.96469047897784,0.0,-0.0,0.0,0.03234084458455352,129.98785156831616,-0.21374045801526717,0.15267175572519084,0.0,89.0,89.0,0.0,0.0,0.0,97.33,93.71,-4.0,1.0,0.0,
5.367,-11.598882277896193,155.62135840427766,0.015267175572519083,-0.0,-0.007633587786259542,185.9801203858661,141.06420314061106,0.0,-0.0,0.0,260.67201430743495,166.974455449184,0.0,-0.0,0.0,0.028787412394536,129.9878570460316,-0.21374045801526717,0.15267175572519084,0.0,89.0,89.0,0.0,0.0,0.0,97.32,93.73,-4.0,0.0,0.0,
5.405,-11.597429177464582,155.63399172498362,0.015267175572519083,-0.0,-0.007633587786259542,185.9678118426786,141.05401561580285,0.0,-0.0,0.0,260.67721590066924,166.98275567385923,0.0,-0.0,0.0,0.02576699503302111,129.98786170208973,-0.21374045801526717,0.15267175572519084,0.0,89.0,89.0,0.0,0.0,0.0,97.29,93.73,-5.0,1.0,-1.0,
5.442,-11.596194042097713,155.64473004758366,0.015267175572519083,-0.0,-0.007633587786259542,185.95734958096924,141.04535621971587,0.0,-0.0,0.0,260.6816372549184,166.9898108648332,0.0,-0.0,0.0,0.023199640275733454,129.98786565973916,-0.21374045801526717,0.15267175572519084,0.0,89.0,89.0,0.0,0.0,0.0,97.34,93.68,-5.0,1.0,-1.0,
5.481,-11.595144177035873,155.6538576217937,0.015267175572519083,-0.0,-0.007633587786259542,185.94845665851628,141.03799573304192,0.0,-0.0,0.0,260.6910953026055,166.97966713239984,0.0,-0.0,0.0,0.021017388732038948,129.98786902374115,-0.21374045801526717,0.15267175572519084,0.0,89.0,89.0,0.0,0.0,0.0,97.37,93.63,-5.0,1.0,-1.0,
5.519,-11.594251791733312,155.66161605987224,0.015267175572519083,-0.0,-0.007633587786259542,185.94089767443126,141.03173931936908,0.0,-0.0,0.0,260.6991346431395,166.9710449598315,0.0,-0.0,0.0,0.019162474919898618,129.98787188314287,-0.21374045801526717,0.15267175572519084,0.0,89.0,89.0,0.0,0.0,0.0,97.43,93.65,-5.0,1.0,-1.0,
5.558,-11.593493264226133,155.668210732239,0.015267175572519083,-0.0,-0.007633587786259542,185.9019428341303,140.95501432910424,0.0,-0.0,0.0,260.70596808259336,166.9637161131484,0.0,-0.0,0.0,0.017585798179579337,129.98787431363434,-0.21374045801526717,0.15267175572519084,0.0,89.0,89.0,0.0,0.0,0.0,97.45,93.63,-5.0,1.0,-2.0,
5.596,-11.59284851584503,155.67381620375073,0.015267175572519083,-0.0,-0.007633587786259542,185.86883121987447,140.88979808737915,0.0,-0.0,0.0,260.7117765061292,166.95748659346776,0.0,-0.0,0.0,0.016245622950307948,129.98787637955206,-0.21374045801526717,0.15267175572519084,0.0,89.0,89.0,0.0,0.0,0.0,97.57,93.68,-5.0,1.0,-1.0,
5.635,-11.592300479721095,155.6785808545357,0.015267175572519083,-0.0,-0.007633587786259542,185.840686347757,140.8343642819128,0.0,-0.0,0.0,260.71671366613464,166.9521915017392,0.0,-0.0,0.0,0.015106474005427264,129.98787813558215,-0.21374045801526717,0.15267175572519084,0.0,89.0,89.0,0.0,0.0,0.0,97.6,93.65,-5.0,2.0,-1.0,
5.673,-11.591834649015748,155.68263080770294,0.015267175572519083,-0.0,-0.007633587786259542,185.81676320645718,140.7872455472664,0.0,-0.0,0.0,260.7209102521393,166.94769067376996,0.0,-0.0,0.0,0.014138197402278684,129.9878796282077,-0.21374045801526717,0.15267175572519084,0.0,89.0,89.0,0.0,0.0,0.0,97.62,93.62,-4.0,0.0,0.0,
5.711,-11.591438692916205,155.6860732678951,0.015267175572519083,-0.0,-0.007633587786259542,185.79642853635232,140.72817346096144,0.0,-0.0,0.0,260.7244773502432,166.94386496999607,0.0,-0.0,0.0,0.01331516228960239,129.98788089693943,-0.21374045801526717,0.15267175572519084,0.0,89.0,89.0,0.0,0.0,0.0,97.58,93.63,-4.0,1.0,0.0,
5.749,-11.591102130231592,155.6889993590584,0.015267175572519083,-0.0,-0.007633587786259542,185.7791440667632,140.67796218760225,0.0,-0.0,0.0,260.72750938363157,166.9406131217883,0.0,-0.0,0.0,0.012615582443827541,129.9878819753614,-0.21374045801526717,0.15267175572519084,0.0,89.0,89.0,0.0,0.0,0.0,97.67,93.65,-5.0,2.0,-2.0,
5.788,-11.590816051949671,155.69148653654725,0.015267175572519083,-0.0,-0.007633587786259542,185.76445226761246,140.6352826052469,0.0,-0.0,0.0,260.73008661201163,166.93784905081168,0.0,-0.0,0.0,0.01202093957491892,129.98788289202008,-0.21374045801526717,0.15267175572519084,0.0,89.0,89.0,0.0,0.0,0.0,97.74,93.62,-5.0,0.0,-1.0,
5.825,-11.60800221629141,155.69720210592743,0.015267175572519083,-0.0,-0.007633587786259542,185.75196423833432,140.59900496024488,0.0,-0.0,0.0,260.7322772561347,166.93549959048156,0.0,-0.0,0.0,0.01151549313634659,129.98788367117993,-0.21374045801526717,0.15267175572519084,0.0,89.0,89.0,0.0,0.0,0.0,97.81,93.57,-4.0,0.0,-1.0,
5.863,-11.62441710676257,155.74429561570594,0.015267175572519083,-0.0,0.0,185.7413494134479,140.56816896199317,0.0,-0.0,0.0,260.7341393036393,166.93350254920094,0.0,-0.0,0.0,0.011085863663560111,129.98788433346581,-0.21374045801526717,0.15267175572519084,0.0,89.0,89.0,0.0,0.0,0.0,97.78,93.55,-5.0,0.0,0.0,
5.902,-11.647087401508932,155.7508322093266,0.015267175572519083,-0.0,0.0,185.73232681229445,140.5419583634792,0.0,-0.0,0.0,260.73572204401825,166.9318050641124,0.0,-0.0,0.0,0.010720678611691604,129.98788489640881,-0.21374045801526717,0.15267175572519084,0.0,89.0,89.0,0.0,0.0,0.0,97.76,93.57,-5.0,0.0,-1.0,
5.94,-11.66635715204334,155.75638831390418,0.015267175572519083,-0.0,0.0,185.724657601314,140.51967935474235,0.0,-0.0,0.0,260.7370673733403,166.93036220178718,0.0,-0.0,0.0,0.010410271317603373,129.98788537491038,-0.21374045801526717,0.15267175572519084,0.0,89.0,89.0,0.0,0.0,0.0,97.77,93.52,-5.0,1.0,-1.0,
5.978,-11.658365884313472,155.72067935877965,0.015267175572519083,-0.0,0.0,185.71813877198062,140.50074219731601,0.0,-0.0,0.0,260.7382109032641,166.9291357688107,0.0,-0.0,0.0,0.010146425117628376,129.9878857816367,-0.21374045801526717,0.15267175572519084,0.0,89.0,89.0,0.0,0.0,0.0,97.77,93.49,-5.0,0.0,0.0,
6.016,-11.634095471700828,155.672325773802,0.015267175572519083,-0.0,-0.007633587786259542,185.71259776704724,140.48464561350363,0.0,-0.0,0.0,260.7391829036993,166.92809330078072,0.0,-0.0,0.0,0.00992215584764963,129.98788612735405,-0.21374045801526717,0.15267175572519084,0.0,89.0,89.0,0.0,0.0,0.0,97.76,93.46,-5.0,0.0,-1.0,
6.055,-11.61346562098008,155.631225226571,0.015267175572519083,-0.0,-0.007633587786259542,185.7078879128539,140.4709635172631,0.0,-0.0,0.0,260.73292433467134,166.93147611082549,0.0,-0.0,0.0,0.009731526968167694,129.98788642121383,-0.21374045801526717,0.15267175572519084,0.0,89.0,89.0,0.0,0.0,0.0,97.82,93.42,-5.0,1.0,-1.0,
6.093,-11.595930247867443,155.59628976142463,0.015267175572519083,-0.0,-0.007633587786259542,185.70388453678953,140.45933373545864,0.0,-0.0,0.0,260.72760455099757,166.93435149936354,0.0,-0.0,0.0,0.009569492420608049,129.9878866709946,-0.21374045801526717,0.15267175572519084,0.0,89.0,89.0,0.0,0.0,0.0,97.89,93.39,-5.0,1.0,-1.0,
6.131,-11.581025180721703,155.56659461605022,0.015267175572519083,-0.0,-0.007633587786259542,185.7348301152092,140.5135146082615,0.0,-0.0,0.0,260.7230827348749,166.93679557962088,0.0,-0.0,0.0,0.009431763055182351,129.9878868833083,-0.21374045801526717,0.15267175572519084,0.0,89.0,89.0,0.0,0.0,0.0,97.88,93.35,-5.0,1.0,-1.0,
6.17,-11.568355873647823,155.541353742482,0.015267175572519083,-0.0,-0.007633587786259542,185.73649048668233,140.49124814968056,0.0,-0.0,0.0,260.7192391911706,166.93887304783962,0.0,-0.0,0.0,0.009314693094570508,129.98788706377493,-0.21374045801526717,0.15267175572519084,0.0,89.0,89.0,0.0,0.0,0.0,97.93,93.28,-5.0,2.0,-1.0,
6.207,-11.557586962635025,155.519898999949,0.015267175572519083,-0.0,-0.007633587786259542,185.73790180243446,140.47232165988675,0.0,-0.0,0.0,260.7159721790219,166.94063889582554,0.0,-0.0,0.0,0.009215183628050442,129.9878872171716,-0.21374045801526717,0.15267175572519084,0.0,89.0,89.0,0.0,0.0,0.0,97.92,93.26,-5.0,0.0,0.0,
6.245,-11.548433388274146,155.50166246879593,0.015267175572519083,-0.0,-0.007633587786259542,185.7391014208238,140.45623414356203,0.0,-0.0,0.0,260.71319521869555,166.9421398666136,0.0,-0.0,0.0,0.009130600581508386,129.98788734755874,-0.21374045801526717,0.15267175572519084,0.0,89.0,89.0,0.0,0.0,0.0,97.98,93.14,-3.0,1.0,0.0,
6.284,-11.540652850067401,155.48616141731583,0.015267175572519083,-0.0,-0.007633587786259542,185.74012109645474,140.44255975468602,0.0,-0.0,0.0,260.71083480241816,166.94341569178343,0.0,-0.0,0.0,0.009058704991947638,129.9878874583878,-0.21374045801526717,0.15267175572519084,0.0,89.0,89.0,0.0,0.0,0.0,97.97,93.16,-3.0,0.0,1.0,
6.322,-11.560250679230345,155.49988858015973,0.015267175572519083,-0.0,0.0,185.74098782074103,140.4309365241414,0.0,-0.0,0.0,260.7088284485824,166.94450014317778,0.0,-0.0,0.0,0.008997593740821002,129.9878875525925,-0.21374045801526717,0.15267175572519084,0.0,89.0,89.0,0.0,0.0,0.0,97.91,93.17,-4.0,0.0,0.0,
6.36,-11.576908834018846,155.51155666857704,0.015267175572519083,-0.0,0.0,185.72406899889512,140.41703875191038,0.0,-0.0,0.0,260.70712304782194,166.945421926863,0.0,-0.0,0.0,0.008945649177363362,129.9878876326665,-0.21374045801526717,0.15267175572519084,0.0,89.0,89.0,0.0,0.0,0.0,97.91,93.22,-3.0,0.0,0.0,
6.398,-11.566636934452834,155.48056601214654,0.015267175572519083,-0.0,-0.007633587786259542,185.7096880003261,140.405225645514,0.0,-0.0,0.0,260.7056734571756,166.94620544299542,0.0,-0.0,0.0,0.008901496298424367,129.9878877007294,-0.21374045801526717,0.15267175572519084,0.0,89.0,89.0,0.0,0.0,0.0,97.92,93.27,-3.0,0.0,0.0,
6.437,-11.557905819821723,155.4542239541806,0.015267175572519083,-0.0,-0.007633587786259542,185.69746415154245,140.3951845050771,0.0,-0.0,0.0,260.7044413051262,166.946871431708,0.0,-0.0,0.0,0.00886396635132622,129.98788775858287,-0.21374045801526717,0.15267175572519084,0.0,89.0,89.0,0.0,0.0,0.0,98.02,93.29,-3.0,0.0,0.0,
6.475,-11.550484372385279,155.43183320490957,0.015267175572519083,-0.0,-0.007633587786259542,185.68707388007633,140.38664953570574,0.0,-0.0,0.0,260.71185822678996,166.9626730891493,0.0,-0.0,0.0,0.008832065896292797,129.9878878077583,-0.21374045801526717,0.15267175572519084,0.0,89.0,89.0,0.0,0.0,0.0,98.05,93.33,-3.0,0.0,0.0,
6.513,-11.544176142064302,155.41280106802918,0.015267175572519083,-0.0,-0.007633587786259542,185.67824214933012,140.37939481174007,0.0,-0.0,0.0,260.7181626102042,166.9761044979744,0.0,-0.0,0.0,0.008804950509514386,129.98788784955744,-0.21374045801526717,0.15267175572519084,0.0,89.0,89.0,0.0,0.0,0.0,98.02,93.35,-3.0,0.0,0.0,
6.55,-11.538814146291472,155.39662375168086,0.015267175572519083,-0.0,-0.007633587786259542,185.67073517819586,140.37322829636923,0.0,-0.0,0.0,260.7235213361063,166.98752119547575,0.0,-0.0,0.0,0.008781902430752738,129.9878878850867,-0.21374045801526717,0.15267175572519084,0.0,89.0,89.0,0.0,0.0,0.0,98.01,93.38,-3.0,0.0,0.0,
6.589,-11.534256449884566,155.3828730327848,0.015267175572519083,-0.0,-0.007633587786259542,185.6723047123302,140.38889114069323,0.0,-0.0,0.0,260.72807625312305,166.9972253883519,0.0,-0.0,0.0,0.008762311563805338,129.9878879152866,-0.21374045801526717,0.15267175572519084,0.0,89.0,89.0,0.0,0.0,0.0,97.93,93.4,-3.0,0.0,0.0,
6.627,-11.530382407938696,155.37118492172314,0.015267175572519083,-0.0,-0.007633587786259542,185.6736388163444,140.40220455836862,0.0,-0.0,0.0,260.73194793258733,167.00547395229663,0.0,-0.0,0.0,0.008745659326900046,129.98788794095648,-0.21374045801526717,0.15267175572519084,0.0,89.0,89.0,0.0,0.0,0.0,97.87,93.38,-4.0,0.0,0.0,
6.665,-11.527089472284706,155.36125002732072,0.015267175572519083,-0.0,-0.007633587786259542,185.6747728047565,140.4135209633927,0.0,-0.0,0.0,260.735238860132,167.01248523164963,0.0,-0.0,0.0,0.008731504925530549,129.9878879627759,-0.21374045801526717,0.15267175572519084,0.0,89.0,89.0,0.0,0.0,0.0,97.89,93.42,-3.0,0.0,0.0,
6.703,-11.524290476978814,155.35280536707867,0.015267175572519083,-0.0,-0.007633587786259542,185.67573669490673,140.42313990766317,0.0,-0.0,0.0,260.7323389212,167.0079236662062,0.0,-0.0,0.0,0.008719473684366477,129.9878879813224,-0.21374045801526717,0.15267175572519084,0.0,89.0,89.0,0.0,0.0,0.0,97.89,93.47,-3.0,0.0,0.0,
6.742,-11.521911330968807,155.34562740587293,0.015267175572519083,-0.0,-0.007633587786259542,185.67655600153444,140.43131601029307,0.0,-0.0,0.0,260.7298739731078,167.0040463355793,0.0,-0.0,0.0,0.008709247129377014,129.9878879970869,-0.21374045801526717,0.15267175572519084,0.0,89.0,89.0,0.0,0.0,0.0,97.87,93.46,-3.0,0.0,0.0,
6.78,-11.526849835592873,155.34858944314703,0.015267175572519083,-0.0,0.0,185.677252412168,140.4382656975285,0.0,-0.0,0.0,260.7277787672294,167.00075060454643,0.0,-0.0,0.0,0.008700554557635971,129.98788801048673,-0.21374045801526717,0.15267175572519084,0.0,89.0,89.0,0.0,0.0,0.0,97.89,93.47,-4.0,0.0,0.0,
6.818,-11.53104756452333,155.35110717483002,0.015267175572519083,-0.0,0.0,185.7033893495105,140.51409683737523,0.0,-0.0,0.0,260.72599784223274,166.99794923316847,0.0,-0.0,0.0,0.008693165871656085,129.98788802187659,-0.21374045801526717,0.15267175572519084,0.0,89.0,89.0,0.0,0.0,0.0,97.8,93.42,-4.0,0.0,0.0,
6.856,-11.53461563411422,155.35324724676056,0.015267175572519083,-0.0,0.0,185.72560574625163,140.57855330624494,0.0,-0.0,0.0,260.7244840559856,166.9955680674972,0.0,-0.0,0.0,0.008686885488573182,129.987888031558,-0.21374045801526717,0.15267175572519084,0.0,89.0,89.0,0.0,0.0,0.0,97.85,93.47,-3.0,-1.0,0.0,
6.895,-11.562038511911958,155.40969870960873,0.015267175572519083,-0.0,0.0,185.7444896834816,140.6333413047842,0.0,-0.0,0.0,260.7231973376756,166.99354407667664,0.0,-0.0,0.0,0.008681547162952715,129.98788803978715,-0.21374045801526717,0.15267175572519084,0.0,89.0,89.0,0.0,0.0,0.0,97.81,93.5,-2.0,-1.0,1.0,
6.932,-11.585347958040035,155.4576824530297,0.015267175572519083,-0.0,0.0,185.74381394179278,140.63746479480838,0.0,-0.0,0.0,260.722103627112,166.99182368447916,0.0,-0.0,0.0,0.008677009586175318,129.98788804678196,-0.21374045801526717,0.15267175572519084,0.0,89.0,89.0,0.0,0.0,0.0,97.74,93.54,-4.0,0.0,0.0,
6.97,-11.605160987248901,155.49846863493752,0.015267175572519083,-0.0,0.0,185.74412673927836,140.62805298412735,0.0,-0.0,0.0,260.721173973133,166.9903613511113,0.0,-0.0,0.0,0.00867315264591453,129.98788805272756,-0.21374045801526717,0.15267175572519084,0.0,89.0,89.0,0.0,0.0,0.0,97.75,93.58,-4.0,0.0,0.0,
7.008,-11.622002062076437,155.53313688955916,0.015267175572519083,-0.0,0.0,185.7496441025573,140.63456498278663,0.0,-0.0,0.0,260.72038376725084,166.9891183677486,0.0,-0.0,0.0,0.00866987424669286,129.9878880577813,-0.21374045801526717,0.15267175572519084,0.0,89.0,89.0,0.0,0.0,0.0,97.73,93.59,-3.0,0.0,0.0,
7.046,-11.636316975679843,155.56260490598754,0.015267175572519083,-0.0,0.0,185.75433386134443,140.64010018164703,0.0,-0.0,0.0,260.7267860861484,167.0028330176765,0.0,-0.0,0.0,0.00866708760735444,129.987888062077,-0.21374045801526717,0.15267175572519084,0.0,89.0,89.0,0.0,0.0,0.0,97.74,93.63,-3.0,0.0,0.0,
7.085,-11.648484652242738,155.58765271995168,0.015267175572519083,-0.0,0.0,185.7433635930065,140.61573224317934,0.0,-0.0,0.0,260.73222805721133,167.01449047011522,0.0,-0.0,0.0,0.008664718963916783,129.98788806572833,-0.21374045801526717,0.15267175572519084,0.0,89.0,89.0,0.0,0.0,0.0,97.69,93.65,-4.0,0.0,0.0,
7.123,-11.658827177321198,155.60894336182122,0.015267175572519083,-0.0,0.0,185.75077854472923,140.61766318162393,0.0,-0.0,0.0,260.7368537326148,167.02439930468813,0.0,-0.0,0.0,0.008662705616994776,129.98788806883195,-0.21374045801526717,0.15267175572519084,0.0,89.0,89.0,0.0,0.0,0.0,97.59,93.72,-3.0,0.0,0.0,
7.161,-11.66761832363789,155.62704040741028,0.015267175572519083,-0.0,0.0,185.74650882856383,140.61765534779278,0.0,-0.0,0.0,260.74078555670775,167.0328218140751,0.0,-0.0,0.0,0.00866099427211107,129.98788807147002,-0.21374045801526717,0.15267175572519084,0.0,89.0,89.0,0.0,0.0,0.0,97.61,93.63,-4.0,0.0,0.0,
7.199,-11.675090798007078,155.642422896161,0.015267175572519083,-0.0,0.0,185.74376130906262,140.62413173136565,0.0,-0.0,0.0,260.7441276071868,167.03998094705403,0.0,-0.0,0.0,0.00865953962895992,129.98788807371238,-0.21374045801526717,0.15267175572519084,0.0,89.0,89.0,0.0,0.0,0.0,97.57,93.71,-4.0,0.0,0.0,
7.238,-11.681442401220888,155.65549801159915,0.015267175572519083,-0.0,0.0,185.74142591748657,140.6296366574026,0.0,-0.0,0.0,260.74696835009394,167.0460662100861,0.0,-0.0,0.0,0.00865830318228144,129.9878880756184,-0.21374045801526717,0.15267175572519084,0.0,89.0,89.0,0.0,0.0,0.0,97.54,93.72,-4.0,0.0,0.0,
7.275,-11.686841263952626,155.66661185972157,0.015267175572519083,-0.0,0.0,185.73944083464693,140.63431584453403,0.0,-0.0,0.0,260.749382981565,167.05123868366337,0.0,-0.0,0.0,0.008657252202604734,129.98788807723852,-0.21374045801526717,0.15267175572519084,0.0,89.0,89.0,0.0,0.0,0.0,97.56,93.72,-4.0,0.0,0.0,
7.313,-11.696872311523306,155.66210876246032,0.015267175572519083,-0.0,0.0,185.73775351423325,140.63829315359573,0.0,-0.0,0.0,260.75143541831545,167.05563528620405,0.0,-0.0,0.0,0.008656358869879534,129.98788807861564,-0.21374045801526717,0.15267175572519084,0.0,89.0,89.0,0.0,0.0,0.0,97.55,93.77,-4.0,0.0,0.0,
7.351,-11.705398701958384,155.65828112978826,0.015267175572519083,-0.0,0.0,185.7363192918816,140.64167386629816,0.0,-0.0,0.0,260.7531799895533,167.05937239836362,0.0,-0.0,0.0,0.008655599537063114,129.98788807978616,-0.21374045801526717,0.15267175572519084,0.0,89.0,89.0,0.0,0.0,0.0,97.49,93.77,-4.0,0.0,0.0,
7.389,-11.682814100934014,155.6564702428392,0.015267175572519083,-0.0,-0.007633587786259542,185.73510020288273,140.64454747209524,0.0,-0.0,0.0,260.7546628751055,167.06254894369926,0.0,-0.0,0.0,0.008654954104169157,129.98788808078112,-0.21374045801526717,0.15267175572519084,0.0,89.0,89.0,0.0,0.0,0.0,97.46,93.77,-4.0,0.0,0.0,
7.427,-11.660051112742757,155.66910495816157,0.015267175572519083,-0.0,0.0,185.7340639772337,140.64699003702276,0.0,-0.0,0.0,260.75592332782486,167.06524900723457,0.0,-0.0,0.0,0.008654405486209294,129.9878880816268,-0.21374045801526717,0.15267175572519084,0.0,89.0,89.0,0.0,0.0,0.0,97.31,93.75,-5.0,3.0,-2.0,
7.466,-11.640702572780189,155.67984446618559,0.015267175572519083,-0.0,0.0,185.73318318543198,140.64906621721116,0.0,-0.0,0.0,260.7569947126363,167.06754406123957,0.0,-0.0,0.0,0.008653939160943409,129.98788808234565,-0.21374045801526717,0.15267175572519084,0.0,89.0,89.0,0.0,0.0,0.0,97.25,93.73,-5.0,6.0,0.0,
7.504,-11.654022730182094,155.7013204506831,0.015267175572519083,-0.0,0.0,185.73243451240054,140.6508309703713,0.0,-0.0,0.0,260.75790538972603,167.06949485714384,0.0,-0.0,0.0,0.008653542784467408,129.98788808295666,-0.21374045801526717,0.15267175572519084,0.0,89.0,89.0,0.0,0.0,0.0,97.29,93.67,-5.0,11.0,0.0,
7.542,-11.665344863973713,155.719575037506,0.015267175572519083,-0.0,0.0,185.75029413470816,140.6749113494664,0.0,-0.0,0.0,260.7586794652523,167.07115303366245,0.0,-0.0,0.0,0.008653205864462806,129.98788808347604,-0.21374045801526717,0.15267175572519084,0.0,89.0,89.0,0.0,0.0,0.0,97.28,93.62,-4.0,15.0,1.0,
7.58,-11.817969980762575,155.93558505794405,0.022900763358778626,0.007633587786259542,-0.007633587786259542,185.76547481366964,140.69537967169725,0.0,-0.0,0.0,260.75933742944966,167.07256248370328,0.0,-0.0,0.0,0.008652919482458894,129.9878880839175,-0.21374045801526717,0.15267175572519084,0.0,89.0,89.0,0.0,0.0,0.0,97.28,93.61,-6.0,21.0,-1.0,
7.618,-11.947701330033109,156.11919357531642,0.022900763358778626,0.007633587786259542,-0.007633587786259542,185.7783783907869,140.71277774559348,0.0,-0.0,0.0,260.67691415303926,167.11602954313477,-0.007633587786259542,-0.0,0.0,0.00865267605775557,129.98788808429276,-0.21374045801526717,0.15267175572519084,0.0,89.0,89.0,0.0,0.0,0.0,97.36,93.52,-10.0,24.0,-5.0,
7.657,-12.057972976913062,156.27526081508293,0.022900763358778626,0.007633587786259542,-0.007633587786259542,185.78934643133658,140.72756610840526,0.0,-0.0,0.0,260.6068543680904,167.15297654365153,-0.007633587786259542,-0.0,0.0,0.008652469146757743,129.9878880846117,-0.21374045801526717,0.15267175572519084,0.0,89.0,89.0,0.0,0.0,0.0,97.28,93.51,-9.0,27.0,-1.0,
7.695,-12.151703876761022,156.40791796888445,0.022900763358778626,0.007633587786259542,-0.007633587786259542,185.7986692658038,140.7401362167953,0.0,-0.0,0.0,260.5473035508839,167.1843814940908,-0.007633587786259542,-0.0,0.0,0.008652293272409592,129.98788808488283,-0.21374045801526717,0.15267175572519084,0.0,89.0,89.0,0.0,0.0,0.0,97.61,93.45,-8.0,33.0,0.0,
7.734,-11.81753429041666,155.85559521061862,0.030534351145038167,0.015267175572519083,0.0,185.80659367510094,140.7508208089268,0.0,-0.0,0.0,260.49668535625835,167.21107570196415,-0.007633587786259542,-0.0,0.0,0.008652143779213662,129.9878880851133,-0.21374045801526717,0.15267175572519084,0.0,89.0,89.0,0.0,0.0,0.0,98.23,93.36,-9.0,45.0,0.0,
7.772,-11.533490142023952,155.38612086609265,0.030534351145038167,0.015267175572519083,0.0,185.8133294230035,140.75990271223856,0.0,-0.0,0.0,260.45365989082666,167.2337657786565,-0.007633587786259542,-0.0,0.0,0.008652016709997122,129.98788808530918,-0.21374045801526717,0.15267175572519084,0.0,89.0,89.0,0.0,0.0,0.0,98.87,93.17,-15.0,56.0,-3.0,
7.811,-11.29205261589015,154.9870676732456,0.030534351145038167,0.015267175572519083,0.0,185.81905480872067,140.7676223300536,0.0,-0.0,0.0,260.4170882452097,167.253052343845,-0.007633587786259542,-0.0,0.0,0.008651908701163063,129.98788808547567,-0.21374045801526717,0.15267175572519084,0.0,89.0,89.0,0.0,0.0,0.0,99.63,93.03,-19.0,70.0,-6.0,
7.85,-11.086830718676417,154.6478724593256,0.030534351145038167,0.015267175572519083,0.0,185.82392138658028,140.77418400519636,0.0,-0.0,0.0,260.38600234643525,167.26944592425525,-0.007633587786259542,-0.0,0.0,0.008651816893654114,129.98788808561721,-0.21374045801526717,0.15267175572519084,0.0,89.0,89.0,0.0,0.0,0.0,100.92,92.95,-20.0,72.0,-5.0,
7.888,-10.912392106044745,154.35955652749362,0.030534351145038167,0.015267175572519083,0.0,185.82805797776095,140.77976142906772,0.0,-0.0,0.0,260.359579332477,167.28338046760393,-0.007633587786259542,-0.0,0.0,0.008651738857271506,129.9878880857375,-0.21374045801526717,0.15267175572519084,0.0,89.0,89.0,0.0,0.0,0.0,102.91,92.78,-18.0,73.0,0.0,
7.927,-10.810341876956727,154.53285145748447,0.06870229007633588,-0.022900763358778626,0.007633587786259542,185.83157408026452,140.78450223935835,0.0,-0.0,0.0,260.33711977061245,167.29522482945032,-0.007633587786259542,-0.0,0.0,0.00865167252634629,129.98788808583976,-0.21374045801526717,0.15267175572519084,0.0,89.0,89.0,0.0,0.0,0.0,104.6,92.5,-15.0,72.0,-2.0,
7.965,-10.62908027123902,154.5482340340572,0.10687022900763359,-0.05343511450381679,0.0,185.83456276739255,140.78853192810539,0.0,-0.0,0.0,260.3180291430276,167.30529253701974,-0.007633587786259542,-0.0,0.0,0.008651616145059856,129.98788808592667,-0.21374045801526717,0.15267175572519084,0.0,89.0,89.0,0.0,0.0,0.0,106.9,92.54,-14.0,73.0,0.0,
8.004,-10.47500790637897,154.56130922414403,0.10687022900763359,-0.05343511450381679,0.0,185.1913346321777,139.62220595204596,0.06870229007633588,0.05343511450381679,-0.007633587786259542,260.3018021095805,167.31385008845376,-0.007633587786259542,-0.0,0.0,0.008651568220966388,129.98788808600057,-0.21374045801526717,0.15267175572519084,0.0,89.0,89.0,0.0,0.0,0.0,109.09,92.47,-13.0,68.0,8.0,
8.042,-10.344046396247927,154.57242313571783,0.10687022900763359,-0.05343511450381679,0.0,184.64459071724508,138.63082887239545,0.06870229007633588,0.05343511450381679,-0.007633587786259542,260.28800913115043,167.32112400717267,-0.007633587786259542,-0.0,0.0,0.00865152748548694,129.98788808606338,-0.21374045801526717,0.15267175572519084,0.0,89.0,89.0,0.0,0.0,0.0,112.13,92.57,-17.0,78.0,5.0,
8.08,-10.102746929042617,154.95055935269644,0.11450381679389313,-0.19083969465648856,-0.015267175572519083,184.17985838955235,137.78815835469254,0.06870229007633588,0.05343511450381679,-0.007633587786259542,260.2762850994849,167.32730683808376,-0.007633587786259542,-0.0,0.0,0.008651492860329409,129.98788808611675,-0.21374045801526717,0.15267175572519084,0.0,89.0,89.0,0.0,0.0,0.0,114.98,91.87,-18.0,79.0,3.0,
8.119,-10.29283071050706,155.47561863958924,0.007633587786259542,-0.2748091603053435,0.022900763358778626,183.78483591101354,137.07188841464506,0.06870229007633588,0.05343511450381679,-0.007633587786259542,260.2663196725692,167.33256224435817,-0.007633587786259542,-0.0,0.0,0.008651463428945507,129.98788808616212,-0.21374045801526717,0.15267175572519084,0.0,89.0,89.0,0.0,0.0,0.0,117.47,90.9,-20.0,69.0,-5.0,
8.158000000000001,-10.564300175592512,155.59828125452918,0.007633587786259542,-0.2824427480916031,0.022900763358778626,183.44906680425555,136.4630589656047,0.06870229007633588,0.05343511450381679,-0.007633587786259542,260.25784905969084,167.33702933969144,-0.007633587786259542,-0.0,0.0,0.00865143841226919,129.98788808620066,-0.21374045801526717,0.15267175572519084,0.0,89.0,89.0,0.0,0.0,0.0,120.04,90.75,-15.0,50.0,-3.0,
8.197,-10.795049220915148,155.70254447722812,0.007633587786259542,-0.2824427480916031,0.022900763358778626,183.16366306351125,135.94555393392037,0.06870229007633588,0.05343511450381679,-0.007633587786259542,260.14936918832575,167.34231653323286,0.030534351145038167,-0.25190839694656486,0.022900763358778626,0.008651417148094321,129.98788808623345,-0.21374045801526717,0.15267175572519084,0.0,89.0,89.0,0.0,0.0,0.0,122.28,89.82,-14.0,40.0,-9.0,
8.236,-10.991185909439388,155.7911682165222,0.007633587786259542,-0.2824427480916031,0.022900763358778626,182.9210698838786,135.5056746569887,0.06870229007633588,0.05343511450381679,-0.007633587786259542,260.0571612976654,167.3468106477431,0.030534351145038167,-0.25190839694656486,0.022900763358778626,0.008651399073545682,129.9878880862613,-0.21374045801526717,0.15267175572519084,0.0,89.0,89.0,0.0,0.0,0.0,125.02,88.65,-14.0,35.0,-14.0,
8.275,-11.157902094684992,155.8664983949222,0.007633587786259542,-0.2824427480916031,0.022900763358778626,182.71486568119084,135.1317772715968,0.06870229007633588,0.05343511450381679,-0.007633587786259542,259.9787845906041,167.35063064507682,0.030534351145038167,-0.25190839694656486,0.022900763358778626,0.00865138371017934,129.98788808628498,-0.21374045801526717,0.15267175572519084,0.0,89.0,89.0,0.0,0.0,0.0,128.87,87.77,-11.0,25.0,-8.0,
8.314,-11.299610852143756,155.93052904656219,0.007633587786259542,-0.2824427480916031,0.022900763358778626,182.53959210890625,134.81396449401367,0.06870229007633588,0.05343511450381679,-0.007633587786259542,259.912164389602,167.35387764281046,0.030534351145038167,-0.25190839694656486,0.022900763358778626,0.008651370651317948,129.9878880863051,-0.21374045801526717,0.15267175572519084,0.0,89.0,89.0,0.0,0.0,0.0,131.79,86.95,-3.0,0.0,-3.0,
8.352,-11.420063295983704,155.98495510045618,0.007633587786259542,-0.2824427480916031,0.022900763358778626,182.39060957246434,134.54382363306803,0.06870229007633588,0.05343511450381679,-0.007633587786259542,259.85553721875027,167.35663759088408,0.030534351145038167,-0.25190839694656486,0.022900763358778626,0.008651359551285764,129.98788808632222,-0.21374045801526717,0.15267175572519084,0.0,89.0,89.0,0.0,0.0,0.0,133.68,87.05,3.0,-19.0,2.0,
8.391,-13.319061337393363,156.70630028136978,0.03816793893129771,-0.5572519083969466,0.0916030534351145,182.26397441648874,134.31420390126422,0.06870229007633588,0.05343511450381679,-0.007633587786259542,259.8074041235263,167.35898354674663,0.030534351145038167,-0.25190839694656486,0.022900763358778626,0.00865135011625841,129.98788808633674,-0.21374045801526717,0.15267175572519084,0.0,89.0,89.0,0.0,0.0,0.0,134.63,87.04,2.0,-30.0,0.0,
8.43,-14.933209672591572,157.31944368514633,0.03816793893129771,-0.5572519083969466,0.0916030534351145,182.15633453390947,134.11902712923097,0.06870229007633588,0.05343511450381679,-0.007633587786259542,259.7664909925859,167.3609776092298,0.030534351145038167,-0.25190839694656486,0.022900763358778626,0.008651342096485158,129.9878880863491,-0.21374045801526717,0.15267175572519084,0.0,89.0,89.0,0.0,0.0,0.0,135.11,87.11,1.0,-33.0,4.0,
8.468,-16.305235757510047,157.8406155783564,0.03816793893129771,-0.5572519083969466,0.0916030534351145,182.0648406337171,133.95312687300273,0.06870229007633588,0.05343511450381679,-0.007633587786259542,259.7317148312865,167.3626725623405,0.030534351145038167,-0.25190839694656486,0.022900763358778626,0.008651335279677893,129.98788808635962,-0.21374045801526717,0.15267175572519084,0.0,89.0,89.0,0.0,0.0,0.0,134.9,87.49,0.0,-49.0,6.0,
8.506,-17.471457929690754,158.28361168758494,0.03816793893129771,-0.5572519083969466,0.0916030534351145,181.98707081855358,133.81211165520872,0.06870229007633588,0.05343511450381679,-0.007633587786259542,259.7021550941821,167.3641132724846,0.030534351145038167,-0.25190839694656486,0.022900763358778626,0.00865132948539172,129.98788808636857,-0.21374045801526717,0.15267175572519084,0.0,89.0,89.0,0.0,0.0,0.0,134.05,87.81,0.0,-53.0,6.0,
8.545,-19.805353786752857,158.9544240439117,0.07633587786259542,-0.7175572519083969,0.183206106870229,181.92096647566459,133.6922487200838,0.06870229007633588,0.05343511450381679,-0.007633587786259542,259.6770293176433,167.36533787610705,0.030534351145038167,-0.25190839694656486,0.022900763358778626,0.008651324560248471,129.98788808637616,-0.21374045801526717,0.15267175572519084,0.0,89.0,89.0,0.0,0.0,0.0,132.91,88.04,0.0,-63.0,3.0,
8.584,-21.789165265255644,159.52461454678945,0.07633587786259542,-0.7175572519083969,0.183206106870229,181.86477778420894,133.59036522522763,0.06870229007633588,0.05343511450381679,-0.007633587786259542,259.65567240758537,167.36637878918617,0.030534351145038167,-0.25190839694656486,0.022900763358778626,0.00865132037387671,129.9878880863826,-0.21374045801526717,0.15267175572519084,0.0,89.0,89.0,0.0,0.0,0.0,131.72,88.17,1.0,-69.0,5.0,
8.623,-23.475405021983015,160.00927647423555,0.07633587786259542,-0.7175572519083969,0.183206106870229,185.79114949886352,137.14868464692668,0.04580152671755725,0.7557251908396947,-0.24427480916030533,259.63751903403613,167.3672635653034,0.030534351145038167,-0.25190839694656486,0.022900763358778626,0.008651316815460712,129.9878880863881,-0.21374045801526717,0.15267175572519084,0.0,89.0,89.0,0.0,0.0,0.0,129.95,88.22,1.0,-70.0,3.0,
8.662,-24.90870881520128,160.42123911256473,0.07633587786259542,-0.7175572519083969,0.183206106870229,189.1285654563199,140.17325615537086,0.04580152671755725,0.7557251908396947,-0.24427480916030533,259.62208866651923,167.36801562500307,0.030534351145038167,-0.25190839694656486,0.022900763358778626,0.008651313790807115,129.98788808639276,-0.21374045801526717,0.15267175572519084,0.0,89.0,89.0,0.0,0.0,0.0,128.02,88.33,0.0,-67.0,0.0,
8.701,-26.127017039436804,160.77140735514453,0.07633587786259542,-0.7175572519083969,0.183206106870229,191.96536902015782,142.74414193754842,0.04580152671755725,0.7557251908396947,-0.24427480916030533,256.87661483184155,143.8022359222075,-0.13740458015267176,0.183206106870229,-0.06870229007633588,0.008651311219851557,129.9878880863967,-0.21374045801526717,0.15267175572519084,0.0,89.0,89.0,0.0,0.0,0.0,126.18,88.47,-3.0,-73.0,2.0,
8.74,-27.162579030037,161.06905036133736,0.07633587786259542,-0.7175572519083969,0.183206106870229,194.37665204942004,144.92939485239935,0.04580152671755725,0.7557251908396947,-0.24427480916030533,254.34928533747143,123.75960228610722,-0.15267175572519084,0.22900763358778625,-0.07633587786259542,0.008651309034539333,129.98788808640006,-0.21374045801526717,0.15267175572519084,0.0,89.0,89.0,0.0,0.0,0.0,124.27,88.38,-3.0,-75.0,2.0,
8.78,-28.042806722047168,161.32204691660127,0.07633587786259542,-0.7175572519083969,0.183206106870229,199.0585116325334,147.03715492540923,0.29770992366412213,1.0763358778625953,-0.44274809160305345,252.20105526725678,106.723363695422,-0.15267175572519084,0.22900763358778625,-0.07633587786259542,0.008651307177023943,129.98788808640293,-0.21374045801526717,0.15267175572519084,0.0,89.0,89.0,0.0,0.0,0.0,122.14,88.36,-1.0,-74.0,4.0,
8.82,-28.791000260255807,161.53709398857558,0.07633587786259542,-0.7175572519083969,0.183206106870229,203.03809227817976,148.8287509874676,0.29770992366412213,1.0763358778625953,-0.44274809160305345,250.37505970757434,92.24256089333954,-0.15267175572519084,0.22900763358778625,-0.07633587786259542,0.005796343766074793,129.98555220854277,-0.48854961832061067,-0.183206106870229,0.16793893129770993,89.0,89.0,0.0,0.0,0.0,119.88,88.22,0.0,-76.0,3.0,
8.859,-29.42696476773315,161.71988399975376,0.07633587786259542,-0.7175572519083969,0.183206106870229,206.42073582697915,150.35160764021722,0.29770992366412213,1.0763358778625953,-0.44274809160305345,250.32572175152507,103.50549621184732,-0.21374045801526717,0.42748091603053434,-0.19083969465648856,0.0033696248667680158,129.98356671236164,-0.48854961832061067,-0.183206106870229,0.16793893129770993,89.0,89.0,0.0,0.0,0.0,117.23,88.22,0.0,-78.0,1.0,
8.898,-29.967534599088893,161.87525550925523,0.07633587786259542,-0.7175572519083969,0.183206106870229,209.29598284345866,151.64603579505442,0.29770992366412213,1.0763358778625953,-0.44274809160305345,250.28378448888316,113.07899123257891,-0.21374045801526717,0.42748091603053434,-0.19083969465648856,0.0013069138023572551,129.98187904060768,-0.48854961832061067,-0.183206106870229,0.16793893129770993,89.0,89.0,0.0,0.0,0.0,114.69,88.23,0.0,-72.0,0.0,
8.938,-30.427018955741275,162.00732129233145,0.07633587786259542,-0.7175572519083969,0.183206106870229,211.73994280746624,152.74629972666602,0.29770992366412213,1.0763358778625953,-0.44274809160305345,250.24813781563756,121.21646200020078,-0.21374045801526717,0.42748091603053434,-0.19083969465648856,-0.022711540109057585,130.01424645704975,-0.48854961832061067,-0.183206106870229,0.16793893129770993,107.0,69.0,-1.0,1.0,-1.0,112.2,88.49,-2.0,-62.0,-3.0,
8.977,-30.8175806588958,162.11957720794626,0.07633587786259542,-0.7175572519083969,0.183206106870229,213.81730877687266,153.6815240685359,0.29770992366412213,1.0763358778625953,-0.44274809160305345,251.3864173345628,128.20811707651754,-0.2748091603053435,0.3816793893129771,-0.06870229007633588,-0.0431272259337602,130.0417587610255,-0.48854961832061067,-0.183206106870229,0.16793893129770993,107.0,69.0,-1.0,1.0,-1.0,109.93,88.74,-2.0,-56.0,0.0,
9.017,-31.149558106577146,162.21499473621884,0.07633587786259542,-0.7175572519083969,0.183206106870229,215.58306985086813,154.4764647591253,0.29770992366412213,1.0763358778625953,-0.44274809160305345,252.35395492564925,134.15102389138679,-0.2748091603053435,0.3816793893129771,-0.06870229007633588,-0.03821540937809172,130.03134228197194,-0.48854961832061067,-0.183206106870229,0.16793893129770993,100.0,77.0,0.0,0.0,0.0,107.79,89.05,0.0,-48.0,8.0,
9.057,-31.43173893710629,162.29609963525053,0.07633587786259542,-0.7175572519083969,0.183206106870229,217.08396676376427,155.15216434612628,0.29770992366412213,1.0763358778625953,-0.44274809160305345,253.17636187807273,139.20249468402562,-0.2748091603053435,0.3816793893129771,-0.06870229007633588,-0.03404036530577352,130.02248827477644,-0.48854961832061067,-0.183206106870229,0.16793893129770993,97.0,81.0,0.0,0.0,0.0,105.47,89.33,1.0,-40.0,14.0,
9.097,-31.671592643056062,162.36503879942745,0.07633587786259542,-0.7175572519083969,0.183206106870229,218.359729139726,155.72650899507713,0.29770992366412213,1.0763358778625953,-0.44274809160305345,253.8754077876327,143.49624485776866,-0.2748091603053435,0.3816793893129771,-0.06870229007633588,-0.03049157784430305,130.01496236866024,-0.48854961832061067,-0.183206106870229,0.16793893129770993,95.0,83.0,0.0,0.0,0.0,103.22,89.77,0.0,-36.0,16.0,
9.136,-31.875468293113368,162.42363708897784,0.07633587786259542,-0.7175572519083969,0.183206106870229,219.44412715929346,156.21470194668532,0.29770992366412213,1.0763358778625953,-0.44274809160305345,254.46959681075867,147.14593250545022,-0.2748091603053435,0.3816793893129771,-0.06870229007633588,-0.027475108502053147,130.0085653484615,-0.48854961832061067,-0.183206106870229,0.16793893129770993,94.0,85.0,0.0,0.0,0.0,101.22,89.68,-3.0,-30.0,4.0,
9.176,-39.01824177278758,163.23777115969722,0.183206106870229,-0.2748091603053435,-0.16793893129770993,220.3658654759258,156.6296659555523,0.29770992366412213,1.0763358778625953,-0.44274809160305345,254.97465748041577,150.24816700597955,-0.2748091603053435,0.3816793893129771,-0.06870229007633588,-0.024911109561140732,130.00312788129256,-0.48854961832061067,-0.183206106870229,0.16793893129770993,94.0,85.0,0.0,0.0,0.0,99.89,89.46,-5.0,-20.0,2.0,
9.215,-45.08959923051067,163.92978511980868,0.183206106870229,-0.2748091603053435,-0.16793893129770993,221.1493430450633,156.98238536308924,0.29770992366412213,1.0763358778625953,-0.44274809160305345,255.4039590496243,152.8850663314295,-0.2748091603053435,0.3816793893129771,-0.06870229007633588,-0.022731710461365177,129.99850603419895,-0.48854961832061067,-0.183206106870229,0.16793893129770993,92.0,87.0,0.0,0.0,0.0,98.39,89.4,-4.0,-12.0,0.0,
9.255,-50.250253069575294,164.51799698590344,0.183206106870229,-0.2748091603053435,-0.16793893129770993,221.81529897883016,157.28219685949563,0.29770992366412213,1.0763358778625953,-0.44274809160305345,255.76886538345155,155.12643075806196,-0.2748091603053435,0.3816793893129771,-0.06870229007633588,-0.017959373898311683,129.9967835710396,-0.22900763358778625,0.16030534351145037,0.022900763358778626,92.0,87.0,0.0,0.0,0.0,97.07,89.58,-2.0,-12.0,2.0,
9.294,-54.63680883278022,165.01797707208397,0.183206106870229,-0.2748091603053435,-0.16793893129770993,222.381361522532,157.53703663144105,0.29770992366412213,1.0763358778625953,-0.44274809160305345,256.0790357672047,157.03159052069955,-0.2748091603053435,0.3816793893129771,-0.06870229007633588,-0.013902887819716214,129.99531947735417,-0.22900763358778625,0.16030534351145037,0.022900763358778626,91.0,88.0,0.0,0.0,0.0,95.67,89.7,-2.0,-8.0,3.0,
9.334,-58.3653812315044,165.44296014533742,0.183206106870229,-0.2748091603053435,-0.16793893129770993,222.86251468467856,157.75365043759467,0.29770992366412213,1.0763358778625953,-0.44274809160305345,256.34268059339485,158.6509763189415,-0.2748091603053435,0.3816793893129771,-0.06870229007633588,-0.010130447171994036,129.9942696542101,-0.20610687022900764,0.1984732824427481,-0.03816793893129771,91.0,88.0,0.0,0.0,0.0,94.44,89.62,-3.0,-5.0,1.0,
9.373,-61.53466777041996,165.80419575760286,0.183206106870229,-0.2748091603053435,-0.16793893129770993,223.27149487250313,157.93777217282525,0.29770992366412213,1.0763358778625953,-0.44274809160305345,256.5667786956565,160.02745424744714,-0.2748091603053435,0.3816793893129771,-0.06870229007633588,-0.006923872621430184,129.9933773045376,-0.20610687022900764,0.1984732824427481,-0.03816793893129771,90.0,88.0,0.0,0.0,0.0,93.39,89.58,-5.0,0.0,2.0,
9.413,-64.22856132849819,166.11124602802846,0.183206106870229,-0.2748091603053435,-0.16793893129770993,223.619128032154,158.09427564777124,0.29770992366412213,1.0763358778625953,-0.44274809160305345,256.7572620825789,161.19746048667693,-0.2748091603053435,0.3816793893129771,-0.06870229007633588,-0.004068513261084498,129.99287834930075,-0.17557251908396945,0.21374045801526717,0.03816793893129771,90.0,88.0,0.0,0.0,0.0,92.67,89.64,-5.0,5.0,-2.0,
9.451,-66.51837085286468,166.37223875789024,0.183206106870229,-0.2748091603053435,-0.16793893129770993,223.9146162178573,158.22730360147534,0.29770992366412213,1.0763358778625953,-0.44274809160305345,256.83641427062435,161.8368680403395,0.015267175572519083,-0.0916030534351145,-0.022900763358778626,-0.0016414578047906638,129.99245423734942,-0.17557251908396945,0.21374045801526717,0.03816793893129771,90.0,88.0,0.0,0.0,0.0,92.11,89.7,-5.0,3.0,0.0,
9.49,-68.46470894857619,166.59408257827275,0.183206106870229,-0.2748091603053435,-0.16793893129770993,228.74279613721953,158.6849885467881,0.015267175572519083,0.03816793893129771,-0.015267175572519083,256.90369363046295,162.3803644609527,0.015267175572519083,-0.0916030534351145,-0.022900763358778626,0.00042153933305909497,129.99209374219078,-0.17557251908396945,0.21374045801526717,0.03816793893129771,90.0,88.0,0.0,0.0,0.0,91.65,89.66,-5.0,3.0,1.0,
9.529,-70.78307717814437,166.77425460764292,0.030534351145038167,-0.007633587786259542,0.030534351145038167,232.84674906867744,159.07402075030396,0.015267175572519083,0.03816793893129771,-0.015267175572519083,256.9608810863258,162.84233641847393,0.015267175572519083,-0.0916030534351145,-0.022900763358778626,0.00217508690023139,129.99178732130594,-0.17557251908396945,0.21374045801526717,0.03816793893129771,90.0,88.0,0.0,0.0,0.0,91.33,89.63,-4.0,1.0,0.0,
9.567,-72.75369017327732,166.92740083260756,0.030534351145038167,-0.007633587786259542,0.030534351145038167,236.33510906041667,159.40469812329243,0.015267175572519083,0.03816793893129771,-0.015267175572519083,257.0094904238092,163.23501258236698,0.015267175572519083,-0.0916030534351145,-0.022900763358778626,0.0032114038590453976,129.99133220706528,-0.1984732824427481,0.16030534351145037,0.007633587786259542,90.0,88.0,0.0,0.0,0.0,90.85,89.69,-5.0,1.0,-1.0,
9.606,-74.42871121914034,167.0575751238275,0.030534351145038167,-0.007633587786259542,0.030534351145038167,239.44378156091673,159.7241660398543,0.015267175572519083,0.04580152671755725,-0.015267175572519083,257.0508083606701,163.56878732167607,0.015267175572519083,-0.0916030534351145,-0.022900763358778626,0.004092273274037304,129.99094535996073,-0.1984732824427481,0.16030534351145037,0.007633587786259542,90.0,88.0,0.0,0.0,0.0,90.52,89.76,-5.0,0.0,-1.0,
9.644,-75.8524791081239,167.16822327136444,0.030534351145038167,-0.007633587786259542,0.030534351145038167,242.0861531863418,159.9957137689319,0.015267175572519083,0.04580152671755725,-0.015267175572519083,257.08592860700185,163.8524958500888,0.015267175572519083,-0.0916030534351145,-0.022900763358778626,0.004776126780597217,129.99055165442567,-0.20610687022900764,0.15267175572519084,0.0,90.0,88.0,0.0,0.0,0.0,90.2,89.78,-5.0,0.0,0.0,
9.683,-77.06268181375994,167.26227419677085,0.030534351145038167,-0.007633587786259542,0.030534351145038167,244.27419250126889,160.11941314571257,0.015267175572519083,0.015267175572519083,-0.007633587786259542,257.11578081638385,164.0936480992396,0.015267175572519083,-0.0916030534351145,-0.022900763358778626,0.005357402261173145,129.99021700472088,-0.20610687022900764,0.15267175572519084,0.0,90.0,88.0,0.0,0.0,0.0,89.93,89.82,-4.0,-2.0,1.0,
9.721,-78.09135411355057,167.34221748336628,0.030534351145038167,-0.007633587786259542,0.030534351145038167,246.13402591895692,160.22455761597612,0.015267175572519083,0.015267175572519083,-0.007633587786259542,257.0848901483694,164.32586137999218,0.0,-0.015267175572519083,0.015267175572519083,0.005851486419662683,129.9899325524718,-0.20610687022900764,0.15267175572519084,0.0,90.0,88.0,0.0,0.0,0.0,89.66,89.89,-3.0,-2.0,1.0,
9.76,-78.96572556837259,167.41016927697243,0.030534351145038167,-0.007633587786259542,0.030534351145038167,247.78182004776318,160.40958044290295,0.015267175572519083,0.022900763358778626,0.007633587786259542,257.0586330805572,164.52324266863187,0.0,-0.015267175572519083,0.015267175572519083,0.00627145795437879,129.9896907680601,-0.20610687022900764,0.15267175572519084,0.0,90.0,88.0,0.0,0.0,0.0,89.43,89.89,-3.0,-1.0,2.0,
9.798,-79.50940898908249,167.4579845283157,0.030534351145038167,-0.022900763358778626,0.007633587786259542,249.18244505724846,160.56684984579076,0.015267175572519083,0.022900763358778626,0.007633587786259542,257.03631457291675,164.6910167639756,0.0,-0.015267175572519083,0.015267175572519083,0.006628433758887481,129.98948525131013,-0.20610687022900764,0.15267175572519084,0.0,90.0,88.0,0.0,0.0,0.0,89.21,89.87,-4.0,0.0,1.0,
9.835,-79.98710419398569,167.5202060669483,0.015267175572519083,-0.022900763358778626,0.0,250.37297631531095,160.7005288382454,0.015267175572519083,0.022900763358778626,0.007633587786259542,257.0173438414224,164.83362474501777,0.0,-0.015267175572519083,0.015267175572519083,0.0069318631927198695,129.98931056207266,-0.20610687022900764,0.15267175572519084,0.0,90.0,88.0,0.0,0.0,0.0,89.07,89.9,-4.0,-1.0,0.0,
9.874,-80.3931451181534,167.57309437478602,0.015267175572519083,-0.022900763358778626,0.0,251.44512684428287,160.81148827249072,0.015267175572519083,0.030534351145038167,0.0,257.00121871965223,164.95484152890361,0.0,-0.015267175572519083,0.015267175572519083,0.007189778211477399,129.9891620762208,-0.20610687022900764,0.15267175572519084,0.0,90.0,88.0,0.0,0.0,0.0,88.96,89.82,-4.0,0.0,1.0,
9.912,-80.73827990369595,167.61804943644808,0.015267175572519083,-0.022900763358778626,0.0,252.356454793909,160.90580379159925,0.015267175572519083,0.030534351145038167,0.0,256.92749394238314,165.025039489299,0.007633587786259542,-0.022900763358778626,-0.007633587786259542,0.007409005977421299,129.98903586324673,-0.20610687022900764,0.15267175572519084,0.0,90.0,88.0,0.0,0.0,0.0,88.82,89.78,-4.0,0.0,2.0,
9.95,-81.03164447140713,167.65626123886082,0.015267175572519083,-0.022900763358778626,0.0,253.2416647194022,160.95919945117993,0.007633587786259542,0.007633587786259542,-0.007633587786259542,256.8648278817044,165.08470775563507,0.007633587786259542,-0.022900763358778626,-0.007633587786259542,0.007595349578473615,129.98892858221876,-0.20610687022900764,0.15267175572519084,0.0,90.0,88.0,0.0,0.0,0.0,88.67,89.85,-3.0,1.0,2.0,
9.988,-81.28100435396163,167.68874127091166,0.015267175572519083,-0.022900763358778626,0.0,253.97552332073673,161.01601573069468,0.007633587786259542,-0.0,-0.007633587786259542,256.81156173012744,165.13542578202072,0.007633587786259542,-0.022900763358778626,-0.007633587786259542,0.0077537416393680825,129.988837393345,-0.20610687022900764,0.15267175572519084,0.0,90.0,88.0,0.0,0.0,0.0,88.52,89.83,-4.0,0.0,0.0,
10.027,-81.49296025413295,167.71634929815485,0.015267175572519083,-0.022900763358778626,0.0,254.59930313187107,161.0643095682822,0.007633587786259542,-0.0,-0.007633587786259542,256.76628550128703,165.17853610444854,0.007633587786259542,-0.022900763358778626,-0.007633587786259542,0.00788837489112838,129.9887598828023,-0.20610687022900764,0.15267175572519084,0.0,90.0,89.0,0.0,0.0,0.0,88.39,89.85,-4.0,1.0,0.0,
10.065,-81.67312276927858,167.73981612131158,0.015267175572519083,-0.022900763358778626,0.0,255.1295159713353,161.1053593302316,0.007633587786259542,-0.0,-0.007633587786259542,256.7278007067727,165.21517987851217,0.007633587786259542,-0.022900763358778626,-0.007633587786259542,0.008002813155124633,129.988693998841,-0.20610687022900764,0.15267175572519084,0.0,90.0,89.0,0.0,0.0,0.0,88.27,89.89,-4.0,0.0,1.0,
10.103,-81.82626090715236,167.7597629209948,0.015267175572519083,-0.022900763358778626,0.0,255.5801968848799,161.1402516278886,0.007633587786259542,-0.0,-0.007633587786259542,256.6950886314355,165.24632708646627,0.007633587786259542,-0.022900763358778626,-0.007633587786259542,0.008035200183338241,129.98857311197773,-0.21374045801526717,0.1450381679389313,0.0,90.0,89.0,0.0,0.0,0.0,88.26,89.88,-4.0,1.0,0.0,
10.141,-81.95642832434507,167.77671770072553,0.015267175572519083,-0.022900763358778626,0.0,255.9632756613928,161.16991008089704,0.007633587786259542,-0.0,-0.007633587786259542,256.6672833673989,165.27280221322724,0.007633587786259542,-0.022900763358778626,-0.007633587786259542,0.00806272915731981,129.98847035814396,-0.21374045801526717,0.1450381679389313,0.0,90.0,89.0,0.0,0.0,0.0,88.23,89.87,-4.0,0.0,0.0,
10.18,-82.06707062895887,167.79112926349666,0.015267175572519083,-0.022900763358778626,0.0,256.2888926214288,161.19511976595422,0.007633587786259542,-0.0,-0.007633587786259542,256.61422238132366,165.2813162251256,0.0,-0.0,0.007633587786259542,0.008086128785204141,129.98838301738525,-0.21374045801526717,0.1450381679389313,0.0,90.0,89.0,0.0,0.0,0.0,88.15,89.88,-4.0,1.0,0.0,
10.217,-82.16111658788061,167.80337909185212,0.015267175572519083,-0.022900763358778626,0.0,256.5656670374593,161.21654799825282,0.007633587786259542,-0.0,-0.007633587786259542,256.5124662848143,165.32372488433046,0.0,-0.0,0.0,0.008106018468905823,129.98830877774031,-0.21374045801526717,0.1450381679389313,0.0,90.0,89.0,0.0,0.0,0.0,88.04,89.83,-4.0,0.0,-1.0,
10.255,-82.21003111793104,167.80853347794854,0.015267175572519083,-0.0,-0.007633587786259542,256.8009252910853,161.23476199570663,0.007633587786259542,-0.0,-0.007633587786259542,256.42597360278137,165.35977224465458,0.0,-0.0,0.0,0.008122924700052254,129.98824567404216,-0.21374045801526717,0.1450381679389313,0.0,90.0,89.0,0.0,0.0,0.0,88.06,89.8,-4.0,0.0,-1.0,
10.293,-82.2516084684739,167.8129147061305,0.015267175572519083,-0.0,-0.007633587786259542,257.0008948066674,161.25024389354238,0.007633587786259542,-0.0,-0.007633587786259542,256.52913640850994,165.35212765866774,0.0,-0.0,0.0,0.00813729499652672,129.98819203589872,-0.21374045801526717,0.1450381679389313,0.0,90.0,89.0,0.0,0.0,0.0,88.07,89.81,-4.0,0.0,-1.0,
10.332,-82.28694921643535,167.81663875008516,0.015267175572519083,-0.0,-0.007633587786259542,257.1708688949122,161.26340350670276,0.007633587786259542,-0.0,-0.007633587786259542,256.42129392675866,165.37556346361606,0.0,-0.0,0.0,0.008149509748530015,129.9881464434768,-0.21374045801526717,0.1450381679389313,0.0,90.0,89.0,0.0,0.0,0.0,88.02,89.81,-4.0,-1.0,0.0,
10.37,-82.32919566787243,167.81681662246498,0.007633587786259542,-0.0,0.0,257.31534686992023,161.27458917788908,0.007633587786259542,-0.0,-0.007633587786259542,256.3296278172701,165.39548389782212,0.0,-0.0,0.0,0.008159892287732817,129.98810768991817,-0.21374045801526717,0.1450381679389313,0.0,90.0,89.0,0.0,0.0,0.0,88.0,89.77,-4.0,0.0,-1.0,
10.408,-82.36510515159394,167.81696781398782,0.007633587786259542,-0.0,0.0,257.4716420485652,161.30712340513912,0.0,-0.0,0.0,256.25171162420475,165.41241626689728,0.0,-0.0,0.0,0.008168717446055199,129.98807474939332,-0.21374045801526717,0.1450381679389313,0.0,90.0,89.0,0.0,0.0,0.0,87.93,89.74,-4.0,0.0,-1.0,
10.447,-82.39562821275723,167.81709632678223,0.007633587786259542,-0.0,0.0,257.59334899113185,161.3372730500825,0.0,-0.0,0.0,256.1854828600992,165.42680878061117,0.0,-0.0,0.0,0.008176218830629222,129.98804674994722,-0.21374045801526717,0.1450381679389313,0.0,90.0,89.0,0.0,0.0,0.0,88.04,89.81,-4.0,0.0,0.0,
10.485,-82.42157281474603,167.81720556265748,0.007633587786259542,-0.0,0.0,257.69679989231355,161.36290024828435,0.0,-0.0,0.0,256.1291884106095,165.43904241726796,0.0,-0.0,0.0,0.008247480503700349,129.988022950418,-0.21374045801526717,0.15267175572519084,0.0,90.0,89.0,0.0,0.0,0.0,88.0,89.86,-4.0,0.0,0.0,
10.523,-82.47530812592292,167.80067004666978,0.022900763358778626,-0.0,0.0,257.784733158318,161.38468336675595,0.0,-0.0,0.0,256.0813381285433,165.44944100842622,0.0,-0.0,0.0,0.008308052925810806,129.9880027208182,-0.21374045801526717,0.15267175572519084,0.0,90.0,89.0,0.0,0.0,0.0,87.9,89.88,-4.0,0.0,0.0,
10.56,-82.52098314042327,167.78661485808024,0.022900763358778626,-0.0,0.0,257.85947643442177,161.4031990174568,0.0,-0.0,0.0,256.040665388787,165.45827981091077,0.0,-0.0,0.0,0.008359539484604694,129.98792064016214,-0.22137404580152673,0.15267175572519084,0.0,90.0,89.0,0.0,0.0,0.0,87.93,89.82,-4.0,0.0,0.0,
10.598,-82.55980690274858,167.77466794777914,0.022900763358778626,-0.0,0.0,257.92300821911,161.41893732055252,0.0,-0.0,0.0,256.0060935599941,165.46579279302262,0.0,-0.0,0.0,0.0084033030595795,129.9878508716045,-0.22137404580152673,0.15267175572519084,0.0,90.0,89.0,0.0,0.0,0.0,87.87,89.79,-4.0,0.0,0.0,
10.636,-82.59280710072508,167.7645130740232,0.022900763358778626,-0.0,0.0,257.977010236095,161.4323148781839,0.0,-0.0,0.0,256.10030636570235,165.4628194198932,0.007633587786259542,-0.0,0.0,0.008440502098308085,129.98779156833052,-0.22137404580152673,0.15267175572519084,0.0,90.0,89.0,0.0,0.0,0.0,87.81,89.82,-4.0,0.0,0.0,
10.674,-82.62085726900511,167.75588143133064,0.022900763358778626,-0.0,0.0,257.94114448271716,161.4192157972348,0.0,-0.0,-0.007633587786259542,256.18038725055436,165.46029205273322,0.007633587786259542,-0.0,0.0,0.00847212128122738,129.9877411605476,-0.22137404580152673,0.15267175572519084,0.0,90.0,89.0,0.0,0.0,0.0,87.79,89.85,-4.0,0.0,0.0,
10.712,-82.64469991204314,167.74854453504196,0.022900763358778626,-0.0,0.0,257.91065859234595,161.4080815784281,0.0,-0.0,-0.007633587786259542,256.2528760509282,165.4491051870468,0.007633587786259542,-0.0,0.0,0.008498997586708783,129.98769831393216,-0.22137404580152673,0.15267175572519084,0.0,90.0,89.0,0.0,0.0,0.0,87.77,89.87,-4.0,1.0,0.0,
10.751,-82.66496615862546,167.7423081731966,0.022900763358778626,-0.0,0.0,257.8847455855304,161.39861749244238,0.0,-0.0,-0.007633587786259542,256.28487703784396,165.45245674889642,0.007633587786259542,-0.0,0.0,0.008521842446367976,129.987661894309,-0.22137404580152673,0.15267175572519084,0.0,90.0,89.0,0.0,0.0,0.0,87.77,89.9,-4.0,0.0,0.0,
10.789,-82.68219246822044,167.73700726562802,0.022900763358778626,-0.0,0.0,257.86271952973726,161.39057301935455,0.0,-0.0,-0.007633587786259542,256.33685731299903,165.4732847391501,0.007633587786259542,-0.0,0.0,0.008541260577078288,129.98763093762935,-0.22137404580152673,0.15267175572519084,0.0,90.0,89.0,0.0,0.0,0.0,87.71,89.94,-4.0,1.0,-1.0,
10.827,-82.69683483137617,167.73250149419474,0.022900763358778626,-0.0,0.0,257.84399738231303,161.38373521722988,0.0,-0.0,-0.007633587786259542,256.38104054688085,165.49098853086574,0.007633587786259542,-0.0,0.0,0.00849288049199885,129.98760462445162,-0.22137404580152673,0.1450381679389313,0.0,90.0,89.0,0.0,0.0,0.0,87.66,89.9,-4.0,0.0,-1.0,
10.865,-82.70928084005853,167.72867158847646,0.022900763358778626,-0.0,0.0,257.7788869986164,161.38578160575153,0.0,-0.0,0.0,256.4185962956804,165.50603675382402,0.007633587786259542,-0.0,0.0,0.008451757419681325,129.98758225825054,-0.22137404580152673,0.1450381679389313,0.0,90.0,89.0,0.0,0.0,0.0,87.71,89.96,-4.0,0.0,-1.0,
10.903,-82.71985994743854,167.7254161686159,0.022900763358778626,-0.0,0.0,257.7235431724742,161.38752103599495,0.0,-0.0,0.0,256.45051868216,165.51882774333856,0.007633587786259542,-0.0,0.0,0.008481688304394636,129.98762813247583,-0.21374045801526717,0.15267175572519084,0.007633587786259542,90.0,89.0,0.0,0.0,0.0,87.65,89.96,-4.0,0.0,0.0,
10.941,-82.72885218871154,167.72264906173444,0.022900763358778626,-0.0,0.0,257.6765009202533,161.38899955170186,0.0,-0.0,0.0,256.5369908127205,165.5078342421656,0.0,-0.0,0.0,0.00850712955640095,129.98766712556733,-0.21374045801526717,0.15267175572519084,0.007633587786259542,90.0,89.0,0.0,0.0,0.0,87.67,90.02,-5.0,1.0,-1.0,
10.979,-82.7364955937936,167.7202970208852,0.022900763358778626,-0.0,0.0,257.6365150058656,161.39025629005272,0.0,-0.0,0.0,256.60401118737434,165.4915478196247,0.0,-0.0,0.0,0.008528754620606318,129.9877002696951,-0.21374045801526717,0.15267175572519084,0.007633587786259542,90.0,89.0,0.0,0.0,0.0,87.65,90.08,-4.0,0.0,-1.0,
11.017,-82.74299248811336,167.71829778616333,0.022900763358778626,-0.0,0.0,257.664957199618,161.3747264753125,0.0,-0.0,0.0,256.66097850583014,165.47770436046497,0.0,-0.0,0.0,0.008547135925180879,129.98772844220372,-0.21374045801526717,0.15267175572519084,0.007633587786259542,90.0,89.0,0.0,0.0,0.0,87.62,90.07,-4.0,0.0,0.0,
11.055,-82.74851484828514,167.71659843664975,0.022900763358778626,-0.0,0.0,257.69239976876804,161.35744424326023,0.0,-0.0,0.0,256.7094007265176,165.4659374201792,0.0,-0.0,0.0,0.008562760034069257,129.98775238883604,-0.21374045801526717,0.15267175572519084,0.007633587786259542,90.0,89.0,0.0,0.0,0.0,87.56,90.01,-4.0,0.0,0.0,
11.093,-82.75320885443116,167.71515398956322,0.022900763358778626,-0.0,0.0,257.71572595254554,161.3427543460158,0.0,-0.0,0.0,256.70851055456137,165.47120514287377,0.0,-0.0,0.0,0.008576040526624378,129.9877727434735,-0.21374045801526717,0.15267175572519084,0.007633587786259542,90.0,89.0,0.0,0.0,0.0,87.58,90.04,-4.0,1.0,-1.0,
11.131,-82.71906441888035,167.7548727337078,0.022900763358778626,-0.0,0.0,257.7355532087564,161.33026793335802,0.0,-0.0,0.0,256.70775390839856,165.47568270716417,0.0,-0.0,0.0,0.00858732894529623,129.98779004491536,-0.21374045801526717,0.15267175572519084,0.007633587786259542,90.0,89.0,0.0,0.0,0.0,87.6,90.08,-4.0,0.0,0.0,
11.17,-82.69004164866216,167.78863366623068,0.022900763358778626,-0.0,0.0,257.75240637653565,161.3196544825989,0.0,-0.0,0.0,256.70909399929275,165.4916254451701,0.0,-0.0,0.0,0.008596924101167306,129.9878047511409,-0.21374045801526717,0.15267175572519084,0.007633587786259542,90.0,89.0,0.0,0.0,0.0,87.56,90.11,-4.0,0.0,0.0,
11.208,-82.6653722939767,167.81733045887515,0.022900763358778626,-0.0,0.0,257.766731569148,161.31063304945368,0.0,-0.0,0.0,256.7102330765528,165.50517677247512,0.0,-0.0,0.0,0.00860507998365772,129.98781725143266,-0.21374045801526717,0.15267175572519084,0.007633587786259542,90.0,89.0,0.0,0.0,0.0,87.54,90.12,-4.0,0.0,0.0,
11.246,-82.64440334249406,167.84172273262294,0.022900763358778626,-0.0,0.0,257.77890798286853,161.30296483128024,0.0,-0.0,0.0,256.71120129222385,165.5166954006844,0.0,-0.0,0.0,0.008612012483774571,129.98782787668063,-0.21374045801526717,0.15267175572519084,0.0,90.0,89.0,0.0,0.0,0.0,87.53,90.2,-5.0,1.0,0.0,
11.283,-82.60562965914148,167.84179482595258,0.015267175572519083,-0.0,0.0,257.78925793453095,161.2964468458328,0.0,-0.0,0.0,256.71202427554425,165.5264862346623,0.0,-0.0,0.0,0.008617905108873895,129.9878369081414,-0.21374045801526717,0.15267175572519084,0.0,90.0,89.0,0.0,0.0,0.0,87.57,90.19,-5.0,0.0,0.0,
11.321,-82.5726720282918,167.84185610528277,0.015267175572519083,-0.0,0.0,257.79805539344403,161.2909065582025,0.0,-0.0,0.0,256.7127238113666,165.53480844354348,0.0,-0.0,0.0,0.00862291384020832,129.98784458488308,-0.21374045801526717,0.15267175572519084,0.0,90.0,89.0,0.0,0.0,0.0,87.58,90.18,-5.0,1.0,0.0,
11.359,-82.54465804206957,167.84190819271345,0.015267175572519083,-0.0,0.0,257.8055332335201,161.2861973137167,0.0,-0.0,0.0,256.7133184168155,165.5418823210925,0.0,-0.0,0.0,0.008627171261842582,129.9878511101135,-0.21374045801526717,0.15267175572519084,0.0,90.0,89.0,0.0,0.0,0.0,87.56,90.15,-4.0,0.0,1.0,
11.397,-82.52084615378068,167.8419524670295,0.015267175572519083,-0.0,0.0,257.8118893975848,161.2821944559038,0.0,-0.0,0.0,256.71382383144714,165.54789511700915,0.0,-0.0,0.0,0.008630790070231703,129.98792154205552,-0.20610687022900764,0.15267175572519084,0.0,90.0,89.0,0.0,0.0,0.0,87.55,90.12,-4.0,0.0,0.0,
11.435,-82.50060604873512,167.84199010019816,0.015267175572519083,-0.0,0.0,257.81729213703983,161.27879202676283,0.0,-0.0,0.0,256.71425343388404,165.5530059935383,0.0,-0.0,0.0,0.008633866057362457,129.98791652371006,-0.21374045801526717,0.15267175572519084,-0.015267175572519083,90.0,89.0,0.0,0.0,0.0,87.53,90.16,-5.0,1.0,0.0,
11.473,-82.4834019594464,167.8420220883915,0.015267175572519083,-0.0,0.0,257.82188446557655,161.27589996199302,0.0,-0.0,0.0,256.7507193272501,165.5553354733873,0.0,-0.007633587786259542,-0.015267175572519083,0.008636480646423599,129.9879122581164,-0.21374045801526717,0.15267175572519084,-0.015267175572519083,90.0,89.0,0.0,0.0,0.0,87.51,90.14,-4.0,0.0,0.0,
11.512,-82.46877848355098,167.84204927835586,0.015267175572519083,-0.0,0.0,257.82578794483277,161.27344170693868,0.0,-0.0,0.0,256.7817153366113,165.55731553125892,0.0,-0.007633587786259542,-0.015267175572519083,0.008638703047125568,129.98790863236184,-0.21374045801526717,0.15267175572519084,-0.015267175572519083,90.0,89.0,0.0,0.0,0.0,87.66,90.2,-5.0,2.0,0.0,
11.55,-82.45634852903987,167.84207238982555,0.015267175572519083,-0.0,0.0,257.8291059022006,161.2713521901425,0.0,-0.0,0.0,256.8080619445683,165.5589985804498,0.0,-0.007633587786259542,-0.015267175572519083,0.008640592087722243,129.98797043596662,-0.20610687022900764,0.15267175572519084,-0.007633587786259542,90.0,89.0,0.0,0.0,0.0,87.73,90.26,-5.0,4.0,0.0,
11.588,-82.44578306770543,167.8420920345748,0.015267175572519083,-0.0,0.0,257.8319261659632,161.26957610086572,0.0,-0.0,0.0,256.83045656133174,165.56042917226208,0.0,-0.007633587786259542,-0.015267175572519083,0.008642197772229417,129.98802296903068,-0.20610687022900764,0.15267175572519084,-0.007633587786259542,90.0,89.0,0.0,0.0,0.0,87.76,90.36,-5.0,2.0,1.0,
11.625,-82.43680242557116,167.84210873261165,0.015267175572519083,-0.0,0.0,257.83432339016144,161.26806642498047,0.0,-0.0,0.0,256.84949198558064,165.5616451753025,0.0,-0.007633587786259542,-0.015267175572519083,0.008643562604060514,129.98806762213513,-0.20610687022900764,0.15267175572519084,-0.007633587786259542,90.0,89.0,0.0,0.0,0.0,87.74,90.5,-4.0,2.0,3.0,
11.664,-82.42916887975703,167.842122925943,0.015267175572519083,-0.0,0.0,257.83636103072996,161.26678320047802,0.0,-0.0,0.0,256.8656720961922,165.56267877788684,0.0,-0.007633587786259542,-0.015267175572519083,0.008644722711116947,129.98810557727393,-0.20610687022900764,0.15267175572519084,-0.007633587786259542,90.0,89.0,0.0,0.0,0.0,87.82,90.7,-5.0,3.0,2.0,
11.702,-82.42268036581501,167.84213499027462,0.015267175572519083,-0.0,0.0,257.8380930252132,161.26569245965092,0.0,-0.0,0.0,256.8794251902121,165.56355734008355,0.0,-0.007633587786259542,-0.015267175572519083,0.008645708802114915,129.98813783914187,-0.20610687022900764,0.15267175572519084,-0.007633587786259542,90.0,89.0,0.0,0.0,0.0,87.85,90.8,-6.0,3.0,3.0,
11.74,-82.4171651289643,167.8421452449565,0.015267175572519083,-0.0,0.0,257.8395652205239,161.2647653299479,0.0,-0.0,0.0,256.89111532012896,165.56430411795074,0.0,-0.007633587786259542,-0.015267175572519083,0.008581661483279981,129.9884248037144,-0.17557251908396945,0.1450381679389313,-0.061068702290076333,90.0,89.0,0.0,0.0,0.0,87.97,90.84,-6.0,3.0,3.0,
11.778,-82.4124771776412,167.8421539614361,0.015267175572519083,-0.0,0.0,257.84081658653804,161.26397726970032,0.0,-0.0,0.0,256.9010519305583,165.56493887913786,0.0,-0.007633587786259542,-0.015267175572519083,0.008527221262270287,129.98866872360102,-0.17557251908396945,0.1450381679389313,-0.061068702290076333,90.0,89.0,0.0,0.0,0.0,88.05,90.95,-6.0,3.0,4.0,
11.816,-82.40849241901655,167.84216137044376,0.015267175572519083,-0.0,0.0,257.84188024765007,161.2633074184899,0.0,-0.0,0.0,256.8815970152251,165.55202729861125,-0.022900763358778626,-0.022900763358778626,-0.03816793893129771,0.008480947074412047,129.98887605550465,-0.17557251908396945,0.1450381679389313,-0.061068702290076333,90.0,89.0,0.0,0.0,0.0,88.1,91.03,-6.0,3.0,4.0,
11.855,-82.40510537418561,167.84216766810027,0.015267175572519083,-0.0,0.0,257.84278435959527,161.262738044961,0.0,-0.0,0.0,256.85461785797804,165.5288523756188,-0.030534351145038167,-0.030534351145038167,-0.06870229007633588,0.008441614014732543,129.98905228762274,-0.17557251908396945,0.1450381679389313,-0.061068702290076333,90.0,89.0,0.0,0.0,0.0,88.22,91.01,-5.0,1.0,5.0,
11.893,-82.464833569628,167.8734157318292,-0.04580152671755725,-0.022900763358778626,-0.061068702290076333,257.8435528547487,161.26225407746145,0.0,-0.0,0.0,256.831685574318,165.50915369107523,-0.030534351145038167,-0.030534351145038167,-0.06870229007633588,0.008408180914004965,129.98920208492314,-0.17557251908396945,0.1450381679389313,-0.061068702290076333,90.0,89.0,0.0,0.0,0.0,88.37,90.95,-6.0,2.0,4.0,
11.931,-82.51560253575403,167.8999765859988,-0.04580152671755725,-0.022900763358778626,-0.061068702290076333,257.8442060756291,161.26184270508685,0.0,-0.0,0.0,256.8432145361249,165.4830244220237,-0.03816793893129771,-0.03816793893129771,-0.07633587786259542,0.008379762778386524,129.98932941262845,-0.17557251908396945,0.1450381679389313,-0.061068702290076333,90.0,89.0,0.0,0.0,0.0,88.53,90.89,-6.0,1.0,2.0,
11.969,-82.55875615696115,167.92255331204296,-0.04580152671755725,-0.022900763358778626,-0.061068702290076333,257.84476131337743,161.26149303856843,0.0,-0.0,0.0,256.85301415366075,165.4608145433299,-0.03816793893129771,-0.03816793893129771,-0.07633587786259542,0.00835560736311085,129.98943764117797,-0.17557251908396945,0.1450381679389313,-0.061068702290076333,90.0,89.0,0.0,0.0,0.0,88.62,90.79,-6.0,1.0,1.0,
12.008,-82.5954367349872,167.94174352918048,-0.04580152671755725,-0.022900763358778626,-0.061068702290076333,257.86547484213526,161.29433601167125,0.13740458015267176,-0.030534351145038167,-0.10687022900763359,256.86134382856625,165.44193614644016,-0.03816793893129771,-0.03816793893129771,-0.07633587786259542,0.008335075260126525,129.98952963544508,-0.17557251908396945,0.1450381679389313,-0.061068702290076333,90.0,89.0,0.0,0.0,0.0,88.66,90.68,-5.0,-1.0,1.0,
12.047,-82.62661522630935,167.9580552137474,-0.04580152671755725,-0.022900763358778626,-0.061068702290076333,257.88308134157944,161.32225253880864,0.13740458015267176,-0.030534351145038167,-0.10687022900763359,256.97017167894086,165.3505347406598,-0.07633587786259542,-0.061068702290076333,-0.05343511450381679,0.00831762297258985,129.9896078305721,-0.17557251908396945,0.1450381679389313,-0.061068702290076333,90.0,89.0,0.0,0.0,0.0,88.76,90.22,-5.0,-7.0,1.0,
12.085,-82.65311694393317,167.97192014562927,-0.04580152671755725,-0.022900763358778626,-0.061068702290076333,257.9778512961763,161.38850439205913,0.15267175572519084,-0.03816793893129771,-0.06870229007633588,257.06267535175925,165.27284354574653,-0.07633587786259542,-0.061068702290076333,-0.05343511450381679,0.008302788528183676,129.98967429643008,-0.17557251908396945,0.1450381679389313,-0.061068702290076333,90.0,89.0,0.0,0.0,0.0,88.87,90.05,-6.0,0.0,0.0,
12.124,-82.67564340391343,167.98370533772885,-0.04580152671755725,-0.022900763358778626,-0.061068702290076333,258.05840575758367,161.44481846732205,0.15267175572519084,-0.03816793893129771,-0.06870229007633588,257.1413034736549,165.20680603007023,-0.07633587786259542,-0.061068702290076333,-0.05343511450381679,0.007835980777155985,129.99018499088265,-0.12213740458015267,0.0916030534351145,-0.22900763358778625,90.0,89.0,0.0,0.0,0.0,89.04,89.71,-7.0,-2.0,3.0,
12.163,-82.69479089489664,167.99372275101348,-0.04580152671755725,-0.022900763358778626,-0.061068702290076333,258.1268770497799,161.4926854312955,0.15267175572519084,-0.03816793893129771,-0.06870229007633588,257.2081373772662,165.15067414174538,-0.07633587786259542,-0.061068702290076333,-0.05343511450381679,0.007374308692599241,129.99061908116732,-0.12213740458015267,0.08396946564885496,-0.22900763358778625,90.0,89.0,0.0,0.0,0.0,89.17,89.27,-5.0,-1.0,5.0,
12.202,-82.71106626223236,168.00223755230542,-0.04580152671755725,-0.022900763358778626,-0.061068702290076333,258.1850776481467,161.53337235067298,0.15267175572519084,-0.03816793893129771,-0.06870229007633588,257.2649461953358,165.10296203666925,-0.07633587786259542,-0.061068702290076333,-0.05343511450381679,0.00698188742072601,129.9909880579093,-0.12213740458015267,0.08396946564885496,-0.16793893129770993,90.0,89.0,0.0,0.0,0.0,89.08,89.03,-4.0,-3.0,11.0,
12.241,-82.72490032446774,168.0094751334036,-0.04580152671755725,-0.022900763358778626,-0.061068702290076333,258.2345481567585,161.5679562321438,0.15267175572519084,-0.03816793893129771,-0.06870229007633588,257.313233690695,165.06240674735454,-0.07633587786259542,-0.061068702290076333,-0.05343511450381679,0.006453672851084145,129.99130168813997,-0.12213740458015267,0.061068702290076333,-0.19083969465648856,90.0,89.0,0.0,0.0,0.0,88.72,88.91,-6.0,1.0,9.0,
12.28,-82.7366592773678,168.01562707733706,-0.04580152671755725,-0.022900763358778626,-0.061068702290076333,258.16947678466147,161.86450901792728,0.15267175572519084,-0.007633587786259542,-0.12213740458015267,257.3542780617503,165.02793475143704,-0.07633587786259542,-0.061068702290076333,-0.05343511450381679,0.006004690466888559,129.99156827383604,-0.12213740458015267,0.061068702290076333,-0.19083969465648856,90.0,89.0,0.0,0.0,0.0,88.3,88.55,-8.0,-2.0,4.0,
12.319,-82.74665438733287,168.02085622968048,-0.04580152671755725,-0.022900763358778626,-0.061068702290076333,258.11416611837905,162.1165788858432,0.15267175572519084,-0.007633587786259542,-0.12213740458015267,257.3891657771473,164.99863355490717,-0.07633587786259542,-0.061068702290076333,-0.05343511450381679,0.005947482921238342,129.99192464267009,-0.10687022900763359,0.09923664122137404,-0.1450381679389313,90.0,89.0,0.0,0.0,0.0,87.96,87.96,-6.0,-5.0,2.0,
