time,pitch,roll,gyrx,gyry,gyrz,f1,f2,f3,f4,f5,f6,f7,g1,g2,g3
0.396,52.21,52.87,-2.02,-2.89,-1.92,0.0,0.0,0.0,0.0,0.0,1.0,0.0,0.0,0.0,0.49,
0.419,60.129999999999995,60.781,-5.53,-1.99,-1.17,0.0,0.0,0.0,0.0,0.0,1.0,0.0,0.0,0.0,0.29,
0.443,67.789,68.3401,-6.09,-0.46,0.82,0.0,0.0,0.0,0.0,0.0,1.0,0.0,0.0,0.0,0.29,
0.466,74.2789,74.84700999999998,-5.27,-0.98,2.31,0.0,0.0,0.0,0.0,0.0,1.0,0.0,0.0,0.0,0.39,
0.49,79.69789,80.456701,-6.6,-1.19,2.18,0.0,0.0,0.0,0.0,0.0,1.0,0.0,0.0,0.0,0.49,
0.514,84.27178900000001,85.2476701,-7.4,-1.38,2.0,0.0,0.0,0.0,0.0,0.0,1.0,0.0,0.0,0.0,0.59,
0.537,88.0951789,89.25476701,-6.88,-1.99,0.9,0.0,0.0,0.0,0.0,0.0,1.0,0.0,0.0,0.0,0.59,
0.561,91.35751789,92.571476701,-5.74,-2.82,0.24,0.0,0.0,0.0,0.0,0.0,1.0,0.0,0.0,0.0,0.49,
0.584,94.212751789,95.5671476701,-4.16,-2.93,0.89,0.0,0.0,0.0,0.0,0.0,1.0,0.0,0.0,0.0,0.39,
0.608,96.4872751789,97.98171476700999,-3.15,-2.47,2.59,0.0,0.0,0.0,0.0,0.0,1.0,0.0,0.0,0.0,0.59,
0.631,98.48772751789,99.942171476701,-2.04,-2.73,1.5,0.0,0.0,0.0,0.0,0.0,1.0,0.0,0.0,0.0,0.49,
0.655,100.307772751789,101.6052171476701,-2.97,-2.03,0.55,0.0,0.0,0.0,0.0,0.0,1.0,0.0,0.0,0.0,0.49,
0.679,101.8577772751789,102.932521714767,-4.79,0.39,0.69,0.0,0.0,0.0,0.0,0.0,1.0,0.0,0.0,0.0,0.49,
0.703,103.16477772751789,104.1002521714767,-4.68,1.6,-0.69,0.0,0.0,0.0,0.0,0.0,1.0,0.0,0.0,0.1,0.59,
0.727,104.26747777275179,105.39602521714767,-3.59,0.14,-1.56,0.0,0.0,0.0,0.0,0.0,1.0,0.0,0.0,0.0,0.78,
0.75,105.09774777727519,106.59660252171477,-5.6,0.22,-0.79,0.0,0.0,0.0,0.0,0.0,1.0,0.0,0.0,0.0,0.59,
0.774,105.85577477772752,107.64366025217149,-5.63,-0.25,-0.97,0.0,0.0,0.0,0.0,0.0,1.0,0.0,0.0,0.1,0.49,
0.797,106.48957747777276,108.54936602521715,-2.43,-1.79,-1.21,0.0,0.0,0.0,0.0,0.0,1.0,0.0,0.0,0.0,0.59,
0.822,107.06595774777728,109.24293660252171,-2.54,-1.24,0.59,0.0,0.0,0.0,0.0,0.0,1.0,0.0,0.0,0.0,0.88,
0.845,107.42959577477772,109.59129366025218,-4.18,-1.06,2.2,0.0,0.0,0.0,0.0,0.0,1.0,0.0,0.1,0.0,0.69,
0.869,107.62795957747778,109.63512936602521,-2.3,-1.47,1.9,0.0,0.0,0.0,0.0,0.0,1.0,0.0,0.0,0.0,0.59,
0.892,107.89079595774777,109.63951293660251,0.01,-3.57,-0.12,0.0,0.0,0.0,0.0,0.0,1.0,0.0,0.0,0.0,0.49,
0.916,108.31307959577478,109.71195129366025,-3.66,-2.63,0.53,0.0,0.0,0.0,0.0,0.0,1.0,0.0,0.0,0.0,0.69,
0.94,108.64330795957748,109.70119512936603,-5.0,-0.44,2.53,0.0,0.0,0.0,0.0,0.0,1.0,0.0,0.0,0.0,0.69,
0.964,108.91933079595775,109.68211951293661,-1.21,0.11,1.2,0.0,0.0,0.0,0.0,0.0,1.0,0.0,0.0,0.0,0.88,
0.988,109.12693307959579,109.77921195129366,-2.6,-0.23,-1.13,0.0,0.0,0.0,0.0,0.0,1.0,0.0,0.0,0.0,0.78,
1.011,109.43569330795957,110.13092119512937,-7.1,1.59,0.08,0.0,0.0,0.0,0.0,0.0,1.0,0.0,0.1,0.0,0.78,
1.035,109.52956933079597,110.63409211951293,-6.5,1.94,2.51,0.0,0.0,0.0,0.0,0.0,1.0,0.0,0.1,0.0,0.69,
1.058,109.58395693307959,111.2424092119513,-5.5,1.75,4.5,0.0,0.0,0.0,0.0,0.0,1.0,0.0,0.0,0.1,0.59,
1.082,109.32839569330795,111.80724092119513,-1.66,-0.08,3.73,0.0,0.0,0.0,0.0,0.0,1.0,0.0,0.0,0.0,0.78,
1.105,109.0328395693308,112.0887240921195,3.91,-2.77,-0.27,0.0,0.0,0.0,0.0,0.0,1.0,0.0,0.0,0.0,0.98,
1.129,109.12928395693308,112.15287240921195,4.36,-4.02,-4.34,0.0,0.0,0.0,0.0,0.0,1.0,0.0,0.0,0.0,0.88,
1.154,109.4809283956933,112.41128724092118,0.64,-2.21,-3.01,0.0,0.0,0.0,0.0,0.0,1.0,0.0,0.0,0.0,0.59,
1.177,109.70509283956933,112.57212872409212,1.91,-1.35,-0.73,0.0,0.0,0.0,0.0,0.0,1.0,0.0,0.0,0.0,0.69,
1.201,109.75450928395693,112.57021287240921,2.64,-0.51,-1.7,0.0,0.0,0.0,0.0,0.0,1.0,0.0,0.0,0.0,0.78,
1.224,110.07445092839569,112.88502128724092,2.33,-0.79,-3.67,0.0,0.0,0.0,0.0,0.0,1.0,0.0,0.0,0.0,0.88,
1.248,110.37644509283956,113.3935021287241,4.34,-1.13,0.0,0.0,0.0,0.0,0.0,0.0,1.0,0.0,0.0,0.1,0.78,
1.271,110.60464450928394,113.1563502128724,6.45,-0.74,1.4,0.0,0.0,0.0,0.0,0.0,1.0,0.0,0.0,0.0,0.88,
1.295,110.62746445092839,112.46663502128723,6.49,-1.17,-0.5,0.0,0.0,0.0,0.0,0.0,1.0,0.0,0.0,0.0,0.88,
1.319,110.46774644509284,111.65966350212872,0.9,-0.9,-1.92,0.0,0.0,0.0,0.0,0.0,1.0,0.0,0.0,0.1,0.59,
1.343,110.50577464450929,111.16496635021286,-3.92,-1.5,-1.25,0.0,0.0,0.0,0.0,0.0,1.0,0.0,0.0,0.0,0.78,
1.367,110.68957746445092,111.04349663502128,-3.82,-1.88,1.24,0.0,0.0,0.0,0.0,0.0,1.0,0.0,0.1,0.0,0.78,
1.39,110.8249577464451,111.09434966350211,-3.85,-1.25,4.18,0.0,0.0,0.0,0.0,0.0,1.0,0.0,0.1,0.0,0.88,
1.414,110.87449577464452,111.1264349663502,-5.56,0.69,4.63,0.0,0.0,0.0,0.0,0.0,1.0,0.0,0.1,0.1,0.78,
1.437,110.99644957746446,111.09364349663502,-7.43,1.8,1.89,0.0,0.0,0.0,0.0,0.0,1.0,0.0,0.1,0.0,0.78,
1.461,111.09864495774644,111.6303643496635,-8.47,2.73,2.08,0.0,0.0,0.0,0.0,0.0,1.0,0.0,0.1,0.0,0.49,
1.484,110.92886449577465,112.15203643496633,-7.5,2.52,2.13,0.0,0.0,0.0,0.0,0.0,1.0,0.0,0.1,0.1,0.78,
1.509,110.65988644957746,112.78020364349663,-3.43,-0.95,-1.34,0.0,0.0,0.0,0.0,0.0,1.0,0.0,0.0,0.1,0.88,
1.532,110.58798864495775,113.33802036434966,-1.91,-2.68,-3.82,0.0,0.0,0.0,0.0,0.0,1.0,0.0,0.0,0.0,0.78,
1.556,110.68879886449578,113.78080203643496,2.4,-2.2,-3.78,0.0,0.0,0.0,0.0,0.0,1.0,0.0,0.0,0.0,0.78,
1.58,110.77087988644958,113.94208020364348,2.56,-1.16,-0.88,0.0,0.0,0.0,0.0,0.0,1.0,0.0,0.0,0.0,0.78,
1.603,110.69808798864494,113.70620802036436,0.47,0.76,1.34,0.0,0.0,0.0,0.0,0.0,1.0,0.0,0.1,0.0,0.69,
1.627,110.55580879886449,112.89962080203644,1.67,-0.6,-1.64,0.0,0.0,0.0,0.0,0.0,1.0,0.0,0.1,0.0,0.98,
1.65,110.46058087988645,112.30596208020363,-1.02,-1.9,-3.46,0.0,0.0,0.0,0.0,0.0,1.0,0.0,0.0,0.0,1.08,
1.675,110.37905808798865,111.80559620802036,-6.85,-2.16,-1.87,0.0,0.0,0.0,0.0,0.0,1.0,0.0,0.0,0.0,1.08,
1.698,110.36190580879887,111.34155962080203,-8.84,-2.08,-0.11,0.0,0.0,0.0,0.0,0.0,1.0,0.0,0.1,0.0,0.88,
1.722,110.38719058087989,110.69215596208021,-8.27,-3.4,0.33,0.0,0.0,0.0,0.0,0.0,1.0,0.0,0.0,0.0,0.78,
1.745,110.38971905808799,109.943215596208,-13.95,-2.83,3.58,0.0,0.0,0.0,0.0,0.0,1.0,0.0,0.1,0.0,0.98,
1.77,110.2909719058088,108.72532155962081,-21.78,-3.31,7.16,0.0,0.0,0.0,0.0,0.0,1.0,0.0,0.1,0.1,0.88,
1.794,110.10109719058087,107.28053215596208,-28.3,-3.81,7.69,0.0,0.0,0.0,0.0,0.0,1.0,0.0,0.0,0.0,0.78,
1.817,109.84810971905807,105.48005321559621,-38.25,-5.05,7.1,0.0,0.0,0.0,0.0,0.0,1.0,0.0,0.0,0.0,0.69,
1.841,109.6338109719058,103.93200532155961,-44.02,-4.94,4.73,0.0,0.0,0.0,0.0,0.0,1.0,0.0,0.0,0.0,0.69,
1.865,109.34238109719058,103.03020053215597,-45.67,-7.76,3.02,0.0,0.0,0.0,0.0,0.0,1.0,0.0,0.0,0.0,0.69,
1.889,109.21423810971906,102.50802005321559,-50.05,-7.15,4.28,0.0,0.0,0.0,0.0,0.0,1.0,0.0,0.0,0.0,0.88,
1.912,108.6884238109719,101.57380200532157,-51.52,-8.28,3.42,0.0,0.0,0.0,0.0,0.0,1.0,0.0,0.0,0.0,0.78,
1.936,107.87984238109719,100.35538020053217,-56.92,-9.69,-2.27,0.0,0.0,0.0,0.0,0.0,1.0,0.0,0.0,0.0,0.88,
1.96,107.11498423810971,99.39653802005321,-63.93,-12.22,-6.91,0.0,0.0,0.0,0.0,0.0,1.0,0.0,0.1,0.0,0.29,
1.984,105.88649842381096,97.83365380200533,-65.11,-18.83,-10.6,0.0,0.0,0.0,0.0,0.0,1.0,0.0,0.2,0.0,0.2,
2.008,104.98964984238108,95.63436538020053,-71.98,-24.74,-12.34,0.0,0.0,0.0,0.0,0.0,1.0,0.0,0.29,0.0,0.69,
2.032,104.6659649842381,93.65943653802006,-83.36,-26.08,-7.25,0.0,0.0,0.0,0.0,0.0,1.0,0.0,0.39,0.0,0.78,
2.056,104.66959649842381,91.69794365380201,-82.38,-25.8,0.93,0.0,0.0,0.0,0.0,0.0,1.0,0.0,0.59,0.0,0.69,
2.079,104.66095964984238,90.3947943653802,-80.93,-26.18,9.78,0.0,0.0,0.0,0.0,0.0,1.0,0.0,0.49,0.0,0.78,
2.104,104.61509596498423,88.91447943653802,-80.92,-25.04,13.56,0.0,0.0,0.0,0.0,0.0,1.0,0.0,0.49,0.0,0.78,
2.127,104.52950959649841,87.92044794365381,-76.83,-28.28,10.36,0.0,0.0,0.0,0.0,0.0,1.0,0.0,0.39,0.0,0.69,
2.151,104.57495095964984,87.59604479436538,-78.26,-24.65,4.17,0.0,0.0,0.0,0.0,0.0,1.0,0.0,0.39,0.0,0.0,
2.174,105.17349509596498,88.31060447943653,-73.85,-18.99,0.73,0.0,0.0,0.0,0.0,0.0,1.0,0.0,0.39,0.0,0.0,
2.199,105.7643495095965,89.83106044794366,-64.31,-14.72,2.29,0.0,0.0,0.0,0.0,0.0,1.0,0.0,0.49,0.1,0.0,
2.223,106.43543495095966,91.88210604479437,-65.56,-6.5,0.19,0.0,0.0,0.0,0.0,0.0,1.0,0.0,0.69,0.1,0.0,
2.246,106.83554349509596,94.00421060447944,-70.82,-1.94,-0.51,0.0,0.0,0.0,0.0,0.0,0.0,0.0,0.98,0.2,0.0,
2.27,115.55155434950959,105.59242106044793,62.21,-28.43,-148.77,0.0,0.0,0.0,0.0,0.0,1.0,0.0,2.45,0.2,0.49,
2.294,118.35815543495096,100.37924210604479,32.59,-17.6,17.03,0.0,0.0,0.0,1.0,0.0,1.0,0.0,10.3,1.18,0.0,
2.319,114.60681554349509,96.65392421060447,-41.48,-37.58,12.18,0.0,0.0,0.0,2.0,0.0,1.0,0.0,10.89,1.86,0.0,
2.342,110.13668155434951,94.00439242106044,-9.39,6.15,-6.27,0.0,0.0,0.0,1.0,0.0,1.0,0.0,10.4,2.84,0.78,
2.367,107.91666815543495,92.53343924210606,-8.69,1.81,2.4,0.0,0.0,0.0,1.0,0.0,1.0,0.0,8.24,2.35,1.96,
2.391,108.99066681554349,89.5603439242106,0.65,-2.06,-12.24,0.0,0.0,0.0,1.0,0.0,1.0,0.0,7.06,1.96,1.77,
2.414,110.41206668155434,89.49703439242106,5.63,-20.29,4.68,0.0,0.0,0.0,1.0,0.0,1.0,0.0,6.67,1.57,0.49,
2.439,108.95220666815543,88.8067034392421,-0.81,-29.44,6.2,0.0,0.0,0.0,1.0,0.0,1.0,0.0,7.06,1.57,0.0,
2.462,105.85422066681554,87.97267034392421,-8.23,-12.98,4.55,0.0,0.0,0.0,2.0,0.0,1.0,0.0,7.26,2.16,0.0,
2.486,104.60842206668154,86.99826703439243,-9.73,-0.48,0.71,0.0,0.0,0.0,2.0,0.0,1.0,0.0,7.75,2.84,0.0,
2.51,104.27684220666815,86.09082670343923,-7.44,-0.63,1.05,0.0,0.0,0.0,2.0,0.0,1.0,0.0,8.04,2.75,0.0,
2.534,103.86568422066682,85.57708267034393,-5.11,-4.85,2.71,0.0,0.0,0.0,2.0,0.0,1.0,0.0,8.44,2.65,0.49,
2.557,103.27556842206667,85.21970826703439,-4.93,-5.38,4.41,1.0,0.0,0.0,2.0,0.0,1.0,0.0,8.83,2.84,0.1,
2.582,102.51455684220667,84.71597082670344,-3.56,-4.85,3.1,1.0,0.0,0.0,2.0,0.0,1.0,0.0,9.12,3.14,0.0,
2.606,101.88045568422066,84.31459708267035,-4.22,-1.8,3.13,1.0,0.0,0.0,2.0,0.0,2.0,0.0,9.32,3.24,0.59,
2.63,101.37604556842207,83.88745970826703,-4.19,-4.41,1.32,1.0,0.0,0.0,2.0,0.0,2.0,0.0,9.32,3.34,1.77,
2.654,101.07360455684221,83.54774597082671,-3.21,-4.36,1.34,1.0,0.0,0.0,2.0,0.0,2.0,0.0,9.32,3.34,0.39,
2.678,100.85436045568422,83.37877459708267,-3.4,-4.05,1.44,2.0,0.0,0.0,2.0,0.0,2.0,0.0,9.32,3.34,0.0,
2.702,100.72443604556841,83.19087745970828,-3.2,-3.55,1.63,2.0,0.0,0.0,2.0,0.0,2.0,0.0,9.22,3.34,0.0,
2.725,100.41444360455684,83.06408774597082,-2.97,-2.26,1.73,2.0,0.0,0.0,2.0,0.0,2.0,0.0,9.22,3.43,0.0,
2.75,100.11344436045569,82.89840877459707,-3.18,-0.18,1.96,2.0,0.0,0.0,2.0,0.0,2.0,0.0,9.22,3.63,0.69,
2.774,99.93934443604556,82.77384087745972,-3.51,1.52,2.25,2.0,0.0,0.0,2.0,0.0,2.0,0.0,9.32,3.63,0.78,
2.798,99.83193444360455,82.77038408774597,-3.17,2.13,2.05,3.0,0.0,0.0,2.0,0.0,2.0,0.0,9.52,3.63,0.1,
2.822,99.81219344436046,82.76103840877461,-3.06,2.25,1.95,3.0,0.0,0.0,2.0,0.0,2.0,0.0,9.71,3.73,0.1,
2.845,99.82821934443604,82.68810384087746,-2.95,1.44,1.79,3.0,0.0,0.0,2.0,0.0,2.0,0.0,9.81,3.73,0.39,
2.869,99.8478219344436,82.63581038408775,-3.08,0.63,0.88,3.0,0.0,0.0,2.0,0.0,2.0,0.0,9.91,3.73,0.69,
2.893,99.77778219344435,82.62158103840878,-2.74,-0.09,0.21,3.0,0.0,0.0,2.0,0.0,2.0,0.0,9.91,3.83,0.39,
2.917,99.79777821934442,82.53915810384088,-2.86,0.03,0.77,3.0,0.0,0.0,2.0,0.0,2.0,0.0,10.1,3.83,0.0,
2.94,99.76377782193444,82.49491581038409,-2.45,0.28,1.2,3.0,0.0,0.0,2.0,0.0,2.0,0.0,10.2,3.83,0.0,
2.965,99.65237778219344,82.44549158103841,-2.79,0.65,1.57,3.0,0.0,0.0,2.0,0.0,2.0,0.0,10.3,3.83,0.0,
2.989,99.73123777821934,82.40454915810385,-2.91,0.8,2.01,4.0,0.0,0.0,2.0,0.0,2.0,0.0,10.4,3.83,0.0,
3.012,99.73912377782193,82.40945491581039,-2.58,-0.12,1.58,4.0,0.0,0.0,2.0,0.0,2.0,0.0,10.3,3.83,0.0,
3.037,99.7309123777822,82.41894549158104,-2.41,-0.32,0.76,4.0,0.0,0.0,2.0,0.0,2.0,0.0,10.3,3.73,0.0,
3.06,99.73009123777823,82.3838945491581,-2.66,-1.14,0.82,4.0,0.0,0.0,2.0,0.0,2.0,0.0,10.3,3.73,0.0,
3.085,99.72100912377783,82.37138945491581,-2.92,-1.32,0.32,4.0,0.0,0.0,2.0,0.0,2.0,0.0,10.4,3.73,0.0,
3.108,99.68410091237779,82.38813894549158,-3.02,-1.63,-0.02,4.0,0.0,0.0,2.0,0.0,2.0,0.0,10.3,3.83,0.2,
3.133,99.67141009123777,82.39881389454916,-2.95,-1.42,0.32,4.0,0.0,0.0,2.0,0.0,2.0,0.0,10.4,3.83,0.49,
3.156,99.68814100912378,82.4088813894549,-3.03,-1.46,0.41,4.0,0.0,0.0,2.0,0.0,2.0,0.0,10.4,3.83,0.49,
3.18,99.68981410091237,82.33788813894549,-3.3,-0.76,0.66,4.0,0.0,0.0,2.0,0.0,2.0,0.0,10.5,3.83,0.0,
3.205,99.69898141009124,82.34878881389454,-2.85,-0.03,0.73,4.0,0.0,0.0,2.0,0.0,2.0,0.0,10.5,3.83,0.0,
3.228,99.74489814100913,82.33187888138944,-2.94,-0.33,0.95,4.0,0.0,0.0,2.0,0.0,2.0,0.0,10.4,3.83,0.1,
3.253,99.77648981410091,82.28518788813895,-2.88,-0.73,0.76,4.0,0.0,0.0,2.0,0.0,2.0,0.0,10.5,3.83,0.1,
3.276,99.76164898141009,82.29851878881388,-2.78,-1.21,0.24,4.0,0.0,0.0,2.0,0.0,2.0,0.0,10.4,3.83,0.1,
3.301,99.68816489814101,82.29985187888138,-2.86,-1.05,-0.17,4.0,0.0,0.0,2.0,0.0,2.0,0.0,10.4,3.73,0.29,
3.324,99.6988164898141,82.28198518788814,-2.89,-0.76,0.24,4.0,0.0,0.0,2.0,0.0,2.0,0.0,10.4,3.73,0.2,
3.349,99.72688164898142,82.30719851878882,-2.81,-0.79,0.3,4.0,0.0,0.0,2.0,0.0,2.0,0.0,10.3,3.63,0.1,
3.373,99.73868816489814,82.31871985187888,-3.02,-1.09,0.27,4.0,0.0,0.0,2.0,0.0,2.0,0.0,10.3,3.73,0.49,
3.397,99.7668688164898,82.32887198518787,-3.02,-0.62,0.39,4.0,0.0,0.0,2.0,0.0,2.0,0.0,10.3,3.63,0.69,
3.421,99.77868688164898,82.36588719851879,-3.21,-0.51,0.69,4.0,0.0,0.0,2.0,0.0,2.0,0.0,10.3,3.63,0.49,
3.444,99.7618686881649,82.33358871985187,-2.98,-0.34,0.43,4.0,0.0,0.0,2.0,0.0,2.0,0.0,10.2,3.63,0.29,
3.469,99.73318686881649,82.2853588719852,-3.02,-0.56,0.47,4.0,0.0,0.0,2.0,0.0,2.0,0.0,10.1,3.63,0.29,
3.492,99.73931868688163,82.23553588719852,-2.98,-0.81,0.56,4.0,0.0,0.0,2.0,0.0,2.0,0.0,10.2,3.63,0.49,
3.517,99.86593186868816,82.29355358871985,-3.13,-1.14,-0.47,4.0,0.0,0.0,2.0,0.0,2.0,0.0,10.2,3.63,0.49,
3.54,99.94159318686881,82.29935535887198,-3.23,-1.74,-0.59,4.0,0.0,0.0,2.0,0.0,2.0,0.0,10.3,3.63,0.49,
3.565,99.88615931868688,82.3359355358872,-3.44,-1.27,0.5,4.0,0.0,0.0,2.0,0.0,2.0,0.0,10.2,3.63,0.59,
3.589,99.88061593186868,82.33959355358873,-3.55,-0.79,0.84,4.0,0.0,0.0,2.0,0.0,2.0,0.0,10.3,3.63,0.29,
3.613,99.86206159318687,82.31295935535888,-3.45,-0.91,0.88,4.0,0.0,0.0,2.0,0.0,2.0,0.0,10.3,3.63,0.49,
3.637,99.87820615931868,82.31029593553589,-3.19,-0.99,0.53,4.0,0.0,0.0,2.0,0.0,2.0,0.0,10.2,3.63,0.2,
3.661,99.92482061593188,82.3100295935536,-3.18,-1.34,0.48,4.0,0.0,0.0,2.0,0.0,2.0,0.0,10.2,3.63,0.0,
3.685,99.92048206159319,82.27400295935536,-3.04,-0.82,0.31,4.0,0.0,0.0,2.0,0.0,2.0,0.0,10.2,3.63,0.0,
3.708,99.92004820615932,82.29740029593553,-3.28,-0.55,0.17,4.0,0.0,0.0,2.0,0.0,2.0,0.0,10.1,3.63,0.0,
3.733,99.96500482061593,82.26374002959356,-3.11,-0.94,-0.23,4.0,0.0,0.0,2.0,0.0,3.0,0.0,10.2,3.63,0.2,
3.757,99.94250048206159,82.32337400295935,-3.17,-1.02,-0.17,4.0,0.0,0.0,2.0,0.0,3.0,0.0,10.2,3.63,0.29,
3.781,99.96725004820615,82.32033740029593,-3.27,-1.11,0.45,4.0,0.0,0.0,2.0,0.0,3.0,0.0,10.3,3.73,0.0,
3.805,99.96972500482062,82.30203374002959,-3.14,-1.05,0.42,4.0,0.0,0.0,2.0,0.0,3.0,0.0,10.3,3.63,0.2,
3.829,99.96997250048206,82.37220337400295,-3.08,-0.82,0.46,4.0,0.0,0.0,2.0,0.0,3.0,0.0,10.3,3.83,0.0,
3.853,99.9789972500482,82.3162203374003,-3.08,-1.05,0.35,4.0,0.0,0.0,2.0,0.0,3.0,0.0,10.3,3.83,0.69,
3.877,99.92589972500481,82.31962203374002,-2.96,-1.46,-0.03,4.0,0.0,0.0,2.0,0.0,3.0,0.0,10.3,3.83,0.49,
3.901,99.87558997250049,82.256962203374,-2.92,-1.92,0.21,4.0,0.0,0.0,2.0,0.0,3.0,0.0,10.4,3.83,0.59,
3.926,99.87955899725004,82.2506962203374,-3.07,-1.61,-0.06,4.0,0.0,0.0,2.0,0.0,3.0,0.0,10.3,3.73,0.39,
3.949,99.87995589972499,82.30406962203375,-3.03,-1.73,-0.07,4.0,0.0,0.0,2.0,0.0,3.0,0.0,10.3,3.83,0.0,
3.974,99.9069955899725,82.31840696220337,-3.34,-0.43,-0.08,4.0,0.0,0.0,2.0,0.0,3.0,0.0,10.3,3.73,0.2,
3.997,99.95469955899725,82.30184069622032,-3.13,-0.73,0.4,4.0,0.0,0.0,2.0,0.0,3.0,0.0,10.3,3.73,0.49,
4.022,99.95046995589972,82.29118406962203,-3.08,-0.95,0.49,4.0,0.0,0.0,2.0,0.0,3.0,0.0,10.4,3.73,0.69,
4.045,99.96804699558997,82.21811840696219,-3.14,-1.76,-0.05,4.0,0.0,0.0,2.0,0.0,3.0,0.0,10.3,3.73,0.49,
4.07,99.96080469955899,82.29181184069621,-3.07,-1.63,-0.43,4.0,0.0,0.0,2.0,0.0,3.0,0.0,10.2,3.73,0.88,
4.093,99.9600804699559,82.31718118406961,-3.27,-1.63,-0.26,4.0,0.0,0.0,2.0,0.0,3.0,0.0,10.3,3.83,0.69,
4.118,99.94200804699558,82.31071811840697,-3.56,-1.05,0.17,4.0,0.0,0.0,2.0,0.0,3.0,0.0,10.2,3.73,0.59,
4.142,99.90420080469957,82.2920718118407,-3.47,-1.37,0.35,4.0,0.0,0.0,2.0,0.0,3.0,0.0,10.3,3.83,0.78,
4.166,99.90042008046997,82.31720718118406,-3.28,-1.62,0.08,4.0,0.0,0.0,2.0,0.0,3.0,0.0,10.2,3.73,0.88,
4.19,99.918042008047,82.28372071811842,-2.93,-1.32,0.01,4.0,0.0,0.0,2.0,0.0,3.0,0.0,10.3,3.83,0.49,
4.214,99.9828042008047,82.28937207181184,-3.37,-0.52,0.5,4.0,0.0,0.0,2.0,0.0,3.0,0.0,10.2,3.73,0.1,
4.238,100.00728042008046,82.2539372071812,-3.14,-0.89,0.5,4.0,0.0,0.0,2.0,0.0,3.0,0.0,10.2,3.83,0.0,
4.262,100.01872804200805,82.27739372071812,-3.1,-1.08,0.0,4.0,0.0,0.0,2.0,0.0,3.0,0.0,10.2,3.83,0.0,
4.286,100.0108728042008,82.23473937207181,-3.02,-1.56,-0.21,4.0,0.0,0.0,2.0,0.0,3.0,0.0,10.2,3.83,0.1,
4.311,100.01008728042008,82.23947393720717,-3.06,-1.63,-0.27,4.0,0.0,0.0,2.0,0.0,3.0,0.0,10.2,3.73,0.2,
4.334,99.97400872804201,82.20394739372072,-3.08,-1.62,0.04,4.0,0.0,0.0,2.0,0.0,3.0,0.0,10.3,3.83,0.49,
4.359,99.89840087280419,82.22739473937207,-3.21,-1.26,0.35,4.0,0.0,0.0,2.0,0.0,3.0,0.0,10.3,3.83,0.49,
4.382,99.92684008728042,82.2387394739372,-3.21,-0.99,0.53,4.0,0.0,0.0,2.0,0.0,3.0,0.0,10.3,3.73,0.0,
4.407,99.92068400872805,82.22187394739372,-3.13,-1.04,0.15,4.0,0.0,0.0,2.0,0.0,3.0,0.0,10.3,3.83,0.0,
4.43,99.9380684008728,82.15718739473937,-2.86,-1.31,-0.34,4.0,0.0,0.0,2.0,0.0,3.0,0.0,10.2,3.83,0.0,
4.455,99.93080684008729,82.17771873947393,-2.96,-1.73,-0.05,4.0,0.0,0.0,2.0,0.0,3.0,0.0,10.4,3.83,0.59,
4.478,99.92108068400873,82.13477187394739,-3.04,-1.52,0.35,4.0,0.0,0.0,2.0,0.0,3.0,0.0,10.3,3.73,1.08,
4.503,99.92010806840086,82.14847718739475,-2.96,-1.35,0.09,4.0,0.0,0.0,3.0,0.0,3.0,0.0,10.3,3.83,0.88,
4.527,99.94701080684008,82.14084771873948,-3.19,-0.89,0.13,4.0,0.0,0.0,2.0,0.0,3.0,0.0,10.4,3.73,0.49,
4.55,100.02170108068401,82.19408477187395,-3.11,-1.18,0.06,4.0,0.0,0.0,2.0,0.0,3.0,0.0,10.2,3.83,0.39,
4.575,100.0111701080684,82.1454084771874,-3.19,-1.2,0.23,4.0,0.0,0.0,3.0,0.0,3.0,0.0,10.2,3.73,0.69,
4.599,100.05511701080684,82.15854084771874,-3.1,-1.45,0.42,4.0,0.0,0.0,2.0,0.0,3.0,0.0,10.2,3.63,0.1,
4.623,99.99651170108068,82.13285408477188,-2.93,-1.41,0.11,4.0,0.0,0.0,2.0,0.0,3.0,0.0,10.1,3.73,0.2,
4.646,99.98165117010807,82.11228540847719,-3.18,-1.33,-0.37,4.0,0.0,0.0,3.0,0.0,3.0,0.0,10.2,3.73,0.49,
4.671,99.9801651170108,82.11922854084771,-3.26,-1.32,-0.53,4.0,0.0,0.0,3.0,0.0,3.0,0.0,10.2,3.73,0.39,
4.696,99.99801651170108,82.14692285408478,-2.95,-1.35,-0.03,4.0,0.0,0.0,3.0,0.0,3.0,0.0,10.2,3.73,0.78,
4.719,99.9548016511701,82.18569228540848,-3.11,-1.53,0.07,4.0,0.0,0.0,3.0,0.0,3.0,0.0,10.2,3.73,1.28,
4.744,99.968480165117,82.15356922854085,-3.11,-1.35,0.15,4.0,0.0,0.0,3.0,0.0,3.0,0.0,10.2,3.73,0.69,
4.767,99.98784801651169,82.14135692285409,-3.15,-0.98,0.21,4.0,0.0,0.0,3.0,0.0,3.0,0.0,10.2,3.73,0.69,
4.791,99.98078480165117,82.13113569228541,-3.14,-1.08,0.21,4.0,0.0,0.0,3.0,0.0,3.0,0.0,10.2,3.83,0.2,
4.815,100.00707848016512,82.11211356922854,-3.36,-1.14,0.28,4.0,0.0,0.0,3.0,0.0,3.0,0.0,10.2,3.73,0.0,
4.839,99.95570784801652,82.12821135692286,-2.93,-1.63,0.09,4.0,0.0,0.0,3.0,0.0,3.0,0.0,10.1,3.73,0.0,
4.864,99.96857078480164,82.16582113569228,-3.08,-1.41,-0.21,4.0,0.0,0.0,3.0,0.0,3.0,0.0,10.2,3.73,0.0,
4.887,99.95185707848016,82.18758211356923,-3.08,-0.79,0.05,4.0,0.0,0.0,3.0,0.0,3.0,0.0,10.2,3.83,0.0,
4.912,99.96818570784801,82.13575821135693,-3.13,-1.04,-0.02,4.0,0.0,0.0,3.0,0.0,3.0,0.0,10.1,3.63,0.2,
4.935,99.9878185707848,82.09457582113569,-3.22,-1.05,0.07,4.0,0.0,0.0,3.0,0.0,3.0,0.0,10.1,3.73,0.69,
4.96,100.03478185707849,82.05445758211357,-3.07,-1.03,-0.18,4.0,0.0,0.0,3.0,0.0,3.0,0.0,10.2,3.73,0.49,
4.983,100.09347818570785,82.05044575821135,-3.02,-0.9,0.34,4.0,0.0,0.0,3.0,0.0,3.0,0.0,10.3,3.63,0.29,
5.008,100.02734781857079,82.03204457582113,-3.16,-0.86,0.44,4.0,0.0,0.0,3.0,0.0,3.0,0.0,10.2,3.73,0.0,
5.031,100.01173478185707,82.03020445758212,-3.05,-1.24,-0.04,4.0,0.0,0.0,3.0,0.0,3.0,0.0,10.2,3.73,0.0,
5.056,100.06417347818571,82.03902044575823,-2.8,-1.36,-0.15,4.0,0.0,0.0,3.0,0.0,3.0,0.0,10.3,3.73,0.1,
5.081,100.07841734781857,82.03990204457584,-3.11,-1.44,0.33,4.0,0.0,0.0,3.0,0.0,3.0,0.0,10.3,3.73,0.59,
5.104,100.02584173478186,82.07599020445758,-3.01,-1.4,-0.08,4.0,0.0,0.0,3.0,0.0,3.0,0.0,10.2,3.73,0.78,
5.129,100.03858417347818,82.10659902044576,-3.15,-1.34,-0.12,4.0,0.0,0.0,2.0,0.0,3.0,0.0,10.3,3.73,0.69,
5.152,100.04885841734782,82.11865990204457,-2.95,-0.95,0.05,4.0,0.0,0.0,3.0,0.0,3.0,0.0,10.3,3.73,0.59,
5.177,100.04088584173478,82.12886599020446,-3.16,-0.84,0.38,4.0,0.0,0.0,3.0,0.0,3.0,0.0,10.2,3.73,0.78,
5.2,100.07608858417348,82.14788659902045,-3.11,-1.11,0.58,4.0,0.0,0.0,3.0,0.0,3.0,0.0,10.1,3.73,0.59,
5.225,100.06160885841734,82.17678865990204,-2.89,-1.12,0.19,4.0,0.0,0.0,3.0,0.0,3.0,0.0,10.1,3.73,0.59,
5.249,100.12316088584174,82.09867886599021,-3.16,-1.5,-0.1,4.0,0.0,0.0,3.0,0.0,3.0,0.0,10.2,3.73,0.39,
5.273,100.12931608858418,82.06386788659901,-3.22,-1.47,0.08,4.0,0.0,0.0,3.0,0.0,3.0,0.0,10.1,3.63,0.29,
5.298,100.11193160885841,82.0693867886599,-3.2,-1.4,-0.18,4.0,0.0,0.0,3.0,0.0,3.0,0.0,10.2,3.73,0.49,
5.321,100.11919316088584,82.08793867886598,-3.17,-0.96,0.12,4.0,0.0,0.0,3.0,0.0,3.0,0.0,10.2,3.73,0.0,
5.346,100.11991931608858,82.0897938678866,-3.11,-1.48,0.29,4.0,0.0,0.0,3.0,0.0,3.0,0.0,10.3,3.73,0.0,
5.369,100.10199193160886,82.12597938678866,-3.06,-1.18,0.07,4.0,0.0,0.0,3.0,0.0,3.0,0.0,10.2,3.83,0.0,
5.394,100.02819919316089,82.12059793867887,-2.97,-1.54,-0.02,4.0,0.0,0.0,3.0,0.0,3.0,0.0,10.2,3.63,0.0,
5.417,100.02081991931608,82.17405979386788,-2.88,-1.27,-0.27,4.0,0.0,0.0,3.0,0.0,3.0,0.0,10.2,3.73,0.0,
5.442,100.0290819919316,82.16140597938679,-3.1,-0.78,0.11,4.0,0.0,0.0,3.0,0.0,3.0,0.0,10.2,3.73,0.1,
5.467,100.02090819919316,82.16014059793868,-3.08,-0.86,0.07,4.0,0.0,0.0,3.0,0.0,3.0,0.0,10.3,3.73,0.1,
5.49,100.04709081991932,82.13301405979387,-3.0,-0.99,0.21,4.0,0.0,0.0,3.0,0.0,3.0,0.0,10.2,3.73,0.1,
5.515,100.00470908199193,82.12130140597938,-3.24,-1.25,-0.12,4.0,0.0,0.0,3.0,0.0,3.0,0.0,10.2,3.83,0.29,
5.538,99.96447090819919,82.11113014059794,-3.0,-1.6,-0.22,4.0,0.0,0.0,3.0,0.0,3.0,0.0,10.3,3.73,0.39,
5.563,99.99644709081991,82.12811301405979,-3.0,-1.67,-0.1,4.0,0.0,0.0,3.0,0.0,3.0,0.0,10.2,3.73,0.2,
5.586,100.071644709082,82.10281130140598,-3.07,-1.37,0.12,4.0,0.0,0.0,3.0,0.0,3.0,0.0,10.3,3.83,0.2,
5.611,100.0521644709082,82.1092811301406,-3.17,-1.52,-0.14,4.0,0.0,0.0,3.0,0.0,3.0,0.0,10.3,3.73,0.29,
5.635,100.02321644709082,82.11892811301406,-3.24,-1.07,-0.03,4.0,0.0,0.0,3.0,0.0,3.0,0.0,10.3,3.73,0.69,
5.659,100.00232164470908,82.11089281130141,-3.08,-1.3,0.07,4.0,0.0,0.0,3.0,0.0,3.0,0.0,10.4,3.73,0.59,
5.684,100.0452321644709,82.09208928113014,-3.23,-0.92,0.19,4.0,0.0,0.0,3.0,0.0,3.0,0.0,10.3,3.73,0.39,
5.707,100.05852321644709,82.11720892811302,-3.04,-1.05,0.39,4.0,0.0,0.0,3.0,0.0,3.0,0.0,10.2,3.73,0.29,
5.732,100.00585232164471,82.1107208928113,-2.91,-1.01,0.33,4.0,0.0,0.0,3.0,0.0,3.0,0.0,10.2,3.63,0.0,
5.755,100.00958523216447,82.09207208928113,-3.15,-1.31,-0.06,4.0,0.0,0.0,3.0,0.0,3.0,0.0,10.2,3.63,0.1,
5.78,100.01895852321644,82.0902072089281,-3.06,-1.34,-0.15,4.0,0.0,0.0,3.0,0.0,3.0,0.0,10.2,3.73,0.49,
5.804,100.02889585232164,82.14402072089281,-3.02,-1.45,-0.06,4.0,0.0,0.0,3.0,0.0,3.0,0.0,10.1,3.63,0.69,
5.828,100.05688958523217,82.13140207208929,-3.18,-1.38,0.15,4.0,0.0,0.0,3.0,0.0,3.0,0.0,10.2,3.63,0.78,
5.853,100.02368895852322,82.13014020720892,-3.17,-1.2,0.07,4.0,0.0,0.0,3.0,0.0,3.0,0.0,10.2,3.73,0.49,
5.876,100.02036889585233,82.1660140207209,-3.25,-1.1,0.06,4.0,0.0,0.0,3.0,0.0,3.0,0.0,10.2,3.73,0.0,
5.901,100.06503688958523,82.12460140207209,-3.13,-1.18,0.12,4.0,0.0,0.0,3.0,0.0,3.0,0.0,10.1,3.63,0.0,
5.924,100.11450368895852,82.05746014020721,-2.98,-1.38,0.07,5.0,0.0,0.0,3.0,0.0,3.0,0.0,10.1,3.63,0.0,
5.949,100.10145036889585,82.10474601402072,-3.25,-0.9,0.13,4.0,0.0,0.0,3.0,0.0,3.0,0.0,10.2,3.63,0.0,
5.972,100.13614503688959,82.10947460140207,-3.03,-1.37,0.15,5.0,0.0,0.0,3.0,0.0,3.0,0.0,10.1,3.73,0.0,
5.997,100.11261450368896,82.1189474601402,-3.18,-1.25,-0.05,4.0,0.0,0.0,3.0,0.0,3.0,0.0,10.2,3.73,0.2,
6.021,100.1372614503689,82.12889474601403,-3.21,-1.14,0.13,5.0,0.0,0.0,3.0,0.0,3.0,0.0,10.2,3.63,0.39,
6.045,100.11272614503689,82.0938894746014,-3.05,-1.18,0.06,5.0,0.0,0.0,3.0,0.0,3.0,0.0,10.2,3.63,0.29,
6.069,100.06527261450368,82.05438894746014,-3.02,-1.31,-0.23,5.0,0.0,0.0,3.0,0.0,3.0,0.0,10.2,3.63,0.1,
6.093,100.09652726145038,82.07743889474601,-3.13,-1.03,0.0,5.0,0.0,0.0,3.0,0.0,3.0,0.0,10.2,3.73,0.39,
6.118,100.09965272614504,82.0887438894746,-3.06,-1.11,0.33,5.0,0.0,0.0,3.0,0.0,3.0,0.0,10.3,3.73,0.59,
6.141,100.0999652726145,82.04487438894748,-3.24,-0.98,0.21,5.0,0.0,0.0,3.0,0.0,3.0,0.0,10.2,3.73,0.29,
6.166,100.08199652726145,82.03148743889474,-3.23,-1.11,-0.08,5.0,0.0,0.0,3.0,0.0,3.0,0.0,10.2,3.73,0.0,
6.19,100.10719965272615,82.00314874388947,-3.11,-1.24,0.08,5.0,0.0,0.0,3.0,0.0,3.0,0.0,10.2,3.73,0.2,
6.214,100.15471996527262,82.02731487438895,-3.08,-1.44,-0.19,5.0,0.0,0.0,3.0,0.0,3.0,0.0,10.3,3.83,0.39,
6.238,100.12347199652726,82.03873148743891,-3.05,-1.79,-0.07,5.0,0.0,0.0,3.0,0.0,3.0,0.0,10.4,3.73,0.59,
6.262,100.15634719965273,82.0488731487439,-3.21,-1.12,-0.15,5.0,0.0,0.0,3.0,0.0,3.0,0.0,10.3,3.73,0.78,
6.287,100.18663471996527,82.02288731487438,-2.96,-1.15,-0.1,5.0,0.0,0.0,3.0,0.0,3.0,0.0,10.3,3.73,0.78,
6.31,100.18966347199654,82.05628873148744,-2.72,-1.5,0.09,5.0,0.0,0.0,3.0,0.0,3.0,0.0,10.3,3.73,0.49,
6.335,100.18096634719966,82.06862887314874,-3.08,-1.4,-0.12,5.0,0.0,0.0,3.0,0.0,3.0,0.0,10.2,3.73,0.69,
6.359,100.14409663471997,82.09686288731487,-3.26,-1.23,0.01,5.0,0.0,0.0,3.0,0.0,3.0,0.0,10.2,3.73,0.2,
6.383,100.158409663472,82.11768628873149,-2.98,-1.04,-0.05,5.0,0.0,0.0,3.0,0.0,3.0,0.0,10.2,3.63,0.0,
6.408,100.1598409663472,82.11076862887315,-2.89,-1.27,-0.37,5.0,0.0,0.0,3.0,0.0,3.0,0.0,10.2,3.73,0.1,
6.431,100.15998409663473,82.09207686288731,-3.22,-1.39,0.04,5.0,0.0,0.0,3.0,0.0,3.0,0.0,10.2,3.63,0.1,
6.456,100.13299840966347,82.13520768628874,-3.04,-1.26,0.13,5.0,0.0,0.0,3.0,0.0,3.0,0.0,10.2,3.73,0.2,
6.479,100.13929984096634,82.11252076862887,-3.27,-1.4,-0.04,5.0,0.0,0.0,3.0,0.0,3.0,0.0,10.1,3.63,0.1,
6.504,100.13992998409664,82.1372520768629,-3.11,-1.37,-0.05,5.0,0.0,0.0,3.0,0.0,3.0,0.0,10.2,3.73,0.2,
6.528,100.17599299840967,82.1217252076863,-3.2,-0.87,0.18,5.0,0.0,0.0,3.0,0.0,3.0,0.0,10.2,3.73,0.0,
6.552,100.21559929984097,82.12917252076863,-3.02,-1.56,0.42,5.0,0.0,0.0,3.0,0.0,3.0,0.0,10.1,3.73,0.2,
6.576,100.21055992998409,82.09391725207686,-3.03,-1.24,0.02,5.0,0.0,0.0,3.0,0.0,3.0,0.0,10.2,3.73,0.2,
6.6,100.2100559929984,82.09939172520768,-3.06,-1.43,-0.11,5.0,0.0,0.0,3.0,0.0,3.0,0.0,10.2,3.63,0.2,
6.625,100.18300559929985,82.12693917252076,-2.92,-1.3,-0.39,5.0,0.0,0.0,3.0,0.0,3.0,0.0,10.2,3.63,0.2,
6.648,100.21630055992999,82.14769391725207,-2.79,-1.42,-0.19,5.0,0.0,0.0,3.0,0.0,3.0,0.0,10.1,3.63,0.39,
6.673,100.183630055993,82.16776939172522,-2.97,-1.43,0.03,5.0,0.0,0.0,3.0,0.0,3.0,0.0,10.1,3.73,0.69,
6.696,100.1533630055993,82.18777693917252,-3.19,-1.59,-0.02,5.0,0.0,0.0,3.0,0.0,3.0,0.0,10.1,3.73,0.59,
6.721,100.15933630055993,82.16277769391725,-3.27,-1.41,-0.18,5.0,0.0,0.0,3.0,0.0,3.0,0.0,10.2,3.73,0.88,
6.746,100.16893363005599,82.19627776939173,-3.16,-1.19,0.21,5.0,0.0,0.0,3.0,0.0,3.0,0.0,10.1,3.73,0.78,
6.769,100.1338933630056,82.17262777693918,-3.19,-1.43,0.08,5.0,0.0,0.0,3.0,0.0,3.0,0.0,10.1,3.73,0.2,
6.794,100.11238933630057,82.10726277769392,-3.17,-1.02,0.21,5.0,0.0,0.0,3.0,0.0,3.0,0.0,10.1,3.73,0.2,
6.817,100.11923893363006,82.1277262777694,-3.09,-1.19,-0.21,5.0,0.0,0.0,3.0,0.0,3.0,0.0,10.1,3.63,0.2,
6.842,100.083923893363,82.17477262777695,-2.93,-1.33,-0.26,5.0,0.0,0.0,3.0,0.0,3.0,0.0,10.1,3.73,0.0,
6.865,100.1073923893363,82.1614772627777,-3.19,-1.42,-0.5,5.0,0.0,0.0,3.0,0.0,3.0,0.0,10.2,3.73,0.1,
6.89,100.12773923893363,82.14214772627777,-2.98,-1.48,-0.52,5.0,0.0,0.0,3.0,0.0,3.0,0.0,10.2,3.63,0.78,
6.915,100.08477392389337,82.17621477262777,-3.01,-1.65,-0.14,5.0,0.0,0.0,3.0,0.0,3.0,0.0,10.3,3.63,0.78,
6.938,100.11647739238934,82.24262147726279,-3.11,-1.47,0.3,5.0,0.0,0.0,3.0,0.0,3.0,0.0,10.2,3.63,0.78,
6.963,100.15564773923893,82.23126214772628,-3.22,-1.04,0.11,5.0,0.0,0.0,3.0,0.0,3.0,0.0,10.2,3.73,0.39,
6.986,100.18656477392389,82.20312621477262,-3.08,-0.98,0.22,5.0,0.0,0.0,3.0,0.0,3.0,0.0,10.1,3.73,0.2,
7.011,100.21665647739239,82.14631262147726,-3.06,-1.06,0.06,5.0,0.0,0.0,3.0,0.0,3.0,0.0,10.01,3.73,0.0,
7.034,100.15666564773925,82.11363126214772,-3.07,-1.47,-0.11,5.0,0.0,0.0,3.0,0.0,3.0,0.0,10.01,3.63,0.0,
7.059,100.11466656477393,82.05636312621476,-2.95,-1.73,-0.06,5.0,0.0,0.0,3.0,0.0,3.0,0.0,10.01,3.73,0.29,
7.083,100.1284666564774,82.05063631262148,-3.07,-1.86,-0.28,5.0,0.0,0.0,3.0,0.0,3.0,0.0,10.1,3.63,1.08,
7.107,100.11184666564775,82.08606363126215,-3.11,-1.73,-0.09,5.0,0.0,0.0,3.0,0.0,3.0,0.0,10.1,3.63,0.78,
7.132,100.17318466656478,82.08960636312621,-3.11,-1.31,-0.07,5.0,0.0,0.0,3.0,0.0,3.0,0.0,10.2,3.63,0.59,
7.155,100.17031846665648,82.08996063631263,-3.05,-1.18,0.13,5.0,0.0,0.0,3.0,0.0,3.0,0.0,10.1,3.63,0.49,
7.18,100.17903184666565,82.06299606363126,-3.17,-1.27,0.01,5.0,0.0,0.0,3.0,0.0,3.0,0.0,10.1,3.73,0.59,
7.203,100.21590318466657,82.07829960636312,-3.06,-1.27,0.12,5.0,0.0,0.0,3.0,0.0,3.0,0.0,10.1,3.73,0.69,
7.228,100.20159031846666,82.04382996063632,-3.15,-1.44,-0.05,5.0,0.0,0.0,3.0,0.0,3.0,0.0,10.1,3.63,0.59,
7.251,100.16415903184667,82.05838299606363,-3.22,-1.83,-0.03,5.0,0.0,0.0,3.0,0.0,3.0,0.0,10.01,3.53,0.49,
7.276,100.10641590318467,82.03283829960635,-3.19,-2.02,-0.08,4.0,0.0,0.0,2.0,0.0,3.0,0.0,9.91,3.53,0.49,
7.301,100.06464159031847,81.97628382996064,-2.85,-2.38,-0.18,4.0,0.0,0.0,2.0,0.0,3.0,0.0,9.71,3.24,0.39,
7.324,100.07846415903185,81.90762838299607,-1.76,-1.87,-1.06,4.0,0.0,0.0,2.0,0.0,2.0,0.0,9.52,2.94,0.59,
7.349,100.07084641590319,81.87376283829961,-0.93,-2.88,-2.48,4.0,0.0,0.0,2.0,0.0,2.0,0.0,9.12,2.75,0.0,
7.372,100.04308464159033,81.92437628382997,-1.5,-2.62,-2.8,4.0,0.0,0.0,2.0,0.0,2.0,0.0,8.83,2.55,0.39,
7.397,100.02230846415904,82.001437628383,-1.31,-2.55,-1.18,4.0,0.0,0.0,2.0,0.0,2.0,0.0,8.63,2.45,7.16,
7.42,99.9482308464159,82.0811437628383,-0.96,-1.53,-0.94,4.0,0.0,0.0,2.0,0.0,2.0,0.0,8.34,2.35,11.87,
7.444,99.9318230846416,82.13411437628383,-1.28,-0.68,0.18,4.0,0.0,0.0,1.0,0.0,1.0,0.0,8.14,2.06,0.0,
7.469,99.93918230846415,82.22941143762837,-0.73,0.5,0.49,4.0,0.0,0.0,1.0,0.0,1.0,0.0,7.95,1.96,0.0,
7.492,99.87691823084643,82.33794114376283,-1.27,1.66,1.5,4.0,0.0,0.0,1.0,0.0,1.0,0.0,7.85,1.77,0.0,
7.516,99.98769182308465,82.33079411437627,-1.94,0.95,-0.32,4.0,0.0,0.0,1.0,0.0,1.0,0.0,7.65,1.67,0.0,
7.539,100.09776918230847,82.33007941143762,-2.08,-2.19,-0.14,4.0,0.0,0.0,1.0,0.0,1.0,0.0,7.46,1.67,0.0,
7.564,100.12677691823085,82.39300794114376,-1.79,-2.27,-0.6,4.0,0.0,0.0,1.0,0.0,1.0,0.0,7.36,1.67,0.0,
7.587,100.05767769182309,82.46230079411437,-2.11,-3.39,-0.05,4.0,0.0,0.0,1.0,0.0,1.0,0.0,7.36,1.57,0.0,
7.611,100.0147677691823,82.51423007941143,-1.95,-3.53,-0.11,4.0,0.0,0.0,1.0,0.0,1.0,0.0,7.26,1.57,0.0,
7.635,99.94747677691822,82.48342300794114,-0.64,-3.97,0.92,4.0,0.0,0.0,1.0,0.0,1.0,0.0,7.26,1.57,0.0,
7.659,99.81474767769181,82.57934230079411,0.06,-5.59,0.81,4.0,0.0,0.0,1.0,0.0,1.0,0.0,7.26,1.47,0.0,
7.683,99.87347476776918,82.68793423007942,-0.97,-5.6,-0.61,4.0,0.0,0.0,1.0,0.0,1.0,0.0,7.26,1.67,0.2,
7.707,99.88834747677691,82.68979342300794,-1.34,-6.97,-0.85,4.0,0.0,0.0,1.0,0.0,1.0,0.0,7.26,1.67,0.0,
7.731,99.78183474767768,82.8339793423008,-1.45,-8.08,0.99,4.0,0.0,0.0,1.0,0.0,1.0,0.0,7.36,1.96,3.92,
7.754,99.60918347476776,82.8663979342301,-1.66,-6.82,1.48,4.0,0.0,0.0,1.0,0.0,1.0,0.0,7.65,2.26,5.98,
7.779,99.57391834747678,82.914639793423,-4.23,-9.26,2.13,4.0,0.0,0.0,2.0,0.0,2.0,0.0,7.75,2.45,0.0,
7.802,99.29139183474769,82.9464639793423,-5.19,-10.45,2.18,4.0,0.0,0.0,2.0,0.0,2.0,0.0,8.04,2.84,0.0,
7.826,98.99313918347477,83.02164639793423,-6.35,-7.83,2.02,5.0,0.0,0.0,2.0,0.0,2.0,0.0,8.53,3.43,0.0,
7.851,98.87331391834748,83.02016463979342,-5.23,-7.32,2.22,5.0,0.0,0.0,2.0,0.0,2.0,0.0,9.12,4.02,0.0,
7.874,98.68133139183475,82.91201646397936,-5.76,-7.9,2.87,5.0,0.0,0.0,3.0,0.0,2.0,0.0,9.52,4.41,0.0,
7.898,98.72513313918347,82.83820164639793,-6.44,-7.64,2.76,5.0,0.0,0.0,3.0,0.0,3.0,0.0,10.1,5.0,0.0,
7.922,98.48651331391834,82.8128201646398,-6.43,-8.73,5.01,5.0,0.0,0.0,3.0,0.0,3.0,0.0,10.59,5.59,0.0,
7.946,98.22865133139184,82.73828201646398,-6.24,-10.77,3.95,6.0,0.0,0.0,3.0,0.0,4.0,0.0,10.89,6.28,0.0,
7.97,98.22086513313917,82.4788282016464,-8.49,-10.33,5.14,6.0,0.0,0.0,4.0,0.0,4.0,1.0,11.28,6.77,0.0,
7.994,97.86908651331392,82.48888282016463,-7.98,-8.82,5.76,6.0,0.0,0.0,4.0,0.0,4.0,1.0,11.87,7.55,0.0,
8.018,97.75290865133138,82.54388828201647,-7.27,-12.51,6.64,6.0,0.0,0.0,4.0,0.0,4.0,1.0,12.56,8.24,0.0,
8.042,97.99329086513313,82.29738882820163,-7.66,-17.59,9.3,7.0,0.0,0.0,4.0,0.0,5.0,1.0,13.24,9.03,0.0,
8.067,97.53132908651331,82.18273888282016,-2.6,-11.92,6.59,8.0,0.0,0.0,5.0,0.0,5.0,2.0,14.22,9.81,0.0,
8.09,97.41313290865133,81.91927388828202,-5.02,-11.01,3.88,8.0,0.0,0.0,5.0,0.0,5.0,2.0,14.62,10.59,0.0,
8.115,96.99631329086515,81.8299273888282,-6.95,-9.38,4.15,9.0,0.0,0.0,6.0,0.0,5.0,2.0,15.4,11.77,0.0,
8.139,96.72063132908652,81.76699273888282,-4.56,-6.98,2.13,9.0,0.0,0.0,6.0,0.0,6.0,2.0,16.48,13.05,0.0,
8.163,96.35106313290865,81.84169927388827,-5.57,-4.27,2.76,10.0,0.0,0.0,6.0,0.0,6.0,2.0,17.36,14.81,0.0,
8.187,95.93610631329086,81.65116992738882,-1.27,-3.3,1.66,10.0,0.0,0.0,7.0,0.0,6.0,2.0,18.15,16.19,0.0,
8.211,95.75961063132908,81.71311699273889,1.95,-3.07,1.38,11.0,0.0,0.0,6.0,0.0,6.0,2.0,18.64,17.17,0.0,
8.236,95.48096106313291,81.74631169927389,1.99,-3.27,1.14,11.0,0.0,0.0,6.0,0.0,6.0,2.0,18.54,17.95,0.0,
8.259,95.48009610631328,81.81263116992739,2.27,-4.01,1.2,11.0,0.0,0.0,6.0,0.0,5.0,2.0,18.44,18.54,0.0,
8.284,95.47100961063133,81.90926311699275,1.05,-0.05,0.63,11.0,0.0,0.0,6.0,0.0,5.0,2.0,18.05,18.74,0.0,
8.307,95.47910096106312,81.95492631169927,0.98,0.31,0.7,11.0,0.0,0.0,5.0,0.0,4.0,1.0,17.95,18.74,0.0,
8.332,95.5609100961063,82.07649263116993,0.02,-0.56,0.56,11.0,0.0,0.0,5.0,0.0,4.0,1.0,17.56,18.44,0.0,
8.355,95.53309100961063,82.151649263117,-1.75,-0.67,0.17,11.0,0.0,0.0,5.0,0.0,4.0,1.0,17.36,17.85,0.0,
8.38,95.56630910096105,82.4471649263117,-5.63,1.05,-0.35,11.0,0.0,0.0,5.0,0.0,5.0,1.0,17.27,17.07,0.0,
8.403,95.6506309100961,82.46771649263117,-10.34,5.04,0.24,11.0,0.0,0.0,6.0,0.0,5.0,2.0,18.44,16.09,0.0,
8.428,95.6590630910096,82.19977164926311,-7.79,8.52,1.02,11.0,0.0,0.0,6.0,0.0,6.0,2.0,19.62,15.01,0.0,
8.452,95.84890630910095,82.1009771649263,-5.75,10.2,-0.5,10.0,0.0,0.0,6.0,0.0,6.0,2.0,20.31,13.83,0.2,
8.476,95.9128906309101,82.25309771649262,-4.58,13.56,2.02,10.0,0.0,0.0,5.0,0.0,6.0,2.0,20.31,13.05,0.39,
8.501,95.730289063091,82.14230977164927,-4.49,13.5,-1.24,9.0,0.0,0.0,5.0,0.0,6.0,2.0,20.31,12.46,0.69,
8.524,96.37802890630911,82.55423097716493,-4.18,11.18,0.18,9.0,0.0,0.0,5.0,0.0,6.0,2.0,20.4,11.97,0.69,
8.549,96.5598028906309,82.35242309771648,-1.02,12.15,-2.14,9.0,0.0,0.0,5.0,0.0,5.0,2.0,20.5,11.67,0.78,
8.572,96.7849802890631,82.33224230977164,0.69,9.71,-1.15,9.0,0.0,0.0,4.0,0.0,5.0,1.0,21.09,11.58,0.2,
8.597,97.0414980289063,82.15922423097716,1.31,4.4,-2.61,9.0,0.0,0.0,4.0,0.0,5.0,1.0,21.68,11.67,0.39,
8.621,97.31014980289063,82.07892242309771,4.83,-0.73,-3.97,9.0,0.0,0.0,4.0,0.0,4.0,1.0,22.17,12.07,0.1,
8.645,97.38201498028906,82.10689224230977,2.76,-5.09,-5.85,8.0,0.0,0.0,4.0,0.0,3.0,1.0,21.97,11.97,0.0,
8.669,97.4342014980289,82.18168922423098,1.35,-9.77,-6.37,8.0,0.0,0.0,4.0,0.0,3.0,1.0,21.48,11.48,0.59,
8.693,97.3494201498029,82.2521689224231,0.98,-13.92,-6.17,8.0,0.0,0.0,4.0,0.0,3.0,1.0,20.99,10.79,0.1,
8.717,97.22394201498028,82.34921689224231,0.03,-15.07,-6.76,8.0,0.0,0.0,4.0,0.0,3.0,1.0,20.31,10.1,0.78,
8.741,96.91439420149803,82.53892168922422,2.3,-8.44,-5.18,8.0,0.0,0.0,4.0,0.0,3.0,1.0,19.33,9.52,0.59,
8.765,96.87443942014981,82.79189216892242,-1.22,-4.49,-4.49,8.0,0.0,0.0,4.0,0.0,3.0,1.0,18.15,8.93,0.0,
8.79,96.78944394201498,82.88918921689225,-2.71,-4.06,-1.03,8.0,0.0,0.0,4.0,0.0,3.0,1.0,17.56,8.53,0.0,
8.813,96.81694439420149,83.06091892168922,-1.48,-2.64,-1.08,9.0,0.0,0.0,4.0,0.0,3.0,1.0,17.66,8.44,0.0,
8.838,96.95469443942014,83.18609189216893,-4.08,-3.72,-0.83,9.0,0.0,0.0,4.0,0.0,3.0,1.0,17.66,8.73,0.0,
8.861,97.14846944394202,83.1806091892169,-5.66,-5.78,-0.21,9.0,0.0,0.0,5.0,0.0,3.0,1.0,18.34,9.32,0.0,
8.886,97.2218469443942,83.27006091892169,-8.4,-7.53,1.82,9.0,0.0,0.0,5.0,0.0,3.0,1.0,19.52,10.01,0.0,
8.91,96.96818469443942,83.08100609189218,-9.43,-1.74,1.58,9.0,0.0,0.0,6.0,0.0,4.0,1.0,21.68,10.3,0.1,
8.934,96.73581846944394,82.90010060918921,-7.4,-2.16,2.88,9.0,0.0,0.0,6.0,0.0,4.0,2.0,22.46,10.4,0.0,
8.958,96.58658184694438,82.86401006091891,-6.76,0.64,1.96,9.0,0.0,0.0,6.0,0.0,5.0,2.0,23.15,10.5,0.0,
8.982,96.49965818469443,82.7074010060919,-6.88,2.14,1.09,9.0,0.0,0.0,7.0,0.0,5.0,2.0,23.64,10.89,0.0,
9.007,96.53596581846945,82.55674010060919,-6.68,1.24,1.43,9.0,0.0,0.0,7.0,0.0,5.0,3.0,24.52,11.48,0.0,
9.031,96.62959658184694,82.51467401006092,-6.63,-0.44,1.29,9.0,0.0,0.0,7.0,0.0,5.0,3.0,25.51,12.36,2.26,
9.055,96.5939596581847,82.4654674010061,-6.39,-2.34,1.82,10.0,0.0,0.0,7.0,0.0,6.0,3.0,26.09,12.75,1.86,
9.079,96.46439596581848,82.38854674010061,-6.02,-3.21,1.92,10.0,0.0,0.0,7.0,0.0,6.0,3.0,26.98,13.05,0.98,
9.104,96.46043959658184,82.25485467401005,-5.64,-2.85,2.05,10.0,0.0,0.0,7.0,0.0,6.0,3.0,27.47,13.54,1.08,
9.127,96.4690439596582,82.151485467401,-5.7,-0.76,1.34,10.0,0.0,0.0,7.0,0.0,6.0,4.0,28.06,13.93,0.2,
9.152,96.45190439596583,82.02414854674011,-5.18,-0.99,1.05,10.0,0.0,0.0,8.0,0.0,6.0,4.0,28.55,14.32,0.78,
9.177,96.50419043959658,81.966414854674,-4.59,-2.16,0.89,10.0,0.0,0.0,8.0,0.0,6.0,4.0,28.84,14.52,0.49,
9.201,96.43741904395966,81.91564148546739,-3.85,-1.36,0.69,10.0,0.0,0.0,8.0,0.0,6.0,4.0,28.84,14.62,0.1,
9.225,96.39474190439597,81.91056414854673,-3.56,-1.05,0.53,10.0,0.0,0.0,8.0,0.0,6.0,4.0,28.74,14.62,0.49,
9.249,96.3994741904396,81.91005641485467,-3.03,-1.57,0.15,10.0,0.0,0.0,8.0,0.0,6.0,4.0,28.74,14.62,0.88,
9.274,96.39994741904397,81.89200564148547,-3.21,-0.6,0.51,10.0,0.0,0.0,8.0,0.0,6.0,4.0,28.94,14.81,0.69,
9.297,96.3459947419044,81.87220056414856,-3.38,0.13,1.16,11.0,0.0,0.0,8.0,0.0,6.0,4.0,28.94,15.11,2.75,
9.322,96.40359947419044,81.89722005641487,-4.31,1.13,0.79,11.0,0.0,0.0,8.0,0.0,6.0,4.0,29.23,15.21,1.18,
9.347,96.43635994741905,81.85472200564148,-4.74,0.73,0.63,11.0,0.0,0.0,8.0,0.0,6.0,4.0,29.33,15.4,0.2,
9.37,96.50263599474191,81.89547220056416,-4.95,0.01,0.44,11.0,0.0,0.0,8.0,0.0,7.0,4.0,29.53,15.6,0.2,
9.395,96.51826359947418,81.80054722005642,-4.87,-0.5,0.29,11.0,0.0,0.0,8.0,0.0,7.0,5.0,29.92,15.79,0.49,
9.419,96.60982635994743,81.80005472200564,-4.82,-0.41,0.47,11.0,0.0,0.0,8.0,0.0,6.0,5.0,30.31,15.99,1.67,
9.443,96.67298263599476,81.73700547220056,-4.39,0.21,1.08,11.0,0.0,0.0,8.0,0.0,7.0,5.0,30.71,16.09,1.08,
9.467,96.75129826359948,81.73070054722005,-4.1,-0.06,0.96,11.0,0.0,0.0,9.0,0.0,7.0,5.0,30.8,16.28,0.98,
9.492,96.73212982635995,81.694070054722,-4.26,-0.77,0.97,11.0,0.0,0.0,9.0,0.0,7.0,5.0,30.9,16.38,0.49,
9.516,96.74821298263599,81.65440700547221,-3.58,-1.34,0.49,11.0,0.0,0.0,9.0,0.0,7.0,5.0,31.0,16.58,0.0,
9.54,96.7228212982636,81.56044070054722,-3.5,-1.85,0.17,11.0,0.0,0.0,8.0,0.0,7.0,5.0,31.29,16.68,0.0,
9.565,96.75628212982636,81.53304407005473,-3.37,-1.92,0.21,11.0,0.0,0.0,9.0,0.0,7.0,5.0,31.2,16.68,0.0,
9.589,96.72362821298263,81.44030440700547,-3.65,-2.11,0.46,11.0,0.0,0.0,9.0,0.0,7.0,5.0,31.2,16.58,0.0,
9.613,96.71136282129827,81.42203044070055,-3.26,-2.18,-0.21,11.0,0.0,0.0,9.0,0.0,7.0,5.0,31.1,16.48,0.59,
9.637,96.67413628212982,81.34820304407006,-3.15,-1.47,0.24,11.0,0.0,0.0,9.0,0.0,7.0,5.0,31.1,16.38,0.39,
9.662,96.66141362821298,81.340820304407,-2.73,-1.85,0.37,11.0,0.0,0.0,9.0,0.0,7.0,5.0,30.9,16.19,0.39,
9.687,96.66014136282129,81.2950820304407,-2.79,-1.2,0.24,11.0,0.0,0.0,8.0,0.0,7.0,5.0,30.61,16.09,0.59,
9.71,96.70501413628213,81.31750820304407,-2.38,-1.69,-0.05,11.0,0.0,0.0,8.0,0.0,7.0,5.0,30.41,15.99,0.49,
9.735,96.71850141362822,81.34675082030441,-2.46,-2.01,-0.55,11.0,0.0,0.0,8.0,0.0,7.0,5.0,30.31,15.7,0.39,
9.759,96.65685014136284,81.38567508203045,-2.71,-2.05,-0.24,11.0,0.0,0.0,8.0,0.0,7.0,5.0,30.12,15.6,0.0,
9.784,96.5516850141363,81.38056750820304,-2.66,-2.16,-0.16,11.0,0.0,0.0,8.0,0.0,7.0,5.0,30.12,15.5,0.0,
9.807,96.56816850141362,81.3980567508203,-2.41,-2.12,-0.18,11.0,0.0,0.0,8.0,0.0,7.0,5.0,29.92,15.4,0.0,
9.832,96.56981685014136,81.37280567508203,-2.63,-1.66,0.21,11.0,0.0,0.0,8.0,0.0,7.0,5.0,29.82,15.4,0.0,
9.857,96.52498168501413,81.4422805675082,-3.0,-1.24,0.37,11.0,0.0,0.0,8.0,0.0,7.0,5.0,29.72,15.3,0.1,
9.881,96.53849816850142,81.41322805675082,-3.52,-0.31,0.72,11.0,0.0,0.0,8.0,0.0,7.0,5.0,29.43,15.3,0.49,
9.905,96.53084981685015,81.4283228056751,-3.21,-0.59,0.42,11.0,0.0,0.0,8.0,0.0,7.0,5.0,29.33,15.11,0.69,
9.929,96.494084981685,81.38483228056751,-3.16,-1.16,0.06,11.0,0.0,0.0,8.0,0.0,7.0,5.0,29.23,14.91,0.0,
9.954,96.4994084981685,81.38948322805675,-2.76,-1.82,-0.18,11.0,0.0,0.0,8.0,0.0,7.0,5.0,29.14,14.91,0.0,
9.978,96.51794084981684,81.42594832280568,-2.93,-1.61,0.05,11.0,0.0,0.0,8.0,0.0,7.0,5.0,29.04,14.81,0.0,
10.002,96.56479408498168,81.47459483228057,-2.92,-1.85,0.05,11.0,0.0,0.0,8.0,0.0,7.0,5.0,28.94,14.72,0.0,
10.027,96.58747940849818,81.41645948322807,-2.89,-1.63,0.26,11.0,0.0,0.0,8.0,0.0,7.0,5.0,28.84,14.62,0.0,
10.051,96.60774794084982,81.41064594832281,-2.61,-1.42,-0.31,11.0,0.0,0.0,8.0,0.0,7.0,5.0,28.74,14.62,0.0,
10.076,96.60077479408497,81.48206459483228,-3.2,-0.84,0.21,11.0,0.0,0.0,8.0,0.0,7.0,5.0,28.84,14.52,0.0,
10.1,96.59107747940851,81.45320645948323,-3.19,-0.95,-0.05,11.0,0.0,0.0,8.0,0.0,7.0,5.0,28.84,14.62,0.39,
10.125,96.55410774794085,81.44132064594832,-3.32,-1.08,-0.06,11.0,0.0,0.0,8.0,0.0,7.0,5.0,28.84,14.62,0.49,
10.148,96.54141077479409,81.44013206459483,-3.05,-0.92,-0.46,11.0,0.0,0.0,8.0,0.0,7.0,5.0,28.94,14.72,0.1,
10.173,96.5221410774794,81.42201320645948,-3.05,-1.45,-0.17,11.0,0.0,0.0,8.0,0.0,7.0,5.0,28.94,14.81,0.2,
10.198,96.52921410774795,81.39320132064596,-2.85,-1.38,-0.19,11.0,0.0,0.0,8.0,0.0,7.0,5.0,29.04,14.72,0.2,
10.222,96.5299214107748,81.4083201320646,-2.69,-1.56,-0.47,11.0,0.0,0.0,8.0,0.0,7.0,5.0,28.94,14.81,0.59,
10.247,96.56599214107747,81.43683201320647,-2.6,-1.51,-0.37,11.0,0.0,0.0,8.0,0.0,7.0,5.0,28.94,14.81,0.0,
10.271,96.57859921410774,81.45768320132063,-2.75,-1.37,-0.25,11.0,0.0,0.0,8.0,0.0,7.0,5.0,28.84,14.91,0.0,
10.296,96.54385992141079,81.44176832013207,-2.9,-0.84,-0.2,11.0,0.0,0.0,8.0,0.0,7.0,5.0,28.74,14.91,0.0,
10.32,96.58538599214108,81.47617683201321,-2.79,-0.47,-0.24,11.0,0.0,0.0,8.0,0.0,7.0,5.0,28.84,14.91,0.1,
10.345,96.58953859921412,81.53361768320133,-2.65,-0.81,-0.04,11.0,0.0,0.0,8.0,0.0,6.0,5.0,28.74,14.91,0.0,
10.37,96.60795385992141,81.47636176832015,-2.62,-1.18,0.12,11.0,0.0,0.0,8.0,0.0,6.0,5.0,28.84,14.91,0.1,
10.393,96.63679538599214,81.52463617683202,-2.77,-1.58,-0.14,11.0,0.0,0.0,8.0,0.0,6.0,5.0,28.65,15.01,0.1,
10.418,96.62167953859922,81.52046361768319,-2.84,-1.35,-0.21,11.0,0.0,0.0,8.0,0.0,6.0,5.0,28.65,15.11,0.0,
10.442,96.66516795385992,81.50204636176832,-2.92,-1.35,-0.38,11.0,0.0,0.0,8.0,0.0,6.0,4.0,28.65,15.01,0.1,
10.467,96.66051679538599,81.50020463617685,-2.82,-1.32,-0.32,11.0,0.0,0.0,8.0,0.0,6.0,4.0,28.65,15.11,0.1,
10.491,96.6600516795386,81.51802046361767,-2.78,-1.27,-0.37,11.0,0.0,0.0,8.0,0.0,6.0,4.0,28.65,15.11,0.88,
10.516,96.66000516795386,81.55580204636178,-2.86,-0.86,0.05,11.0,0.0,0.0,8.0,0.0,6.0,4.0,28.65,15.01,0.98,
10.541,96.66900051679538,81.49658020463617,-2.74,-0.81,-0.32,11.0,0.0,0.0,8.0,0.0,6.0,4.0,28.45,15.11,0.1,
10.565,96.70590005167954,81.51765802046361,-2.92,-1.21,-0.32,11.0,0.0,0.0,8.0,0.0,6.0,4.0,28.45,15.11,0.39,
10.589,96.71859000516795,81.52876580204637,-3.05,-1.17,0.0,11.0,0.0,0.0,8.0,0.0,6.0,4.0,28.45,15.11,0.1,
10.613,96.73785900051679,81.52087658020463,-3.13,-1.33,0.04,11.0,0.0,0.0,8.0,0.0,6.0,4.0,28.55,15.21,0.0,
10.638,96.71278590005167,81.46608765802046,-2.9,-1.58,-0.12,11.0,0.0,0.0,8.0,0.0,6.0,4.0,28.55,15.21,0.0,
10.662,96.68327859000519,81.52360876580205,-3.08,-1.4,0.05,11.0,0.0,0.0,8.0,0.0,6.0,4.0,28.65,15.21,0.0,
10.687,96.68932785900051,81.5743608765802,-3.08,-1.56,-0.18,11.0,0.0,0.0,8.0,0.0,6.0,4.0,28.65,15.3,0.0,
10.712,96.65393278590007,81.56143608765802,-3.33,-1.56,0.07,11.0,0.0,0.0,8.0,0.0,6.0,4.0,28.74,15.3,0.0,
10.735,96.64139327859,81.54214360876581,-3.56,-0.61,0.34,11.0,0.0,0.0,8.0,0.0,6.0,4.0,28.65,15.3,0.0,
10.76,96.68513932785899,81.52221436087657,-3.52,-0.66,0.37,11.0,0.0,0.0,8.0,0.0,7.0,4.0,28.74,15.4,0.0,
10.784,96.7255139327859,81.50222143608767,-3.6,-0.86,0.08,11.0,0.0,0.0,8.0,0.0,7.0,4.0,28.74,15.3,0.0,
10.809,96.7475513932786,81.44622214360876,-3.37,-0.94,0.14,11.0,0.0,0.0,8.0,0.0,7.0,5.0,28.84,15.6,0.0,
10.833,96.71375513932786,81.41362221436088,-3.43,-1.27,-0.05,11.0,0.0,0.0,8.0,0.0,7.0,5.0,29.04,15.6,0.0,
10.857,96.70137551393279,81.44636222143609,-3.3,-1.61,-0.02,11.0,0.0,0.0,8.0,0.0,7.0,5.0,29.14,15.7,0.1,
10.882,96.70013755139328,81.41363622214361,-3.11,-1.85,0.0,11.0,0.0,0.0,8.0,0.0,7.0,5.0,29.14,15.7,0.69,
10.906,96.66401375513932,81.40136362221436,-3.07,-1.33,-0.05,11.0,0.0,0.0,8.0,0.0,7.0,5.0,29.23,15.7,0.59,
10.931,96.64240137551393,81.42713636222145,-3.05,-1.32,0.27,11.0,0.0,0.0,8.0,0.0,7.0,5.0,29.23,15.79,0.0,
10.955,96.64024013755139,81.42971363622215,-3.22,-1.15,0.16,11.0,0.0,0.0,8.0,0.0,7.0,5.0,29.23,15.89,0.39,
10.98,96.61302401375514,81.42997136362222,-3.1,-1.46,-0.01,11.0,0.0,0.0,8.0,0.0,7.0,5.0,29.14,15.79,0.69,
11.003,96.6283024013755,81.40299713636223,-2.95,-1.52,-0.56,11.0,0.0,0.0,8.0,0.0,7.0,5.0,29.14,15.99,0.0,
11.028,96.63883024013755,81.43629971363623,-2.64,-1.63,-0.31,11.0,0.0,0.0,8.0,0.0,7.0,5.0,29.14,15.99,0.0,
11.053,96.63088302401376,81.42162997136363,-2.88,-0.61,0.03,11.0,0.0,0.0,9.0,0.0,7.0,5.0,29.14,15.99,0.2,
11.077,96.62108830240139,81.46516299713637,-3.11,-0.09,0.34,11.0,0.0,0.0,8.0,0.0,7.0,5.0,29.14,16.09,0.0,
11.102,96.70110883024014,81.45151629971365,-3.06,0.03,0.86,11.0,0.0,0.0,8.0,0.0,7.0,5.0,29.14,16.09,0.2,
11.125,96.75411088302401,81.45915162997136,-3.26,-0.48,0.71,11.0,0.0,0.0,8.0,0.0,7.0,5.0,29.04,15.99,0.2,
11.15,96.8044110883024,81.42391516299713,-3.06,-1.4,0.18,11.0,0.0,0.0,8.0,0.0,7.0,5.0,29.04,15.99,0.2,
11.174,96.77344110883024,81.42039151629972,-2.82,-2.25,-0.27,11.0,0.0,0.0,8.0,0.0,7.0,5.0,28.94,15.89,0.0,
11.199,96.70734411088303,81.42903915162998,-2.81,-2.56,-0.34,11.0,0.0,0.0,8.0,0.0,7.0,5.0,29.04,15.7,0.1,
11.224,96.79973441108831,81.438903915163,-3.05,-1.5,-0.37,11.0,0.0,0.0,8.0,0.0,7.0,5.0,29.14,15.79,0.49,
11.248,96.73697344110883,81.4668903915163,-3.02,-1.19,0.02,11.0,0.0,0.0,8.0,0.0,7.0,5.0,29.14,15.79,0.59,
11.273,96.73069734411088,81.44268903915163,-2.91,-0.93,0.02,11.0,0.0,0.0,8.0,0.0,7.0,4.0,29.04,15.79,0.29,
11.296,96.69406973441109,81.47626890391517,-2.9,-0.37,-0.13,11.0,0.0,0.0,8.0,0.0,7.0,5.0,29.14,15.89,0.1,
11.321,96.66340697344111,81.50662689039153,-2.66,-0.2,-0.43,11.0,0.0,0.0,8.0,0.0,6.0,5.0,29.23,16.28,0.0,
11.345,96.67834069734413,81.50966268903916,-2.98,0.89,-0.17,11.0,0.0,0.0,8.0,0.0,6.0,4.0,29.43,16.68,0.0,
11.37,96.79683406973442,81.53696626890392,-3.18,0.61,-0.01,11.0,0.0,0.0,8.0,0.0,6.0,5.0,29.72,17.17,0.0,
11.395,96.80868340697344,81.5126966268904,-2.66,0.32,-0.17,11.0,0.0,0.0,8.0,0.0,6.0,5.0,30.02,17.56,0.0,
11.419,96.80986834069735,81.48326966268905,-3.22,0.02,0.2,11.0,0.0,0.0,8.0,0.0,6.0,5.0,30.02,18.05,0.59,
11.443,96.85498683406973,81.52532696626892,-3.04,-0.27,0.05,11.0,0.0,0.0,8.0,0.0,6.0,5.0,30.12,18.34,0.2,
11.467,96.85049868340697,81.5385326966269,-3.05,-0.05,-0.44,11.0,0.0,0.0,8.0,0.0,6.0,5.0,30.21,18.64,1.18,
11.492,96.8320498683407,81.57585326966269,-3.58,0.14,-0.22,11.0,0.0,0.0,8.0,0.0,6.0,5.0,30.51,18.93,0.98,
11.516,96.89320498683408,81.59758532696627,-3.29,0.44,0.82,11.0,0.0,0.0,8.0,0.0,6.0,5.0,30.9,19.23,0.39,
11.541,96.9533204986834,81.63575853269663,-3.48,-0.11,0.76,11.0,0.0,0.0,8.0,0.0,6.0,5.0,31.1,19.62,0.2,
11.565,97.02233204986834,81.63957585326966,-3.34,-0.73,0.95,11.0,0.0,0.0,8.0,0.0,6.0,5.0,31.29,19.82,1.18,
11.589,96.99323320498684,81.63995758532697,-3.31,-1.47,0.91,11.0,0.0,0.0,8.0,0.0,6.0,5.0,31.49,20.01,0.49,
11.614,96.94532332049867,81.58599575853269,-3.34,-2.06,0.94,11.0,0.0,0.0,8.0,0.0,6.0,5.0,31.49,20.11,1.28,
11.638,97.03053233204987,81.55359957585327,-3.51,-1.85,1.33,11.0,0.0,0.0,8.0,0.0,6.0,4.0,31.49,20.11,0.39,
11.663,97.05705323320498,81.54135995758534,-3.37,-2.89,1.47,11.0,0.0,0.0,8.0,0.0,6.0,4.0,31.49,20.11,0.0,
11.686,97.0507053233205,81.50413599575855,-3.39,-3.38,1.53,11.0,0.0,0.0,8.0,0.0,6.0,4.0,31.29,19.91,0.0,
11.711,97.09507053233204,81.49141359957585,-3.27,-4.62,1.27,10.0,0.0,0.0,8.0,0.0,6.0,4.0,31.0,19.52,0.0,
11.736,97.07250705323321,81.52614135995759,-3.6,-4.97,1.69,10.0,0.0,0.0,7.0,0.0,6.0,4.0,30.71,19.03,0.0,
11.76,97.04325070532333,81.55661413599577,-4.2,-4.77,1.97,10.0,0.0,0.0,7.0,0.0,6.0,3.0,30.21,18.34,0.0,
11.785,97.00432507053233,81.51466141359958,-4.24,-5.94,2.3,10.0,0.0,0.0,7.0,0.0,5.0,3.0,29.53,17.56,0.0,
11.808,96.97343250705323,81.38446614135997,-4.84,-7.14,1.92,9.0,0.0,0.0,7.0,0.0,5.0,2.0,28.65,16.68,0.29,
11.833,96.82634325070532,81.335446614136,-5.52,-7.91,1.82,9.0,0.0,0.0,6.0,0.0,5.0,2.0,27.86,15.5,0.0,
11.857,96.67663432507052,81.3215446614136,-6.02,-7.67,2.17,9.0,0.0,0.0,6.0,0.0,5.0,2.0,26.88,14.13,0.0,
11.882,96.44566343250706,81.25715446614136,-5.82,-7.62,3.08,8.0,0.0,0.0,5.0,0.0,4.0,1.0,25.7,12.46,0.0,
11.906,96.17956634325071,81.22371544661414,-6.16,-6.49,4.9,7.0,0.0,0.0,5.0,0.0,4.0,1.0,24.33,10.5,3.53,
11.93,96.12595663432508,81.30137154466141,-7.26,-5.38,6.83,7.0,0.0,0.0,4.0,0.0,3.0,1.0,22.66,8.83,14.42,
11.954,96.2015956634325,81.45313715446615,-9.82,-6.6,11.32,6.0,0.0,0.0,3.0,0.0,3.0,1.0,19.82,6.97,8.44,
11.978,96.22715956634325,82.51231371544662,-7.03,-8.2,12.53,5.0,0.0,0.0,2.0,0.0,3.0,1.0,17.85,5.59,0.29,
12.003,96.96771595663432,82.56423137154466,-17.28,-10.35,18.83,4.0,0.0,0.0,1.0,0.0,2.0,0.0,15.79,4.32,1.47,
12.026,97.05077159566343,82.43442313715447,-28.92,0.77,19.66,3.0,0.0,0.0,0.0,0.0,2.0,0.0,13.24,2.84,2.45,
12.051,97.20307715956635,83.05144231371546,-34.71,5.25,30.69,3.0,0.0,0.0,0.0,0.0,1.0,0.0,10.4,1.28,4.22,
12.075,97.88430771595664,84.12114423137155,-33.18,2.1,45.91,3.0,0.0,0.0,0.0,0.0,1.0,0.0,7.06,0.0,4.51,
12.099,97.96143077159566,85.54211442313716,-27.48,-2.92,47.98,3.0,0.0,0.0,0.0,0.0,1.0,0.0,4.02,0.0,4.81,
12.123,98.05914307715955,88.39321144231371,-15.4,-0.12,37.33,3.0,0.0,0.0,0.0,0.0,0.0,0.0,1.28,0.0,3.73,
12.146,97.83491430771596,92.11632114423136,1.34,-2.21,28.85,2.0,0.0,0.0,0.0,0.0,0.0,0.0,1.18,0.0,2.06,
12.171,97.7944914307716,95.92663211442314,15.9,-0.88,25.18,2.0,0.0,0.0,0.0,0.0,0.0,0.0,1.18,0.0,0.59,
12.194,96.96244914307717,98.46766321144231,30.78,4.38,25.57,2.0,0.0,0.0,0.0,0.0,0.0,0.0,1.18,0.0,1.18,
12.218,95.93424491430771,99.99076632114424,51.4,4.95,12.38,1.0,0.0,0.0,0.0,0.0,0.0,0.0,0.88,0.0,0.88,
12.241,94.90442449143077,100.53907663211442,73.42,4.6,-8.14,1.0,0.0,0.0,0.0,0.0,0.0,0.0,0.59,0.0,0.69,
12.266,94.41444244914308,100.89090766321144,84.77,1.35,-28.22,1.0,0.0,0.0,0.0,0.0,1.0,0.0,0.49,0.0,0.59,
12.29,94.39244424491432,101.41209076632114,88.95,3.05,-44.95,1.0,0.0,0.0,0.0,0.0,1.0,0.0,0.59,0.0,0.39,
12.313,94.30024442449144,101.87820907663212,90.03,2.69,-51.77,1.0,0.0,0.0,0.0,0.0,1.0,0.0,0.78,0.0,0.69,
12.338,94.39002444244915,102.12282090766321,88.76,2.15,-54.18,1.0,0.0,0.0,0.0,0.0,1.0,0.0,0.98,0.0,0.39,
12.361,94.39000244424491,102.05728209076632,96.98,-2.08,-54.15,0.0,0.0,0.0,0.0,0.0,1.0,0.0,1.08,0.0,0.88,
12.385,94.4440002444245,101.74472820907663,105.36,-8.75,-56.7,0.0,0.0,0.0,0.0,0.0,1.0,0.0,1.18,0.0,0.49,
12.409,94.95340002444244,101.49747282090766,101.16,-1.75,-41.49,0.0,0.0,0.0,0.0,0.0,1.0,0.0,1.37,0.0,0.0,
12.434,95.38234000244425,100.89674728209076,89.27,0.33,-27.28,0.0,0.0,0.0,0.0,0.0,1.0,0.0,1.47,0.0,0.0,
12.457,95.69523400024443,99.90067472820908,77.72,7.5,-13.18,0.0,0.0,0.0,0.0,0.0,1.0,0.0,1.57,0.0,0.0,
12.481,96.05052340002445,98.08206747282091,73.4,8.56,-4.43,0.0,0.0,0.0,0.0,0.0,1.0,0.0,1.67,0.0,0.59,
12.505,95.86105234000244,96.52320674728209,69.75,9.09,-6.85,0.0,0.0,0.0,0.0,0.0,1.0,0.0,1.77,0.0,0.2,
12.529,95.87810523400024,95.2513206747282,54.51,11.64,1.23,0.0,0.0,0.0,0.0,0.0,1.0,0.0,1.96,0.0,0.0,
12.553,95.47481052340004,94.24213206747282,36.32,6.09,5.31,0.0,0.0,0.0,0.0,0.0,1.0,0.0,1.96,0.0,0.0,
12.576,95.02048105234,93.27721320674729,21.2,6.11,0.76,0.0,0.0,0.0,0.0,0.0,1.0,0.0,1.96,0.1,0.0,
12.6,94.47104810523399,92.35272132067473,10.73,4.82,-3.91,0.0,0.0,0.0,0.0,0.0,1.0,0.0,1.86,0.1,0.0,
12.624,94.2991048105234,91.84627213206747,10.65,1.06,-3.22,0.0,0.0,0.0,0.0,0.0,1.0,0.0,1.86,0.0,0.0,
12.648,94.12891048105234,91.55262721320673,4.6,2.88,-4.66,0.0,0.0,0.0,0.0,0.0,1.0,0.0,1.77,0.1,0.2,
12.672,94.26489104810524,91.19926272132066,-2.95,1.93,-5.79,0.0,0.0,0.0,0.0,0.0,1.0,0.0,1.77,0.1,2.16,
12.695,94.38648910481052,91.00192627213207,-12.02,-1.18,-6.34,0.0,0.0,0.0,0.0,0.0,1.0,0.0,1.67,0.1,2.84,
12.72,94.70464891048104,90.8381926272132,-21.55,0.73,-5.24,0.0,0.0,0.0,0.0,0.0,1.0,0.0,1.77,0.2,0.0,
12.743,94.8534648910481,90.97481926272131,-27.69,1.53,-4.34,0.0,0.0,0.0,0.0,0.0,1.0,0.0,1.67,0.1,0.0,
12.767,94.83234648910481,91.42948192627213,-30.9,1.0,-1.82,0.0,0.0,0.0,0.0,0.0,1.0,0.0,1.57,0.0,0.0,
12.791,94.63223464891048,92.21294819262721,-31.39,2.39,-2.7,0.0,0.0,0.0,0.0,0.0,1.0,0.0,1.57,0.0,0.29,
12.815,94.09922346489105,93.01129481926272,-31.38,0.53,-4.87,0.0,0.0,0.0,0.0,0.0,1.0,0.0,1.47,0.0,0.59,
12.838,93.6769223464891,93.66712948192627,-32.6,-1.57,-8.05,0.0,0.0,0.0,0.0,0.0,1.0,0.0,1.57,0.1,0.78,
12.862,93.35569223464891,94.27271294819263,-34.44,-2.48,-9.22,0.0,0.0,0.0,0.0,0.0,1.0,0.0,1.57,0.1,0.39,
12.887,93.38656922346489,94.59427129481926,-35.45,-3.24,-5.9,0.0,0.0,0.0,0.0,0.0,1.0,0.0,1.67,0.1,0.1,
12.91,96.09865692234649,99.88242712948193,-12.39,-0.88,3.6,0.0,0.0,0.0,0.0,0.0,1.0,0.0,1.67,0.0,0.0,
12.934,95.44286569223466,103.8852427129482,-34.24,58.79,-2.14,0.0,0.0,0.0,0.0,0.0,0.0,0.0,1.57,0.0,0.0,
12.958,96.21428656922346,99.87552427129482,-66.26,-0.55,42.85,0.0,0.0,0.0,0.0,0.0,0.0,0.0,1.18,0.0,0.2,
12.982,96.65142865692235,100.13155242712949,-72.76,22.5,-0.12,0.0,0.0,0.0,0.0,0.0,0.0,0.0,0.29,0.0,0.69,
13.006,96.99214286569223,99.01415524271295,-97.24,28.14,-6.98,0.0,0.0,0.0,0.0,0.0,0.0,0.0,0.2,0.0,2.55,
13.03,97.34121428656921,98.0744155242713,-108.15,30.38,-5.57,0.0,0.0,0.0,0.0,0.0,1.0,0.0,0.59,0.0,0.0,
13.053,97.75412142865692,96.61244155242713,-103.69,32.45,5.18,0.0,0.0,0.0,0.0,0.0,1.0,0.0,0.88,0.0,0.0,
13.078,98.0834121428657,95.29624415524272,-96.09,29.28,15.33,0.0,0.0,0.0,0.0,0.0,1.0,0.0,1.77,0.1,0.0,
13.102,99.80834121428657,93.02262441552426,-82.21,26.41,9.17,1.0,0.0,0.0,0.0,0.0,1.0,0.0,2.16,0.0,2.75,
13.126,102.58183412142866,88.99726244155242,-48.85,-4.52,7.59,1.0,0.0,0.0,0.0,0.0,2.0,0.0,4.61,0.49,3.34,
13.15,102.63418341214287,87.59572624415523,-37.91,-7.03,1.79,1.0,0.0,0.0,0.0,0.0,2.0,0.0,9.03,4.22,0.1,
13.174,102.75641834121429,87.08657262441552,-33.11,-13.33,8.18,2.0,0.0,0.0,1.0,0.0,2.0,1.0,11.77,7.16,0.0,
13.199,102.57064183412143,87.35065726244154,-35.76,-14.32,9.16,2.0,0.0,0.0,2.0,0.0,3.0,1.0,13.64,8.83,0.0,
13.223,102.32706418341213,86.98106572624415,-38.09,-16.95,4.63,3.0,0.0,0.0,3.0,0.0,4.0,1.0,15.6,9.81,0.0,
13.247,100.9257064183412,86.1701065726244,-24.8,-14.05,5.04,3.0,0.0,0.0,5.0,0.0,7.0,3.0,20.8,11.58,0.0,
13.272,100.39857064183413,85.87301065726244,-20.44,1.72,5.61,4.0,0.0,0.0,6.0,0.0,8.0,3.0,24.23,14.03,0.0,
13.296,100.3278570641834,85.29430106572624,-16.0,0.42,2.92,5.0,0.0,0.0,7.0,0.0,9.0,4.0,27.27,15.99,15.3,
13.321,100.77078570641834,85.08343010657262,-16.05,-2.95,3.75,5.0,0.0,0.0,8.0,0.0,10.0,5.0,30.31,17.85,0.0,
13.345,100.75207857064183,84.55834301065725,-12.62,-3.11,1.48,6.0,0.0,0.0,9.0,0.0,11.0,5.0,33.65,19.03,5.0,
13.37,100.36320785706418,84.09183430106573,-9.89,-2.0,-0.26,6.0,0.0,0.0,10.0,0.0,1.0,6.0,38.36,19.23,3.14,
13.394,99.60432078570642,83.54118343010657,-7.86,10.79,-3.0,7.0,0.0,0.0,10.0,0.0,3.0,6.0,41.2,19.52,0.0,
13.419,99.69943207857062,83.15311834301066,-7.55,18.12,-4.61,8.0,0.0,0.0,11.0,0.0,3.0,7.0,44.83,21.09,0.0,
13.444,100.32994320785707,82.96131183430107,-7.05,17.16,-2.63,8.0,0.0,0.0,11.0,1.0,4.0,7.0,48.17,23.74,0.0,
13.468,101.0049943207857,82.8341311834301,-6.89,7.37,-1.65,9.0,0.0,0.0,11.0,1.0,3.0,7.0,49.64,26.39,0.0,
13.492,101.46849943207856,82.62341311834301,-5.02,0.83,-1.32,10.0,0.0,0.0,11.0,1.0,4.0,8.0,50.52,27.86,0.0,
13.516,101.47884994320786,82.4943413118343,-3.29,-1.64,-1.44,10.0,0.0,0.0,12.0,1.0,5.0,8.0,53.86,28.35,0.0,
13.541,101.59688499432079,82.39143413118343,-3.63,-4.44,-1.08,11.0,0.0,0.0,12.0,1.0,6.0,8.0,55.92,28.06,0.0,
13.565,101.69868849943208,82.36314341311834,-3.4,-8.89,0.15,11.0,0.0,0.0,0.0,1.0,6.0,8.0,57.88,27.37,0.0,
13.59,101.50186884994321,82.26131434131185,-2.76,-9.53,1.31,12.0,0.0,0.0,0.0,1.0,8.0,8.0,58.76,26.09,0.0,
13.615,101.24818688499431,82.1791314341312,-0.92,-9.16,1.86,0.0,0.0,0.0,1.0,1.0,8.0,7.0,58.66,24.43,0.0,
13.639,100.97081868849943,82.26991314341312,-0.26,-7.91,2.35,1.0,0.0,0.0,0.0,0.0,8.0,8.0,57.68,22.66,0.0,
13.664,100.78108186884995,82.3419913143413,-0.76,-7.21,3.21,1.0,0.0,0.0,12.0,0.0,8.0,8.0,56.7,20.7,1.37,
13.688,100.609108186885,82.39419913143414,-5.0,-3.61,2.5,2.0,0.0,0.0,0.0,0.0,8.0,8.0,55.52,19.33,2.16,
13.713,100.5829108186885,82.4174199131434,-7.2,-0.93,2.77,3.0,0.0,0.0,1.0,1.0,8.0,8.0,55.92,19.33,2.06,
13.736,100.43629108186884,82.23974199131435,-7.17,1.56,3.6,3.0,0.0,0.0,2.0,1.0,9.0,7.0,56.9,20.7,0.0,
13.761,100.41262910818688,82.05097419913143,-5.63,2.88,4.02,4.0,0.0,0.0,2.0,1.0,8.0,7.0,57.49,22.76,0.0,
13.786,100.45526291081869,81.93309741991315,-4.45,2.88,3.47,4.0,0.0,0.0,3.0,1.0,8.0,7.0,54.45,25.11,0.0,
13.81,100.63952629108186,81.93930974199131,-4.36,2.83,3.81,4.0,0.0,0.0,3.0,1.0,8.0,7.0,52.58,27.17,0.0,
13.834,100.81095262910819,81.89493097419914,-4.86,0.34,3.77,5.0,0.0,0.0,3.0,1.0,8.0,7.0,52.29,28.74,0.69,
13.858,100.87309526291082,81.79149309741992,-4.44,-2.94,3.95,6.0,0.0,0.0,3.0,1.0,8.0,8.0,52.78,29.53,0.0,
13.883,100.87930952629108,81.691149309742,-3.48,-4.24,3.54,6.0,0.0,0.0,5.0,1.0,8.0,8.0,53.37,29.82,0.0,
13.907,100.79893095262912,81.65411493097422,-2.77,-4.34,4.21,6.0,0.0,0.0,3.0,1.0,7.0,8.0,53.46,29.72,0.0,
13.931,100.79089309526293,81.71341149309742,-5.44,-2.4,4.5,6.0,0.0,0.0,4.0,1.0,8.0,8.0,53.46,29.43,0.2,
13.956,100.8980893095263,81.68334114930975,-7.53,-4.33,5.57,6.0,0.0,0.0,4.0,1.0,8.0,8.0,54.94,29.92,0.0,
13.98,100.98980893095263,81.53633411493097,-8.08,-8.11,6.69,7.0,0.0,0.0,5.0,1.0,8.0,8.0,57.39,30.41,1.18,
14.005,100.71998089309525,81.34163341149309,-7.74,-9.64,5.39,7.0,0.0,0.0,5.0,1.0,9.0,8.0,60.33,30.51,0.0,
14.029,100.50399808930953,81.2141633411493,-8.2,-9.02,4.99,8.0,0.0,0.0,6.0,1.0,9.0,9.0,62.98,30.21,0.0,
14.053,100.25739980893096,81.20141633411492,-8.72,-7.02,4.35,8.0,0.0,0.0,6.0,1.0,10.0,9.0,65.04,29.92,0.29,
14.077,100.0437399808931,81.24514163341149,-10.49,-4.08,5.36,8.0,0.0,0.0,7.0,2.0,10.0,9.0,68.18,29.82,1.08,
14.102,99.9683739980893,81.11451416334114,-12.05,-2.58,7.42,8.0,0.0,0.0,8.0,2.0,10.0,10.0,71.22,30.21,0.0,
14.127,100.15883739980893,80.8044514163341,-13.29,-5.5,9.03,8.0,0.0,0.0,8.0,2.0,11.0,10.0,75.44,31.78,0.0,
14.151,100.0428837399809,80.79144514163342,-13.98,-2.53,11.05,8.0,0.0,0.0,10.0,2.0,12.0,11.0,80.25,32.86,1.67,
14.177,99.96828837399809,80.47514451416335,-16.47,-0.86,11.95,7.0,0.0,0.0,10.0,3.0,14.0,11.0,85.84,33.94,1.77,
14.201,99.77182883739981,79.90351445141634,-18.89,-1.54,12.27,6.0,0.0,0.0,11.0,3.0,14.0,1.0,95.94,35.12,0.29,
14.226,99.43718288373998,79.69335144514163,-20.67,1.11,14.46,4.0,0.0,0.0,12.0,4.0,14.0,1.0,103.5,36.4,0.0,
14.251,99.565718288374,79.72633514451417,-23.14,-0.3,17.85,1.0,0.0,0.0,13.0,4.0,17.0,3.0,111.64,37.87,0.0,
14.275,99.6865718288374,79.20763351445143,-24.66,-8.73,18.31,12.0,0.0,0.0,13.0,5.0,18.0,5.0,119.88,38.36,0.0,
14.3,99.70765718288374,79.02976335144515,-25.12,-11.66,20.44,10.0,0.0,0.0,12.0,5.0,20.0,6.0,128.81,36.79,0.88,
14.325,100.00676571828838,79.83097633514451,-35.34,-14.87,32.85,9.0,0.0,0.0,10.0,5.0,24.0,8.0,138.42,33.75,3.43,
14.35,99.99167657182883,79.34409763351445,-42.51,-9.34,31.83,8.0,0.0,0.0,8.0,5.0,23.0,8.0,141.95,29.92,3.24,
14.374,99.55816765718289,78.70140976335144,-60.84,-3.4,32.24,7.0,0.0,0.0,12.0,5.0,24.0,8.0,143.42,25.31,3.92,
14.399,98.84881676571828,77.48514097633513,-68.18,6.15,33.21,7.0,0.0,0.0,8.0,5.0,25.0,9.0,140.77,19.91,3.73,
14.424,98.47188167657183,76.21151409763351,-74.02,7.38,32.8,6.0,0.0,0.0,5.0,5.0,23.0,9.0,133.12,10.59,3.43,
14.448,98.20918816765719,75.15715140976334,-76.82,14.04,30.88,6.0,0.0,0.0,1.0,5.0,24.0,8.0,114.88,6.87,2.94,
14.473,98.27291881676571,73.42271514097635,-73.35,15.5,28.98,5.0,0.0,0.0,0.0,4.0,23.0,6.0,100.26,4.41,3.43,
14.497,98.68429188167657,71.43127151409763,-76.32,14.73,25.5,3.0,0.0,0.0,0.0,4.0,21.0,6.0,86.03,2.55,3.14,
14.521,99.08542918816765,70.85412715140977,-79.19,29.85,29.08,3.0,0.0,0.0,0.0,4.0,19.0,3.0,71.91,0.59,1.18,
14.545,99.60254291881677,69.23041271514097,-81.89,30.15,20.82,2.0,0.0,0.0,0.0,3.0,16.0,2.0,59.15,0.0,0.1,
14.57,98.30425429188168,69.08604127151409,-91.79,-12.4,25.75,2.0,0.0,0.0,0.0,3.0,13.0,12.0,46.5,0.0,1.08,
14.595,97.86842542918816,67.5776041271514,-102.54,-8.99,6.56,1.0,0.0,0.0,0.0,2.0,8.0,10.0,28.74,0.0,2.06,
14.619,97.88784254291882,66.33776041271514,-112.2,-15.3,18.5,1.0,0.0,0.0,0.0,1.0,4.0,8.0,18.93,0.0,8.93,
14.644,98.71778425429189,64.12577604127152,-122.49,-7.18,-0.81,1.0,0.0,0.0,0.0,0.0,11.0,5.0,9.81,0.0,10.01,
14.667,100.61877842542918,62.590577604127155,-126.26,-19.99,2.03,1.0,0.0,0.0,0.0,0.0,7.0,3.0,7.46,0.2,11.38,
14.692,101.96987784254291,59.47605776041272,-111.53,-23.6,8.02,1.0,0.0,0.0,0.0,0.0,5.0,2.0,5.2,1.67,14.03,
14.716,102.1679877842543,61.04560577604127,-51.79,-24.31,-3.09,1.0,0.0,0.0,0.0,0.0,3.0,1.0,3.34,1.18,13.05,
14.74,103.98779877842543,63.19156057760413,-1.24,-8.82,-24.11,1.0,0.0,0.0,0.0,0.0,2.0,1.0,2.35,0.59,8.04,
14.765,106.05977987784254,69.66115605776041,53.13,-22.95,-31.33,1.0,0.0,0.0,0.0,0.0,2.0,0.0,1.77,0.39,4.02,
14.789,107.19397798778425,76.69811560577604,84.87,-40.36,5.47,0.0,0.0,0.0,0.0,0.0,2.0,0.0,1.77,0.2,0.0,
14.813,106.58739779877841,82.0638115605776,97.7,-26.15,20.88,0.0,0.0,0.0,0.0,0.0,2.0,0.0,1.96,0.1,0.0,
14.837,104.04273977987783,85.15638115605776,114.15,-18.5,29.56,0.0,0.0,0.0,0.0,0.0,2.0,0.0,2.06,0.1,0.1,
14.861,100.83627397798779,86.03263811560578,131.76,-10.82,16.56,0.0,0.0,0.0,0.0,0.0,2.0,0.0,1.86,0.0,0.39,
14.885,97.96862739779878,86.13826381156059,144.14,0.0,-2.82,0.0,0.0,0.0,0.0,0.0,2.0,0.0,1.77,0.0,0.0,
14.909,95.82786273977987,85.49182638115606,148.91,5.07,-18.78,0.0,0.0,0.0,0.0,0.0,2.0,0.0,1.67,0.0,0.0,
14.934,94.52478627397798,84.25718263811562,150.57,6.63,-32.02,1.0,0.0,0.0,0.0,0.0,2.0,0.0,1.96,0.1,0.0,
14.957,93.6024786273978,82.63071826381156,136.11,8.07,-41.37,1.0,0.0,0.0,0.0,0.0,2.0,0.0,2.16,0.2,0.0,
14.982,93.34824786273978,80.12807182638115,120.85,8.12,-49.23,1.0,0.0,0.0,0.0,0.0,2.0,0.0,2.45,0.2,0.0,
15.005,93.87182478627398,77.57380718263812,120.11,-4.34,-36.55,0.0,0.0,0.0,0.0,0.0,2.0,0.0,2.45,0.1,0.1,
15.03,94.4191824786274,74.96038071826382,106.26,-10.65,-20.57,0.0,0.0,0.0,0.0,0.0,2.0,0.0,2.65,0.2,0.98,
15.053,95.08591824786274,72.48503807182637,80.04,-9.87,-8.23,0.0,0.0,0.0,0.0,0.0,2.0,0.0,2.94,0.2,0.88,
15.078,95.47659182478628,70.70750380718263,51.33,-1.35,2.3,0.0,0.0,0.0,0.0,0.0,2.0,0.0,3.04,0.29,0.98,
15.101,95.26365918247862,68.95475038071827,25.11,2.59,2.44,0.0,0.0,0.0,0.0,0.0,2.0,0.0,2.94,0.29,1.18,
15.125,94.59436591824786,66.30447503807183,11.27,9.11,-13.47,0.0,0.0,0.0,0.0,0.0,1.0,0.0,2.45,0.2,2.35,
15.15,94.27543659182479,64.41944750380718,40.18,0.98,-26.69,0.0,0.0,0.0,0.0,0.0,1.0,0.0,1.67,0.1,1.57,
15.173,93.98254365918248,63.78994475038071,34.74,-9.5,-26.75,0.0,0.0,0.0,0.0,0.0,1.0,0.0,1.77,0.0,0.0,
15.197,94.41225436591824,63.546994475038076,8.92,-13.92,-17.27,0.0,0.0,0.0,0.0,0.0,1.0,0.0,2.35,0.0,0.0,
15.221,95.43622543659183,64.8186994475038,-18.54,-22.23,3.64,0.0,0.0,0.0,0.0,0.0,1.0,0.0,2.65,0.0,0.39,
15.245,95.41262254365918,67.08786994475038,-36.64,-19.21,-4.18,0.0,0.0,0.0,0.0,0.0,1.0,0.0,2.65,0.0,0.0,
15.269,94.54626225436593,69.68178699447503,-13.15,-16.88,-29.03,0.0,0.0,0.0,0.0,0.0,1.0,0.0,4.41,0.49,0.0,
15.293,94.67562622543659,71.4441786994475,7.94,-14.83,-14.69,0.0,0.0,0.0,1.0,0.0,1.0,0.0,7.36,1.77,0.0,
15.318,94.49056262254365,72.66441786994474,-6.36,3.6,-18.12,1.0,0.0,0.0,1.0,0.0,1.0,0.0,9.12,2.35,0.0,
15.341,94.02205626225437,74.40644178699448,-4.84,-4.94,-10.34,1.0,0.0,0.0,2.0,0.0,1.0,0.0,10.3,2.84,0.0,
15.366,93.80420562622544,76.04764417869944,3.63,6.73,-6.35,1.0,0.0,0.0,2.0,0.0,1.0,0.0,10.69,3.04,1.28,
15.389,93.68342056262254,77.22876441786994,4.33,14.51,-5.93,1.0,0.0,0.0,1.0,0.0,1.0,0.0,10.2,2.84,0.0,
15.414,94.06734205626225,78.327876441787,2.25,11.11,-5.41,1.0,0.0,0.0,1.0,0.0,1.0,0.0,9.81,2.55,0.0,
15.437,94.82573420562622,79.40078764417869,-1.14,8.43,-0.21,1.0,0.0,0.0,1.0,0.0,1.0,0.0,10.1,2.26,0.0,
15.461,95.40557342056262,80.21907876441787,-3.56,4.8,1.57,1.0,0.0,0.0,1.0,0.0,1.0,0.0,10.3,2.16,0.0,
15.485,95.58955734205627,81.06590787644178,-6.56,2.19,4.15,1.0,0.0,0.0,1.0,0.0,1.0,0.0,10.89,2.26,0.0,
15.509,95.34695573420562,81.51959078764418,-9.87,2.56,5.94,1.0,0.0,0.0,1.0,0.0,1.0,0.0,11.38,2.45,0.0,
15.534,94.95369557342056,81.71795907876442,-9.53,2.18,2.96,2.0,0.0,0.0,2.0,0.0,2.0,0.0,12.16,2.75,1.57,
15.557,94.83336955734205,81.76479590787645,-5.9,4.82,4.39,2.0,0.0,0.0,2.0,0.0,2.0,0.0,12.75,3.04,0.0,
15.582,94.86633695573421,82.07547959078764,-4.19,0.24,0.64,2.0,0.0,0.0,2.0,0.0,2.0,0.0,13.44,3.24,2.94,
15.605,95.13963369557342,82.42154795907877,-3.89,-0.85,1.24,2.0,0.0,0.0,2.0,0.0,2.0,1.0,14.72,3.53,10.79,
15.63,95.50896336955735,82.76215479590788,-4.95,-2.58,1.77,2.0,0.0,0.0,2.0,0.0,3.0,1.0,15.6,3.63,4.81,
15.654,95.50989633695573,82.92221547959079,-5.54,-2.85,2.16,3.0,0.0,0.0,3.0,0.0,3.0,1.0,16.58,3.83,0.0,
15.678,95.52798963369557,83.17222154795908,-6.95,-3.53,1.71,3.0,0.0,0.0,3.0,0.0,3.0,1.0,17.27,4.22,0.0,
15.703,95.46679896336956,83.2332221547959,-7.33,2.19,2.62,3.0,0.0,0.0,3.0,0.0,3.0,2.0,17.85,4.61,2.26,
15.726,95.25367989633696,83.1763222154796,-7.07,2.25,0.58,4.0,0.0,0.0,3.0,0.0,4.0,2.0,18.44,4.91,0.0,
15.751,95.3853679896337,83.17063222154796,-6.53,2.81,-0.48,4.0,0.0,0.0,4.0,0.0,4.0,3.0,19.03,5.4,0.0,
15.774,95.34453679896338,83.4130632221548,-6.86,-0.05,-0.51,4.0,0.0,0.0,4.0,0.0,4.0,3.0,19.82,6.18,0.0,
15.799,95.54745367989632,83.59030632221547,-5.3,0.13,0.89,5.0,0.0,0.0,4.0,0.0,5.0,3.0,20.4,6.67,0.0,
15.823,95.70274536798962,83.50903063222155,-5.31,-1.53,0.06,5.0,0.0,0.0,5.0,0.0,5.0,4.0,21.09,7.16,0.0,
15.847,95.64627453679897,83.44690306322215,-5.91,3.32,-0.57,6.0,0.0,0.0,5.0,0.0,5.0,4.0,21.58,7.65,0.0,
15.872,95.79362745367989,83.43169030632222,-5.15,3.66,0.53,6.0,0.0,0.0,5.0,0.0,5.0,5.0,22.07,8.14,0.0,
15.895,95.92536274536799,83.36716903063223,-4.62,2.97,0.43,6.0,0.0,0.0,5.0,1.0,6.0,5.0,22.76,8.63,2.26,
15.92,96.1185362745368,83.33371690306322,-4.21,1.96,0.63,7.0,0.0,0.0,5.0,1.0,6.0,5.0,23.35,8.93,3.53,
15.944,96.22785362745367,83.28537169030632,-4.23,0.86,-0.26,7.0,0.0,0.0,6.0,1.0,6.0,5.0,23.74,9.22,2.35,
15.968,96.35578536274537,83.22653716903062,-4.51,-1.12,0.3,7.0,0.0,0.0,6.0,1.0,6.0,5.0,24.23,9.52,0.29,
15.992,96.46757853627454,83.15765371690307,-3.92,0.09,0.79,7.0,0.0,0.0,6.0,1.0,6.0,6.0,24.82,9.81,0.2,
16.016,96.44275785362746,83.12376537169031,-3.35,1.2,0.29,8.0,0.0,0.0,6.0,1.0,6.0,6.0,25.02,9.91,0.2,
16.04,96.46727578536274,83.08437653716904,-3.07,1.18,0.05,8.0,0.0,0.0,6.0,1.0,6.0,6.0,25.21,10.01,0.0,
16.065,96.43372757853628,83.08943765371691,-3.08,0.84,-0.17,8.0,0.0,0.0,6.0,1.0,6.0,6.0,25.6,10.1,0.0,
16.089,96.56537275785362,83.0539437653717,-4.01,0.53,0.47,8.0,0.0,0.0,6.0,1.0,7.0,6.0,25.8,10.4,0.0,
16.113,96.65953727578537,82.97839437653717,-4.24,0.16,0.54,8.0,0.0,0.0,6.0,1.0,7.0,6.0,26.29,10.5,0.0,
16.138,96.66895372757854,82.97983943765372,-4.43,0.5,-0.29,9.0,0.0,0.0,7.0,1.0,7.0,6.0,26.68,10.69,0.0,
16.161,96.78689537275785,82.94398394376537,-4.57,-1.15,-0.4,9.0,0.0,0.0,7.0,1.0,7.0,6.0,26.98,10.89,0.0,
16.186,96.78968953727579,82.89539839437654,-4.31,0.04,0.22,9.0,0.0,0.0,7.0,1.0,7.0,7.0,27.57,11.18,0.0,
16.21,96.80796895372758,82.82753983943765,-3.47,-0.01,0.37,9.0,0.0,0.0,7.0,1.0,7.0,7.0,27.96,11.48,0.0,
16.234,96.58479689537276,83.00075398394377,-3.48,2.79,1.76,10.0,0.0,0.0,7.0,1.0,7.0,7.0,28.25,11.77,0.0,
16.259,96.66147968953727,82.93707539839438,-3.66,0.36,0.11,10.0,0.0,0.0,7.0,1.0,7.0,7.0,28.55,12.07,0.0,
16.283,96.79514796895373,82.75970753983943,-3.25,0.02,-0.36,10.0,0.0,0.0,7.0,1.0,7.0,7.0,28.84,12.26,0.0,
16.308,96.88051479689538,82.70597075398395,-2.87,0.08,0.21,10.0,0.0,0.0,8.0,1.0,8.0,7.0,28.74,12.46,0.0,
16.331,96.94305147968954,82.6915970753984,-2.95,-0.44,0.04,11.0,0.0,0.0,8.0,1.0,8.0,7.0,28.84,12.65,0.0,
16.356,96.95830514796894,82.71715970753985,-3.05,-1.16,-0.43,10.0,0.0,0.0,8.0,1.0,8.0,7.0,28.84,12.65,0.0,
16.38,97.03183051479691,82.746715970754,-3.02,-1.16,-0.21,11.0,0.0,0.0,8.0,1.0,7.0,7.0,29.04,12.75,0.0,
16.405,97.08418305147968,82.7046715970754,-2.83,-1.49,0.03,10.0,0.0,0.0,8.0,1.0,7.0,7.0,28.94,12.75,0.0,
16.43,97.04441830514799,82.62846715970754,-3.27,-1.14,0.48,11.0,0.0,0.0,8.0,1.0,7.0,7.0,28.84,12.75,0.0,
16.454,97.0854418305148,82.65684671597076,-2.82,-1.61,0.59,11.0,0.0,0.0,8.0,1.0,7.0,7.0,28.84,12.75,0.0,
16.478,97.08054418305147,82.73168467159707,-2.99,-1.15,0.73,11.0,0.0,0.0,8.0,1.0,7.0,7.0,28.84,12.85,0.0,
16.502,97.09805441830514,82.7661684671597,-2.96,-1.01,0.45,11.0,0.0,0.0,8.0,1.0,7.0,7.0,28.74,12.85,0.0,
16.527,97.09080544183051,82.76061684671598,-3.03,-1.18,0.04,11.0,0.0,0.0,8.0,1.0,7.0,7.0,28.74,12.75,0.0,
16.551,97.10808054418305,82.7240616846716,-3.24,-1.49,-0.23,11.0,0.0,0.0,8.0,1.0,7.0,7.0,29.04,12.85,0.0,
16.576,97.10980805441831,82.70240616846716,-3.4,-1.31,-0.41,11.0,0.0,0.0,8.0,1.0,7.0,7.0,29.23,12.95,0.0,
16.6,97.09198080544184,82.69124061684673,-3.73,-0.73,0.11,11.0,0.0,0.0,8.0,1.0,7.0,7.0,29.43,13.15,0.0,
16.624,97.11719808054418,82.65412406168468,-3.69,-1.0,-0.08,11.0,0.0,0.0,8.0,1.0,7.0,7.0,29.63,13.24,0.0,
16.649,97.07471980805441,82.65041240616847,-3.56,-0.85,0.03,11.0,0.0,0.0,8.0,1.0,7.0,7.0,29.72,13.34,0.0,
16.673,97.07947198080544,82.63204124061684,-3.91,-0.82,-0.08,11.0,0.0,0.0,8.0,1.0,7.0,7.0,29.82,13.54,0.0,
16.698,97.12494719808055,82.58520412406169,-3.6,-1.13,0.0,11.0,0.0,0.0,8.0,1.0,7.0,7.0,30.12,13.64,0.0,
16.722,97.12049471980805,82.58952041240617,-3.38,-0.69,0.03,11.0,0.0,0.0,8.0,1.0,7.0,7.0,30.31,13.83,0.0,
16.746,97.1380494719808,82.68895204124063,-3.16,-0.37,0.26,11.0,0.0,0.0,9.0,1.0,7.0,7.0,30.61,14.03,0.0,
16.771,97.15780494719809,82.67189520412407,-3.21,-0.6,-0.06,11.0,0.0,0.0,9.0,1.0,7.0,7.0,30.8,14.22,0.0,
16.795,97.18678049471981,82.6611895204124,-3.38,-0.6,-0.02,11.0,0.0,0.0,9.0,1.0,7.0,7.0,30.9,14.42,0.0,
16.82,97.21667804947198,82.66911895204125,-3.41,-0.91,0.07,11.0,0.0,0.0,9.0,1.0,7.0,7.0,31.1,14.52,0.0,
16.844,97.2556678049472,82.66091189520412,-3.21,-1.34,0.14,11.0,0.0,0.0,9.0,1.0,7.0,7.0,31.1,14.52,0.0,
16.869,97.27756678049472,82.61509118952041,-3.24,-1.56,0.11,11.0,0.0,0.0,9.0,1.0,7.0,7.0,31.1,14.72,0.0,
16.892,97.27075667804947,82.58350911895204,-2.89,-1.27,0.26,11.0,0.0,0.0,9.0,1.0,7.0,7.0,31.0,14.72,0.0,
16.917,97.27007566780493,82.61635091189521,-3.07,-0.94,0.24,11.0,0.0,0.0,9.0,1.0,7.0,7.0,31.1,14.62,0.0,
16.942,97.27900756678049,82.60163509118952,-3.05,-1.26,0.28,11.0,0.0,0.0,9.0,1.0,8.0,7.0,30.9,14.52,0.0,
16.966,97.20790075667804,82.58216350911896,-3.14,-1.43,-0.03,11.0,0.0,0.0,9.0,1.0,7.0,7.0,30.71,14.42,0.0,
16.991,97.20079007566781,82.5532163509119,-2.85,-1.69,-0.3,11.0,0.0,0.0,9.0,1.0,7.0,7.0,30.61,14.22,0.0,
17.015,97.21807900756679,82.5593216350912,-2.76,-1.68,0.11,11.0,0.0,0.0,9.0,1.0,7.0,7.0,30.41,14.03,0.0,
17.039,97.18380790075668,82.52393216350912,-2.85,-1.5,0.25,11.0,0.0,0.0,9.0,1.0,7.0,7.0,30.21,13.83,0.0,
17.063,97.09938079007567,82.52039321635091,-2.62,-1.53,0.31,11.0,0.0,0.0,9.0,1.0,7.0,7.0,30.02,13.44,0.0,
17.088,97.09093807900757,82.5470393216351,-2.25,-1.61,-0.05,11.0,0.0,0.0,9.0,1.0,7.0,7.0,29.43,13.15,0.39,
17.113,97.11709380790076,82.56770393216351,-2.61,-1.46,-0.08,11.0,0.0,0.0,8.0,1.0,7.0,7.0,29.14,12.85,1.18,
17.137,97.16470938079007,82.57877039321636,-2.41,-1.21,-0.12,11.0,0.0,0.0,8.0,1.0,7.0,7.0,28.94,12.65,1.18,
17.162,97.241470938079,82.60687703932163,-2.4,-1.53,-0.09,11.0,0.0,0.0,8.0,1.0,7.0,7.0,28.65,12.36,0.59,
17.186,97.2041470938079,82.56468770393217,-2.39,-1.8,0.11,11.0,0.0,0.0,8.0,1.0,7.0,7.0,28.65,12.36,0.1,
17.21,97.1914147093808,82.52446877039321,-2.38,-1.61,0.03,11.0,0.0,0.0,8.0,1.0,7.0,7.0,28.45,12.26,0.29,
17.234,97.16314147093809,82.52044687703932,-2.41,-1.87,-0.37,11.0,0.0,0.0,8.0,1.0,7.0,7.0,28.35,12.16,0.2,
17.259,97.15131414709381,82.55604468770393,-2.26,-1.35,-0.3,11.0,0.0,0.0,8.0,1.0,7.0,7.0,28.25,12.07,0.0,
17.284,97.19513141470938,82.60460446877039,-2.45,-0.68,-0.26,11.0,0.0,0.0,8.0,1.0,7.0,7.0,28.06,11.97,0.0,
17.308,97.15451314147094,82.60046044687704,-2.44,-0.63,0.05,11.0,0.0,0.0,8.0,1.0,7.0,7.0,27.96,12.07,0.0,
17.333,97.2674513141471,82.6270460446877,-2.5,-0.95,0.14,11.0,0.0,0.0,8.0,1.0,7.0,7.0,27.86,11.97,0.49,
17.357,97.3147451314147,82.62070460446877,-2.4,-1.27,-0.1,11.0,0.0,0.0,8.0,1.0,7.0,7.0,27.86,11.97,0.0,
17.381,97.28347451314147,82.62007046044688,-2.73,-1.43,-0.46,11.0,0.0,0.0,8.0,1.0,7.0,7.0,27.66,12.07,0.0,
17.405,97.34334745131414,82.62900704604469,-3.12,-0.95,0.08,11.0,0.0,0.0,8.0,1.0,7.0,7.0,27.66,12.07,0.0,
17.43,97.34933474513142,82.67490070460447,-2.95,-1.12,0.1,11.0,0.0,0.0,8.0,1.0,7.0,7.0,27.57,12.07,0.2,
17.455,97.34993347451314,82.65249007046044,-2.95,-1.14,0.11,11.0,0.0,0.0,8.0,1.0,7.0,7.0,27.57,11.97,0.29,
17.479,97.3229933474513,82.65924900704604,-2.91,-1.38,-0.04,11.0,0.0,0.0,8.0,1.0,7.0,7.0,27.57,11.87,0.29,
17.504,97.29329933474514,82.74992490070461,-2.73,-1.57,-0.17,11.0,0.0,0.0,8.0,1.0,7.0,7.0,27.57,11.97,0.2,
17.528,97.26332993347452,82.81299249007046,-2.85,-1.5,-0.22,11.0,0.0,0.0,8.0,1.0,7.0,7.0,27.57,11.97,0.2,
17.552,97.27833299334746,82.77429924900704,-3.02,-1.27,-0.13,11.0,0.0,0.0,8.0,1.0,7.0,7.0,27.47,11.97,0.0,
17.576,97.27983329933475,82.75242992490071,-2.63,-1.31,-0.12,11.0,0.0,0.0,8.0,1.0,7.0,7.0,27.47,11.87,0.0,
17.601,97.28898332993347,82.74124299249006,-2.52,-1.04,-0.27,11.0,0.0,0.0,8.0,1.0,7.0,7.0,27.27,11.97,0.0,
17.626,97.27189833299335,82.77612429924902,-2.68,-0.92,0.05,11.0,0.0,0.0,8.0,1.0,7.0,7.0,27.27,11.87,0.0,
17.65,97.27018983329933,82.7976124299249,-2.21,-0.99,-0.27,11.0,0.0,0.0,8.0,1.0,7.0,7.0,27.08,11.97,0.0,
17.675,97.30601898332993,82.8357612429925,-2.27,-0.77,-0.27,11.0,0.0,0.0,8.0,1.0,7.0,7.0,26.98,11.97,0.0,
17.699,97.30060189833299,82.86657612429926,-2.19,-0.97,-0.4,11.0,0.0,0.0,8.0,1.0,7.0,6.0,26.88,11.97,0.0,
17.724,97.31806018983329,82.89665761242993,-2.54,-0.81,-0.41,11.0,0.0,0.0,8.0,1.0,7.0,6.0,26.78,11.87,0.0,
17.747,97.31080601898333,82.872665761243,-2.5,-0.59,0.16,11.0,0.0,0.0,8.0,1.0,7.0,6.0,26.68,11.97,0.0,
17.772,97.35508060189832,82.8792665761243,-2.37,-0.42,0.18,11.0,0.0,0.0,8.0,1.0,7.0,6.0,26.59,11.97,2.16,
17.797,97.38650806018983,82.87092665761244,-2.29,-0.58,-0.38,11.0,0.0,0.0,8.0,1.0,7.0,6.0,26.49,11.87,1.18,
17.821,97.37165080601899,82.84309266576125,-2.36,-1.15,-0.4,11.0,0.0,0.0,8.0,1.0,7.0,6.0,26.39,11.87,0.59,
17.846,97.4061650806019,82.86730926657614,-2.29,-0.83,-0.36,11.0,0.0,0.0,8.0,1.0,7.0,6.0,26.39,11.87,0.49,
17.87,97.3466165080602,82.83373092665761,-2.4,-0.77,-0.03,11.0,0.0,0.0,8.0,1.0,7.0,6.0,26.29,11.97,1.86,
17.895,97.35866165080601,82.87537309266575,-2.07,-0.51,-0.16,11.0,0.0,0.0,8.0,1.0,7.0,6.0,26.19,11.97,0.78,
17.918,97.33286616508059,82.89753730926658,-2.22,-0.68,-0.27,11.0,0.0,0.0,8.0,1.0,7.0,6.0,26.09,11.97,0.1,
17.943,97.38428661650805,82.96275373092666,-2.28,-0.48,-0.18,11.0,0.0,0.0,8.0,1.0,7.0,6.0,26.09,12.07,0.0,
17.968,97.4524286616508,83.01427537309267,-2.24,-0.66,-0.21,11.0,0.0,0.0,8.0,1.0,7.0,6.0,26.09,12.16,0.0,
17.992,97.48624286616507,83.09142753730926,-2.47,-0.65,-0.38,12.0,0.0,0.0,8.0,1.0,6.0,6.0,26.19,12.26,0.0,
18.017,97.4896242866165,83.06314275373093,-2.59,-0.82,-0.19,11.0,0.0,0.0,8.0,1.0,6.0,6.0,26.29,12.26,0.1,
18.041,97.48996242866164,83.0873142753731,-2.5,-1.09,-0.05,11.0,0.0,0.0,8.0,1.0,6.0,6.0,26.39,12.36,0.1,
18.066,97.42699624286615,83.08073142753732,-2.51,-1.33,0.05,11.0,0.0,0.0,8.0,1.0,6.0,6.0,26.39,12.26,0.1,
18.091,97.43869962428661,83.05307314275373,-2.8,-0.94,0.19,11.0,0.0,0.0,8.0,1.0,6.0,6.0,26.39,12.36,0.39,
18.114,97.47586996242866,83.05930731427537,-2.81,-0.96,0.11,11.0,0.0,0.0,8.0,1.0,6.0,6.0,26.39,12.36,0.39,
18.139,97.45258699624286,83.09593073142753,-2.82,-0.96,0.09,11.0,0.0,0.0,8.0,1.0,6.0,6.0,26.39,12.46,0.29,
18.163,97.4322586996243,83.17159307314276,-2.97,-0.92,0.02,11.0,0.0,0.0,8.0,1.0,6.0,6.0,26.49,12.46,0.2,
18.188,97.43022586996244,83.17915930731428,-2.56,-1.34,-0.3,11.0,0.0,0.0,8.0,1.0,6.0,6.0,26.49,12.56,0.1,
18.212,97.45702258699625,83.18891593073143,-2.44,-1.32,-0.15,11.0,0.0,0.0,8.0,1.0,6.0,6.0,26.39,12.46,0.1,
18.237,97.45070225869962,83.19889159307316,-2.74,-1.35,-0.19,11.0,0.0,0.0,8.0,1.0,6.0,6.0,26.49,12.46,0.2,
18.26,97.49507022586997,83.18188915930732,-2.63,-1.23,0.03,11.0,0.0,0.0,8.0,1.0,6.0,6.0,26.39,12.46,0.0,
18.285,97.553507022587,83.15318891593074,-2.33,-1.29,-0.07,11.0,0.0,0.0,8.0,1.0,6.0,6.0,26.29,12.46,0.2,
18.31,97.5143507022587,83.17731889159307,-2.69,-1.44,-0.16,11.0,0.0,0.0,8.0,1.0,6.0,6.0,26.19,12.26,0.2,
18.334,97.54643507022587,83.19773188915931,-2.65,-1.24,-0.06,11.0,0.0,0.0,7.0,1.0,6.0,6.0,26.09,12.36,0.2,
18.359,97.50464350702259,83.24477318891593,-2.37,-1.66,0.38,11.0,0.0,0.0,7.0,1.0,6.0,6.0,26.0,12.26,0.49,
18.383,97.56346435070226,83.2674773188916,-1.89,-1.56,0.04,11.0,0.0,0.0,7.0,1.0,6.0,6.0,25.8,12.07,0.39,
18.408,97.56034643507023,83.31474773188916,-1.79,-1.56,0.08,11.0,0.0,0.0,7.0,1.0,6.0,5.0,25.6,12.07,2.35,
18.432,97.54203464350702,83.36447477318892,-2.15,-1.19,0.11,11.0,0.0,0.0,7.0,1.0,6.0,5.0,25.41,11.87,1.86,
18.456,97.5312034643507,83.43244747731889,-2.14,-1.36,0.04,11.0,0.0,0.0,7.0,1.0,6.0,5.0,25.11,11.77,3.92,
18.481,97.51212034643507,83.43924474773189,-2.24,-1.66,0.32,11.0,0.0,0.0,7.0,1.0,6.0,5.0,24.92,11.67,1.77,
18.505,97.4562120346435,83.41292447477319,-2.59,-1.47,0.05,11.0,0.0,0.0,7.0,1.0,6.0,5.0,24.72,11.58,1.37,
18.53,97.44162120346435,83.44629244747732,-2.59,-1.7,-0.02,11.0,0.0,0.0,7.0,1.0,6.0,5.0,24.62,11.58,0.98,
18.553,97.47616212034643,83.46762924474774,-2.79,-1.75,-0.23,11.0,0.0,0.0,7.0,1.0,6.0,5.0,24.62,11.58,0.59,
18.578,97.47961621203464,83.50576292447478,-3.21,-0.97,0.32,11.0,0.0,0.0,7.0,1.0,6.0,5.0,24.62,11.48,0.1,
18.603,97.51596162120346,83.48257629244748,-3.44,-1.38,0.1,11.0,0.0,0.0,7.0,1.0,6.0,5.0,24.72,11.48,0.0,
18.627,97.46559616212033,83.40825762924474,-3.16,-1.66,0.16,11.0,0.0,0.0,7.0,1.0,6.0,5.0,24.92,11.48,0.0,
18.652,97.46955961621202,83.35582576292447,-3.0,-1.57,-0.12,11.0,0.0,0.0,7.0,1.0,6.0,5.0,24.92,11.48,0.49,
18.676,97.4789559616212,83.40458257629246,-3.15,-1.58,0.1,11.0,0.0,0.0,7.0,1.0,6.0,5.0,24.92,11.48,0.49,
18.7,97.42589559616212,83.40045825762925,-3.39,-1.45,0.27,11.0,0.0,0.0,7.0,1.0,6.0,5.0,25.02,11.48,0.29,
18.724,97.3845895596162,83.39104582576293,-3.31,-1.6,0.15,11.0,0.0,0.0,7.0,1.0,6.0,5.0,25.02,11.48,0.1,
18.749,97.38045895596161,83.45310458257629,-3.08,-1.5,-0.02,11.0,0.0,0.0,7.0,1.0,6.0,5.0,24.92,11.38,0.1,
18.774,97.42504589559617,83.44131045825763,-3.07,-1.58,0.17,11.0,0.0,0.0,7.0,1.0,6.0,5.0,24.92,11.18,0.49,
18.798,97.42950458955963,83.44013104582577,-2.88,-1.39,0.13,11.0,0.0,0.0,7.0,1.0,6.0,5.0,24.82,11.18,0.49,
18.822,97.42995045895597,83.43101310458258,-3.15,-1.47,0.21,11.0,0.0,0.0,7.0,1.0,6.0,5.0,24.72,11.18,0.2,
18.846,97.4479950458956,83.42110131045825,-3.02,-1.68,0.06,11.0,0.0,0.0,7.0,1.0,6.0,5.0,24.72,11.09,0.29,
18.871,97.42279950458956,83.43811013104583,-3.02,-1.9,0.07,11.0,0.0,0.0,7.0,1.0,6.0,5.0,24.72,10.99,0.39,
18.895,97.43827995045895,83.47581101310459,-2.87,-1.97,0.01,11.0,0.0,0.0,7.0,1.0,6.0,5.0,24.72,10.99,0.69,
18.92,97.43982799504589,83.49758110131046,-3.15,-1.92,-0.02,11.0,0.0,0.0,7.0,1.0,6.0,5.0,24.62,10.89,0.0,
18.945,97.38598279950457,83.48175811013105,-3.27,-1.27,0.16,11.0,0.0,0.0,7.0,1.0,6.0,5.0,24.62,10.79,0.0,
18.968,97.33559827995045,83.44417581101311,-3.34,-1.37,0.21,11.0,0.0,0.0,7.0,1.0,6.0,5.0,24.52,10.79,0.0,
18.993,97.33955982799505,83.44041758110131,-3.24,-1.44,0.1,11.0,0.0,0.0,7.0,1.0,6.0,5.0,24.52,10.79,0.0,
19.017,97.3309559827995,83.39504175811012,-3.21,-1.48,0.05,11.0,0.0,0.0,7.0,1.0,6.0,5.0,24.43,10.69,0.0,
19.042,97.36609559827995,83.40850417581102,-3.42,-0.95,-0.08,11.0,0.0,0.0,7.0,1.0,6.0,6.0,24.43,10.69,0.0,
19.066,97.37860955982799,83.4098504175811,-3.52,-0.94,0.16,11.0,0.0,0.0,7.0,1.0,6.0,6.0,24.43,10.69,0.0,
19.09,97.3708609559828,83.3649850417581,-3.21,-1.04,0.08,11.0,0.0,0.0,7.0,1.0,6.0,6.0,24.52,10.79,0.0,
19.115,97.35208609559828,83.37849850417581,-3.25,-1.68,-0.09,11.0,0.0,0.0,7.0,1.0,6.0,6.0,24.43,10.79,0.39,
19.139,97.35020860955981,83.38884985041759,-2.93,-1.53,-0.32,11.0,0.0,0.0,7.0,1.0,6.0,6.0,24.52,10.79,0.29,
19.164,97.37702086095598,83.37188498504176,-3.18,-1.05,0.16,11.0,0.0,0.0,8.0,1.0,6.0,6.0,24.62,10.79,0.29,
19.188,97.40670208609559,83.35218849850418,-3.04,-1.08,0.35,11.0,0.0,0.0,7.0,1.0,6.0,6.0,24.62,10.79,0.39,
19.213,97.40967020860955,83.35021884985042,-3.2,-1.36,0.39,11.0,0.0,0.0,7.0,1.0,6.0,6.0,24.72,10.99,0.39,
19.236,97.37396702086096,83.35902188498504,-3.13,-1.41,0.13,11.0,0.0,0.0,7.0,1.0,6.0,6.0,24.62,10.89,0.39,
19.261,97.3253967020861,83.35090218849851,-3.18,-1.6,0.22,11.0,0.0,0.0,7.0,1.0,6.0,6.0,24.72,10.89,0.0,
19.286,97.3295396702086,83.27809021884985,-3.21,-1.59,-0.1,11.0,0.0,0.0,7.0,1.0,6.0,6.0,24.82,10.89,0.0,
19.31,97.31195396702087,83.27980902188499,-3.17,-1.79,-0.04,11.0,0.0,0.0,7.0,1.0,6.0,6.0,24.82,10.89,0.0,
19.335,97.27419539670208,83.2979809021885,-3.06,-1.62,0.02,11.0,0.0,0.0,7.0,1.0,6.0,6.0,24.92,10.89,0.0,
19.358,97.2434195396702,83.28179809021884,-3.08,-1.32,0.24,11.0,0.0,0.0,7.0,1.0,6.0,6.0,24.82,10.89,0.0,
19.383,97.213341953967,83.24417980902189,-3.19,-1.52,-0.06,11.0,0.0,0.0,7.0,1.0,6.0,6.0,24.72,10.89,0.0,
19.407,97.2013341953967,83.22241798090218,-3.05,-1.66,-0.25,11.0,0.0,0.0,7.0,1.0,6.0,6.0,24.72,10.79,0.0,
19.432,97.20913341953965,83.29224179809022,-3.08,-1.49,-0.11,11.0,0.0,0.0,7.0,1.0,6.0,6.0,24.72,10.89,0.1,
19.457,97.20091334195396,83.28122417980902,-3.05,-1.5,-0.14,12.0,0.0,0.0,7.0,1.0,6.0,6.0,24.72,10.89,0.39,
19.481,97.19109133419539,83.2891224179809,-2.92,-1.15,0.45,11.0,0.0,0.0,8.0,1.0,6.0,6.0,24.72,10.99,0.39,
19.506,97.16310913341954,83.27191224179809,-2.99,-1.07,0.08,12.0,0.0,0.0,8.0,1.0,6.0,6.0,24.72,10.89,0.29,
19.529,97.18731091334196,83.35119122417981,-3.02,-0.91,-0.08,11.0,0.0,0.0,8.0,1.0,6.0,6.0,24.72,10.99,0.1,
19.554,97.2167310913342,83.34111912241798,-3.09,-0.99,-0.23,12.0,0.0,0.0,8.0,1.0,6.0,6.0,24.72,10.99,0.69,
19.578,97.22867310913342,83.3581119122418,-3.04,-1.09,-0.08,11.0,0.0,0.0,8.0,1.0,6.0,6.0,24.82,10.99,0.59,
19.603,97.27486731091335,83.34181119122418,-2.95,-1.37,-0.14,11.0,0.0,0.0,7.0,1.0,6.0,6.0,24.72,11.09,0.0,
19.628,97.26148673109134,83.35818111912242,-3.08,-1.28,-0.34,11.0,0.0,0.0,8.0,1.0,6.0,6.0,24.72,11.09,0.0,
19.652,97.25114867310914,83.31481811191225,-3.02,-1.35,0.05,11.0,0.0,0.0,8.0,1.0,6.0,6.0,24.82,11.09,0.1,
19.677,97.28611486731091,83.31048181119122,-3.27,-1.14,0.18,11.0,0.0,0.0,8.0,1.0,6.0,6.0,24.82,11.09,0.0,
19.7,97.2896114867311,83.34604818111912,-2.99,-1.05,0.08,11.0,0.0,0.0,8.0,1.0,6.0,6.0,24.82,11.09,0.0,
19.725,97.30796114867312,83.34060481811191,-3.11,-0.98,0.08,11.0,0.0,0.0,8.0,1.0,6.0,6.0,24.82,10.99,0.0,
19.749,97.30979611486731,83.30406048181119,-3.21,-0.95,-0.21,11.0,0.0,0.0,8.0,1.0,6.0,6.0,24.72,10.99,0.1,
19.774,97.30997961148674,83.29140604818113,-3.1,-1.01,-0.45,11.0,0.0,0.0,8.0,1.0,6.0,6.0,24.62,10.89,0.1,
19.799,97.28299796114868,83.2991406048181,-3.05,-1.13,-0.29,11.0,0.0,0.0,8.0,1.0,6.0,6.0,24.72,10.99,0.39,
19.823,97.33429979611488,83.27291406048181,-3.04,-1.13,-0.24,11.0,0.0,0.0,8.0,1.0,6.0,6.0,24.72,10.99,0.39,
19.848,97.34842997961148,83.29729140604817,-3.15,-1.5,-0.27,11.0,0.0,0.0,8.0,1.0,6.0,6.0,24.72,11.09,0.2,
19.871,97.34084299796115,83.33572914060481,-3.06,-1.16,-0.02,11.0,0.0,0.0,8.0,1.0,6.0,6.0,24.62,10.99,0.2,
19.896,97.3580842997961,83.38457291406048,-3.34,-1.31,0.21,11.0,0.0,0.0,8.0,1.0,6.0,6.0,24.52,10.89,0.49,
19.92,97.36880842997962,83.38945729140605,-3.3,-1.22,-0.15,11.0,0.0,0.0,8.0,1.0,6.0,6.0,24.43,10.89,0.88,
19.945,97.35188084299796,83.40794572914061,-3.26,-1.44,0.01,11.0,0.0,0.0,8.0,1.0,7.0,6.0,24.43,10.79,0.0,
19.97,97.2871880842998,83.40079457291407,-3.08,-1.79,-0.07,11.0,0.0,0.0,8.0,1.0,7.0,6.0,24.33,10.69,0.0,
19.994,97.28071880842998,83.36407945729141,-2.97,-2.05,-0.21,12.0,0.0,0.0,8.0,1.0,7.0,6.0,24.43,10.89,0.0,
20.019,97.280071880843,83.40540794572914,-2.95,-1.71,-0.1,11.0,0.0,0.0,8.0,1.0,7.0,6.0,24.52,10.99,0.0,
20.042,97.28000718808431,83.40054079457292,-3.3,-1.02,0.18,11.0,0.0,0.0,8.0,1.0,7.0,6.0,24.62,11.09,0.0,
20.067,97.30700071880844,83.41805407945729,-3.06,-1.1,0.09,11.0,0.0,0.0,8.0,1.0,7.0,6.0,24.62,11.09,0.0,
20.091,97.31870007188084,83.38380540794573,-3.25,-1.2,0.02,11.0,0.0,0.0,8.0,1.0,7.0,6.0,24.72,11.18,0.0,
20.116,97.28387000718809,83.39838054079458,-2.84,-1.41,-0.15,12.0,0.0,0.0,8.0,1.0,6.0,6.0,24.82,11.28,0.39,
20.141,97.30738700071882,83.42683805407945,-2.71,-1.25,-0.15,12.0,0.0,0.0,8.0,1.0,7.0,6.0,24.82,11.38,0.0,
20.165,97.30073870007188,83.44768380540795,-2.5,-1.32,-0.21,12.0,0.0,0.0,8.0,1.0,7.0,6.0,25.02,11.48,0.0,
20.189,97.30007387000718,83.4047683805408,-2.65,-1.28,-0.34,12.0,0.0,0.0,8.0,1.0,7.0,6.0,25.11,11.67,0.0,
20.213,97.3180073870007,83.38247683805407,-2.45,-1.34,-0.15,12.0,0.0,0.0,8.0,1.0,7.0,6.0,25.11,11.77,0.0,
20.238,97.30180073870007,83.42524768380541,-2.56,-1.21,-0.15,12.0,0.0,0.0,8.0,1.0,7.0,6.0,25.21,11.77,0.1,
20.262,97.28218007387001,83.41152476838054,-3.02,-0.92,-0.08,12.0,0.0,0.0,8.0,1.0,7.0,6.0,25.21,11.77,0.0,
20.287,97.29821800738699,83.41915247683805,-2.62,-1.09,0.06,12.0,0.0,0.0,8.0,1.0,6.0,6.0,25.21,11.97,3.04,
20.312,97.2998218007387,83.45591524768379,-2.35,-1.22,-0.03,12.0,0.0,0.0,8.0,1.0,7.0,6.0,25.11,11.97,1.47,
20.336,97.30898218007388,83.41459152476838,-2.2,-0.63,-0.4,12.0,0.0,0.0,8.0,1.0,7.0,6.0,25.21,12.07,0.69,
20.361,97.33689821800739,83.44645915247685,-2.74,-0.49,0.23,12.0,0.0,0.0,8.0,1.0,7.0,6.0,25.21,12.26,0.1,
20.384,97.38468982180073,83.49464591524769,-2.8,-0.37,0.27,12.0,0.0,0.0,8.0,1.0,7.0,6.0,25.21,12.36,0.1,
20.409,97.34446898218008,83.44546459152477,-2.6,-0.51,-0.05,12.0,0.0,0.0,8.0,1.0,7.0,6.0,25.31,12.46,0.1,
20.433,97.376446898218,83.43154645915249,-2.46,-0.65,-0.23,12.0,0.0,0.0,8.0,1.0,7.0,6.0,25.41,12.65,0.29,
20.458,97.4426446898218,83.43015464591525,-3.06,-0.37,0.14,12.0,0.0,0.0,8.0,1.0,7.0,6.0,25.51,12.75,0.29,
20.483,97.44926446898218,83.41201546459152,-3.19,-0.43,0.3,12.0,0.0,0.0,8.0,1.0,7.0,6.0,25.8,12.95,0.0,
20.507,97.45892644689822,83.43720154645915,-3.55,-0.74,0.07,12.0,0.0,0.0,8.0,1.0,7.0,6.0,26.0,13.05,0.0,
20.531,97.50489264468982,83.44872015464591,-3.49,-0.95,-0.16,12.0,0.0,0.0,8.0,1.0,7.0,6.0,26.19,13.15,0.0,
20.555,97.53648926446898,83.4678720154646,-3.64,-0.79,-0.5,12.0,0.0,0.0,8.0,1.0,7.0,6.0,26.29,13.15,0.0,
20.58,97.5306489264469,83.46078720154645,-3.76,-0.9,-0.09,12.0,0.0,0.0,8.0,1.0,7.0,6.0,26.39,13.34,0.0,
20.604,97.56606489264469,83.43307872015464,-3.66,-0.91,-0.1,12.0,0.0,0.0,8.0,1.0,7.0,6.0,26.68,13.44,0.0,
20.629,97.54260648926447,83.47530787201546,-3.44,-0.87,0.05,12.0,0.0,0.0,8.0,1.0,7.0,6.0,26.78,13.54,0.0,
20.654,97.56726064892645,83.47953078720155,-3.6,-0.95,-0.23,12.0,0.0,0.0,8.0,1.0,7.0,6.0,26.78,13.64,0.0,
20.677,97.55172606489265,83.56095307872015,-3.43,-1.0,-0.05,12.0,0.0,0.0,8.0,1.0,7.0,6.0,26.88,13.54,0.0,
20.702,97.61317260648927,83.596095307872,-3.56,-1.18,-0.1,12.0,0.0,0.0,8.0,1.0,7.0,6.0,26.88,13.64,0.0,
20.726,97.57431726064893,83.5906095307872,-3.5,-1.21,0.11,12.0,0.0,0.0,8.0,1.0,7.0,6.0,26.88,13.64,0.0,
20.751,97.5974317260649,83.58106095307872,-3.42,-1.34,-0.17,12.0,0.0,0.0,8.0,1.0,7.0,6.0,26.88,13.64,0.0,
20.775,97.5817431726065,83.58010609530787,-3.27,-1.62,-0.1,12.0,0.0,0.0,8.0,1.0,7.0,6.0,26.98,13.64,0.0,
20.8,97.59817431726066,83.54401060953079,-3.1,-1.41,-0.25,12.0,0.0,0.0,8.0,1.0,7.0,6.0,26.98,13.64,0.0,
20.825,97.63581743172607,83.59440106095307,-2.99,-1.17,-0.38,12.0,0.0,0.0,8.0,1.0,7.0,6.0,26.98,13.64,0.0,
20.849,97.60358174317261,83.5814401060953,-2.85,-1.18,-0.35,12.0,0.0,0.0,8.0,1.0,7.0,6.0,26.88,13.64,0.0,
20.873,97.60035817431726,83.51714401060954,-2.89,-1.15,-0.03,12.0,0.0,0.0,8.0,1.0,7.0,6.0,26.88,13.54,0.0,
20.897,97.62703581743173,83.51971440106095,-2.92,-1.16,-0.29,12.0,0.0,0.0,8.0,1.0,7.0,6.0,26.78,13.54,0.29,
20.922,97.61170358174317,83.4839714401061,-3.13,-1.19,0.01,12.0,0.0,0.0,9.0,1.0,7.0,6.0,26.68,13.64,0.39,
20.946,97.55617035817431,83.5433971440106,-3.18,-1.49,-0.29,12.0,0.0,0.0,9.0,1.0,7.0,6.0,26.59,13.54,0.0,
20.971,97.50561703581744,83.54933971440106,-3.19,-1.79,0.07,12.0,0.0,0.0,9.0,1.0,7.0,6.0,26.49,13.44,0.0,
20.996,97.47356170358174,83.5949339714401,-3.35,-1.56,-0.18,12.0,0.0,0.0,9.0,1.0,7.0,6.0,26.49,13.44,0.0,
21.02,97.47035617035817,83.59049339714402,-3.05,-1.57,-0.08,12.0,0.0,0.0,9.0,1.0,7.0,6.0,26.39,13.24,0.0,
21.044,97.50603561703582,83.5720493397144,-3.29,-1.27,-0.09,12.0,0.0,0.0,9.0,1.0,7.0,6.0,26.39,13.24,0.0,
21.068,97.51860356170359,83.56120493397145,-3.28,-1.4,0.02,12.0,0.0,0.0,9.0,1.0,7.0,6.0,26.29,13.24,0.0,
21.093,97.50186035617035,83.48812049339715,-3.27,-1.26,-0.05,12.0,0.0,0.0,9.0,1.0,7.0,6.0,26.29,13.24,0.0,
21.117,97.48218603561703,83.4628120493397,-3.4,-1.05,0.13,12.0,0.0,0.0,9.0,1.0,7.0,6.0,26.39,13.24,0.1,
21.142,97.5072186035617,83.40628120493398,-3.63,-0.9,0.01,12.0,0.0,0.0,9.0,1.0,7.0,6.0,26.39,13.24,0.1,
21.167,97.53672186035617,83.3736281204934,-3.86,-0.93,0.07,12.0,0.0,0.0,9.0,1.0,7.0,6.0,26.49,13.34,0.0,
21.19,97.53967218603562,83.39736281204934,-3.44,-0.95,-0.4,0.0,0.0,0.0,9.0,1.0,7.0,7.0,26.68,13.44,0.0,
21.215,97.53096721860356,83.39073628120494,-3.4,-1.23,-0.02,12.0,0.0,0.0,9.0,1.0,7.0,7.0,26.68,13.64,0.0,
21.239,97.54809672186036,83.36307362812049,-3.17,-1.08,-0.21,0.0,0.0,0.0,9.0,1.0,7.0,7.0,26.68,13.64,0.0,
21.264,97.55880967218604,83.36030736281205,-3.07,-1.04,0.12,0.0,0.0,0.0,9.0,1.0,7.0,7.0,26.78,13.64,0.0,
21.288,97.4698809672186,83.3600307362812,-3.11,-1.25,0.86,0.0,0.0,0.0,9.0,1.0,7.0,7.0,26.78,13.64,0.0,
21.312,97.50598809672186,83.33300307362812,-2.91,-1.11,0.05,0.0,0.0,0.0,9.0,1.0,7.0,7.0,26.88,13.73,0.0,
21.337,97.56359880967219,83.3663003073628,-3.02,-0.92,-0.1,0.0,0.0,0.0,9.0,1.0,7.0,7.0,26.88,13.73,0.0,
21.361,97.56935988096723,83.36063003073627,-3.07,-1.14,0.05,0.0,0.0,0.0,9.0,1.0,7.0,7.0,26.88,13.73,0.0,
21.386,97.58793598809672,83.33306300307362,-2.98,-1.21,-0.23,0.0,0.0,0.0,9.0,1.0,7.0,7.0,26.98,13.83,0.0,
21.409,97.59879359880968,83.30330630030736,-3.05,-1.12,-0.06,0.0,0.0,0.0,9.0,1.0,7.0,7.0,26.98,13.83,0.0,
21.434,97.60887935988097,83.30033063003073,-2.85,-1.12,-0.08,0.0,0.0,0.0,9.0,1.0,7.0,7.0,26.98,13.93,0.0,
21.458,97.6278879359881,83.30903306300307,-3.08,-1.16,-0.02,0.0,0.0,0.0,9.0,1.0,7.0,7.0,27.08,13.93,0.1,
21.483,97.63878879359882,83.3459033063003,-3.12,-1.15,0.05,0.0,0.0,0.0,9.0,1.0,7.0,7.0,27.08,13.93,0.0,
21.507,97.68487887935989,83.32259033063002,-3.21,-1.18,-0.05,0.0,0.0,0.0,9.0,1.0,7.0,7.0,27.08,13.93,0.0,
21.531,97.680487887936,83.338259033063,-3.21,-1.37,-0.18,0.0,0.0,0.0,9.0,1.0,7.0,7.0,27.08,13.93,0.0,
21.556,97.6530487887936,83.38482590330631,-3.18,-1.2,-0.17,0.0,0.0,0.0,9.0,1.0,7.0,7.0,27.17,13.93,0.0,
21.58,97.66830487887937,83.36248259033063,-3.08,-0.89,-0.05,12.0,0.0,0.0,9.0,1.0,7.0,7.0,27.08,13.93,0.2,
21.605,97.71483048788794,83.31524825903305,-3.2,-0.95,-0.29,0.0,0.0,0.0,9.0,1.0,7.0,7.0,27.17,13.93,0.0,
21.629,97.7284830487888,83.3375248259033,-3.3,-0.91,-0.08,0.0,0.0,0.0,9.0,1.0,7.0,7.0,27.17,14.03,0.0,
21.653,97.72084830487888,83.36675248259033,-3.21,-1.43,-0.21,0.0,0.0,0.0,9.0,1.0,7.0,7.0,27.17,14.03,0.0,
21.678,97.69308483048789,83.36067524825903,-3.06,-1.05,-0.41,0.0,0.0,0.0,9.0,1.0,7.0,7.0,27.08,14.03,0.0,
21.702,97.7173084830488,83.3330675248259,-3.24,-0.84,-0.31,0.0,0.0,0.0,9.0,1.0,7.0,7.0,27.08,14.13,0.0,
21.727,97.71973084830489,83.37530675248259,-3.09,-0.77,-0.11,0.0,0.0,0.0,9.0,1.0,7.0,7.0,27.17,14.03,0.0,
21.751,97.7019730848305,83.38853067524826,-3.02,-0.97,-0.2,0.0,0.0,0.0,9.0,1.0,7.0,7.0,27.17,14.03,0.0,
21.775,97.70919730848304,83.38985306752483,-3.15,-1.05,-0.09,0.0,0.0,0.0,9.0,1.0,7.0,7.0,26.98,13.93,0.39,
21.799,97.71891973084831,83.35398530675248,-3.32,-1.11,-0.18,0.0,0.0,0.0,9.0,1.0,7.0,7.0,27.17,14.13,0.0,
