time,pitch,roll,gyrx,gyry,gyrz,f1,f2,f3,f4,f5,f6,f7,g1,g2,g3
0.37,68.99,30.84,-3.0,0.0,0.0,0.0,0.0,0.0,0.0,0.0,0.0,0.0,0.1,0.0,0.0,
0.382,74.588,33.37799999999999,-2.0,-2.0,0.0,0.0,0.0,0.0,0.0,0.0,0.0,0.0,0.0,0.0,0.0,
0.396,79.8998,35.692800000000005,-1.0,-3.0,0.0,0.0,0.0,0.0,0.0,0.0,0.0,0.0,0.0,0.0,0.0,
0.409,84.66998000000001,37.589279999999995,0.0,-2.0,-4.0,0.0,0.0,0.0,0.0,0.0,0.0,0.0,0.1,0.0,0.0,
0.422,88.737998,39.335928,-1.0,-1.0,-4.0,0.0,0.0,0.0,0.0,0.0,0.0,0.0,0.1,0.0,0.0,
0.436,92.34879980000001,40.8335928,-1.0,-3.0,-6.0,0.0,0.0,0.0,0.0,0.0,0.0,0.0,0.1,0.0,0.0,
0.449,95.27487998,42.22535928,-3.0,-3.0,-4.0,0.0,0.0,0.0,0.0,0.0,0.0,0.0,0.1,0.1,0.0,
0.461,97.79048799799999,43.327535928,-3.0,-3.0,-3.0,0.0,0.0,0.0,0.0,0.0,0.0,0.0,0.1,0.0,0.0,
0.475,99.9050487998,44.220753592799994,-2.0,-2.0,-2.0,0.0,0.0,0.0,0.0,0.0,0.0,0.0,0.1,0.0,0.0,
0.488,101.55650487998,45.09307535928,-3.0,2.0,-2.0,0.0,0.0,0.0,0.0,0.0,0.0,0.0,0.1,0.1,0.0,
0.501,103.134650487998,45.810307535928004,-4.0,4.0,-1.0,0.0,0.0,0.0,0.0,0.0,0.0,0.0,0.1,0.0,0.0,
0.515,104.5884650487998,46.4130307535928,-4.0,4.0,0.0,0.0,0.0,0.0,0.0,0.0,0.0,0.0,0.1,0.0,0.0,
0.528,105.82284650487996,46.86030307535928,-4.0,3.0,0.0,0.0,0.0,0.0,0.0,0.0,0.0,0.0,0.0,0.0,0.1,
0.541,106.84628465048799,47.12103030753593,-3.0,2.0,0.0,0.0,0.0,0.0,0.0,0.0,0.0,0.0,0.0,0.0,0.0,
0.553,107.63262846504881,47.29110303075359,-2.0,3.0,-2.0,0.0,0.0,0.0,0.0,0.0,0.0,0.0,0.1,0.0,0.0,
0.567,108.13426284650487,47.47011030307536,-3.0,4.0,-2.0,0.0,0.0,0.0,0.0,0.0,0.0,0.0,0.1,0.0,0.0,
0.58,108.45442628465048,47.731011030307535,-4.0,4.0,-1.0,0.0,0.0,0.0,0.0,0.0,0.0,0.0,0.1,0.0,0.0,
0.593,108.81044262846505,47.910101103030755,-4.0,1.0,1.0,0.0,0.0,0.0,0.0,0.0,0.0,0.0,0.1,0.0,0.0,
0.607,109.2420442628465,48.07201011030308,-4.0,-1.0,4.0,0.0,0.0,0.0,0.0,0.0,0.0,0.0,0.0,0.1,0.0,
0.62,109.67220442628465,48.16920101103031,-3.0,-2.0,3.0,0.0,0.0,0.0,0.0,0.0,0.0,0.0,0.1,0.0,0.0,
0.633,109.98522044262846,48.241920101103034,-2.0,-2.0,0.0,0.0,0.0,0.0,0.0,0.0,0.0,0.0,0.1,0.0,0.0,
0.646,110.25052204426285,48.402192010110305,-1.0,-2.0,-4.0,0.0,0.0,0.0,0.0,0.0,0.0,0.0,0.1,0.0,0.0,
0.659,110.43905220442629,48.616219201011035,-1.0,-2.0,-4.0,0.0,0.0,0.0,0.0,0.0,0.0,0.0,0.2,0.0,0.0,
0.672,110.48490522044263,48.835621920101104,-1.0,-2.0,-1.0,0.0,0.0,0.0,0.0,0.0,0.0,0.0,0.1,0.0,0.0,
0.686,110.50749052204426,48.94756219201011,0.0,-2.0,0.0,0.0,0.0,0.0,0.0,0.0,0.0,0.0,0.1,0.0,0.0,
0.699,110.54574905220443,48.88675621920102,-1.0,0.0,1.0,0.0,0.0,0.0,0.0,0.0,0.0,0.0,0.1,0.0,0.1,
0.712,110.72057490522043,48.8266756219201,-1.0,2.0,0.0,0.0,0.0,0.0,0.0,0.0,0.0,0.0,0.1,0.0,0.1,
0.726,110.92705749052205,48.73066756219201,-2.0,2.0,1.0,0.0,0.0,0.0,0.0,0.0,0.0,0.0,0.1,0.0,0.0,
0.739,111.1727057490522,48.6310667562192,-3.0,0.0,0.0,0.0,0.0,0.0,0.0,0.0,0.0,0.0,0.2,0.1,0.0,
0.751,111.41327057490523,48.36010667562192,-3.0,0.0,0.0,0.0,0.0,0.0,0.0,0.0,0.0,0.0,0.2,0.1,0.0,
0.764,111.42832705749052,48.189010667562194,-4.0,1.0,0.0,0.0,0.0,0.0,0.0,0.0,0.0,0.0,0.2,0.0,0.0,
0.778,111.46583270574905,48.04590106675622,-4.0,0.0,0.0,0.0,0.0,0.0,0.0,0.0,0.0,0.0,0.1,0.1,0.0,
0.791,111.43358327057491,48.07659010667562,-3.0,0.0,0.0,0.0,0.0,0.0,0.0,0.0,0.0,0.0,0.2,0.0,0.0,
0.804,111.43035832705749,48.052659010667554,-2.0,0.0,-1.0,0.0,0.0,0.0,0.0,0.0,0.0,0.0,0.2,0.0,0.0,
0.818,111.29503583270575,48.23026590106676,-2.0,0.0,-1.0,0.0,0.0,0.0,0.0,0.0,0.0,0.0,0.1,0.0,0.1,
0.83,111.07450358327057,48.41902659010667,-2.0,0.0,-2.0,0.0,0.0,0.0,0.0,0.0,0.0,0.0,0.1,0.0,0.0,
0.843,110.88145035832706,48.545902659010665,-2.0,0.0,0.0,0.0,0.0,0.0,0.0,0.0,0.0,0.0,0.1,0.0,0.0,
0.857,110.76314503583271,48.58559026590107,-2.0,0.0,-1.0,0.0,0.0,0.0,0.0,0.0,0.0,0.0,0.1,0.0,0.0,
0.87,110.74231450358326,48.60755902659011,-2.0,0.0,-1.0,0.0,0.0,0.0,0.0,0.0,0.0,0.0,0.1,0.0,0.0,
0.883,110.83923145035833,48.57375590265901,-3.0,-1.0,-1.0,0.0,0.0,0.0,0.0,0.0,0.0,0.0,0.1,0.0,0.0,
0.897,110.79492314503584,48.750375590265904,-2.0,-2.0,-2.0,0.0,0.0,0.0,0.0,0.0,0.0,0.0,0.2,0.1,0.0,
0.91,110.90749231450359,48.91203755902659,-2.0,-2.0,-2.0,0.0,0.0,0.0,0.0,0.0,0.0,0.0,0.2,0.0,0.0,
0.923,111.05374923145035,49.11720375590266,-1.0,-2.0,-2.0,0.0,0.0,0.0,0.0,0.0,0.0,0.0,0.1,0.0,0.0,
0.936,111.15837492314503,49.33572037559026,0.0,-2.0,-3.0,0.0,0.0,0.0,0.0,0.0,0.0,0.0,0.2,0.0,0.0,
0.95,111.3308374923145,49.52857203755902,0.0,-2.0,-2.0,0.0,0.0,0.0,0.0,0.0,0.0,0.0,0.1,0.0,0.0,
0.962,111.52808374923144,49.5928572037559,0.0,0.0,-2.0,0.0,0.0,0.0,0.0,0.0,0.0,0.0,0.1,0.0,0.0,
0.975,111.52080837492313,49.71628572037559,0.0,0.0,-3.0,0.0,0.0,0.0,0.0,0.0,0.0,0.0,0.2,0.0,0.0,
0.989,111.6280808374923,49.692628572037556,0.0,0.0,-1.0,0.0,0.0,0.0,0.0,0.0,0.0,0.0,0.1,0.0,0.0,
1.002,111.74680808374923,49.62726285720375,0.0,0.0,0.0,0.0,0.0,0.0,0.0,0.0,0.0,0.0,0.1,0.0,0.0,
1.014,111.94768080837491,49.53072628572038,0.0,0.0,0.0,0.0,0.0,0.0,0.0,0.0,0.0,0.0,0.2,0.1,0.0,
1.028,112.0037680808375,49.41307262857204,0.0,0.0,0.0,0.0,0.0,0.0,0.0,0.0,0.0,0.0,0.2,0.1,0.0,
1.041,112.07237680808375,49.2213072628572,-1.0,0.0,-1.0,0.0,0.0,0.0,0.0,0.0,0.0,0.0,0.2,0.1,0.0,
1.054,112.08823768080838,49.058130726285725,-1.0,0.0,-1.0,0.0,0.0,0.0,0.0,0.0,0.0,0.0,0.2,0.1,0.0,
1.068,112.00882376808083,48.87081307262858,-2.0,1.0,0.0,0.0,0.0,0.0,0.0,0.0,0.0,0.0,0.2,0.1,0.1,
1.081,112.13588237680808,48.69008130726286,-3.0,2.0,0.0,0.0,0.0,0.0,0.0,0.0,0.0,0.0,0.1,0.1,0.0,
1.093,112.2295882376808,48.58200813072629,-3.0,2.0,0.0,0.0,0.0,0.0,0.0,0.0,0.0,0.0,0.0,0.1,0.0,
1.106,112.14895882376808,48.56220081307263,-4.0,1.0,0.0,0.0,0.0,0.0,0.0,0.0,0.0,0.0,0.1,0.0,0.0,
1.12,112.15889588237681,48.45222008130726,-4.0,1.0,0.0,0.0,0.0,0.0,0.0,0.0,0.0,0.0,0.2,0.1,0.0,
1.133,112.17788958823768,48.38722200813073,-3.0,1.0,0.0,0.0,0.0,0.0,0.0,0.0,0.0,0.0,0.2,0.0,0.0,
1.146,112.20678895882375,48.200722200813075,-3.0,2.0,-2.0,0.0,0.0,0.0,0.0,0.0,0.0,0.0,0.2,0.1,0.0,
1.159,112.14667889588237,48.12807222008131,-3.0,3.0,-2.0,0.0,0.0,0.0,0.0,0.0,0.0,0.0,0.1,0.1,0.0,
1.172,112.03266788958823,48.183807222008134,-4.0,4.0,-2.0,0.0,0.0,0.0,0.0,0.0,0.0,0.0,0.2,0.1,0.0,
1.185,111.94926678895881,48.144380722200815,-5.0,4.0,0.0,0.0,0.0,0.0,0.0,0.0,0.0,0.0,0.1,0.0,0.0,
1.199,111.88692667889588,48.050438072220075,-5.0,2.0,1.0,0.0,0.0,0.0,0.0,0.0,0.0,0.0,0.1,0.0,0.0,
1.212,111.96169266788958,47.879043807222004,-5.0,2.0,0.0,0.0,0.0,0.0,0.0,0.0,0.0,0.0,0.1,0.0,0.0,
1.225,111.95116926678897,47.7179043807222,-5.0,2.0,-1.0,0.0,0.0,0.0,0.0,0.0,0.0,0.0,0.1,0.0,0.0,
1.238,111.88711692667889,47.64779043807222,-5.0,1.0,-3.0,0.0,0.0,0.0,0.0,0.0,0.0,0.0,0.2,0.0,0.0,
1.251,111.63771169266788,47.712779043807224,-4.0,2.0,-3.0,0.0,0.0,0.0,0.0,0.0,0.0,0.0,0.2,0.0,0.0,
1.264,111.30677116926678,47.82727790438072,-4.0,2.0,-2.0,0.0,0.0,0.0,0.0,0.0,0.0,0.0,0.2,0.0,0.0,
1.277,111.03067711692668,47.946727790438075,-4.0,1.0,0.0,0.0,0.0,0.0,0.0,0.0,0.0,0.0,0.2,0.0,0.0,
1.291,110.85906771169266,48.16567277904381,-5.0,0.0,1.0,0.0,0.0,0.0,0.0,0.0,0.0,0.0,0.2,0.0,0.0,
1.304,110.93190677116927,48.23256727790438,-5.0,-1.0,0.0,0.0,0.0,0.0,0.0,0.0,0.0,0.0,0.1,0.0,0.0,
1.317,110.85819067711692,48.41925672779043,-5.0,-2.0,0.0,0.0,0.0,0.0,0.0,0.0,0.0,0.0,0.1,0.1,0.0,
1.331,110.9858190677117,48.446925672779045,-4.0,-2.0,-2.0,0.0,0.0,0.0,0.0,0.0,0.0,0.0,0.1,0.0,0.0,
1.344,110.97158190677118,48.611692567277906,-2.0,-3.0,-2.0,0.0,0.0,0.0,0.0,0.0,0.0,0.0,0.1,0.1,0.0,
1.356,111.05115819067713,48.817169256727794,-2.0,-2.0,-3.0,0.0,0.0,0.0,0.0,0.0,0.0,0.0,0.2,0.1,0.0,
1.37,111.1491158190677,49.17071692567278,-2.0,-1.0,-2.0,0.0,0.0,0.0,0.0,0.0,0.0,0.0,0.1,0.0,0.0,
1.383,111.23091158190677,49.476071692567274,-2.0,0.0,-1.0,0.0,0.0,0.0,0.0,0.0,0.0,0.0,0.1,0.0,0.0,
1.396,111.37409115819068,49.65960716925673,-1.0,-1.0,-1.0,0.0,0.0,0.0,0.0,0.0,0.0,0.0,0.1,0.0,0.0,
1.41,111.47840911581906,49.79496071692567,0.0,0.0,-1.0,0.0,0.0,0.0,0.0,0.0,0.0,0.0,0.1,0.0,0.0,
1.423,111.53384091158192,49.93449607169257,0.0,2.0,-1.0,0.0,0.0,0.0,0.0,0.0,0.0,0.0,0.1,0.0,0.0,
1.436,111.59338409115819,49.993449607169254,0.0,0.0,0.0,0.0,0.0,0.0,0.0,0.0,0.0,0.0,0.2,0.0,0.0,
1.449,111.66233840911582,49.990344960716925,0.0,0.0,1.0,0.0,0.0,0.0,0.0,0.0,0.0,0.0,0.1,0.0,0.0,
1.462,111.72323384091158,49.819034496071694,0.0,-1.0,1.0,0.0,0.0,0.0,0.0,0.0,0.0,0.0,0.1,0.0,0.0,
1.475,111.75632338409116,49.63090344960717,1.0,0.0,0.0,0.0,0.0,0.0,0.0,0.0,0.0,0.0,0.1,0.0,0.0,
1.488,111.71463233840912,49.35109034496071,2.0,-1.0,0.0,0.0,0.0,0.0,0.0,0.0,0.0,0.0,0.2,0.1,0.0,
1.502,111.68346323384092,49.10710903449607,3.0,0.0,-1.0,0.0,0.0,0.0,0.0,0.0,0.0,0.0,0.1,0.0,0.0,
1.514,111.6263463233841,48.96571090344961,2.0,-1.0,-1.0,0.0,0.0,0.0,0.0,0.0,0.0,0.0,0.1,0.1,0.0,
1.527,111.65663463233841,48.807571090344965,2.0,-1.0,-2.0,0.0,0.0,0.0,0.0,0.0,0.0,0.0,0.1,0.1,0.0,
1.541,111.65966346323384,48.8457571090345,1.0,-1.0,-2.0,0.0,0.0,0.0,0.0,0.0,0.0,0.0,0.1,0.1,0.0,
1.554,111.66896634632339,48.867575710903445,1.0,0.0,-2.0,0.0,0.0,0.0,0.0,0.0,0.0,0.0,0.1,0.1,0.0,
1.567,111.66089663463234,48.92375757109034,0.0,0.0,-2.0,0.0,0.0,0.0,0.0,0.0,0.0,0.0,0.1,0.0,0.0,
1.581,111.62408966346324,48.92937575710903,0.0,0.0,-2.0,0.0,0.0,0.0,0.0,0.0,0.0,0.0,0.1,0.1,0.0,
1.593,111.74640896634632,48.974937575710904,0.0,0.0,-2.0,0.0,0.0,0.0,0.0,0.0,0.0,0.0,0.1,0.1,0.0,
1.606,111.83964089663462,49.06949375757109,0.0,0.0,-1.0,0.0,0.0,0.0,0.0,0.0,0.0,0.0,0.2,0.1,0.0,
1.619,111.96596408966347,49.06094937575711,0.0,0.0,0.0,0.0,0.0,0.0,0.0,0.0,0.0,0.0,0.2,0.1,0.0,
1.633,112.05059640896634,49.123094937575715,0.0,0.0,0.0,0.0,0.0,0.0,0.0,0.0,0.0,0.0,0.2,0.0,0.0,
1.645,112.16705964089664,49.02130949375757,0.0,-1.0,1.0,0.0,0.0,0.0,0.0,0.0,0.0,0.0,0.2,0.0,0.0,
1.658,112.41270596408965,48.92113094937575,0.0,-1.0,0.0,0.0,0.0,0.0,0.0,0.0,0.0,0.0,0.2,0.0,0.0,
1.672,112.52727059640897,48.902113094937576,0.0,-1.0,-1.0,0.0,0.0,0.0,0.0,0.0,0.0,0.0,0.1,0.1,0.0,
1.685,112.6287270596409,48.93621130949376,-1.0,0.0,-2.0,0.0,0.0,0.0,0.0,0.0,0.0,0.0,0.2,0.2,0.0,
1.698,112.70187270596408,48.948621130949384,-1.0,0.0,-1.0,0.0,0.0,0.0,0.0,0.0,0.0,0.0,0.2,0.1,0.0,
1.711,112.71818727059642,49.03086211309494,-1.0,0.0,0.0,0.0,0.0,0.0,0.0,0.0,0.0,0.0,0.2,0.1,0.0,
1.724,112.79181872705963,49.030086211309495,-1.0,0.0,0.0,0.0,0.0,0.0,0.0,0.0,0.0,0.0,0.2,0.1,0.0,
1.737,112.91618187270598,48.94900862113095,0.0,0.0,0.0,0.0,0.0,0.0,0.0,0.0,0.0,0.0,0.2,0.1,0.0,
1.751,112.9376181872706,48.922900862113096,0.0,1.0,-1.0,0.0,0.0,0.0,0.0,0.0,0.0,0.0,0.2,0.1,0.0,
1.763,112.82276181872707,49.00129008621131,0.0,3.0,-1.0,0.0,0.0,0.0,0.0,0.0,0.0,0.0,0.29,0.1,0.0,
1.776,112.67627618187271,49.03612900862113,-1.0,3.0,0.0,0.0,0.0,0.0,0.0,0.0,0.0,0.0,0.2,0.1,0.0,
1.789,112.51762761818726,48.93161290086212,-1.0,1.0,3.0,0.0,0.0,0.0,0.0,0.0,0.0,0.0,0.2,0.0,0.0,
1.803,112.35776276181873,48.71416129008621,-1.0,1.0,1.0,0.0,0.0,0.0,0.0,0.0,0.0,0.0,0.2,0.0,0.0,
1.816,112.26977627618187,48.54841612900862,-2.0,2.0,1.0,0.0,0.0,0.0,0.0,0.0,0.0,0.0,0.29,0.2,0.0,
1.828,112.13497762761818,48.49584161290087,-4.0,1.0,0.0,0.0,0.0,0.0,0.0,0.0,0.0,0.0,0.2,0.2,0.0,
1.842,111.97749776276181,48.49958416129009,-5.0,1.0,0.0,0.0,0.0,0.0,0.0,0.0,0.0,0.0,0.2,0.1,0.0,
1.855,111.84474977627619,48.535958416129006,-6.0,1.0,0.0,0.0,0.0,0.0,0.0,0.0,0.0,0.0,0.1,0.1,0.0,
1.868,111.76847497762762,48.5575958416129,-5.0,0.0,0.0,0.0,0.0,0.0,0.0,0.0,0.0,0.0,0.2,0.2,0.0,
1.882,111.67984749776276,48.64075958416129,-4.0,0.0,-2.0,0.0,0.0,0.0,0.0,0.0,0.0,0.0,0.2,0.1,0.0,
1.895,111.58998474977628,48.71207595841613,-3.0,0.0,-3.0,0.0,0.0,0.0,0.0,0.0,0.0,0.0,0.2,0.1,0.0,
1.907,111.40099847497763,48.872207595841616,-3.0,1.0,-3.0,0.0,0.0,0.0,0.0,0.0,0.0,0.0,0.2,0.0,0.0,
1.921,111.25609984749777,49.104220759584166,-2.0,1.0,-2.0,0.0,0.0,0.0,0.0,0.0,0.0,0.0,0.2,0.0,0.0,
1.934,111.16960998474977,49.352422075958415,-1.0,1.0,-2.0,0.0,0.0,0.0,0.0,0.0,0.0,0.0,0.29,0.0,0.0,
1.947,111.13396099847498,49.62924220759584,-1.0,1.0,-2.0,0.0,0.0,0.0,0.0,0.0,0.0,0.0,0.2,0.0,0.0,
1.96,111.13039609984749,49.84592422075958,0.0,0.0,-3.0,0.0,0.0,0.0,0.0,0.0,0.0,0.0,0.2,0.0,0.0,
1.974,111.06703960998476,49.993592422075956,-1.0,0.0,-1.0,0.0,0.0,0.0,0.0,0.0,0.0,0.0,0.29,0.1,0.0,
1.987,111.05170396099847,50.0443592422076,-1.0,0.0,-2.0,0.0,0.0,0.0,0.0,0.0,0.0,0.0,0.29,0.1,0.0,
2.0,111.06817039609984,50.06743592422076,-1.0,-2.0,0.0,0.0,0.0,0.0,0.0,0.0,0.0,0.0,0.2,0.0,0.0,
2.013,111.15081703960998,50.10574359242208,-2.0,-1.0,0.0,0.0,0.0,0.0,0.0,0.0,0.0,0.0,0.2,0.1,0.0,
2.026,111.249081703961,50.05557435924221,-2.0,-2.0,0.0,0.0,0.0,0.0,0.0,0.0,0.0,0.0,0.2,0.1,0.0,
2.039,111.2499081703961,50.10455743592422,-1.0,-2.0,0.0,0.0,0.0,0.0,0.0,0.0,0.0,0.0,0.2,0.1,0.0,
2.053,111.3579908170396,50.046455743592425,-1.0,-2.0,0.0,0.0,0.0,0.0,0.0,0.0,0.0,0.0,0.2,0.1,0.0,
2.066,111.32379908170395,50.12164557435925,-1.0,-2.0,0.0,0.0,0.0,0.0,0.0,0.0,0.0,0.0,0.2,0.2,0.0,
2.079,111.4283799081704,50.075164557435926,-1.0,-2.0,0.0,0.0,0.0,0.0,0.0,0.0,0.0,0.0,0.1,0.1,0.0,
2.093,111.40283799081705,50.05251645574359,-1.0,-2.0,0.0,0.0,0.0,0.0,0.0,0.0,0.0,0.0,0.2,0.2,0.0,
2.106,111.5352837990817,49.852251645574356,-1.0,-2.0,0.0,0.0,0.0,0.0,0.0,0.0,0.0,0.0,0.2,0.1,0.0,
2.118,111.59352837990816,49.72422516455744,-1.0,-3.0,0.0,0.0,0.0,0.0,0.0,0.0,0.0,0.0,0.2,0.1,0.0,
2.131,111.73435283799081,49.54042251645575,-1.0,-3.0,0.0,0.0,0.0,0.0,0.0,0.0,0.0,0.0,0.2,0.1,0.0,
2.145,111.89243528379907,49.387042251645575,-1.0,-2.0,-1.0,0.0,0.0,0.0,0.0,0.0,0.0,0.0,0.2,0.1,0.0,
2.158,112.0342435283799,49.353704225164556,-2.0,-2.0,-1.0,0.0,0.0,0.0,0.0,0.0,0.0,0.0,0.2,0.1,0.0,
2.171,112.13842435283799,49.44937042251646,-2.0,-2.0,-1.0,0.0,0.0,0.0,0.0,0.0,0.0,0.0,0.2,0.1,0.0,
2.185,112.33784243528379,49.557937042251645,-1.0,-2.0,-1.0,0.0,0.0,0.0,0.0,0.0,0.0,0.0,0.2,0.1,0.0,
2.198,112.47478424352838,49.81179370422517,0.0,-1.0,-1.0,0.0,0.0,0.0,0.0,0.0,0.0,0.0,0.2,0.0,0.0,
2.211,112.66847842435284,50.01717937042252,0.0,0.0,-3.0,0.0,0.0,0.0,0.0,0.0,0.0,0.0,0.2,0.0,0.0,
2.225,112.8498478424353,50.118717937042256,0.0,2.0,-3.0,0.0,0.0,0.0,0.0,0.0,0.0,0.0,0.2,0.0,0.0,
2.237,112.74198478424353,50.263871793704226,1.0,3.0,-2.0,0.0,0.0,0.0,0.0,0.0,0.0,0.0,0.29,0.1,0.0,
2.25,112.42519847842435,50.50338717937043,1.0,4.0,0.0,0.0,0.0,0.0,0.0,0.0,0.0,0.0,0.29,0.1,0.0,
2.264,112.25851984784242,50.65333871793705,2.0,5.0,2.0,0.0,0.0,0.0,0.0,0.0,0.0,0.0,0.29,0.0,0.0,
2.277,112.05285198478424,50.71333387179371,3.0,3.0,4.0,0.0,0.0,0.0,0.0,0.0,0.0,0.0,0.29,0.1,0.0,
2.289,111.82528519847843,50.692333387179374,4.0,3.0,3.0,0.0,0.0,0.0,0.0,0.0,0.0,0.0,0.2,0.1,0.0,
2.302,111.53252851984784,50.69023333871794,4.0,2.0,3.0,0.0,0.0,0.0,0.0,0.0,0.0,0.0,0.2,0.1,0.0,
2.316,111.38625285198478,50.81602333387179,3.0,2.0,3.0,0.0,0.0,0.0,0.0,0.0,0.0,0.0,0.29,0.2,0.0,
2.329,111.30862528519847,50.74760233338718,3.0,-2.0,7.0,0.0,0.0,0.0,0.0,0.0,0.0,0.0,0.29,0.2,0.0,
2.341,111.37286252851985,50.857760233338716,7.0,-4.0,0.0,0.0,0.0,0.0,0.0,0.0,0.0,0.0,0.2,0.1,0.0,
2.355,111.09128625285199,51.27377602333387,7.0,-5.0,0.0,0.0,0.0,0.0,0.0,0.0,0.0,0.0,0.29,0.1,0.0,
2.368,111.0451286252852,51.84637760233339,7.0,-4.0,0.0,0.0,0.0,0.0,0.0,0.0,0.0,0.0,0.2,0.1,0.0,
2.381,111.02251286252852,52.398637760233335,9.0,-3.0,1.0,0.0,0.0,0.0,0.0,0.0,0.0,0.0,0.2,0.1,0.0,
2.395,110.90325128625285,53.11986377602334,12.0,-4.0,0.0,0.0,0.0,0.0,0.0,0.0,0.0,0.0,0.2,0.0,0.0,
2.407,110.84632512862528,53.83098637760233,14.0,-3.0,0.0,0.0,0.0,0.0,0.0,0.0,0.0,0.0,0.2,0.0,0.0,
2.42,110.66963251286253,54.60409863776023,18.0,-3.0,1.0,0.0,0.0,0.0,0.0,0.0,0.0,0.0,0.2,0.0,0.0,
2.434,110.74196325128625,55.212409863776024,21.0,-3.0,1.0,0.0,0.0,0.0,0.0,0.0,0.0,0.0,0.29,0.0,0.0,
2.447,110.77619632512862,55.9482409863776,26.0,-4.0,-1.0,0.0,0.0,0.0,0.0,0.0,0.0,0.0,0.2,0.0,0.0,
2.46,110.44661963251286,56.84982409863776,32.0,-5.0,-1.0,0.0,0.0,0.0,0.0,0.0,0.0,0.0,0.2,0.0,0.0,
2.473,110.2786619632513,57.55198240986378,36.0,-5.0,2.0,0.0,0.0,0.0,0.0,0.0,0.0,0.0,0.2,0.0,0.0,
2.487,110.07286619632512,58.14419824098638,40.0,-3.0,4.0,0.0,0.0,0.0,0.0,0.0,0.0,0.0,0.2,0.0,0.0,
2.5,110.08828661963251,58.53641982409864,46.0,-5.0,-2.0,0.0,0.0,0.0,0.0,0.0,0.0,0.0,0.2,0.0,0.0,
2.513,109.56782866196326,59.403641982409866,50.0,-4.0,0.0,0.0,0.0,0.0,0.0,0.0,0.0,0.0,0.29,0.0,0.0,
2.527,109.76778286619633,59.922364198240984,53.0,-3.0,-1.0,0.0,0.0,0.0,0.0,0.0,0.0,0.0,0.29,0.0,0.0,
2.54,109.11277828661964,61.0452364198241,55.0,0.0,7.0,0.0,0.0,0.0,0.0,0.0,0.0,0.0,0.2,0.0,0.0,
2.553,109.75827782866196,60.941523641982414,61.0,-3.0,2.0,0.0,0.0,0.0,0.0,0.0,0.0,0.0,0.29,0.0,0.0,
2.567,108.9768277828662,62.479152364198235,68.0,-11.0,3.0,0.0,0.0,0.0,0.0,0.0,0.0,0.0,0.2,0.0,0.0,
2.58,108.81768277828662,63.127915236419824,72.0,-8.0,6.0,0.0,0.0,0.0,0.0,0.0,0.0,0.0,0.2,0.0,0.0,
2.593,107.81176827782866,64.74079152364199,81.0,-18.0,7.0,0.0,0.0,0.0,0.0,0.0,0.0,0.0,0.29,0.0,0.0,
2.607,108.63817682778286,64.6410791523642,83.0,-15.0,12.0,0.0,0.0,0.0,0.0,0.0,0.0,0.0,0.2,0.0,0.0,
2.62,108.23481768277827,65.18010791523642,93.0,-23.0,-4.0,0.0,0.0,0.0,0.0,0.0,0.0,0.0,0.2,0.0,0.0,
2.633,103.86548176827783,69.46401079152363,98.0,3.0,0.0,0.0,0.0,0.0,0.0,0.0,0.0,0.0,0.29,0.0,0.0,
2.647,101.53854817682779,71.83640107915237,85.0,-10.0,18.0,0.0,0.0,0.0,0.0,0.0,0.0,0.0,0.2,0.0,0.0,
2.66,98.8848548176828,74.43164010791524,80.0,8.0,3.0,0.0,0.0,0.0,0.0,0.0,0.0,0.0,0.29,0.0,0.0,
2.673,100.32048548176829,73.71016401079152,80.0,-25.0,4.0,0.0,0.0,0.0,0.0,0.0,0.0,0.0,0.29,0.0,0.0,
2.686,102.05704854817684,72.99901640107915,61.0,-4.0,20.0,0.0,0.0,0.0,0.0,0.0,0.0,0.0,0.2,0.0,0.0,
2.7,101.58270485481769,73.45890164010792,64.0,-24.0,11.0,0.0,0.0,0.0,0.0,0.0,0.0,0.0,0.2,0.0,0.0,
2.714,100.89627048548176,73.48689016401079,62.0,-32.0,9.0,0.0,0.0,0.0,0.0,0.0,0.0,0.0,0.2,0.0,0.0,
2.727,98.40662704854816,75.35268901640109,74.0,-42.0,11.0,0.0,0.0,0.0,0.0,0.0,0.0,0.0,0.2,0.0,0.0,
2.741,98.07666270485481,74.44126890164011,64.0,-59.0,3.0,0.0,0.0,0.0,0.0,0.0,0.0,0.0,0.29,0.0,0.0,
2.754,97.47666627048548,74.17912689016403,46.0,-42.0,1.0,0.0,0.0,0.0,0.0,0.0,0.0,0.0,0.29,0.0,0.0,
2.767,96.98466662704855,74.40491268901641,34.0,-41.0,8.0,0.0,0.0,0.0,0.0,0.0,0.0,0.0,0.2,0.0,0.0,
2.781,96.48546666270485,74.58049126890164,43.0,-62.0,-11.0,0.0,0.0,0.0,0.0,0.0,0.0,0.0,0.2,0.0,0.0,
2.794,96.86754666627047,73.53604912689016,44.0,-66.0,-5.0,0.0,0.0,0.0,0.0,0.0,0.0,0.0,0.29,0.0,0.0,
2.807,95.04275466662705,75.18660491268903,51.0,-75.0,-3.0,0.0,0.0,0.0,0.0,0.0,0.0,0.0,0.29,0.0,0.0,
2.821,95.53527546666271,74.3166604912689,37.0,-74.0,0.0,0.0,0.0,0.0,0.0,0.0,0.0,0.0,0.2,0.0,0.0,
2.834,96.30452754666628,73.68066604912688,30.0,-68.0,-2.0,0.0,0.0,0.0,0.0,0.0,0.0,0.0,0.2,0.0,0.0,
2.847,96.46245275466663,73.83306660491269,35.0,-71.0,-7.0,0.0,0.0,0.0,0.0,0.0,0.0,0.0,0.29,0.0,0.0,
2.861,97.41424527546667,72.94830666049127,27.0,-62.0,0.0,0.0,0.0,0.0,0.0,0.0,0.0,0.0,0.2,0.0,0.0,
2.874,96.66342452754667,73.72383066604912,32.0,-61.0,-14.0,0.0,0.0,0.0,0.0,0.0,0.0,0.0,0.29,0.0,0.0,
2.887,96.74134245275467,74.06238306660491,24.0,-56.0,-6.0,0.0,0.0,0.0,0.0,0.0,0.0,0.0,0.29,0.0,0.0,
2.902,96.46113424527547,73.78123830666048,25.0,-52.0,-19.0,0.0,0.0,0.0,0.0,0.0,0.0,0.0,0.29,0.0,0.0,
2.915,96.09111342452753,74.68012383066605,15.0,-43.0,-13.0,0.0,0.0,0.0,0.0,0.0,0.0,0.0,0.29,0.0,0.0,
2.928,95.93711134245275,75.5080123830666,12.0,-38.0,-2.0,0.0,0.0,0.0,0.0,0.0,0.0,0.0,0.39,0.0,0.0,
2.941,95.54371113424527,76.97680123830666,13.0,-41.0,0.0,0.0,0.0,0.0,0.0,0.0,0.0,0.0,0.29,0.0,0.0,
2.955,95.73837111342453,78.68068012383067,19.0,-35.0,5.0,0.0,0.0,0.0,0.0,0.0,0.0,0.0,0.29,0.0,0.0,
2.968,95.55083711134246,80.12006801238307,21.0,-24.0,14.0,0.0,0.0,0.0,0.0,0.0,0.0,0.0,0.29,0.0,0.0,
2.981,95.18108371113425,81.52400680123831,30.0,-18.0,17.0,0.0,0.0,0.0,0.0,0.0,0.0,0.0,0.2,0.0,0.0,
2.995,95.47710837111343,83.22140068012384,52.0,-42.0,11.0,0.0,0.0,0.0,0.0,0.0,0.0,0.0,0.29,0.0,0.0,
3.008,96.28971083711134,84.12914006801239,36.0,3.0,26.0,0.0,0.0,0.0,0.0,0.0,0.0,0.0,0.29,0.0,0.0,
3.021,98.08097108371113,83.19391400680124,31.0,7.0,9.0,0.0,0.0,0.0,0.0,0.0,0.0,0.0,0.29,0.0,0.0,
3.035,97.64809710837112,84.54039140068012,38.0,-5.0,2.0,0.0,0.0,0.0,0.0,0.0,0.0,0.0,0.29,0.0,0.0,
3.048,98.49580971083712,84.630039140068,20.0,12.0,18.0,0.0,0.0,0.0,0.0,0.0,0.0,0.0,0.29,0.0,0.0,
3.061,97.98658097108373,85.83600391400681,33.0,0.0,-2.0,0.0,0.0,0.0,0.0,0.0,0.0,0.0,0.29,0.0,0.0,
3.075,96.76565809710837,87.24360039140069,36.0,7.0,15.0,0.0,0.0,0.0,0.0,0.0,0.0,0.0,0.29,0.0,0.0,
3.088,95.80656580971085,88.45536003914007,42.0,10.0,9.0,0.0,0.0,0.0,0.0,0.0,0.0,0.0,0.29,0.0,0.0,
3.101,93.28965658097108,89.96253600391401,41.0,29.0,34.0,0.0,0.0,0.0,0.0,0.0,0.0,0.0,0.29,0.0,0.0,
3.115,93.3079656580971,89.6542536003914,50.0,17.0,33.0,0.0,0.0,0.0,0.0,0.0,0.0,0.0,0.29,0.0,0.0,
3.128,91.58179656580971,89.81242536003913,63.0,8.0,23.0,0.0,0.0,0.0,0.0,0.0,0.0,0.0,0.59,0.0,0.0,
3.141,91.17517965658097,90.3952425360039,54.0,20.0,12.0,0.0,0.0,0.0,0.0,0.0,0.0,0.0,0.59,0.0,0.0,
3.154,91.6565179656581,89.90452425360039,45.0,25.0,2.0,0.0,0.0,0.0,0.0,0.0,0.0,0.0,0.59,0.0,0.0,
3.168,91.24565179656581,91.55645242536004,57.0,15.0,-10.0,0.0,0.0,0.0,0.0,0.0,0.0,0.0,0.49,0.0,0.0,
3.181,88.43256517965659,94.286645242536,65.0,-38.0,9.0,0.0,0.0,0.0,0.0,0.0,0.0,0.0,0.49,0.0,0.0,
3.194,90.48225651796565,92.0756645242536,44.0,32.0,-83.0,0.0,0.0,0.0,0.0,0.0,0.0,0.0,0.49,0.0,0.0,
3.208,85.95322565179657,94.59056645242536,35.0,-6.0,-6.0,0.0,0.0,0.0,0.0,0.0,0.0,0.0,0.39,0.0,0.0,
3.221,83.59232256517966,97.91105664524252,71.0,-105.0,-50.0,0.0,0.0,0.0,0.0,0.0,0.0,0.0,0.39,0.0,0.0,
3.234,81.97923225651797,98.73810566452426,-63.0,-48.0,40.0,0.0,1.0,0.0,0.0,0.0,0.0,0.0,0.1,0.0,0.0,
3.248,80.6209232256518,96.24681056645242,-139.0,-38.0,125.0,0.0,1.0,0.0,0.0,0.0,0.0,0.0,0.0,0.0,0.2,
3.262,81.46609232256519,87.06068105664525,-121.0,-28.0,86.0,0.0,1.0,0.0,0.0,0.0,0.0,0.0,0.78,0.0,0.59,
3.275,76.28560923225652,85.96206810566453,-148.0,-55.0,222.0,0.0,1.0,0.0,0.0,0.0,0.0,0.0,2.35,0.0,2.06,
3.289,84.33556092322566,79.28220681056646,-65.0,-129.0,209.0,0.0,2.0,0.0,0.0,0.0,0.0,0.0,2.35,0.0,1.77,
3.303,83.11555609232256,77.77722068105665,20.0,-94.0,-195.0,0.0,2.0,0.0,0.0,0.0,0.0,0.0,2.16,7.65,1.18,
3.316,78.97955560923225,82.09072206810566,20.0,-43.0,-105.0,0.0,2.0,0.0,0.0,0.0,0.0,0.0,2.06,12.16,0.78,
3.331,75.73095556092323,85.46507220681056,-7.0,-7.0,84.0,0.0,2.0,0.0,0.0,0.0,0.0,0.0,2.06,13.54,0.0,
3.344,76.02709555609233,84.70450722068105,-8.0,83.0,31.0,0.0,2.0,0.0,0.0,0.0,0.0,0.0,2.16,13.15,0.0,
3.358,80.88070955560924,83.83645072206811,-8.0,75.0,-25.0,0.0,2.0,0.0,0.0,0.0,0.0,0.0,2.16,10.01,0.0,
3.372,84.46207095556092,85.24364507220682,-9.0,10.0,-14.0,0.0,2.0,0.0,0.0,0.0,0.0,0.0,2.16,9.12,0.0,
3.385,85.94520709555609,86.10436450722068,-12.0,-16.0,13.0,0.0,2.0,0.0,0.0,0.0,0.0,0.0,2.06,9.12,0.0,
3.399,86.47152070955562,85.38043645072206,-6.0,-25.0,15.0,0.0,2.0,0.0,0.0,0.0,0.0,0.0,2.06,9.71,0.1,
3.412,86.37115207095556,85.05604364507221,0.0,-24.0,-13.0,0.0,2.0,0.0,0.0,0.0,0.0,0.0,2.26,10.79,0.39,
3.427,85.76711520709557,85.72560436450722,0.0,-21.0,-4.0,0.0,2.0,0.0,0.0,0.0,0.0,0.0,2.35,13.15,0.59,
3.44,85.31071152070956,86.28756043645072,-1.0,-17.0,8.0,0.0,2.0,0.0,0.0,0.0,0.0,0.0,2.45,14.03,1.08,
3.453,84.68007115207095,86.25375604364507,-3.0,-2.0,-2.0,0.0,2.0,0.0,0.0,0.0,0.0,0.0,2.65,14.72,1.28,
3.468,84.05000711520711,86.52937560436452,-1.0,0.0,-5.0,0.0,2.0,0.0,0.0,0.0,0.0,0.0,2.75,15.3,1.57,
3.481,83.77100071152071,86.75493756043646,-1.0,0.0,-2.0,0.0,2.0,0.0,0.0,0.0,0.0,0.0,2.75,15.7,1.77,
3.495,83.94110007115206,86.92149375604365,0.0,0.0,0.0,0.0,2.0,1.0,0.0,0.0,0.0,0.0,2.84,15.7,1.86,
3.509,84.1741100071152,86.85714937560435,1.0,0.0,-1.0,0.0,2.0,1.0,0.0,0.0,0.0,0.0,2.94,15.4,2.55,
3.522,84.34141100071153,86.97671493756043,2.0,0.0,-4.0,0.0,2.0,1.0,0.0,0.0,0.0,0.0,2.94,14.91,2.84,
3.535,84.47514110007114,87.22267149375605,1.0,-4.0,-2.0,0.0,2.0,1.0,0.0,0.0,0.0,0.0,3.04,14.22,3.14,
3.55,84.40751411000713,87.4722671493756,0.0,-5.0,-2.0,0.0,3.0,1.0,0.0,0.0,0.0,0.0,3.14,14.22,3.53,
3.563,84.31075141100072,87.72222671493756,-1.0,-1.0,-2.0,0.0,2.0,1.0,0.0,0.0,0.0,0.0,3.24,14.42,4.12,
3.576,84.26507514110007,87.86422267149375,-1.0,0.0,-2.0,0.0,3.0,1.0,0.0,0.0,0.0,0.0,3.24,14.62,4.32,
3.591,84.33250751411,87.85142226714937,-3.0,3.0,-4.0,0.0,3.0,1.0,0.0,0.0,0.0,0.0,3.34,15.01,4.51,
3.604,84.420250751411,87.92214222671495,-3.0,2.0,-4.0,0.0,3.0,1.0,0.0,0.0,0.0,0.0,3.43,15.21,4.71,
3.617,84.42002507514111,87.97421422267149,-3.0,2.0,-3.0,0.0,3.0,1.0,0.0,0.0,0.0,0.0,3.34,15.3,4.81,
3.632,84.3300025075141,88.05142142226715,-5.0,0.0,-1.0,0.0,3.0,1.0,0.0,0.0,0.0,0.0,3.24,15.4,4.81,
3.645,84.33000025075141,88.05014214222672,-7.0,0.0,0.0,0.0,3.0,1.0,0.0,0.0,0.0,0.0,3.14,15.5,4.71,
3.658,84.42000002507515,87.99601421422267,-7.0,2.0,0.0,0.0,3.0,1.0,0.0,0.0,0.0,0.0,3.04,15.99,4.61,
3.673,84.54600000250751,87.93660142142228,-7.0,2.0,0.0,0.0,3.0,1.0,0.0,0.0,0.0,0.0,2.94,16.28,4.51,
3.686,84.65760000025075,87.77766014214224,-6.0,2.0,-2.0,0.0,3.0,1.0,0.0,0.0,0.0,0.0,2.84,16.58,4.22,
3.699,84.72276000002508,87.68076601421423,-6.0,0.0,-2.0,0.0,3.0,1.0,0.0,0.0,0.0,0.0,2.65,16.87,4.22,
3.714,84.66627600000251,87.55407660142143,-5.0,0.0,-1.0,0.0,3.0,1.0,0.0,0.0,0.0,0.0,2.55,17.27,4.02,
3.727,84.66962760000025,87.50540766014214,-4.0,0.0,-1.0,0.0,2.0,1.0,0.0,0.0,0.0,0.0,2.45,17.56,3.92,
3.74,84.69696276000003,87.42854076601421,-4.0,1.0,-2.0,0.0,3.0,1.0,0.0,0.0,0.0,0.0,2.35,17.66,3.73,
3.755,84.62769627600001,87.42985407660143,-3.0,2.0,-2.0,0.0,3.0,1.0,0.0,0.0,0.0,0.0,2.35,17.85,3.63,
3.768,84.6387696276,87.51098540766014,-4.0,3.0,0.0,0.0,3.0,1.0,0.0,0.0,0.0,0.0,2.35,17.76,3.53,
3.781,84.72087696276,87.46509854076601,-5.0,0.0,0.0,0.0,3.0,1.0,0.0,0.0,0.0,0.0,2.26,17.76,3.43,
3.794,84.819087696276,87.43350985407662,-4.0,1.0,-2.0,0.0,3.0,1.0,0.0,0.0,0.0,0.0,2.16,17.85,3.43,
3.809,84.90090876962759,87.45735098540766,-6.0,1.0,-1.0,0.0,3.0,1.0,0.0,0.0,0.0,0.0,2.06,17.95,3.34,
3.822,85.02609087696275,87.41473509854076,-6.0,0.0,-1.0,0.0,3.0,1.0,0.0,0.0,0.0,0.0,2.06,18.05,3.24,
3.835,85.11960908769628,87.36547350985407,-6.0,0.0,-3.0,0.0,3.0,1.0,0.0,0.0,0.0,0.0,1.96,18.54,3.14,
3.849,84.96696090876962,87.2525473509854,-7.0,-1.0,-3.0,0.0,3.0,1.0,0.0,0.0,0.0,0.0,1.86,18.84,3.04,
3.863,85.00569609087697,87.24125473509852,-7.0,0.0,-3.0,0.0,2.0,1.0,0.0,0.0,0.0,0.0,1.77,19.13,2.55,
3.876,85.2345696090877,87.14112547350985,-6.0,0.0,-2.0,0.0,2.0,1.0,0.0,0.0,0.0,0.0,1.77,19.42,2.45,
3.89,85.22145696090878,86.92411254735099,-5.0,-1.0,-1.0,0.0,2.0,1.0,0.0,0.0,0.0,0.0,1.67,1038.09,2.35,
3.904,85.32814569609089,87.01041125473509,-2.0,-2.0,0.0,0.0,2.0,1.0,0.0,0.0,0.0,0.0,1.67,0.0,2.26,
3.917,85.48281456960909,87.3430411254735,-1.0,0.0,-11.0,0.0,2.0,1.0,0.0,0.0,0.0,0.0,1.67,19.33,2.16,
3.931,85.21028145696091,87.55630411254735,-6.0,0.0,5.0,0.0,2.0,1.0,0.0,0.0,0.0,0.0,1.67,19.33,2.06,
3.944,85.53402814569608,87.32563041125472,-2.0,0.0,-5.0,0.0,3.0,1.0,0.0,0.0,0.0,0.0,1.57,19.13,1.96,
3.957,85.3684028145696,87.24856304112546,-3.0,-7.0,1.0,0.0,3.0,1.0,0.0,0.0,0.0,0.0,1.47,18.84,1.96,
3.972,85.36984028145697,87.13285630411255,-2.0,0.0,-2.0,0.0,3.0,1.0,0.0,0.0,0.0,0.0,1.47,18.74,1.96,
3.985,85.3519840281457,87.09428563041125,-1.0,-4.0,1.0,0.0,3.0,1.0,0.0,0.0,0.0,0.0,1.47,18.64,1.86,
3.998,85.33219840281457,86.93742856304114,0.0,-5.0,0.0,0.0,3.0,1.0,0.0,0.0,0.0,0.0,1.47,18.34,1.86,
4.012,85.31221984028147,86.95774285630411,1.0,-5.0,0.0,0.0,3.0,1.0,0.0,0.0,0.0,0.0,1.67,17.76,1.96,
4.025,85.14822198402815,86.90577428563041,1.0,-5.0,0.0,0.0,2.0,1.0,0.0,0.0,0.0,0.0,1.67,17.46,2.06,
4.039,85.05982219840281,86.90057742856305,2.0,-3.0,0.0,0.0,2.0,0.0,0.0,0.0,0.0,0.0,1.86,17.27,2.26,
4.052,85.02398221984028,86.8370577428563,1.0,-3.0,0.0,0.0,2.0,0.0,0.0,0.0,0.0,0.0,1.96,17.17,2.35,
4.066,84.84039822198402,86.92970577428562,3.0,-6.0,-1.0,0.0,2.0,0.0,0.0,0.0,0.0,0.0,2.16,16.87,2.45,
4.079,84.6330398221984,87.01097057742857,2.0,-4.0,0.0,0.0,2.0,0.0,0.0,0.0,0.0,0.0,2.35,16.38,2.65,
4.092,84.52230398221985,87.12709705774286,2.0,-3.0,-1.0,0.0,2.0,0.0,0.0,0.0,0.0,0.0,2.55,16.09,2.75,
4.107,84.39423039822198,87.15670970577429,1.0,-1.0,-3.0,0.0,2.0,0.0,0.0,0.0,0.0,0.0,2.65,15.79,2.84,
4.12,84.3004230398222,87.29467097057744,0.0,0.0,-3.0,0.0,2.0,0.0,0.0,0.0,0.0,0.0,2.84,15.5,2.84,
4.133,84.31804230398221,87.34446709705773,0.0,0.0,-1.0,0.0,2.0,0.0,0.0,0.0,0.0,0.0,2.94,15.4,2.84,
4.147,84.3468042303982,87.37644670970576,0.0,0.0,-2.0,0.0,2.0,0.0,0.0,0.0,0.0,0.0,3.04,15.01,2.84,
4.16,84.28668042303983,87.46964467097058,0.0,-1.0,-1.0,0.0,2.0,0.0,0.0,0.0,0.0,0.0,3.24,14.81,2.84,
4.174,84.30766804230399,87.51496446709706,0.0,-1.0,-1.0,0.0,2.0,0.0,0.0,0.0,0.0,0.0,3.24,14.81,2.84,
4.188,84.3457668042304,87.52849644670971,0.0,-1.0,-2.0,0.0,2.0,0.0,0.0,0.0,0.0,0.0,3.34,14.62,3.04,
4.202,84.32257668042303,87.65584964467098,0.0,0.0,-2.0,0.0,2.0,0.0,0.0,0.0,0.0,0.0,3.34,14.32,3.04,
4.215,84.3382576680423,87.7225849644671,-1.0,0.0,-1.0,0.0,2.0,0.0,0.0,0.0,0.0,0.0,3.34,14.22,3.14,
4.229,84.29482576680424,87.81925849644671,-2.0,0.0,-1.0,0.0,2.0,0.0,0.0,0.0,0.0,0.0,3.34,14.13,3.24,
4.243,84.30848257668043,87.84692584964466,-2.0,0.0,-1.0,0.0,2.0,0.0,0.0,0.0,0.0,0.0,3.43,14.13,3.34,
4.256,84.32784825766805,87.83169258496446,-3.0,0.0,-1.0,0.0,2.0,0.0,0.0,0.0,0.0,0.0,3.34,14.32,3.34,
4.27,84.3477848257668,87.85716925849644,-3.0,0.0,-1.0,0.0,2.0,0.0,0.0,0.0,0.0,0.0,3.34,14.42,3.34,
4.284,84.34077848257668,87.80571692584964,-3.0,0.0,0.0,0.0,2.0,0.0,0.0,0.0,0.0,0.0,3.24,14.52,3.24,
4.297,84.34907784825766,87.80957169258497,-3.0,0.0,-1.0,0.0,2.0,0.0,0.0,0.0,0.0,0.0,3.14,14.62,3.24,
4.311,84.39490778482578,87.8189571692585,-4.0,0.0,-1.0,0.0,2.0,0.0,0.0,0.0,0.0,0.0,3.04,14.72,3.04,
4.325,84.46249077848258,87.80189571692584,-4.0,0.0,-1.0,0.0,2.0,0.0,0.0,0.0,0.0,0.0,3.04,15.11,2.94,
4.338,84.42424907784826,87.7101895716926,-4.0,0.0,-1.0,0.0,2.0,0.0,0.0,0.0,0.0,0.0,2.94,15.21,2.65,
4.352,84.44742490778484,87.65601895716927,-5.0,0.0,-1.0,0.0,2.0,0.0,0.0,0.0,0.0,0.0,2.94,15.4,2.45,
4.366,84.44074249077848,87.62360189571693,-5.0,0.0,-1.0,0.0,2.0,0.0,0.0,0.0,0.0,0.0,2.94,15.7,2.35,
4.379,84.37707424907785,87.6203601895717,-5.0,0.0,-1.0,0.0,2.0,0.0,0.0,0.0,0.0,0.0,2.75,16.19,2.16,
4.392,84.33470742490779,87.59303601895718,-5.0,0.0,-1.0,0.0,2.0,0.0,0.0,0.0,0.0,0.0,2.65,16.48,1.86,
4.407,84.28547074249079,87.57230360189573,-5.0,0.0,-1.0,0.0,2.0,0.0,0.0,0.0,0.0,0.0,2.55,16.68,1.57,
4.42,84.36154707424909,87.44423036018958,-4.0,0.0,-1.0,0.0,2.0,0.0,0.0,0.0,0.0,0.0,2.45,16.97,1.47,
4.433,84.36915470742491,87.38642303601895,-4.0,0.0,-1.0,0.0,2.0,0.0,0.0,0.0,0.0,0.0,2.35,17.36,1.37,
4.448,84.35191547074248,87.38964230360189,-4.0,0.0,0.0,0.0,2.0,0.0,0.0,0.0,0.0,0.0,2.35,17.56,1.18,
4.461,84.35019154707425,87.28196423036017,-4.0,0.0,-1.0,0.0,2.0,0.0,0.0,0.0,0.0,0.0,2.26,17.76,0.88,
4.474,84.38601915470743,87.28019642303602,-4.0,0.0,-1.0,0.0,2.0,0.0,0.0,0.0,0.0,0.0,2.16,17.95,0.78,
4.489,84.36260191547075,87.2350196423036,-4.0,0.0,-1.0,0.0,2.0,0.0,0.0,0.0,0.0,0.0,2.16,18.05,0.69,
4.502,84.39626019154709,87.21250196423034,-4.0,0.0,-1.0,0.0,2.0,0.0,0.0,0.0,0.0,0.0,2.16,18.44,0.59,
4.515,84.32762601915469,87.18325019642303,-5.0,0.0,-2.0,0.0,1.0,0.0,0.0,0.0,0.0,0.0,2.06,18.54,0.29,
4.53,84.33876260191548,87.27032501964231,-5.0,3.0,-2.0,0.0,1.0,0.0,0.0,0.0,0.0,0.0,1.96,18.74,0.2,
4.543,84.36687626019156,87.22503250196424,-5.0,2.0,-1.0,0.0,1.0,0.0,0.0,0.0,0.0,0.0,1.96,18.84,0.0,
4.556,84.45068762601915,87.19350325019643,-4.0,0.0,0.0,0.0,1.0,0.0,0.0,0.0,0.0,0.0,1.96,19.13,0.0,
4.57,84.52206876260192,87.08235032501965,-4.0,0.0,-1.0,0.0,1.0,0.0,0.0,0.0,0.0,0.0,1.77,19.42,0.0,
4.583,84.56520687626019,86.99923503250196,-5.0,1.0,-2.0,0.0,1.0,0.0,0.0,0.0,0.0,0.0,1.86,19.62,0.0,
4.597,84.57852068762602,86.97292350325019,-4.0,2.0,-2.0,0.0,1.0,0.0,0.0,0.0,0.0,0.0,1.77,19.72,0.0,
4.611,84.6158520687626,86.91629235032501,-4.0,2.0,-2.0,0.0,1.0,0.0,0.0,0.0,0.0,0.0,1.67,19.82,0.0,
4.624,84.70958520687627,86.8386292350325,-5.0,0.0,-1.0,0.0,1.0,0.0,0.0,0.0,0.0,0.0,1.67,20.11,0.0,
4.637,84.78195852068764,86.75886292350324,-4.0,1.0,-2.0,0.0,1.0,0.0,0.0,0.0,0.0,0.0,1.57,20.31,0.0,
4.652,84.79819585206876,86.71488629235033,-4.0,0.0,-1.0,0.0,1.0,0.0,0.0,0.0,0.0,0.0,1.57,20.4,0.0,
4.665,84.79081958520688,86.67448862923503,-4.0,0.0,-1.0,0.0,1.0,0.0,0.0,0.0,0.0,0.0,1.57,20.5,0.0,
4.678,84.75408195852069,86.6434488629235,-4.0,0.0,-1.0,0.0,1.0,0.0,0.0,0.0,0.0,0.0,1.57,20.8,0.0,
4.691,84.77740819585208,86.66734488629235,-4.0,0.0,-1.0,0.0,1.0,0.0,0.0,0.0,0.0,0.0,1.57,20.9,0.0,
4.705,84.78874081958521,86.62473448862924,-4.0,0.0,-1.0,0.0,1.0,0.0,0.0,0.0,0.0,0.0,1.47,20.99,0.0,
4.719,84.81687408195852,86.58447344886292,-4.0,0.0,-1.0,0.0,1.0,0.0,0.0,0.0,0.0,0.0,1.37,21.09,0.0,
4.732,84.84668740819585,86.49944734488628,-4.0,0.0,-1.0,0.0,1.0,0.0,0.0,0.0,0.0,0.0,1.37,21.19,0.0,
4.746,84.8676687408196,86.45494473448863,-4.0,0.0,-1.0,0.0,1.0,0.0,0.0,0.0,0.0,0.0,1.47,21.29,0.0,
4.759,84.93276687408195,86.41449447344887,-4.0,0.0,-1.0,0.0,1.0,0.0,0.0,0.0,0.0,0.0,1.37,21.48,0.0,
4.773,84.9572766874082,86.41944944734489,-4.0,0.0,0.0,0.0,1.0,0.0,0.0,0.0,0.0,0.0,1.37,21.68,0.0,
4.787,84.92372766874081,86.3839449447345,-3.0,-1.0,-1.0,0.0,1.0,0.0,0.0,0.0,0.0,0.0,1.37,21.78,0.0,
4.8,84.8753727668741,86.39839449447345,-3.0,-1.0,0.0,0.0,1.0,0.0,0.0,0.0,0.0,0.0,1.37,21.97,0.0,
4.813,84.8255372766874,86.41783944944734,-3.0,0.0,0.0,0.0,1.0,0.0,0.0,0.0,0.0,0.0,1.37,22.07,0.0,
4.827,84.84755372766874,86.42878394494474,-3.0,0.0,-1.0,0.0,1.0,0.0,0.0,0.0,0.0,0.0,1.37,22.07,0.0,
4.841,84.81375537276688,86.47487839449448,-3.0,0.0,0.0,0.0,1.0,0.0,0.0,0.0,0.0,0.0,1.37,22.07,0.0,
4.854,84.8373755372767,86.41648783944945,-3.0,-1.0,0.0,0.0,1.0,0.0,0.0,0.0,0.0,0.0,1.37,22.07,0.0,
4.868,84.84873755372766,86.39264878394495,-3.0,-1.0,-1.0,0.0,1.0,0.0,0.0,0.0,0.0,0.0,1.28,22.27,0.0,
4.881,84.85887375537276,86.3362648783945,-3.0,-1.0,0.0,0.0,1.0,0.0,0.0,0.0,0.0,0.0,1.28,22.37,0.0,
4.895,84.79688737553728,86.28562648783945,-2.0,-1.0,-1.0,0.0,1.0,0.0,0.0,0.0,0.0,0.0,1.37,22.56,0.0,
4.909,84.68268873755373,86.30756264878394,-2.0,-1.0,-1.0,0.0,1.0,0.0,0.0,0.0,0.0,0.0,1.47,22.66,0.0,
4.922,84.61726887375538,86.3007562648784,-2.0,0.0,-1.0,0.0,1.0,0.0,0.0,0.0,0.0,0.0,1.37,22.76,0.0,
4.935,84.65572688737554,86.24607562648784,-2.0,0.0,-1.0,0.0,1.0,0.0,0.0,0.0,0.0,0.0,1.37,22.86,0.0,
4.95,84.67757268873756,86.29460756264878,-2.0,0.0,-1.0,0.0,1.0,0.0,0.0,0.0,0.0,0.0,1.37,22.76,0.0,
4.963,84.65275726887376,86.29046075626488,-2.0,0.0,-1.0,0.0,1.0,0.0,0.0,0.0,0.0,0.0,1.28,22.76,0.0,
4.976,84.64127572688737,86.30804607562649,-2.0,0.0,-1.0,0.0,1.0,0.0,0.0,0.0,0.0,0.0,1.37,22.66,0.0,
4.989,84.60412757268874,86.28280460756265,-2.0,0.0,-1.0,0.0,1.0,0.0,0.0,0.0,0.0,0.0,1.37,22.76,0.0,
5.004,84.64541275726887,86.32528046075626,-2.0,0.0,-1.0,0.0,1.0,0.0,0.0,0.0,0.0,0.0,1.37,22.76,0.0,
5.017,84.7485412757269,86.32052804607562,-2.0,0.0,-1.0,0.0,1.0,0.0,0.0,0.0,0.0,0.0,1.37,22.76,0.0,
5.03,84.75885412757269,86.33805280460757,-2.0,0.0,-1.0,0.0,1.0,0.0,0.0,0.0,0.0,0.0,1.37,22.86,0.0,
5.044,84.76888541275726,86.33980528046075,-2.0,0.0,-1.0,0.0,1.0,0.0,0.0,0.0,0.0,0.0,1.37,22.96,0.0,
5.057,84.77888854127573,86.39398052804609,-2.0,0.0,-1.0,0.0,1.0,0.0,0.0,0.0,0.0,0.0,1.37,22.96,0.0,
5.071,84.77988885412758,86.39039805280461,-2.0,0.0,-1.0,0.0,1.0,0.0,0.0,0.0,0.0,0.0,1.37,22.96,0.0,
5.085,84.75298888541276,86.37203980528047,-2.0,0.0,-1.0,0.0,1.0,0.0,0.0,0.0,0.0,0.0,1.37,22.96,0.0,
5.098,84.66029888854128,86.30720398052804,-1.0,0.0,-1.0,0.0,1.0,0.0,0.0,0.0,0.0,0.0,1.37,22.96,0.0,
5.111,84.56102988885412,86.2107203980528,-2.0,0.0,-4.0,0.0,1.0,0.0,0.0,0.0,0.0,0.0,1.37,22.96,0.0,
5.126,84.66810298888541,86.30007203980529,-3.0,3.0,-2.0,0.0,1.0,0.0,0.0,0.0,0.0,0.0,1.28,22.96,0.0,
5.139,84.78681029888853,86.33600720398053,-2.0,-1.0,0.0,0.0,1.0,0.0,0.0,0.0,0.0,0.0,1.18,22.96,0.0,
5.152,84.67268102988885,86.33060072039805,-2.0,1.0,1.0,0.0,1.0,0.0,0.0,0.0,0.0,0.0,1.18,23.05,0.0,
5.166,84.79626810298889,86.15906007203981,0.0,-3.0,-1.0,0.0,1.0,0.0,0.0,0.0,0.0,0.0,1.18,22.96,0.0,
5.179,84.65562681029888,86.25890600720398,-1.0,-2.0,0.0,0.0,1.0,0.0,0.0,0.0,0.0,0.0,1.37,22.76,0.0,
5.193,84.6325626810299,86.3138906007204,-1.0,1.0,-1.0,0.0,1.0,0.0,0.0,0.0,0.0,0.0,1.37,22.66,0.0,
5.207,84.711256268103,86.33738906007204,-2.0,0.0,0.0,0.0,1.0,0.0,0.0,0.0,0.0,0.0,1.37,22.56,0.0,
5.22,84.7551256268103,86.2677389060072,-1.0,0.0,-1.0,0.0,1.0,0.0,0.0,0.0,0.0,0.0,1.37,22.37,0.0,
5.233,84.66051256268103,86.33277389060072,-1.0,0.0,0.0,0.0,1.0,0.0,0.0,0.0,0.0,0.0,1.47,22.37,0.0,
5.246,84.5880512562681,86.30327738906007,-1.0,0.0,0.0,0.0,1.0,0.0,0.0,0.0,0.0,0.0,1.37,22.27,0.0,
5.26,84.59880512562681,86.309327738906,0.0,0.0,0.0,0.0,1.0,0.0,0.0,0.0,0.0,0.0,1.47,21.97,0.0,
5.273,84.62688051256268,86.3189327738906,0.0,0.0,0.0,0.0,1.0,0.0,0.0,0.0,0.0,0.0,1.47,21.78,0.0,
5.286,84.63868805125627,86.29289327738906,0.0,-1.0,0.0,0.0,1.0,0.0,0.0,0.0,0.0,0.0,1.47,21.48,0.0,
5.3,84.62186880512563,86.38928932773891,0.0,0.0,-1.0,0.0,1.0,0.0,0.0,0.0,0.0,0.0,1.57,20.8,0.0,
5.314,84.63818688051256,86.4619289327739,0.0,0.0,0.0,0.0,1.0,0.0,0.0,0.0,0.0,0.0,1.67,20.31,0.0,
5.327,84.63981868805126,86.46019289327738,0.0,0.0,0.0,0.0,1.0,0.0,0.0,0.0,0.0,0.0,1.67,19.91,0.0,
5.341,84.62198186880512,86.56801928932774,0.0,0.0,-1.0,0.0,1.0,0.0,0.0,0.0,0.0,0.0,1.67,19.62,0.0,
5.354,84.67419818688052,86.68680192893277,0.0,0.0,0.0,0.0,1.0,0.0,0.0,0.0,0.0,0.0,1.67,19.13,0.1,
5.367,84.68841981868806,86.67168019289328,-1.0,0.0,-1.0,0.0,1.0,0.0,0.0,0.0,0.0,0.0,1.67,19.03,0.2,
5.381,84.68084198186881,86.76016801928932,-1.0,1.0,-2.0,0.0,1.0,0.0,0.0,0.0,0.0,0.0,1.67,18.84,0.49,
5.394,84.74308419818689,86.76901680192893,-1.0,0.0,0.0,0.0,1.0,0.0,0.0,0.0,0.0,0.0,1.77,18.84,0.49,
5.408,84.76730841981868,86.77890168019289,-1.0,0.0,-1.0,0.0,1.0,0.0,0.0,0.0,0.0,0.0,1.86,18.84,0.49,
5.422,84.67973084198186,86.7888901680193,-1.0,0.0,0.0,0.0,1.0,0.0,0.0,0.0,0.0,0.0,1.86,18.74,0.49,
5.435,84.7159730841982,86.77188901680194,-1.0,0.0,0.0,0.0,1.0,0.0,0.0,0.0,0.0,0.0,1.86,18.64,0.59,
5.448,84.65659730841982,86.7971889016802,-1.0,0.0,-1.0,0.0,1.0,0.0,0.0,0.0,0.0,0.0,1.86,18.64,0.69,
5.462,84.73165973084197,86.79071889016802,-2.0,0.0,0.0,0.0,1.0,0.0,0.0,0.0,0.0,0.0,1.77,18.54,0.69,
5.475,84.7211659730842,86.7810718890168,-2.0,-1.0,0.0,0.0,1.0,0.0,0.0,0.0,0.0,0.0,1.86,18.44,0.78,
5.489,84.72011659730842,86.69910718890168,-2.0,-1.0,0.0,0.0,1.0,0.0,0.0,0.0,0.0,0.0,1.86,18.25,0.78,
5.502,84.75601165973085,86.72691071889017,-2.0,0.0,-1.0,0.0,1.0,0.0,0.0,0.0,0.0,0.0,1.77,18.25,0.78,
5.516,84.74160116597308,86.73869107188902,-2.0,0.0,0.0,0.0,1.0,0.0,0.0,0.0,0.0,0.0,1.86,18.34,0.78,
5.529,84.70416011659731,86.73086910718891,-2.0,-1.0,0.0,0.0,1.0,0.0,0.0,0.0,0.0,0.0,1.86,18.44,0.78,
5.542,84.72741601165973,86.81108691071888,-2.0,0.0,-1.0,0.0,1.0,0.0,0.0,0.0,0.0,0.0,1.86,18.54,0.69,
5.557,84.72074160116597,86.76510869107189,-2.0,0.0,-1.0,0.0,1.0,0.0,0.0,0.0,0.0,0.0,1.86,18.54,0.59,
5.57,84.7200741601166,86.7875108691072,-2.0,0.0,0.0,0.0,1.0,0.0,0.0,0.0,0.0,0.0,1.86,18.64,0.59,
5.583,84.72000741601167,86.78975108691073,-2.0,0.0,-1.0,0.0,1.0,0.0,0.0,0.0,0.0,0.0,1.86,18.64,0.59,
5.597,84.65700074160117,86.78997510869108,-2.0,0.0,-1.0,0.0,1.0,0.0,0.0,0.0,0.0,0.0,1.86,18.74,0.49,
5.61,84.69570007416011,86.78999751086911,-2.0,0.0,-1.0,0.0,1.0,0.0,0.0,0.0,0.0,0.0,1.77,18.84,0.49,
5.624,84.762570007416,86.78999975108691,-2.0,0.0,-1.0,0.0,1.0,0.0,0.0,0.0,0.0,0.0,1.86,18.93,0.39,
5.638,84.74225700074159,86.8259999751087,-2.0,0.0,-1.0,0.0,1.0,0.0,0.0,0.0,0.0,0.0,1.77,19.03,0.29,
5.651,84.82122570007415,86.82059999751085,-3.0,0.0,-1.0,0.0,1.0,0.0,0.0,0.0,0.0,0.0,1.77,19.23,0.29,
5.664,84.88312257000742,86.82005999975108,-3.0,0.0,-1.0,0.0,1.0,0.0,0.0,0.0,0.0,0.0,1.77,19.33,0.29,
5.679,84.89831225700075,86.8200059999751,-3.0,0.0,-1.0,0.0,1.0,0.0,0.0,0.0,0.0,0.0,1.67,19.52,0.1,
5.692,84.90883122570007,86.77500059999751,-3.0,0.0,-1.0,0.0,1.0,0.0,0.0,0.0,0.0,0.0,1.57,19.72,0.1,
5.705,84.94588312257001,86.72550005999975,-3.0,0.0,-1.0,0.0,1.0,0.0,0.0,0.0,0.0,0.0,1.57,19.91,0.0,
5.719,84.95858831225699,86.66655000599997,-3.0,0.0,-1.0,0.0,1.0,0.0,0.0,0.0,0.0,0.0,1.57,20.11,0.0,
5.732,84.9598588312257,86.6066550006,-3.0,0.0,-1.0,0.0,1.0,0.0,0.0,0.0,0.0,0.0,1.57,20.4,0.0,
5.746,84.88798588312257,86.58266550005999,-3.0,0.0,-1.0,0.0,1.0,0.0,0.0,0.0,0.0,0.0,1.57,20.6,0.0,
5.76,84.93479858831225,86.562266550006,-3.0,0.0,-1.0,0.0,1.0,0.0,0.0,0.0,0.0,0.0,1.47,20.7,0.0,
5.773,84.90347985883123,86.5422266550006,-3.0,0.0,-1.0,0.0,1.0,0.0,0.0,0.0,0.0,0.0,1.47,20.99,0.0,
5.786,84.91834798588312,86.51322266550007,-3.0,0.0,-1.0,0.0,1.0,0.0,0.0,0.0,0.0,0.0,1.47,21.29,0.0,
5.799,84.93783479858831,86.48332226655002,-3.0,0.0,-1.0,0.0,1.0,0.0,0.0,0.0,0.0,0.0,1.47,21.48,0.0,
5.814,84.93978347985883,86.426332226655,-3.0,0.0,-1.0,0.0,1.0,0.0,0.0,0.0,0.0,0.0,1.47,21.48,0.0,
5.827,84.94897834798589,86.4206332226655,-3.0,0.0,-1.0,0.0,1.0,0.0,0.0,0.0,0.0,0.0,1.47,21.48,0.0,
5.84,84.96789783479859,86.39306332226656,-2.0,0.0,-1.0,0.0,1.0,0.0,0.0,0.0,0.0,0.0,1.37,21.58,0.0,
5.854,84.96978978347985,86.38130633222666,-2.0,0.0,0.0,0.0,1.0,0.0,0.0,0.0,0.0,0.0,1.37,21.78,0.0,
5.867,85.01497897834798,86.32613063322266,-2.0,0.0,-1.0,0.0,1.0,0.0,0.0,0.0,0.0,0.0,1.37,21.78,0.0,
5.881,84.9924978978348,86.34761306332227,-1.0,0.0,0.0,0.0,1.0,0.0,0.0,0.0,0.0,0.0,1.37,21.68,0.0,
5.895,84.98124978978348,86.34076130633223,-1.0,0.0,0.0,0.0,1.0,0.0,0.0,0.0,0.0,0.0,1.37,21.58,0.0,
5.908,84.96212497897835,86.30407613063322,0.0,-1.0,0.0,0.0,1.0,0.0,0.0,0.0,0.0,0.0,1.37,21.48,0.0,
5.921,85.01421249789783,86.35440761306333,0.0,0.0,0.0,0.0,1.0,0.0,0.0,0.0,0.0,0.0,1.37,20.99,0.0,
5.935,85.00142124978979,86.48544076130634,0.0,-1.0,0.0,0.0,1.0,0.0,0.0,0.0,0.0,0.0,1.37,20.6,0.0,
5.948,84.94614212497898,86.53454407613064,-1.0,-2.0,0.0,0.0,1.0,0.0,0.0,0.0,0.0,0.0,1.47,20.11,0.0,
5.961,84.86861421249789,86.53045440761308,-1.0,-1.0,0.0,0.0,1.0,0.0,0.0,0.0,0.0,0.0,1.57,19.91,0.0,
5.976,84.80686142124978,86.5480454407613,-1.0,-1.0,0.0,0.0,1.0,0.0,0.0,0.0,0.0,0.0,1.57,19.52,0.0,
5.989,84.80068614212497,86.59480454407613,-1.0,0.0,0.0,0.0,1.0,0.0,0.0,0.0,0.0,0.0,1.57,19.42,0.0,
6.002,84.7820686142125,86.59948045440761,-1.0,-1.0,0.0,0.0,1.0,0.0,0.0,0.0,0.0,0.0,1.57,19.33,0.0,
6.016,84.71720686142123,86.61794804544077,-1.0,-1.0,0.0,0.0,1.0,0.0,0.0,0.0,0.0,0.0,1.57,19.23,0.1,
6.03,84.68372068614212,86.64679480454409,-1.0,0.0,0.0,0.0,1.0,0.0,0.0,0.0,0.0,0.0,1.67,19.03,0.1,
6.043,84.7073720686142,86.73067948045441,-1.0,0.0,0.0,0.0,1.0,0.0,0.0,0.0,0.0,0.0,1.67,18.74,0.2,
6.056,84.70073720686142,86.72106794804544,-1.0,-1.0,0.0,0.0,1.0,0.0,0.0,0.0,0.0,0.0,1.67,18.54,0.2,
6.07,84.68207372068615,86.76510679480455,-1.0,0.0,0.0,0.0,1.0,0.0,0.0,0.0,0.0,0.0,1.67,18.34,0.29,
6.083,84.65320737206862,86.76051067948046,-1.0,0.0,0.0,0.0,1.0,0.0,0.0,0.0,0.0,0.0,1.67,18.25,0.39,
6.096,84.66832073720687,86.78705106794806,-1.0,0.0,-1.0,0.0,1.0,0.0,0.0,0.0,0.0,0.0,1.67,18.34,0.39,
6.111,84.72383207372069,86.8167051067948,-1.0,0.0,-1.0,0.0,1.0,0.0,0.0,0.0,0.0,0.0,1.67,18.05,0.49,
6.124,84.75638320737207,86.82867051067949,-1.0,0.0,-1.0,0.0,1.0,0.0,0.0,0.0,0.0,0.0,1.67,17.95,0.39,
6.137,84.75963832073721,86.83886705106795,-1.0,0.0,-1.0,0.0,1.0,0.0,0.0,0.0,0.0,0.0,1.67,17.95,0.49,
6.151,84.75996383207372,86.84888670510679,-2.0,1.0,-1.0,0.0,1.0,0.0,0.0,0.0,0.0,0.0,1.67,17.85,0.49,
6.164,84.77799638320738,86.86788867051068,-2.0,1.0,-1.0,0.0,1.0,0.0,0.0,0.0,0.0,0.0,1.67,17.85,0.49,
6.178,84.81579963832073,86.87878886705106,-1.0,1.0,-1.0,0.0,1.0,0.0,0.0,0.0,0.0,0.0,1.67,17.85,0.59,
6.192,84.84657996383207,86.8258788867051,-2.0,0.0,0.0,0.0,1.0,0.0,0.0,0.0,0.0,0.0,1.67,17.76,0.59,
6.205,84.86765799638322,86.9015878886705,-1.0,0.0,-1.0,0.0,1.0,0.0,0.0,0.0,0.0,0.0,1.67,17.76,0.59,
6.218,84.93276579963832,86.93615878886705,-2.0,0.0,-1.0,0.0,1.0,0.0,0.0,0.0,0.0,0.0,1.67,17.76,0.69,
6.232,84.93027657996385,86.90361587888671,-2.0,0.0,0.0,0.0,1.0,0.0,0.0,0.0,0.0,0.0,1.67,17.85,0.78,
6.246,84.93902765799638,86.87336158788868,-2.0,0.0,-1.0,0.0,1.0,0.0,0.0,0.0,0.0,0.0,1.67,17.76,0.78,
6.259,84.88590276579963,86.87933615878886,-2.0,0.0,0.0,0.0,1.0,0.0,0.0,0.0,0.0,0.0,1.67,17.66,0.69,
6.273,84.96159027657995,86.9429336158789,-2.0,0.0,-1.0,0.0,1.0,0.0,0.0,0.0,0.0,0.0,1.77,17.66,0.69,
6.286,84.987159027658,86.90429336158789,-2.0,0.0,-1.0,0.0,1.0,0.0,0.0,0.0,0.0,0.0,1.77,17.66,0.69,
6.299,85.0257159027658,86.88242933615878,-2.0,0.0,-1.0,0.0,1.0,0.0,0.0,0.0,0.0,0.0,1.67,17.56,0.78,
6.313,85.03857159027658,86.88024293361588,-2.0,0.0,-1.0,0.0,1.0,0.0,0.0,0.0,0.0,0.0,1.57,17.56,0.69,
6.327,85.03985715902766,86.83502429336158,-2.0,0.0,-1.0,0.0,1.0,0.0,0.0,0.0,0.0,0.0,1.67,17.56,0.69,
6.34,85.03098571590277,86.88450242933617,-2.0,0.0,0.0,0.0,1.0,0.0,0.0,0.0,0.0,0.0,1.57,17.46,0.69,
6.353,85.03909857159027,86.87145024293362,-2.0,0.0,0.0,0.0,1.0,0.0,0.0,0.0,0.0,0.0,1.67,17.56,0.59,
6.367,84.99490985715903,86.87914502429335,-2.0,0.0,0.0,0.0,1.0,0.0,0.0,0.0,0.0,0.0,1.57,17.46,0.59,
6.38,84.9904909857159,86.90691450242933,-2.0,0.0,0.0,0.0,1.0,0.0,0.0,0.0,0.0,0.0,1.57,17.46,0.49,
6.393,84.95404909857159,86.93669145024293,-2.0,0.0,0.0,0.0,1.0,0.0,0.0,0.0,0.0,0.0,1.67,17.36,0.49,
6.408,84.94140490985716,86.9306691450243,-2.0,0.0,0.0,0.0,1.0,0.0,0.0,0.0,0.0,0.0,1.67,17.27,0.39,
6.421,84.93114049098573,86.90306691450243,-3.0,0.0,0.0,0.0,1.0,0.0,0.0,0.0,0.0,0.0,1.57,16.97,0.2,
6.434,84.96611404909856,86.90030669145025,-3.0,0.0,0.0,0.0,1.0,0.0,0.0,0.0,0.0,0.0,1.47,16.78,0.0,
6.448,84.97861140490986,86.90903066914501,-4.0,0.0,0.0,0.0,1.0,0.0,0.0,0.0,0.0,0.0,1.47,16.58,0.0,
6.461,84.934861140491,86.9819030669145,-5.0,2.0,0.0,0.0,1.0,0.0,0.0,0.0,0.0,0.0,1.37,16.28,0.0,
6.474,84.93948611404909,86.98019030669145,-6.0,2.0,0.0,0.0,1.0,0.0,0.0,0.0,0.0,0.0,1.47,16.09,0.0,
6.488,84.87694861140491,86.98901903066914,-7.0,1.0,0.0,0.0,1.0,0.0,0.0,0.0,0.0,0.0,1.37,16.09,0.0,
6.502,84.81669486114049,87.03490190306692,-8.0,2.0,0.0,0.0,1.0,0.0,0.0,0.0,0.0,0.0,1.28,16.09,0.0,
6.515,84.94566948611404,86.8864901903067,-9.0,2.0,0.0,0.0,1.0,0.0,0.0,0.0,0.0,0.0,1.18,16.19,0.0,
6.529,84.9675669486114,86.81764901903067,-10.0,1.0,-2.0,0.0,1.0,0.0,0.0,0.0,0.0,0.0,1.08,16.19,0.0,
6.542,84.86175669486113,86.83776490190307,-13.0,1.0,-4.0,0.0,1.0,0.0,0.0,0.0,0.0,0.0,0.98,16.48,0.0,
6.555,85.01317566948612,86.74977649019031,-11.0,3.0,0.0,0.0,1.0,0.0,0.0,0.0,0.0,0.0,0.98,16.68,0.0,
6.568,85.32531756694861,86.48897764901902,-11.0,4.0,-2.0,0.0,0.0,0.0,0.0,0.0,0.0,0.0,0.98,16.87,0.0,
6.583,85.45553175669487,86.12989776490191,-12.0,3.0,0.0,0.0,0.0,0.0,0.0,0.0,0.0,0.0,0.88,17.27,0.0,
6.596,85.3785531756695,85.40998977649019,-16.0,5.0,-6.0,0.0,0.0,0.0,0.0,0.0,0.0,0.0,0.78,17.76,0.0,
6.609,85.28985531756696,85.14899897764903,-13.0,8.0,0.0,0.0,0.0,0.0,0.0,0.0,0.0,0.0,0.78,18.44,0.0,
6.623,85.5329855317567,85.05989989776491,-11.0,5.0,-5.0,0.0,0.0,0.0,0.0,0.0,0.0,0.0,0.78,18.84,0.0,
6.636,85.66529855317567,84.9519899897765,-9.0,0.0,-1.0,0.0,0.0,0.0,0.0,0.0,0.0,0.0,0.69,19.33,0.0,
6.649,85.77752985531758,84.95919899897764,-9.0,0.0,-4.0,0.0,0.0,0.0,0.0,0.0,0.0,0.0,0.69,19.91,0.0,
6.663,85.78875298553177,85.01391989989776,-11.0,0.0,-5.0,0.0,0.0,0.0,0.0,0.0,0.0,0.0,0.69,21.78,0.0,
6.677,85.76287529855318,85.03739198998977,-14.0,0.0,-6.0,0.0,0.0,0.0,0.0,0.0,0.0,0.0,0.69,22.96,0.0,
6.69,85.76928752985532,84.80573919899898,-15.0,2.0,-7.0,0.0,0.0,0.0,0.0,0.0,0.0,0.0,0.59,24.33,0.0,
6.704,85.96792875298553,84.4135739198999,-15.0,2.0,-10.0,0.0,0.0,0.0,0.0,0.0,0.0,0.0,0.59,25.8,0.0,
6.717,86.22179287529855,84.16735739198998,-15.0,-2.0,-11.0,0.0,0.0,0.0,0.0,0.0,0.0,0.0,0.59,27.66,0.0,
6.73,86.22017928752985,84.223735739199,-17.0,-4.0,-10.0,0.0,0.0,0.0,0.0,0.0,0.0,0.0,0.59,32.77,0.0,
6.745,86.22001792875298,84.45437357391991,-20.0,-10.0,-3.0,0.0,0.0,0.0,0.0,0.0,0.0,0.0,0.59,36.3,0.0,
6.758,86.12100179287529,84.279437357392,-16.0,-9.0,-5.0,0.0,0.0,0.0,0.0,0.0,0.0,0.0,0.49,40.32,0.0,
6.771,86.03010017928752,83.6949437357392,-14.0,-10.0,-4.0,0.0,0.0,0.0,0.0,0.0,0.0,0.0,0.49,44.83,0.0,
6.785,86.17401001792875,83.06049437357392,-12.0,-14.0,-4.0,0.0,0.0,0.0,0.0,0.0,0.0,0.0,0.49,52.48,0.0,
6.799,86.77340100179288,81.99804943735738,-6.0,-22.0,0.0,0.0,0.0,0.0,0.0,0.0,0.0,0.0,0.49,56.21,0.0,
6.812,86.47334010017929,82.30580494373575,-2.0,-14.0,2.0,0.0,0.0,0.0,0.0,0.0,0.0,0.0,0.39,60.53,0.0,
6.825,86.11933401001792,81.94058049437358,-3.0,-22.0,0.0,0.0,0.0,0.0,0.0,0.0,0.0,0.0,0.39,65.43,0.0,
6.839,84.9679334010018,81.74205804943736,-1.0,-22.0,7.0,0.0,0.0,0.0,0.0,0.0,0.0,0.0,0.39,70.34,0.0,
6.852,84.01579334010019,83.56720580494374,11.0,-13.0,-1.0,0.0,0.0,0.0,0.0,0.0,0.0,0.0,0.29,78.97,0.0,
6.865,84.40657933401003,83.12872058049437,13.0,-15.0,2.0,0.0,0.0,0.0,0.0,0.0,0.0,0.0,0.29,82.6,0.0,
6.879,84.787657933401,83.43587205804944,2.0,-19.0,-3.0,0.0,0.0,0.0,0.0,0.0,0.0,0.0,0.29,85.94,0.0,
6.893,84.78976579334011,83.43958720580494,-6.0,-16.0,4.0,0.0,0.0,0.0,0.0,0.0,0.0,0.0,0.29,89.07,0.0,
6.906,84.20497657933402,83.63795872058049,-6.0,-7.0,3.0,0.0,0.0,0.0,0.0,0.0,0.0,0.0,0.29,91.72,0.0,
6.92,83.5434976579334,83.43279587205805,-4.0,-13.0,7.0,0.0,0.0,0.0,0.0,0.0,0.0,0.0,0.29,95.35,0.0,
6.933,79.85934976579335,84.4562795872058,17.0,-10.0,-1.0,0.0,0.0,0.0,0.0,0.0,0.0,0.0,0.29,96.82,0.0,
6.947,79.77893497657932,84.91862795872058,12.0,-9.0,3.0,0.0,0.0,0.0,0.0,0.0,0.0,0.0,0.2,98.2,0.0,
6.961,79.73489349765794,84.95586279587205,17.0,-8.0,2.0,0.0,0.0,0.0,0.0,0.0,0.0,0.0,0.2,99.38,0.0,
6.974,80.3244893497658,84.09558627958721,11.0,-12.0,4.0,0.0,0.0,0.0,0.0,0.0,0.0,0.0,0.29,101.73,0.0,
6.987,80.09544893497659,85.06255862795872,10.0,-3.0,-13.0,0.0,0.0,0.0,0.0,0.0,0.0,0.0,0.29,103.2,0.0,
7.002,80.29754489349766,85.23125586279588,11.0,-6.0,-2.0,0.0,0.0,0.0,0.0,0.0,0.0,0.0,0.29,104.67,0.0,
7.015,79.93075448934977,85.32012558627959,12.0,-17.0,-1.0,0.0,0.0,0.0,0.0,0.0,0.0,0.0,0.29,105.85,0.0,
7.029,79.80407544893498,84.87901255862795,8.0,-3.0,2.0,0.0,1.0,0.0,0.0,0.0,0.0,0.0,0.2,108.69,0.0,
7.043,79.6924075448935,85.2399012558628,9.0,-14.0,1.0,1.0,1.0,0.0,0.0,0.0,0.0,0.0,0.2,110.85,0.0,
7.057,81.10324075448935,85.93299012558629,16.0,1.0,15.0,1.0,1.0,0.0,0.0,0.0,0.0,0.0,0.2,113.7,0.0,
7.07,80.61432407544893,87.06429901255864,4.0,0.0,9.0,1.0,1.0,0.0,0.0,0.0,0.0,0.0,0.2,117.03,0.0,
7.084,80.2774324075449,87.05142990125586,9.0,-6.0,3.0,1.0,1.0,0.0,0.0,0.0,0.0,0.0,0.1,120.86,0.0,
7.097,79.1637432407545,87.05914299012558,41.0,15.0,15.0,1.0,1.0,1.0,0.0,0.0,0.0,0.0,0.1,127.73,0.29,
7.111,79.59237432407545,87.34791429901256,7.0,4.0,2.0,2.0,1.0,1.0,0.0,0.0,0.0,0.0,0.1,130.28,0.88,
7.124,79.84223743240756,87.16079142990125,7.0,-11.0,-1.0,2.0,2.0,1.0,0.0,0.0,0.0,0.0,0.1,132.63,1.28,
7.138,78.67022374324077,87.46607914299013,9.0,-10.0,6.0,2.0,2.0,1.0,0.0,0.0,0.0,0.0,0.1,134.89,1.67,
7.152,79.67802237432409,87.523607914299,12.0,-2.0,10.0,2.0,2.0,1.0,0.0,0.0,0.0,0.0,0.2,138.42,2.45,
7.165,80.20180223743242,87.84436079142989,8.0,2.0,4.0,2.0,2.0,2.0,0.0,0.0,0.0,0.0,0.39,139.5,2.84,
7.179,80.28118022374325,87.75043607914299,2.0,-8.0,5.0,3.0,3.0,2.0,0.0,0.0,0.0,0.0,0.59,139.89,3.24,
7.193,81.05411802237433,87.88504360791431,-6.0,-22.0,4.0,3.0,3.0,2.0,0.0,0.0,0.0,0.0,0.78,140.09,3.53,
7.206,81.01441180223743,87.92550436079145,0.0,-22.0,8.0,3.0,3.0,2.0,0.0,0.0,0.0,0.0,1.08,140.87,3.92,
7.22,81.44244118022374,87.61455043607914,4.0,-8.0,3.0,3.0,3.0,2.0,0.0,0.0,0.0,0.0,1.77,141.56,4.12,
7.234,81.79124411802238,87.42145504360792,0.0,-5.0,15.0,4.0,3.0,2.0,0.0,0.0,0.0,0.0,2.26,141.85,4.32,
7.247,82.74412441180223,87.1591455043608,9.0,-4.0,7.0,4.0,4.0,2.0,0.0,0.0,1.0,0.0,2.84,141.56,4.61,
7.262,81.93041244118022,87.36691455043608,9.0,-14.0,7.0,4.0,4.0,2.0,0.0,0.0,1.0,0.0,3.53,140.58,4.91,
7.275,81.10204124411803,87.68469145504362,8.0,-8.0,6.0,4.0,4.0,2.0,0.0,0.0,1.0,0.0,5.4,135.77,5.69,
7.289,80.16420412441181,87.95946914550436,12.0,-23.0,6.0,4.0,4.0,3.0,0.0,0.0,1.0,0.0,6.57,132.04,6.18,
7.303,79.45842041244117,88.25694691455044,8.0,-5.0,21.0,5.0,5.0,3.0,0.0,0.0,1.0,0.0,7.95,127.14,6.87,
7.317,79.61284204124412,89.10569469145504,22.0,-22.0,-18.0,5.0,5.0,3.0,0.0,0.0,1.0,0.0,9.61,121.25,7.55,
7.331,79.08828420412442,88.55156946914549,3.0,-4.0,7.0,5.0,5.0,3.0,0.0,1.0,1.0,0.0,12.95,109.48,9.03,
7.345,78.47782842041244,88.66715694691456,1.0,-5.0,2.0,5.0,5.0,3.0,0.0,1.0,2.0,0.0,14.42,104.87,9.61,
7.359,79.70378284204125,88.84971569469145,-3.0,-11.0,5.0,5.0,5.0,3.0,0.0,1.0,2.0,0.0,15.7,100.85,10.1,
7.373,79.48437828420413,88.72397156946914,0.0,0.0,0.0,5.0,5.0,3.0,0.0,1.0,2.0,0.0,16.78,92.8,11.18,
7.387,77.48243782842042,89.44939715694692,11.0,7.0,18.0,5.0,5.0,3.0,0.0,1.0,2.0,0.0,18.74,88.39,11.77,
7.401,76.58924378284203,89.4499397156947,1.0,3.0,-9.0,5.0,5.0,3.0,0.0,1.0,2.0,0.0,19.42,83.97,12.36,
7.415,77.34592437828421,89.80999397156947,0.0,1.0,0.0,5.0,5.0,3.0,0.0,1.0,2.0,0.0,20.01,80.15,12.75,
7.429,77.59259243782843,89.61199939715695,-3.0,8.0,-3.0,5.0,5.0,3.0,0.0,2.0,2.0,0.0,20.4,73.77,13.54,
7.443,77.83325924378283,89.6731999397157,-1.0,1.0,0.0,5.0,5.0,3.0,0.0,2.0,2.0,0.0,20.7,70.93,13.93,
7.457,78.1903259243783,89.75131999397158,-3.0,8.0,-3.0,5.0,5.0,3.0,0.0,2.0,3.0,0.0,21.29,68.28,14.32,
7.472,78.41503259243783,89.75013199939715,-3.0,3.0,-1.0,5.0,5.0,3.0,0.0,2.0,3.0,0.0,21.48,65.63,14.72,
7.485,78.58150325924377,89.73201319993971,-2.0,3.0,-1.0,5.0,5.0,3.0,0.0,2.0,3.0,0.0,21.58,60.23,15.4,
7.499,78.67915032592437,89.77520131999398,-2.0,3.0,-3.0,5.0,5.0,3.0,0.0,2.0,3.0,0.0,21.78,57.58,15.79,
7.514,79.31891503259244,89.5995201319994,-3.0,4.0,-5.0,5.0,5.0,3.0,0.0,2.0,3.0,0.0,21.97,54.84,16.09,
7.528,79.67989150325924,89.62695201319994,-4.0,10.0,-1.0,5.0,5.0,3.0,0.0,2.0,3.0,0.0,22.07,52.29,16.38,
7.541,79.89598915032592,89.75569520131998,-1.0,0.0,-6.0,5.0,5.0,3.0,0.0,2.0,3.0,0.0,22.07,47.77,16.68,
7.556,80.1425989150326,89.354569520132,-3.0,6.0,-7.0,5.0,5.0,3.0,0.0,2.0,3.0,0.0,21.97,45.52,16.87,
7.57,80.06825989150326,89.6924569520132,-5.0,11.0,-9.0,4.0,5.0,3.0,0.0,2.0,3.0,0.0,21.68,43.46,17.07,
7.584,80.38482598915033,89.61824569520132,-14.0,5.0,1.0,4.0,5.0,3.0,0.0,1.0,3.0,0.0,21.58,41.2,17.46,
7.599,80.13748259891503,89.55682456952013,-9.0,6.0,-5.0,4.0,5.0,3.0,0.0,1.0,3.0,0.0,21.29,40.52,17.56,
7.612,80.4997482598915,88.53368245695202,-6.0,20.0,0.0,4.0,5.0,3.0,0.0,1.0,3.0,0.0,20.7,39.44,17.66,
7.626,80.66197482598916,88.6923682456952,15.0,15.0,-17.0,3.0,5.0,2.0,0.0,1.0,3.0,0.0,19.42,37.57,17.95,
7.641,80.72319748259892,89.2572368245695,13.0,21.0,-22.0,3.0,4.0,2.0,0.0,1.0,3.0,0.0,18.54,32.86,18.25,
7.655,81.27831974825989,89.80872368245696,9.0,15.0,-20.0,3.0,4.0,2.0,0.0,0.0,3.0,0.0,17.56,31.1,18.25,
7.669,81.54083197482598,90.0798723682457,3.0,17.0,-17.0,3.0,4.0,2.0,0.0,0.0,2.0,0.0,15.6,29.92,18.34,
7.684,82.22408319748259,90.39498723682459,2.0,12.0,-18.0,2.0,4.0,2.0,0.0,0.0,2.0,0.0,14.72,30.21,17.95,
7.697,82.67040831974826,90.28249872368245,-1.0,14.0,-14.0,2.0,4.0,2.0,0.0,0.0,2.0,0.0,13.83,31.29,17.76,
7.711,83.06604083197483,90.26224987236824,-8.0,8.0,-7.0,2.0,3.0,2.0,0.0,0.0,2.0,0.0,13.24,32.57,17.46,
7.726,83.45660408319749,89.7922249872368,-8.0,5.0,-6.0,2.0,3.0,2.0,0.0,0.0,2.0,0.0,12.16,34.24,17.27,
7.74,83.42366040831975,89.71822249872366,-8.0,0.0,-8.0,2.0,3.0,2.0,0.0,0.0,2.0,0.0,11.77,38.55,16.68,
7.753,83.24936604083199,89.81882224987235,-10.0,2.0,-2.0,2.0,3.0,2.0,0.0,0.0,2.0,0.0,11.58,40.71,16.28,
7.768,83.30393660408319,89.65788222498723,-11.0,0.0,-1.0,2.0,3.0,2.0,0.0,0.0,2.0,0.0,11.28,42.97,15.89,
7.782,83.19239366040833,89.34478822249872,-9.0,0.0,-3.0,2.0,3.0,2.0,0.0,0.0,2.0,0.0,10.89,45.22,15.4,
7.796,83.20823936604083,89.15147882224987,-9.0,-1.0,0.0,2.0,3.0,2.0,0.0,0.0,2.0,0.0,10.79,49.34,14.52,
7.81,83.23682393660408,89.051147882225,-7.0,-2.0,-2.0,2.0,3.0,2.0,0.0,0.0,2.0,0.0,10.79,50.91,14.13,
7.824,83.3386823936604,88.68111478822249,-10.0,-4.0,-3.0,3.0,3.0,2.0,0.0,0.0,2.0,0.0,10.69,52.68,13.83,
7.838,83.12386823936603,88.73411147882224,-8.0,-1.0,-4.0,2.0,3.0,2.0,0.0,0.0,2.0,0.0,10.4,57.39,13.24,
7.853,83.27338682393662,88.52341114788223,-6.0,-2.0,-3.0,3.0,3.0,2.0,0.0,0.0,2.0,0.0,10.2,59.94,12.95,
7.866,83.19833868239365,88.44834111478822,-3.0,-3.0,-7.0,3.0,3.0,2.0,0.0,0.0,2.0,0.0,10.1,62.1,12.75,
7.88,82.86683386823935,88.44983411147882,-2.0,0.0,-6.0,3.0,3.0,2.0,0.0,0.0,2.0,0.0,10.01,63.96,12.56,
7.895,82.77968338682393,88.72898341114788,-4.0,7.0,-2.0,3.0,3.0,2.0,0.0,0.0,2.0,0.0,10.01,66.22,12.65,
7.909,82.99596833868239,88.4328983411148,-5.0,3.0,-1.0,3.0,3.0,2.0,0.0,0.0,2.0,0.0,10.1,66.9,12.75,
7.922,82.63059683386824,88.56528983411147,0.0,3.0,-6.0,3.0,3.0,2.0,0.0,0.0,2.0,0.0,10.1,67.98,13.05,
7.937,82.74705968338684,88.42552898341114,1.0,2.0,-6.0,3.0,3.0,2.0,0.0,0.0,2.0,0.0,10.2,69.16,13.24,
7.951,82.85770596833869,88.43855289834111,1.0,7.0,-5.0,3.0,3.0,2.0,0.0,0.0,2.0,0.0,10.2,68.57,13.64,
7.964,83.01277059683387,88.5118552898341,1.0,4.0,-4.0,3.0,3.0,2.0,0.0,0.0,2.0,0.0,10.3,67.49,14.03,
7.979,83.2352770596834,88.5461855289834,1.0,2.0,-3.0,2.0,3.0,2.0,0.0,0.0,2.0,0.0,10.4,66.41,14.62,
7.993,83.29352770596833,88.60361855289833,0.0,0.0,-1.0,3.0,3.0,2.0,0.0,0.0,2.0,0.0,10.59,65.14,15.11,
8.006,83.29035277059684,88.65436185528984,-2.0,-3.0,2.0,3.0,3.0,2.0,0.0,0.0,2.0,0.0,10.89,62.49,15.99,
8.02,83.31703527705969,88.58743618552897,-1.0,-6.0,7.0,3.0,4.0,2.0,0.0,0.0,2.0,0.0,11.77,61.61,16.48,
8.035,83.41870352770597,88.4547436185529,0.0,-6.0,7.0,3.0,4.0,2.0,0.0,0.0,2.0,0.0,12.46,60.92,17.07,
8.049,83.18587035277059,88.47747436185529,4.0,-8.0,5.0,3.0,4.0,2.0,0.0,0.0,3.0,0.0,13.24,59.55,18.34,
8.062,83.13558703527706,88.56974743618552,4.0,-11.0,6.0,3.0,4.0,2.0,0.0,1.0,3.0,0.0,14.03,53.66,19.13,
8.077,82.9325587035277,88.64197474361856,4.0,-9.0,6.0,3.0,4.0,2.0,0.0,1.0,3.0,0.0,15.89,49.74,19.82,
8.091,82.86725587035276,88.82019747436186,6.0,-11.0,3.0,3.0,4.0,2.0,0.0,1.0,3.0,0.0,16.78,45.91,20.4,
8.104,82.78872558703529,88.9910197474362,4.0,-6.0,6.0,3.0,4.0,2.0,0.0,1.0,3.0,0.0,17.76,39.04,21.19,
8.119,82.52887255870353,89.30510197474362,7.0,-7.0,1.0,3.0,5.0,2.0,0.0,1.0,3.0,0.0,18.54,35.9,21.39,
8.133,82.13388725587035,89.48951019747437,4.0,-5.0,2.0,3.0,4.0,2.0,0.0,2.0,3.0,0.0,19.72,33.35,21.48,
8.146,82.13038872558704,89.54395101974744,5.0,-4.0,0.0,3.0,4.0,2.0,0.0,2.0,3.0,0.0,20.21,31.1,21.48,
8.161,82.0040388725587,89.85539510197474,5.0,-5.0,2.0,3.0,5.0,2.0,0.0,2.0,3.0,0.0,20.6,27.66,21.29,
8.175,82.03640388725589,89.82353951019746,6.0,-5.0,0.0,3.0,4.0,2.0,0.0,2.0,3.0,0.0,20.99,26.09,21.29,
8.188,81.8866403887256,90.00035395101975,5.0,-2.0,-4.0,3.0,4.0,2.0,0.0,2.0,4.0,0.0,21.68,24.82,21.19,
8.203,81.75466403887256,90.31503539510197,3.0,-1.0,-1.0,3.0,5.0,2.0,0.0,2.0,3.0,0.0,21.88,23.54,21.19,
8.217,81.69646640388726,90.4725035395102,0.0,-1.0,-1.0,3.0,5.0,2.0,0.0,2.0,4.0,0.0,22.07,21.78,20.9,
8.231,81.69064664038872,90.62325035395102,-1.0,-2.0,1.0,3.0,5.0,2.0,0.0,2.0,4.0,0.0,22.07,21.29,20.6,
8.245,81.78906466403888,90.50332503539511,-3.0,-2.0,1.0,3.0,5.0,2.0,0.0,2.0,4.0,0.0,21.97,20.9,20.5,
8.259,81.81690646640388,90.51833250353951,-2.0,-2.0,0.0,3.0,5.0,3.0,0.0,2.0,4.0,0.0,21.88,20.8,20.11,
8.273,81.72969064664039,90.57383325035396,-1.0,-4.0,4.0,3.0,5.0,3.0,0.0,2.0,4.0,0.0,22.07,20.9,20.11,
8.288,81.73896906466405,90.4173833250354,0.0,-4.0,0.0,3.0,5.0,3.0,0.0,2.0,4.0,0.0,22.37,20.6,20.11,
8.301,81.65889690646642,90.51873833250355,1.0,-3.0,0.0,3.0,5.0,3.0,0.0,2.0,4.0,0.0,22.96,20.21,20.01,
8.315,81.53388969064663,90.60987383325036,3.0,-3.0,-2.0,3.0,5.0,2.0,0.0,2.0,4.0,0.0,23.25,19.03,20.01,
8.33,81.45838896906467,90.67298738332505,2.0,-5.0,0.0,3.0,5.0,2.0,0.0,2.0,4.0,0.0,23.45,18.44,19.91,
8.344,81.49583889690648,90.59829873833252,1.0,-2.0,-2.0,3.0,5.0,2.0,0.0,3.0,4.0,0.0,23.74,17.76,19.82,
8.357,81.45458388969065,90.83382987383325,0.0,-1.0,-1.0,3.0,5.0,2.0,0.0,3.0,4.0,1.0,24.13,17.17,19.72,
8.372,81.44145838896907,90.77638298738333,0.0,-1.0,-1.0,3.0,5.0,2.0,0.0,3.0,4.0,0.0,24.33,16.28,19.52,
8.386,81.40414583889691,90.95963829873834,-1.0,0.0,1.0,3.0,5.0,2.0,0.0,3.0,4.0,0.0,24.33,15.89,19.33,
8.4,81.3644145838897,91.10396382987383,-1.0,-2.0,0.0,3.0,5.0,2.0,0.0,3.0,4.0,1.0,24.52,15.6,19.23,
8.414,81.35144145838898,90.94739638298739,-1.0,-2.0,0.0,3.0,5.0,2.0,0.0,3.0,4.0,1.0,24.82,15.5,19.13,
8.428,81.4401441458389,90.94973963829874,0.0,-2.0,-1.0,3.0,5.0,2.0,0.0,3.0,4.0,1.0,25.02,15.21,19.13,
8.442,81.5030144145839,90.94097396382988,-1.0,-1.0,-1.0,3.0,5.0,2.0,0.0,3.0,4.0,1.0,25.11,15.01,19.03,
8.457,81.33830144145838,91.12009739638299,-2.0,-4.0,2.0,3.0,5.0,2.0,0.0,3.0,4.0,1.0,25.21,14.91,18.93,
8.47,81.42083014414584,90.9400097396383,-3.0,0.0,-3.0,3.0,5.0,2.0,0.0,3.0,4.0,1.0,25.51,14.81,18.84,
8.484,81.18608301441458,91.25500097396383,-5.0,-1.0,1.0,3.0,5.0,2.0,0.0,3.0,4.0,1.0,25.6,14.91,18.74,
8.499,81.21660830144145,91.15150009739638,-5.0,-1.0,1.0,3.0,5.0,3.0,0.0,3.0,4.0,1.0,25.51,15.21,18.64,
8.513,81.35466083014416,90.99715000973964,-6.0,0.0,0.0,3.0,5.0,3.0,0.0,3.0,4.0,1.0,25.41,15.5,18.54,
8.526,81.1074660830144,90.74771500097395,-5.0,-5.0,1.0,4.0,5.0,3.0,0.0,3.0,4.0,1.0,25.41,16.19,18.44,
8.541,80.99274660830145,90.6777715000974,-6.0,2.0,0.0,4.0,5.0,3.0,0.0,3.0,4.0,1.0,25.6,16.48,18.34,
8.555,80.94527466083015,90.68877715000974,-4.0,0.0,-2.0,4.0,5.0,3.0,0.0,3.0,4.0,1.0,25.6,16.78,18.44,
8.569,80.96752746608301,90.72587771500099,-4.0,0.0,-1.0,4.0,5.0,3.0,0.0,3.0,4.0,1.0,25.7,17.07,18.34,
8.583,81.00575274660831,90.8735877715001,-5.0,0.0,0.0,4.0,5.0,3.0,0.0,3.0,4.0,0.0,25.6,17.66,18.34,
8.597,81.00057527466083,90.78935877715,-6.0,-1.0,1.0,4.0,5.0,3.0,0.0,3.0,4.0,0.0,25.51,18.05,18.34,
8.611,81.14405752746607,90.771935877715,-6.0,-2.0,1.0,4.0,5.0,3.0,0.0,3.0,4.0,0.0,25.51,18.44,18.25,
8.625,81.0864057527466,90.6981935877715,-5.0,-2.0,0.0,4.0,5.0,3.0,0.0,3.0,4.0,0.0,25.51,18.93,18.25,
8.639,81.06264057527467,90.65481935877716,-5.0,-1.0,0.0,4.0,5.0,3.0,0.0,3.0,4.0,0.0,25.51,20.01,18.15,
8.653,81.07826405752746,90.67748193587772,-6.0,-1.0,2.0,4.0,5.0,3.0,0.0,3.0,4.0,0.0,25.51,20.5,18.05,
8.668,81.04382640575275,90.61674819358778,-5.0,-1.0,0.0,4.0,5.0,3.0,0.0,3.0,4.0,0.0,25.51,20.99,18.05,
8.681,81.01338264057529,90.53867481935877,-4.0,0.0,-1.0,4.0,5.0,3.0,0.0,3.0,4.0,0.0,25.51,21.88,18.05,
8.695,80.98333826405754,90.3868674819359,-2.0,0.0,-2.0,4.0,5.0,3.0,0.0,3.0,4.0,0.0,25.6,22.17,18.05,
8.71,81.02533382640576,90.3716867481936,-4.0,-3.0,-1.0,4.0,5.0,3.0,0.0,3.0,4.0,0.0,25.6,22.66,18.05,
8.724,80.91253338264058,90.09116867481936,-5.0,1.0,-2.0,4.0,5.0,3.0,0.0,2.0,4.0,0.0,25.6,23.05,18.05,
8.738,80.73925333826405,90.08111686748194,-5.0,-1.0,0.0,4.0,5.0,3.0,0.0,2.0,4.0,0.0,25.51,23.94,18.05,
8.752,80.68592533382642,90.0441116867482,-4.0,0.0,-2.0,4.0,5.0,3.0,0.0,2.0,4.0,0.0,25.21,24.43,17.95,
8.766,80.76159253338264,90.00441116867482,-4.0,0.0,-1.0,4.0,5.0,3.0,0.0,2.0,4.0,0.0,25.02,24.92,17.85,
8.78,80.82315925333826,90.08144111686748,-3.0,1.0,-2.0,4.0,5.0,3.0,0.0,2.0,4.0,0.0,24.92,25.31,17.85,
8.795,80.82031592533383,90.10714411168675,-3.0,2.0,-3.0,4.0,5.0,3.0,0.0,2.0,4.0,0.0,24.72,26.09,17.76,
8.808,80.90103159253339,90.18171441116868,-4.0,2.0,-2.0,4.0,5.0,3.0,0.0,2.0,4.0,0.0,24.33,26.29,17.66,
8.822,80.96310315925334,90.19817144111687,-4.0,2.0,-2.0,4.0,5.0,3.0,0.0,2.0,4.0,0.0,24.13,26.68,17.66,
8.837,80.99631031592534,90.20881714411168,-5.0,1.0,-1.0,4.0,5.0,3.0,0.0,2.0,4.0,0.0,23.94,27.76,17.56,
8.851,81.02663103159254,90.13788171441117,-5.0,2.0,-2.0,4.0,5.0,3.0,0.0,2.0,4.0,0.0,23.84,28.25,17.46,
8.864,81.11066310315927,90.13078817144111,-6.0,1.0,-1.0,4.0,5.0,3.0,0.0,2.0,4.0,0.0,23.45,28.94,17.46,
8.879,81.14606631031593,90.11207881714411,-6.0,0.0,0.0,4.0,5.0,3.0,0.0,2.0,4.0,0.0,23.15,29.72,17.36,
8.893,81.15860663103159,89.94820788171442,-6.0,0.0,-1.0,4.0,5.0,3.0,0.0,2.0,4.0,0.0,22.96,31.39,17.17,
8.907,81.22286066310316,89.99482078817144,-5.0,1.0,-1.0,4.0,5.0,3.0,0.0,2.0,4.0,0.0,22.66,32.27,17.07,
8.921,81.30128606631031,89.91848207881714,-6.0,1.0,-1.0,4.0,5.0,3.0,0.0,2.0,3.0,0.0,22.27,32.96,16.97,
8.935,81.35412860663104,89.89284820788171,-6.0,2.0,-2.0,4.0,5.0,3.0,0.0,2.0,3.0,0.0,22.07,33.84,16.68,
8.949,81.3954128606631,89.86328482078817,-6.0,1.0,-1.0,4.0,5.0,3.0,0.0,2.0,3.0,0.0,21.88,35.71,16.58,
8.964,81.4535412860663,89.74332848207882,-6.0,2.0,-1.0,4.0,5.0,3.0,0.0,2.0,3.0,0.0,21.58,36.69,16.58,
8.977,81.33335412860663,90.01033284820788,-7.0,2.0,3.0,4.0,5.0,3.0,0.0,2.0,3.0,0.0,21.09,37.67,16.48,
8.991,81.25833541286066,89.52403328482077,-4.0,0.0,-4.0,4.0,5.0,3.0,0.0,1.0,3.0,0.0,20.9,38.46,16.28,
9.006,81.34983354128607,89.54740332848208,-6.0,1.0,0.0,4.0,5.0,3.0,0.0,1.0,3.0,0.0,20.6,40.02,16.19,
9.019,81.43998335412861,89.44174033284821,-5.0,1.0,-1.0,4.0,5.0,3.0,0.0,1.0,3.0,0.0,20.5,40.71,16.09,
9.033,81.39499833541286,89.42217403328483,-5.0,0.0,-1.0,4.0,5.0,3.0,0.0,1.0,3.0,0.0,19.91,41.5,15.89,
9.048,81.42649983354129,89.40221740332849,-5.0,0.0,0.0,4.0,5.0,3.0,0.0,1.0,3.0,0.0,19.82,42.77,15.7,
9.062,81.46564998335414,89.31922174033285,-4.0,0.0,-1.0,4.0,5.0,3.0,0.0,1.0,3.0,0.0,19.62,43.46,15.6,
9.075,81.50556499833542,89.26592217403328,-4.0,0.0,0.0,4.0,5.0,3.0,0.0,1.0,3.0,0.0,19.52,43.95,15.5,
9.09,81.51855649983354,89.25159221740333,-3.0,0.0,-1.0,4.0,5.0,3.0,0.0,1.0,3.0,0.0,19.23,44.34,15.3,
9.104,81.50185564998336,89.28615922174033,-3.0,0.0,0.0,4.0,5.0,3.0,0.0,1.0,3.0,0.0,19.03,45.03,15.11,
9.117,81.41018556499834,89.24461592217403,-3.0,0.0,-2.0,4.0,5.0,3.0,0.0,1.0,3.0,0.0,18.93,45.32,15.01,
9.132,81.41901855649984,89.2134615922174,-3.0,0.0,-1.0,4.0,5.0,3.0,0.0,1.0,3.0,0.0,18.84,45.52,14.91,
9.146,81.50990185564997,89.17434615922174,-2.0,0.0,0.0,4.0,5.0,3.0,0.0,1.0,3.0,0.0,18.44,45.71,14.72,
9.16,81.527990185565,89.13443461592217,-1.0,1.0,-2.0,4.0,5.0,3.0,0.0,1.0,3.0,0.0,18.34,45.62,14.62,
9.174,81.6557990185565,89.09444346159222,-1.0,1.0,-2.0,4.0,5.0,3.0,0.0,1.0,3.0,0.0,18.05,45.52,14.52,
9.188,81.58757990185565,89.26144434615922,-1.0,1.0,0.0,4.0,5.0,3.0,0.0,1.0,3.0,0.0,17.95,45.22,14.42,
9.202,81.67075799018558,89.13414443461593,0.0,0.0,-3.0,4.0,5.0,3.0,0.0,1.0,3.0,0.0,17.76,44.73,14.22,
9.217,81.67907579901858,89.2924144434616,-1.0,0.0,0.0,4.0,5.0,3.0,0.0,1.0,3.0,0.0,17.66,43.75,14.13,
9.23,81.73390757990185,89.27224144434616,0.0,0.0,-3.0,4.0,5.0,3.0,0.0,1.0,3.0,0.0,17.66,43.36,14.22,
9.244,81.75739075799018,89.33322414443462,0.0,0.0,0.0,4.0,5.0,3.0,0.0,1.0,3.0,0.0,17.56,42.77,14.13,
9.257,81.77773907579902,89.24032241444345,0.0,0.0,-3.0,4.0,5.0,3.0,0.0,1.0,3.0,0.0,17.46,41.79,14.22,
9.272,81.74377390757991,89.32103224144436,0.0,0.0,-1.0,4.0,5.0,3.0,0.0,1.0,3.0,0.0,17.46,41.2,14.22,
9.286,81.76737739075799,89.32010322414442,0.0,0.0,0.0,4.0,5.0,3.0,0.0,1.0,3.0,0.0,17.36,40.71,14.32,
9.299,81.8237377390758,89.36501032241445,0.0,0.0,-2.0,4.0,5.0,3.0,0.0,1.0,3.0,0.0,17.36,40.12,14.32,
9.314,81.86537377390758,89.42350103224145,0.0,0.0,-1.0,4.0,5.0,3.0,0.0,1.0,3.0,0.0,17.27,38.85,14.22,
9.328,81.85153737739074,89.42035010322415,0.0,0.0,0.0,4.0,5.0,3.0,0.0,1.0,3.0,0.0,17.36,38.16,14.32,
9.341,81.77815373773907,89.46503501032241,0.0,0.0,-1.0,4.0,5.0,3.0,0.0,1.0,3.0,0.0,17.36,37.57,14.32,
9.356,81.8428153737739,89.48750350103224,0.0,0.0,0.0,4.0,5.0,3.0,0.0,1.0,3.0,0.0,17.36,36.98,14.42,
9.37,81.8672815373774,89.52575035010322,0.0,0.0,-1.0,4.0,5.0,3.0,0.0,1.0,3.0,0.0,17.36,36.0,14.42,
9.383,81.85172815373772,89.57457503501033,0.0,0.0,0.0,4.0,5.0,3.0,0.0,1.0,3.0,0.0,17.56,35.41,14.62,
9.398,81.83217281537378,89.62445750350103,0.0,0.0,-1.0,4.0,5.0,3.0,0.0,1.0,3.0,0.0,17.56,34.92,14.72,
9.411,81.85721728153739,89.6834457503501,-1.0,0.0,0.0,4.0,5.0,3.0,0.0,1.0,3.0,0.0,17.76,34.43,14.72,
9.425,81.86872172815374,89.75234457503501,-1.0,0.0,-1.0,4.0,5.0,3.0,0.0,1.0,3.0,0.0,17.76,33.55,14.81,
9.44,81.85187217281536,89.78623445750351,-2.0,0.0,0.0,4.0,5.0,3.0,0.0,1.0,3.0,0.0,17.95,33.26,14.81,
9.454,81.82318721728153,89.78962344575035,-2.0,0.0,0.0,4.0,5.0,3.0,0.0,1.0,3.0,0.0,18.05,33.16,14.91,
9.467,81.78431872172816,89.81696234457503,-1.0,-1.0,0.0,4.0,5.0,3.0,0.0,1.0,3.0,0.0,18.05,33.06,15.11,
9.482,81.69943187217281,89.79269623445751,-1.0,-1.0,0.0,4.0,5.0,3.0,0.0,1.0,3.0,0.0,18.15,32.86,15.21,
9.496,81.70894318721729,89.77226962344574,-1.0,-1.0,0.0,4.0,5.0,3.0,0.0,1.0,3.0,0.0,18.44,32.67,15.21,
9.509,81.69189431872172,89.78822696234458,-1.0,-2.0,0.0,4.0,5.0,3.0,0.0,1.0,3.0,0.0,18.54,32.37,15.3,
9.524,81.69918943187217,89.79882269623445,-1.0,-1.0,0.0,4.0,5.0,3.0,0.0,1.0,3.0,0.0,18.74,31.98,15.4,
9.538,81.73591894318722,89.83588226962345,0.0,-2.0,0.0,4.0,5.0,3.0,0.0,1.0,3.0,0.0,18.93,31.1,15.5,
9.552,81.73059189431872,89.78558822696235,0.0,-2.0,0.0,4.0,5.0,3.0,0.0,1.0,3.0,0.0,19.33,30.61,15.6,
9.566,81.65805918943188,89.82555882269622,0.0,-1.0,-2.0,4.0,5.0,3.0,0.0,2.0,3.0,0.0,19.52,30.12,15.89,
9.58,81.65980591894319,89.80255588226962,0.0,-2.0,1.0,4.0,5.0,3.0,0.0,2.0,3.0,0.0,19.82,28.84,16.09,
9.594,81.63298059189432,89.89925558822696,0.0,-2.0,0.0,4.0,5.0,3.0,0.0,2.0,3.0,0.0,20.11,28.15,16.19,
9.608,81.63029805918943,89.9269255588227,0.0,-2.0,1.0,4.0,5.0,3.0,0.0,2.0,3.0,0.0,20.7,27.37,16.28,
9.622,81.57602980591894,90.03769255588227,0.0,-2.0,0.0,4.0,5.0,3.0,0.0,2.0,3.0,0.0,21.09,26.59,16.58,
9.636,81.55260298059189,90.06676925558823,-1.0,-1.0,0.0,4.0,5.0,3.0,0.0,2.0,3.0,0.0,21.39,25.41,16.68,
9.651,81.59526029805919,90.07867692555882,-1.0,-2.0,1.0,4.0,5.0,3.0,0.0,2.0,3.0,0.0,21.58,25.02,16.78,
9.664,81.59952602980592,90.04386769255588,0.0,-1.0,0.0,4.0,5.0,3.0,0.0,2.0,4.0,0.0,22.17,24.82,16.87,
9.678,81.5459526029806,90.1033867692556,0.0,-2.0,0.0,4.0,5.0,3.0,0.0,2.0,4.0,0.0,22.56,24.52,17.17,
9.693,81.54959526029805,90.15433867692556,0.0,-2.0,0.0,4.0,5.0,3.0,0.0,2.0,4.0,0.0,22.86,23.45,17.27,
9.706,81.4779595260298,90.25843386769255,0.0,-1.0,0.0,4.0,5.0,3.0,0.0,2.0,4.0,0.0,23.25,22.86,17.46,
9.72,81.44379595260298,90.29584338676925,0.0,-1.0,0.0,4.0,5.0,3.0,0.0,2.0,4.0,0.0,23.84,22.27,17.56,
9.735,81.4673795952603,90.28158433867694,-1.0,-1.0,0.0,4.0,5.0,3.0,0.0,2.0,4.0,0.0,24.03,21.68,17.66,
9.748,81.48773795952602,90.29815843386768,-1.0,-1.0,0.0,4.0,5.0,3.0,0.0,2.0,4.0,0.0,24.23,21.19,17.66,
9.762,81.42677379595261,90.36281584338678,0.0,-3.0,1.0,4.0,5.0,3.0,0.0,2.0,4.0,0.0,24.33,20.99,17.66,
9.777,81.33967737959526,90.27928158433868,0.0,-2.0,0.0,4.0,5.0,3.0,0.0,2.0,4.0,0.0,24.72,20.9,17.76,
9.791,81.25896773795952,90.33392815843388,1.0,-1.0,0.0,4.0,5.0,3.0,0.0,2.0,4.0,0.0,25.11,20.11,17.95,
9.804,81.37689677379595,90.3393928158434,2.0,-2.0,1.0,4.0,5.0,3.0,0.0,3.0,4.0,0.0,25.6,19.42,18.25,
9.819,81.3436896773796,90.28593928158435,4.0,-3.0,0.0,4.0,5.0,3.0,0.0,3.0,4.0,0.0,26.19,18.54,18.54,
9.833,81.34036896773796,90.34359392815843,5.0,-3.0,1.0,4.0,5.0,3.0,0.0,3.0,4.0,0.0,26.78,17.76,18.93,
9.846,81.3400368967738,90.35835939281584,8.0,-3.0,0.0,4.0,5.0,3.0,0.0,3.0,4.0,1.0,28.25,15.79,19.33,
9.861,81.25000368967738,90.46783593928158,11.0,-3.0,-1.0,4.0,5.0,3.0,0.0,3.0,4.0,1.0,29.04,14.62,19.62,
9.875,81.19600036896773,90.22678359392816,13.0,-5.0,0.0,4.0,5.0,3.0,0.0,4.0,4.0,1.0,30.02,13.54,19.91,
9.888,81.46060003689676,90.26567835939281,17.0,-4.0,-6.0,4.0,5.0,2.0,0.0,4.0,4.0,1.0,30.9,12.36,20.4,
9.903,81.12706000368968,90.64756783593927,18.0,-3.0,-12.0,3.0,5.0,2.0,0.0,4.0,5.0,1.0,32.57,10.01,20.6,
9.917,81.16570600036897,91.13575678359392,17.0,-2.0,-12.0,3.0,5.0,2.0,0.0,4.0,5.0,1.0,33.26,8.93,20.6,
9.931,80.98057060003688,91.77857567835937,15.0,-1.0,-8.0,3.0,5.0,2.0,0.0,4.0,5.0,1.0,33.65,7.95,20.6,
9.946,80.86305706000368,92.30185756783592,11.0,0.0,-10.0,3.0,5.0,2.0,0.0,4.0,5.0,1.0,34.24,7.16,20.31,
9.96,80.68030570600035,92.8941857567836,6.0,0.0,-7.0,3.0,5.0,2.0,0.0,4.0,5.0,1.0,34.34,6.28,20.11,
9.973,80.50003057060003,93.36741857567836,0.0,2.0,-6.0,3.0,5.0,2.0,0.0,4.0,5.0,1.0,34.34,5.89,19.91,
9.988,80.34700305706,93.70274185756783,-8.0,2.0,0.0,3.0,5.0,2.0,0.0,4.0,5.0,1.0,34.14,5.59,19.62,
10.001,80.466700305706,93.79027418575679,-15.0,0.0,5.0,3.0,5.0,2.0,0.0,4.0,5.0,1.0,33.55,6.08,19.33,
10.015,80.72167003057059,93.57402741857567,-22.0,0.0,5.0,3.0,5.0,2.0,0.0,4.0,4.0,1.0,31.98,6.87,18.93,
10.03,80.90016700305706,93.35440274185757,-30.0,3.0,8.0,3.0,5.0,2.0,0.0,3.0,4.0,1.0,31.0,8.14,18.54,
10.044,81.0800167003057,92.80144027418575,-32.0,-5.0,6.0,3.0,5.0,2.0,0.0,3.0,4.0,1.0,29.92,9.81,17.27,
10.057,81.32300167003058,92.09814402741857,-31.0,-2.0,11.0,3.0,5.0,2.0,0.0,3.0,4.0,1.0,28.65,14.81,16.58,
10.072,81.07730016700305,91.69481440274187,-23.0,-7.0,3.0,4.0,5.0,3.0,0.0,3.0,4.0,0.0,26.49,17.56,15.89,
10.086,80.71073001670031,91.29448144027418,-17.0,-3.0,1.0,4.0,5.0,3.0,0.0,3.0,4.0,0.0,25.8,20.5,15.21,
10.1,80.53907300167003,90.89444814402742,-13.0,0.0,-1.0,4.0,5.0,3.0,0.0,2.0,4.0,0.0,25.11,23.15,14.13,
10.115,80.476907300167,90.80044481440275,-11.0,2.0,-2.0,4.0,5.0,3.0,0.0,2.0,3.0,0.0,23.45,27.08,13.44,
10.129,80.4886907300167,90.54804448144027,-11.0,3.0,-3.0,4.0,5.0,2.0,0.0,2.0,3.0,0.0,22.46,28.45,12.75,
10.143,80.54386907300167,90.33380444814404,-11.0,3.0,-2.0,4.0,5.0,2.0,0.0,2.0,3.0,0.0,21.39,29.92,11.67,
10.158,80.72938690730017,90.0963804448144,-9.0,1.0,-1.0,4.0,5.0,2.0,0.0,2.0,3.0,0.0,20.4,32.77,11.09,
10.172,80.77493869073001,89.92863804448143,-7.0,0.0,-1.0,3.0,5.0,2.0,0.0,2.0,3.0,0.0,18.74,34.04,10.59,
10.186,80.797493869073,89.85786380444813,-5.0,1.0,-2.0,3.0,4.0,2.0,0.0,2.0,3.0,0.0,18.15,35.12,10.2,
10.201,80.7727493869073,89.79678638044481,-4.0,2.0,-3.0,3.0,4.0,2.0,0.0,2.0,3.0,0.0,17.85,35.81,9.61,
10.214,80.66227493869073,89.88967863804449,-4.0,2.0,-2.0,3.0,4.0,2.0,0.0,1.0,3.0,0.0,17.46,36.79,9.32,
10.228,80.75922749386908,89.70096786380445,-4.0,2.0,-3.0,3.0,4.0,2.0,0.0,1.0,3.0,0.0,16.58,37.18,9.12,
10.243,80.75992274938692,89.73609678638043,-4.0,2.0,-2.0,3.0,4.0,2.0,0.0,1.0,3.0,0.0,16.19,37.57,8.83,
10.257,80.89499227493869,89.64960967863804,-4.0,2.0,-2.0,3.0,4.0,2.0,0.0,1.0,3.0,0.0,15.79,38.55,8.63,
10.27,80.94449922749388,89.6499609678638,-4.0,2.0,-1.0,3.0,4.0,2.0,0.0,1.0,3.0,0.0,15.5,39.14,8.53,
10.285,81.0304499227494,89.54199609678638,-4.0,1.0,-2.0,3.0,4.0,2.0,0.0,1.0,3.0,0.0,15.01,39.63,8.44,
10.299,81.07504499227494,89.54919960967864,-3.0,1.0,-1.0,3.0,4.0,2.0,0.0,1.0,3.0,0.0,14.81,40.12,8.34,
10.313,81.16050449922749,89.51391996096787,-3.0,0.0,-1.0,3.0,4.0,2.0,0.0,1.0,3.0,0.0,14.72,40.91,8.24,
10.327,81.22305044992275,89.49239199609679,-3.0,0.0,0.0,3.0,4.0,2.0,0.0,1.0,3.0,0.0,14.52,41.1,8.24,
10.341,81.24730504499227,89.46323919960967,-3.0,0.0,0.0,3.0,4.0,2.0,0.0,1.0,3.0,0.0,14.52,41.3,8.24,
10.355,81.27673050449923,89.44232391996096,-3.0,0.0,0.0,3.0,4.0,2.0,0.0,1.0,3.0,0.0,14.42,41.3,8.24,
10.369,81.28867305044992,89.38623239199609,-3.0,0.0,0.0,3.0,4.0,2.0,0.0,1.0,3.0,0.0,14.42,41.5,8.14,
10.383,81.27186730504499,89.3536232391996,-3.0,0.0,0.0,3.0,4.0,2.0,0.0,1.0,3.0,0.0,14.42,41.69,8.14,
10.397,81.27018673050449,89.31436232391997,-4.0,-1.0,0.0,3.0,4.0,2.0,0.0,1.0,3.0,0.0,14.52,41.89,8.14,
10.412,81.18001867305044,89.33743623239201,-4.0,-1.0,0.0,3.0,4.0,2.0,0.0,1.0,3.0,0.0,14.52,42.08,8.24,
10.425,81.18900186730504,89.3037436232392,-3.0,-1.0,0.0,3.0,4.0,2.0,0.0,1.0,3.0,0.0,14.52,42.77,8.14,
10.439,81.1359001867305,89.30037436232392,-3.0,-1.0,0.0,3.0,4.0,2.0,0.0,1.0,3.0,0.0,14.52,43.07,8.14,
10.454,81.12159001867306,89.3000374362324,-3.0,-1.0,0.0,3.0,4.0,2.0,0.0,1.0,3.0,0.0,14.72,43.46,8.14,
10.468,81.1021590018673,89.30900374362324,-3.0,0.0,0.0,3.0,4.0,2.0,0.0,1.0,3.0,0.0,14.81,43.65,8.14,
10.481,81.13621590018673,89.30990037436233,-3.0,0.0,0.0,3.0,4.0,2.0,0.0,1.0,3.0,0.0,14.81,43.85,8.14,
10.496,81.13962159001866,89.30099003743624,-3.0,0.0,-1.0,3.0,4.0,2.0,0.0,1.0,3.0,0.0,14.91,43.95,8.24,
10.51,81.12196215900187,89.26409900374362,-4.0,0.0,0.0,3.0,4.0,2.0,0.0,1.0,3.0,0.0,14.81,44.24,8.34,
10.523,81.13819621590018,89.24240990037435,-5.0,0.0,0.0,3.0,4.0,2.0,0.0,1.0,3.0,0.0,14.91,45.32,8.34,
10.537,81.13081962159,89.19524099003743,-5.0,0.0,0.0,3.0,4.0,2.0,0.0,1.0,3.0,0.0,14.91,46.11,8.34,
10.552,81.14808196215901,89.16352409900374,-5.0,0.0,0.0,3.0,4.0,2.0,0.0,1.0,3.0,0.0,14.81,46.79,8.34,
10.565,81.1588081962159,89.07935240990037,-4.0,0.0,0.0,3.0,4.0,2.0,0.0,1.0,3.0,0.0,14.81,47.68,8.44,
10.579,81.1508808196216,89.09793524099004,-4.0,0.0,0.0,3.0,4.0,2.0,0.0,1.0,3.0,0.0,14.72,49.25,8.44,
10.594,81.07808808196215,89.027793524099,-4.0,0.0,-1.0,4.0,4.0,2.0,0.0,1.0,3.0,0.0,14.72,49.83,8.53,
10.607,81.0258088081962,89.0027793524099,-4.0,0.0,0.0,4.0,4.0,2.0,0.0,1.0,3.0,0.0,14.72,50.42,8.44,
10.621,81.08358088081962,88.919277935241,-4.0,0.0,-1.0,4.0,4.0,2.0,0.0,1.0,3.0,0.0,14.62,51.01,8.44,
10.636,81.06235808808196,88.9559277935241,-4.0,0.0,0.0,4.0,4.0,2.0,0.0,1.0,3.0,0.0,14.52,51.99,8.44,
10.65,81.02423580880819,88.94159277935242,-3.0,-1.0,0.0,4.0,4.0,2.0,0.0,1.0,3.0,0.0,14.42,52.29,8.53,
10.663,81.07442358088082,88.90415927793525,-3.0,-1.0,0.0,4.0,4.0,2.0,0.0,1.0,3.0,0.0,14.42,52.58,8.53,
10.678,81.04344235808809,88.85541592779353,-3.0,0.0,-1.0,4.0,4.0,2.0,0.0,1.0,3.0,0.0,14.52,52.97,8.53,
10.692,80.97734423580881,88.82354159277935,-3.0,0.0,0.0,4.0,4.0,2.0,0.0,1.0,3.0,0.0,14.42,53.17,8.44,
10.706,80.98873442358087,88.80235415927794,-3.0,-1.0,-1.0,4.0,4.0,2.0,0.0,1.0,3.0,0.0,14.42,53.17,8.44,
10.72,81.00787344235809,88.75523541592779,-3.0,0.0,0.0,4.0,4.0,2.0,0.0,1.0,3.0,0.0,14.32,53.27,8.44,
10.734,81.0457873442358,88.72352354159278,-3.0,-1.0,0.0,4.0,4.0,2.0,0.0,1.0,3.0,0.0,14.42,53.37,8.44,
10.748,81.02257873442358,88.72035235415927,-3.0,0.0,0.0,4.0,4.0,2.0,0.0,1.0,3.0,0.0,14.42,53.37,8.34,
10.762,81.02025787344235,88.71103523541592,-2.0,0.0,-1.0,4.0,4.0,2.0,0.0,1.0,3.0,0.0,14.42,53.27,8.34,
10.776,80.97502578734424,88.71010352354159,-2.0,0.0,-1.0,4.0,4.0,2.0,0.0,1.0,3.0,0.0,14.42,53.27,8.24,
10.79,80.96150257873441,88.74601035235416,-2.0,0.0,-1.0,4.0,4.0,2.0,0.0,1.0,3.0,0.0,14.32,52.68,8.14,
10.805,80.96915025787345,88.73160103523541,-2.0,0.0,-1.0,3.0,4.0,2.0,0.0,1.0,3.0,0.0,13.93,52.39,7.95,
10.818,80.95191502578734,88.75716010352355,-2.0,1.0,-2.0,3.0,4.0,2.0,0.0,1.0,3.0,0.0,13.83,52.19,7.65,
10.832,80.96819150257873,88.80471601035235,-3.0,3.0,-4.0,3.0,4.0,2.0,0.0,1.0,3.0,0.0,13.73,52.39,7.55,
10.847,81.02381915025788,88.71947160103522,-3.0,0.0,-1.0,3.0,4.0,2.0,0.0,1.0,2.0,0.0,13.44,52.58,7.36,
10.861,81.0563819150258,88.72894716010352,-2.0,-1.0,0.0,3.0,4.0,2.0,0.0,1.0,2.0,0.0,12.95,52.68,7.16,
10.874,81.13163819150257,88.73889471601035,-2.0,-3.0,1.0,3.0,4.0,2.0,0.0,1.0,2.0,0.0,12.95,52.78,7.06,
10.889,81.21116381915026,88.70388947160103,-2.0,-5.0,0.0,3.0,4.0,2.0,0.0,1.0,3.0,0.0,12.95,52.68,7.06,
10.903,81.19211638191503,88.6373889471601,-2.0,-3.0,0.0,3.0,4.0,2.0,0.0,1.0,3.0,0.0,13.05,52.58,6.97,
10.917,81.04621163819151,88.630738894716,-3.0,-1.0,-1.0,3.0,4.0,2.0,0.0,1.0,3.0,0.0,13.24,52.39,6.97,
10.932,80.97762116381915,88.66607388947159,-4.0,-4.0,0.0,3.0,4.0,2.0,0.0,1.0,3.0,0.0,13.34,52.19,6.97,
10.945,80.90776211638192,88.69660738894716,-4.0,-1.0,-1.0,3.0,4.0,2.0,0.0,1.0,3.0,0.0,13.44,52.78,6.87,
10.959,80.82877621163819,88.6906607388947,-5.0,-1.0,-1.0,3.0,4.0,2.0,0.0,1.0,3.0,0.0,13.54,53.46,6.87,
10.974,80.82987762116382,88.60906607388947,-5.0,-1.0,0.0,4.0,4.0,2.0,0.0,1.0,3.0,0.0,13.44,54.35,6.77,
10.988,80.80298776211637,88.65490660738894,-4.0,-1.0,0.0,4.0,4.0,2.0,0.0,1.0,3.0,0.0,13.34,55.33,6.67,
11.002,80.73729877621165,88.5424906607389,-3.0,0.0,0.0,4.0,4.0,2.0,0.0,1.0,3.0,0.0,13.24,57.09,6.67,
11.016,80.73972987762116,88.52224906607388,-3.0,0.0,0.0,4.0,4.0,2.0,0.0,1.0,3.0,0.0,13.34,57.68,6.77,
11.03,80.73097298776213,88.46622490660738,-3.0,1.0,-3.0,4.0,4.0,2.0,0.0,1.0,3.0,0.0,13.44,57.98,6.87,
11.044,80.77509729877622,88.45162249066074,-4.0,1.0,-1.0,4.0,4.0,2.0,0.0,1.0,3.0,0.0,13.34,58.37,6.87,
11.058,80.79750972987762,88.43216224906607,-4.0,2.0,-2.0,4.0,4.0,2.0,0.0,1.0,3.0,0.0,13.24,58.76,6.87,
11.072,80.83575097298777,88.3852162249066,-4.0,1.0,-2.0,4.0,4.0,2.0,0.0,1.0,2.0,0.0,13.15,59.35,6.77,
11.086,80.87557509729878,88.40752162249066,-4.0,1.0,-1.0,4.0,4.0,2.0,0.0,1.0,2.0,0.0,12.85,59.94,6.67,
11.101,80.84355750972988,88.37375216224906,-3.0,1.0,-2.0,4.0,4.0,2.0,0.0,1.0,2.0,0.0,12.75,61.02,6.67,
11.114,80.939355750973,88.3163752162249,-3.0,0.0,1.0,3.0,4.0,2.0,0.0,1.0,2.0,0.0,12.75,61.21,6.77,
11.128,80.9669355750973,88.31963752162248,-2.0,2.0,-3.0,3.0,4.0,2.0,0.0,1.0,2.0,0.0,12.56,61.12,6.57,
11.143,80.96069355750971,88.37396375216224,-2.0,0.0,-1.0,3.0,4.0,2.0,0.0,1.0,2.0,0.0,12.36,61.02,6.67,
11.157,81.00506935575098,88.32539637521623,-2.0,0.0,-1.0,3.0,4.0,2.0,0.0,1.0,2.0,0.0,12.16,60.33,6.57,
11.17,81.06350693557509,88.35653963752162,-2.0,0.0,-1.0,3.0,4.0,2.0,0.0,1.0,2.0,0.0,12.07,59.74,6.47,
11.185,81.1233506935575,88.27865396375216,-1.0,0.0,0.0,3.0,4.0,2.0,0.0,1.0,2.0,0.0,11.97,59.25,6.18,
11.199,81.11133506935575,88.32486539637522,0.0,-3.0,1.0,3.0,4.0,2.0,0.0,1.0,2.0,0.0,11.67,58.86,6.18,
11.212,81.08313350693557,88.35648653963752,0.0,-4.0,1.0,3.0,4.0,2.0,0.0,1.0,2.0,0.0,11.67,57.58,6.08,
11.227,81.05331335069354,88.40464865396375,-1.0,-3.0,0.0,3.0,4.0,2.0,0.0,1.0,2.0,0.0,11.77,56.51,6.08,
11.241,81.01433133506936,88.44546486539637,-1.0,-3.0,1.0,3.0,4.0,2.0,0.0,1.0,2.0,0.0,12.07,55.52,6.28,
11.255,80.93843313350693,88.49454648653963,-1.0,-1.0,0.0,3.0,4.0,2.0,0.0,1.0,2.0,0.0,12.26,54.15,6.28,
11.269,80.90384331335069,88.52645464865397,-1.0,-1.0,0.0,3.0,4.0,2.0,0.0,1.0,2.0,0.0,12.36,53.76,6.28,
11.283,80.84638433133507,88.6106454648654,-1.0,-1.0,0.0,3.0,4.0,2.0,0.0,1.0,2.0,0.0,12.56,53.17,6.28,
11.297,80.7866384331335,88.54706454648655,-1.0,-1.0,0.0,3.0,4.0,2.0,0.0,1.0,2.0,0.0,12.56,52.78,6.28,
11.312,80.75366384331335,88.54070645464866,-2.0,-2.0,0.0,3.0,4.0,2.0,0.0,1.0,2.0,0.0,12.85,51.99,6.28,
11.325,80.70536638433134,88.50407064546486,-2.0,-1.0,0.0,3.0,4.0,2.0,0.0,1.0,2.0,0.0,12.85,51.5,6.38,
11.339,80.71853663843314,88.5814070645465,-1.0,0.0,0.0,3.0,4.0,2.0,0.0,1.0,3.0,0.0,12.85,51.21,6.28,
11.354,80.68385366384332,88.56214070645466,-1.0,-1.0,0.0,3.0,4.0,2.0,0.0,1.0,3.0,0.0,12.95,51.01,6.28,
11.368,80.72538536638434,88.56921407064546,-1.0,-1.0,0.0,3.0,4.0,2.0,0.0,1.0,3.0,0.0,13.05,50.33,6.28,
11.381,80.67553853663844,88.56992140706454,-1.0,-1.0,0.0,3.0,4.0,2.0,0.0,1.0,3.0,0.0,13.24,49.83,6.38,
11.396,80.62555385366385,88.53399214070646,-1.0,-2.0,0.0,3.0,4.0,2.0,0.0,1.0,3.0,0.0,13.44,49.25,6.47,
11.41,80.60255538536637,88.58439921407066,-1.0,-2.0,0.0,3.0,4.0,2.0,0.0,1.0,3.0,0.0,13.64,48.07,6.57,
11.424,80.56425553853664,88.59843992140706,-1.0,-1.0,0.0,3.0,4.0,2.0,0.0,1.0,3.0,0.0,13.93,47.68,6.67,
11.438,80.52442555385366,88.5998439921407,-1.0,-1.0,0.0,3.0,4.0,2.0,0.0,1.0,3.0,0.0,14.03,47.28,6.77,
11.452,80.56544255538536,88.66298439921407,-2.0,-1.0,0.0,3.0,4.0,2.0,0.0,1.0,3.0,0.0,14.13,47.09,6.87,
11.466,80.59654425553853,88.6962984399214,-2.0,0.0,0.0,3.0,4.0,2.0,0.0,1.0,3.0,0.0,14.22,46.7,6.97,
11.481,80.61765442555387,88.66362984399214,-1.0,0.0,-1.0,3.0,4.0,2.0,0.0,1.0,3.0,0.0,14.22,46.6,6.87,
11.494,80.53876544255539,88.62436298439923,0.0,2.0,-2.0,3.0,4.0,2.0,0.0,1.0,3.0,0.0,14.13,46.4,6.77,
11.508,80.49487654425553,88.59343629843993,0.0,6.0,-6.0,3.0,4.0,2.0,0.0,1.0,2.0,0.0,14.03,45.91,6.67,
11.523,80.61648765442554,88.815343629844,0.0,1.0,0.0,3.0,4.0,2.0,0.0,1.0,2.0,0.0,13.73,44.05,6.47,
11.536,80.61064876544256,89.0085343629844,-2.0,5.0,-7.0,3.0,4.0,2.0,0.0,1.0,2.0,0.0,12.36,43.07,6.18,
11.55,80.67306487654426,89.04585343629843,-4.0,0.0,-6.0,2.0,3.0,1.0,0.0,0.0,2.0,0.0,11.38,42.48,5.2,
11.565,80.78730648765442,88.83358534362984,-6.0,-3.0,-1.0,2.0,3.0,1.0,0.0,0.0,2.0,0.0,10.2,42.48,4.61,
11.579,80.92473064876545,88.65035853436298,-1.0,-10.0,0.0,2.0,3.0,1.0,0.0,0.0,2.0,0.0,9.22,43.75,4.02,
11.592,80.91147306487655,87.94803585343631,2.0,-16.0,8.0,2.0,3.0,2.0,0.0,0.0,2.0,0.0,7.85,44.15,3.53,
11.607,80.54114730648766,88.15680358534364,8.0,-11.0,3.0,2.0,3.0,2.0,0.0,1.0,2.0,0.0,7.95,43.56,3.24,
11.621,80.07211473064876,88.49268035853437,8.0,-14.0,15.0,3.0,4.0,2.0,0.0,1.0,2.0,0.0,8.63,38.75,3.63,
11.634,79.80921147306488,88.54426803585343,13.0,-13.0,10.0,3.0,4.0,2.0,0.0,2.0,2.0,0.0,9.81,35.61,4.02,
11.649,79.3779211473065,88.90942680358535,14.0,-6.0,9.0,3.0,4.0,2.0,0.0,2.0,2.0,0.0,13.24,32.18,5.59,
11.663,79.00179211473065,89.27894268035853,14.0,-2.0,8.0,3.0,4.0,2.0,0.0,3.0,3.0,0.0,15.6,28.94,6.38,
11.677,78.86517921147306,89.65789426803585,10.0,6.0,1.0,3.0,5.0,2.0,0.0,3.0,3.0,0.0,17.76,23.45,7.36,
11.692,79.0855179211473,90.11878942680359,4.0,9.0,0.0,3.0,5.0,2.0,0.0,4.0,3.0,0.0,19.72,21.48,8.24,
11.705,79.17055179211474,90.33587894268035,-2.0,4.0,1.0,4.0,5.0,3.0,0.0,4.0,3.0,0.0,22.37,20.21,9.91,
11.719,79.35005517921148,90.51958789426804,-8.0,4.0,1.0,4.0,5.0,3.0,0.0,4.0,3.0,0.0,23.15,19.62,10.59,
11.734,79.62000551792114,90.4569587894268,-10.0,3.0,0.0,4.0,5.0,3.0,0.0,4.0,3.0,0.0,23.84,21.19,11.28,
11.747,79.81800055179212,90.3786958789427,-13.0,0.0,0.0,4.0,5.0,3.0,0.0,4.0,4.0,0.0,24.43,23.05,11.77,
11.761,79.9008000551792,90.22686958789426,-13.0,0.0,0.0,4.0,5.0,3.0,0.0,4.0,4.0,0.0,25.21,25.41,12.56,
11.776,79.92708000551794,90.12168695878943,-14.0,-1.0,-2.0,4.0,5.0,3.0,0.0,4.0,4.0,0.0,25.31,27.96,12.75,
11.79,79.98370800055179,89.78716869587895,-14.0,0.0,-4.0,4.0,5.0,3.0,0.0,3.0,4.0,0.0,25.02,33.94,12.85,
11.804,80.00737080005518,89.53771686958791,-13.0,-1.0,-3.0,4.0,5.0,3.0,0.0,3.0,3.0,0.0,24.43,37.38,12.46,
11.819,79.90173708000552,89.3867716869588,-12.0,2.0,-6.0,4.0,5.0,3.0,0.0,3.0,3.0,0.0,23.05,40.91,12.26,
11.833,80.08917370800056,89.24567716869588,-11.0,3.0,-5.0,4.0,5.0,3.0,0.0,2.0,3.0,0.0,22.37,47.09,11.87,
11.847,80.07191737080005,89.0785677168696,-8.0,0.0,-2.0,4.0,5.0,3.0,0.0,2.0,3.0,0.0,21.58,49.93,11.48,
11.862,80.08819173708001,88.90885677168697,-6.0,2.0,-2.0,5.0,5.0,3.0,0.0,2.0,3.0,0.0,20.8,52.58,10.99,
11.876,80.14381917370801,88.7658856771687,-4.0,0.0,-1.0,5.0,5.0,3.0,0.0,2.0,3.0,0.0,20.11,54.64,10.79,
11.889,80.1403819173708,88.85958856771687,-3.0,0.0,-2.0,5.0,5.0,3.0,0.0,2.0,3.0,0.0,20.11,56.9,10.69,
11.904,80.13103819173708,88.85995885677168,-5.0,1.0,0.0,5.0,5.0,3.0,0.0,2.0,3.0,0.0,20.21,57.49,10.79,
11.918,80.10310381917371,88.90499588567717,-4.0,6.0,-2.0,5.0,5.0,3.0,0.0,2.0,3.0,0.0,20.4,58.17,10.89,
11.932,80.04631038191737,88.93649958856773,-3.0,5.0,-2.0,5.0,5.0,3.0,0.0,2.0,3.0,0.0,20.11,60.53,10.99,
11.947,80.05863103819173,88.83164995885677,-4.0,2.0,-1.0,5.0,5.0,3.0,0.0,2.0,3.0,0.0,19.72,61.7,11.09,
11.961,80.41986310381917,88.59616499588567,-4.0,4.0,-2.0,4.0,5.0,3.0,0.0,2.0,3.0,0.0,19.23,62.78,11.18,
11.974,80.52798631038192,88.66261649958857,-4.0,0.0,0.0,4.0,5.0,3.0,0.0,1.0,3.0,0.0,18.25,63.57,11.18,
11.988,80.6557986310382,88.63326164995885,-2.0,0.0,-4.0,4.0,5.0,3.0,0.0,1.0,3.0,0.0,17.85,64.16,11.09,
12.003,80.62357986310383,88.71132616499588,-4.0,0.0,-2.0,4.0,5.0,2.0,0.0,1.0,3.0,0.0,17.36,63.96,10.89,
12.017,80.79135798631037,88.90813261649959,-4.0,1.0,-5.0,3.0,4.0,2.0,0.0,1.0,3.0,0.0,16.78,63.86,9.71,
12.032,80.89813579863105,88.63081326164995,-3.0,-4.0,-3.0,3.0,4.0,2.0,0.0,0.0,2.0,0.0,14.52,64.26,8.63,
12.045,81.12481357986312,88.53108132616498,-1.0,-3.0,-5.0,3.0,4.0,2.0,0.0,0.0,2.0,0.0,13.15,64.06,7.46,
12.059,81.18348135798631,88.1251081326165,0.0,-6.0,-3.0,3.0,4.0,2.0,0.0,0.0,2.0,0.0,11.77,63.08,5.0,
12.073,81.02734813579863,88.07551081326164,1.0,-10.0,0.0,2.0,3.0,2.0,0.0,0.0,2.0,0.0,10.5,61.41,3.83,
12.087,80.93073481357986,87.86355108132618,2.0,-11.0,1.0,2.0,3.0,2.0,0.0,0.0,2.0,0.0,8.63,57.09,2.94,
12.101,80.750073481358,87.87835510813261,5.0,-8.0,-3.0,2.0,3.0,2.0,0.0,0.0,1.0,0.0,8.14,54.54,2.26,
12.114,80.4980073481358,88.08683551081327,4.0,-5.0,0.0,2.0,3.0,1.0,0.0,0.0,1.0,0.0,7.65,51.89,1.18,
12.129,80.28380073481358,88.26968355108134,3.0,-3.0,0.0,2.0,3.0,1.0,0.0,0.0,1.0,0.0,7.26,49.25,0.88,
12.142,80.17238007348136,88.40496835510814,2.0,-4.0,3.0,2.0,3.0,1.0,0.0,0.0,1.0,0.0,7.06,45.32,0.49,
12.156,79.99923800734814,88.3464968355108,0.0,-5.0,3.0,2.0,3.0,2.0,0.0,0.0,1.0,0.0,6.87,44.24,0.29,
12.17,79.7389238007348,88.72764968355108,-1.0,-5.0,0.0,2.0,3.0,2.0,0.0,0.0,2.0,0.0,7.26,43.75,0.69,
12.184,79.55989238007349,89.05376496835513,-7.0,0.0,2.0,2.0,3.0,2.0,0.0,0.0,2.0,0.0,7.75,44.15,0.88,
12.197,79.46998923800734,89.31137649683552,-11.0,1.0,0.0,3.0,3.0,2.0,0.0,1.0,2.0,0.0,8.44,49.05,1.18,
12.212,79.28099892380074,89.48113764968355,-19.0,11.0,-2.0,3.0,3.0,2.0,0.0,1.0,2.0,0.0,9.81,53.96,1.47,
12.226,79.20809989238008,90.07411376496836,-26.0,16.0,0.0,3.0,4.0,2.0,0.0,1.0,2.0,0.0,10.4,60.72,2.16,
12.239,79.32680998923801,89.98041137649683,-30.0,7.0,7.0,4.0,4.0,2.0,0.0,0.0,2.0,0.0,11.18,69.55,2.55,
12.254,79.5906809989238,89.84504113764967,-34.0,-4.0,28.0,4.0,4.0,3.0,0.0,0.0,2.0,0.0,11.97,91.43,3.04,
12.268,80.15706809989238,89.47150411376498,-28.0,-3.0,9.0,4.0,4.0,3.0,0.0,0.0,2.0,0.0,13.24,104.18,3.63,
12.282,79.92570680998925,88.8491504113765,-26.0,3.0,14.0,5.0,5.0,3.0,0.0,0.0,2.0,0.0,14.03,117.92,5.49,
12.297,79.92957068099894,88.28291504113764,-15.0,20.0,10.0,5.0,5.0,3.0,0.0,0.0,2.0,0.0,14.91,133.22,6.67,
12.31,80.0019570680999,87.08329150411377,-17.0,14.0,13.0,5.0,5.0,3.0,0.0,0.0,2.0,0.0,15.89,165.3,8.14,
12.324,80.45919570681,86.37832915041137,-11.0,21.0,3.0,5.0,6.0,3.0,0.0,0.0,2.0,0.0,17.95,178.64,11.67,
12.339,81.08991957068099,85.92083291504113,-6.0,11.0,1.0,6.0,6.0,4.0,0.0,0.0,2.0,0.0,18.74,188.06,13.64,
12.353,81.51299195706811,85.44308329150411,-2.0,3.0,3.0,6.0,6.0,4.0,0.0,0.0,2.0,0.0,19.33,194.24,15.3,
12.367,81.7892991957068,85.08930832915041,3.0,1.0,-5.0,6.0,6.0,4.0,0.0,0.0,2.0,0.0,19.72,191.88,16.78,
12.381,81.92492991957067,85.02693083291504,8.0,-2.0,-4.0,6.0,6.0,4.0,0.0,0.0,2.0,0.0,20.31,186.68,18.74,
12.395,81.72249299195707,85.18269308329151,12.0,-3.0,-10.0,6.0,6.0,4.0,0.0,0.0,2.0,0.0,20.99,179.23,19.82,
12.409,81.3512492991957,85.57626930832916,13.0,-4.0,-8.0,6.0,6.0,4.0,0.0,0.0,3.0,0.0,21.68,159.22,20.9,
12.424,80.98112492991957,85.9216269308329,12.0,-2.0,0.0,6.0,6.0,4.0,0.0,0.0,3.0,0.0,22.56,147.74,22.07,
12.438,80.89911249299196,86.10016269308329,14.0,1.0,-14.0,6.0,6.0,4.0,0.0,1.0,3.0,0.0,24.43,135.57,25.11,
12.452,81.3769112492992,86.65801626930833,10.0,2.0,-10.0,6.0,6.0,4.0,0.0,1.0,3.0,0.0,25.41,111.34,26.88,
12.467,81.59569112492993,87.10980162693083,11.0,3.0,-3.0,6.0,6.0,4.0,0.0,1.0,3.0,0.0,26.49,101.24,28.65,
12.481,81.59956911249299,87.30798016269307,3.0,0.0,0.0,6.0,6.0,4.0,0.0,1.0,4.0,0.0,27.37,93.49,31.49,
12.495,81.7799569112493,87.5527980162693,4.0,-3.0,-1.0,6.0,6.0,4.0,0.0,1.0,4.0,0.0,29.33,87.51,32.47,
12.51,81.45599569112494,87.69427980162692,3.0,-5.0,2.0,6.0,6.0,4.0,0.0,1.0,4.0,0.0,30.31,79.17,33.35,
12.524,81.3605995691125,87.76242798016268,4.0,-3.0,0.0,6.0,6.0,4.0,0.0,1.0,4.0,0.0,31.2,76.22,33.94,
12.538,81.40505995691126,87.84124279801627,6.0,-3.0,-2.0,6.0,6.0,4.0,0.0,2.0,4.0,0.0,32.96,73.28,34.92,
12.553,81.36450599569113,88.10112427980162,3.0,-2.0,-1.0,6.0,7.0,4.0,0.0,2.0,4.0,0.0,33.84,66.51,35.61,
12.567,81.38745059956912,88.18111242798015,2.0,-6.0,0.0,6.0,7.0,4.0,0.0,2.0,4.0,0.0,34.73,62.98,36.3,
12.58,81.3357450599569,88.09011124279802,2.0,-11.0,1.0,6.0,7.0,4.0,0.0,2.0,5.0,0.0,35.61,59.84,37.38,
12.595,82.15857450599569,87.98201112427981,1.0,-16.0,5.0,6.0,7.0,4.0,0.0,2.0,5.0,0.0,37.18,57.19,37.77,
12.609,81.97085745059958,88.00720111242798,3.0,-24.0,0.0,6.0,7.0,4.0,0.0,3.0,5.0,0.0,38.26,52.39,37.96,
12.623,81.83508574505994,88.3697201112428,0.0,-20.0,2.0,6.0,7.0,4.0,0.0,3.0,5.0,0.0,39.44,50.52,37.67,
12.638,81.12850857450599,88.37897201112428,0.0,-20.0,0.0,7.0,7.0,4.0,0.0,3.0,5.0,0.0,40.91,49.15,37.08,
12.652,80.2208508574506,89.40589720111242,-2.0,-9.0,0.0,7.0,7.0,5.0,0.0,3.0,5.0,0.0,44.44,48.85,36.4,
12.666,80.04008508574506,88.83358972011123,-2.0,-22.0,8.0,7.0,8.0,5.0,0.0,4.0,6.0,1.0,46.21,49.93,35.61,
12.681,79.6440085085745,88.77635897201112,1.0,-15.0,3.0,8.0,8.0,5.0,0.0,4.0,6.0,1.0,48.07,51.01,34.53,
12.695,79.28940085085745,88.95063589720112,4.0,-12.0,5.0,8.0,8.0,5.0,0.0,4.0,6.0,1.0,50.03,51.21,34.34,
12.709,79.30794008508575,88.73406358972011,7.0,-21.0,10.0,8.0,8.0,5.0,0.0,5.0,6.0,1.0,54.84,46.21,34.43,
12.724,79.03079400850858,88.65840635897202,12.0,-15.0,3.0,8.0,9.0,5.0,0.0,5.0,6.0,1.0,57.78,41.5,34.73,
12.738,78.94907940085086,88.7498406358972,16.0,-24.0,8.0,8.0,9.0,5.0,0.0,5.0,6.0,1.0,61.12,36.0,34.92,
12.752,78.56290794008508,88.78598406358972,24.0,-18.0,0.0,8.0,9.0,5.0,0.0,6.0,7.0,1.0,68.18,24.62,35.22,
12.767,78.0202907940085,89.02359840635897,32.0,-14.0,2.0,8.0,9.0,5.0,0.0,6.0,7.0,2.0,71.81,19.23,35.71,
12.78,77.58802907940085,89.2363598406359,41.0,-7.0,-8.0,8.0,10.0,5.0,0.0,6.0,7.0,2.0,75.73,14.42,37.18,
12.794,77.33780290794009,89.68963598406359,47.0,-9.0,-7.0,7.0,10.0,5.0,0.0,7.0,8.0,2.0,79.85,10.5,38.26,
12.809,76.898780290794,90.22996359840637,54.0,-10.0,0.0,7.0,10.0,5.0,0.0,7.0,8.0,2.0,88.98,4.41,39.44,
12.823,75.2528780290794,90.99499635984063,42.0,-28.0,24.0,6.0,10.0,5.0,0.0,7.0,8.0,2.0,93.98,1.77,41.69,
12.837,75.45728780290794,90.24349963598407,67.0,-15.0,14.0,5.0,10.0,4.0,0.0,7.0,9.0,3.0,99.18,0.0,43.07,
12.853,74.39772878029079,91.80634996359842,66.0,-24.0,13.0,3.0,10.0,4.0,0.0,8.0,10.0,3.0,104.28,0.0,44.54,
12.867,73.49077287802908,92.43963499635984,80.0,-4.0,6.0,0.0,9.0,3.0,0.0,8.0,10.0,3.0,112.72,0.0,46.11,
12.881,73.31007728780293,93.41196349963597,89.0,46.0,0.0,0.0,8.0,1.0,0.0,8.0,11.0,3.0,115.46,0.0,48.95,
12.896,74.03000772878029,95.4261963499636,96.0,25.0,-22.0,0.0,7.0,0.0,0.0,9.0,11.0,3.0,116.84,0.0,49.74,
12.91,75.45200077287804,96.28461963499636,78.0,-10.0,16.0,0.0,5.0,0.0,0.0,9.0,12.0,4.0,83.09,0.0,49.25,
12.924,76.4582000772878,97.56746196349962,86.0,-35.0,30.0,0.0,4.0,0.0,0.0,10.0,0.0,4.0,1867.53,0.0,44.83,
12.939,75.37082000772878,97.33574619634997,102.0,39.0,31.0,0.0,3.0,0.0,0.0,10.0,0.0,4.0,107.13,0.0,42.58,
12.953,74.65008200077287,97.906574619635,111.0,21.0,-6.0,0.0,2.0,0.0,0.0,10.0,1.0,4.0,102.81,0.0,41.01,
12.967,75.0100082000773,98.87265746196351,138.0,55.0,18.0,0.0,2.0,0.0,0.0,10.0,1.0,4.0,95.65,0.0,40.32,
12.981,78.35800082000773,99.38326574619634,148.0,33.0,101.0,0.0,2.0,0.0,0.0,10.0,0.0,4.0,93.39,0.0,38.75,
12.995,79.13380008200077,99.34432657461964,174.0,-36.0,95.0,0.0,3.0,0.0,0.0,10.0,12.0,4.0,91.63,0.0,35.51,
13.009,79.28338000820008,98.95343265746197,203.0,24.0,60.0,0.0,3.0,0.0,0.0,10.0,10.0,3.0,89.47,0.0,31.29,
13.024,80.05433800082001,100.58834326574619,232.0,-2.0,49.0,0.0,4.0,0.0,0.0,9.0,9.0,2.0,80.44,0.0,24.13,
13.038,80.896433800082,100.28383432657462,206.0,5.0,56.0,0.0,4.0,0.0,0.0,9.0,8.0,2.0,72.2,0.0,20.99,
13.052,83.5996433800082,104.26738343265745,250.0,38.0,-41.0,0.0,5.0,0.0,0.0,10.0,6.0,1.0,61.12,0.0,18.15,
13.067,86.19196433800083,108.87773834326575,215.0,-3.0,40.0,0.0,5.0,0.0,0.0,11.0,4.0,0.0,46.99,0.0,12.46,
13.081,86.79319643380009,110.22077383432658,188.0,58.0,8.0,0.0,3.0,0.0,0.0,10.0,3.0,0.0,17.66,0.0,9.32,
13.095,83.09131964338002,113.28007738343267,176.0,179.0,-20.0,0.0,3.0,0.0,0.0,8.0,2.0,0.0,9.91,0.0,6.38,
13.11,84.89913196433801,113.43300773834326,177.0,193.0,-105.0,0.0,2.0,0.0,0.0,5.0,1.0,0.0,5.69,0.0,3.83,
13.123,91.6049131964338,112.45830077383432,75.0,171.0,-29.0,0.0,1.0,0.0,0.0,0.0,0.0,0.0,3.14,0.0,0.0,
13.137,95.20949131964338,111.70383007738344,110.0,61.0,-74.0,0.0,1.0,0.0,0.0,0.0,0.0,0.0,0.29,0.0,0.0,
13.151,94.93994913196434,110.73738300773833,110.0,29.0,-105.0,0.0,1.0,0.0,0.0,0.0,0.0,0.0,0.2,0.0,0.0,
13.164,94.46299491319643,110.89273830077383,33.0,92.0,-115.0,0.0,1.0,0.0,0.0,0.0,0.0,0.0,0.59,0.0,0.0,
13.178,98.91529949131963,115.15627383007737,-45.0,92.0,-68.0,0.0,1.0,0.0,0.0,0.0,0.0,0.0,0.59,0.0,0.0,
13.192,102.03352994913196,112.45962738300774,-91.0,24.0,-52.0,0.0,1.0,0.0,0.0,0.0,0.0,0.0,0.49,0.0,0.0,
13.206,102.46235299491319,108.06796273830078,-96.0,-40.0,-76.0,0.0,1.0,0.0,0.0,0.0,0.0,0.0,0.69,0.0,0.0,
13.219,102.73023529949133,108.87079627383007,-68.0,-126.0,-43.0,0.0,1.0,0.0,0.0,0.0,0.0,0.0,0.78,0.0,0.0,
13.234,93.70302352994914,107.484079627383,-100.0,-183.0,5.0,0.0,1.0,0.0,0.0,0.0,0.0,0.0,0.78,0.0,0.0,
13.247,86.01430235299492,106.0584079627383,-100.0,-104.0,26.0,0.0,1.0,0.0,0.0,0.0,0.0,0.0,0.88,0.0,0.0,
13.26,82.12243023529949,101.53284079627383,-123.0,-105.0,26.0,0.0,1.0,0.0,0.0,0.0,0.0,0.0,0.88,0.0,0.0,
13.275,79.54624302352995,96.94028407962739,-140.0,-87.0,4.0,0.0,1.0,0.0,0.0,0.0,0.0,0.0,0.88,0.0,0.0,
13.288,74.347624302353,94.83402840796273,-124.0,-131.0,4.0,0.0,1.0,0.0,0.0,0.0,0.0,0.0,0.78,0.0,0.0,
13.302,70.1917624302353,91.85140284079627,-159.0,-87.0,64.0,0.0,2.0,0.0,0.0,0.0,0.0,0.0,0.78,0.0,0.0,
13.316,66.09517624302353,89.39314028407964,-148.0,-26.0,-37.0,0.0,2.0,0.0,0.0,0.0,0.0,0.0,0.78,0.0,0.0,
13.329,62.83251762430235,91.78431402840796,-122.0,-1.0,-119.0,0.0,2.0,0.0,0.0,0.0,0.0,0.0,0.88,0.0,0.0,
13.343,61.264251762430234,94.52543140284078,-150.0,-13.0,-40.0,0.0,2.0,0.0,0.0,0.0,0.0,0.0,0.88,0.0,0.0,
13.357,59.217425176243026,96.25754314028408,-148.0,-2.0,-25.0,0.0,2.0,0.0,0.0,0.0,0.0,0.0,0.78,0.0,0.0,
13.371,59.1837425176243,96.6017543140284,-142.0,7.0,-59.0,0.0,2.0,0.0,0.0,0.0,0.0,0.0,0.78,0.0,0.0,
13.384,59.72937425176243,97.45517543140284,-163.0,-26.0,-35.0,0.0,1.0,0.0,0.0,0.0,0.0,0.0,0.78,0.0,0.0,
13.398,59.21693742517624,97.79251754314028,-175.0,-7.0,-11.0,0.0,1.0,0.0,0.0,0.0,0.0,0.0,0.69,0.0,0.0,
13.412,57.473693742517625,101.78625175431404,-198.0,23.0,47.0,0.0,1.0,0.0,0.0,0.0,0.0,0.0,0.69,0.0,0.0,
13.425,65.13836937425177,94.58962517543141,-122.0,98.0,-34.0,0.0,1.0,0.0,0.0,0.0,0.0,0.0,0.69,0.0,0.0,
13.438,53.71883693742518,107.42396251754315,-68.0,22.0,-195.0,0.0,1.0,0.0,0.0,0.0,0.0,0.0,0.59,0.0,0.0,
13.453,51.65888369374252,108.32039625175432,-224.0,-56.0,122.0,0.0,1.0,0.0,0.0,0.0,0.0,0.0,0.69,0.0,0.0,
13.466,55.77288836937425,103.92803962517543,-163.0,48.0,-67.0,0.0,1.0,0.0,0.0,0.0,0.0,0.0,0.69,0.0,0.0,
13.48,58.53328883693743,106.70180396251754,-54.0,-41.0,-17.0,0.0,2.0,0.0,0.0,0.0,0.0,0.0,0.69,0.0,0.0,
13.494,57.95432888369374,102.69518039625176,-181.0,40.0,-5.0,0.0,2.0,0.0,0.0,0.0,0.0,0.0,0.69,0.0,0.0,
13.507,56.49243288836938,106.78551803962516,-74.0,-135.0,-28.0,0.0,2.0,0.0,0.0,0.0,0.0,0.0,0.69,0.0,0.0,
13.521,59.25324328883694,102.7485518039625,-150.0,0.0,17.0,0.0,2.0,0.0,0.0,0.0,0.0,0.0,0.69,0.0,0.0,
13.535,61.41932432888369,103.57785518039624,-92.0,-18.0,-60.0,0.0,2.0,0.0,0.0,0.0,0.0,0.0,0.69,0.0,0.0,
13.548,61.43793243288837,103.25578551803962,-195.0,2.0,78.0,0.0,2.0,0.0,0.0,0.0,0.0,0.0,0.69,0.0,0.0,
13.562,67.79379324328883,97.24757855180395,-166.0,90.0,-21.0,0.0,2.0,0.0,0.0,0.0,0.0,0.0,0.69,0.0,0.0,
13.576,68.20437932432888,100.66975785518039,-123.0,82.0,88.0,0.0,2.0,0.0,0.0,0.0,0.0,0.0,0.69,0.0,0.0,
13.589,67.00343793243289,95.61197578551804,-230.0,159.0,97.0,0.0,2.0,0.0,0.0,0.0,0.0,0.0,0.69,0.0,0.0,
13.603,66.97334379324329,98.4541975785518,-109.0,-12.0,-84.0,0.0,2.0,0.0,0.0,0.0,0.0,0.0,0.69,0.0,0.0,
13.617,67.82533437932433,95.72341975785518,-183.0,-23.0,53.0,0.0,2.0,0.0,0.0,0.0,0.0,0.0,0.78,0.0,0.0,
13.63,68.97253343793243,95.27934197578553,-90.0,21.0,-64.0,0.0,2.0,0.0,0.0,0.0,0.0,0.0,0.78,0.0,0.0,
13.644,70.02325334379324,96.17093419757855,-117.0,12.0,7.0,0.0,2.0,0.0,0.0,0.0,0.0,0.0,0.69,0.0,0.0,
13.658,71.01932533437932,95.56709341975785,-118.0,1.0,7.0,0.0,2.0,0.0,0.0,0.0,0.0,0.0,0.69,0.0,0.0,
13.671,71.66793253343793,94.57970934197579,-135.0,39.0,-19.0,0.0,2.0,0.0,0.0,0.0,0.0,0.0,0.69,0.0,0.0,
13.684,82.9107932533438,86.29097093419759,-63.0,113.0,-165.0,0.0,1.0,0.0,0.0,0.0,0.0,0.0,0.69,0.0,0.0,
13.699,84.26007932533437,87.04609709341976,-64.0,-17.0,74.0,0.0,1.0,0.0,0.0,0.0,0.0,0.0,0.69,0.0,0.0,
13.712,82.55000793253343,82.49560970934198,91.0,162.0,39.0,0.0,1.0,0.0,0.0,0.0,0.0,0.0,0.78,0.0,0.0,
13.725,73.00100079325334,95.0275609709342,-4.0,191.0,-250.0,0.0,1.0,0.0,0.0,0.0,0.0,0.0,0.78,0.0,0.0,
13.739,92.22410007932534,110.97775609709342,-31.0,250.0,-17.0,0.0,1.0,0.0,0.0,0.0,0.0,0.0,0.69,0.0,0.0,
13.753,88.82741000793254,102.30377560970935,-163.0,-250.0,250.0,0.0,1.0,0.0,0.0,0.0,0.0,0.0,0.69,0.0,0.0,
13.766,83.86174100079324,97.70137756097094,-192.0,9.0,143.0,0.0,1.0,0.0,0.0,0.0,0.0,0.0,963.34,0.0,0.0,
13.789,87.36117410007932,89.29413775609709,-55.0,29.0,-30.0,0.0,2.0,0.0,0.0,0.0,0.0,0.0,0.69,0.0,0.0,
13.803,84.35411741000793,95.2844137756097,-56.0,-161.0,117.0,0.0,1.0,0.0,0.0,0.0,0.0,0.0,0.78,0.0,0.0,
13.816,79.7334117410008,94.72244137756097,-22.0,-77.0,118.0,0.0,1.0,0.0,0.0,0.0,0.0,0.0,0.78,0.0,0.0,
13.83,78.97434117410009,94.8822441377561,-47.0,67.0,32.0,0.0,1.0,0.0,0.0,0.0,0.0,0.0,0.78,0.0,0.0,
13.843,99.96743411741,111.35022441377562,-146.0,175.0,-250.0,0.0,1.0,0.0,0.0,0.0,0.0,0.0,0.69,0.0,0.0,
13.857,97.21574341174099,103.61902244137757,-230.0,-250.0,250.0,0.0,1.0,0.0,0.0,0.0,0.0,0.0,0.69,0.0,0.0,
13.872,89.7765743411741,94.37690224413775,151.0,250.0,-250.0,0.0,0.0,0.0,0.0,0.0,0.0,0.0,0.59,0.59,0.0,
13.885,88.96965743411741,102.47969022441377,65.0,42.0,-45.0,0.0,0.0,0.0,0.0,0.0,0.0,0.0,0.49,4.32,0.0,
13.898,87.77296574341175,103.44296902244136,-36.0,-119.0,195.0,0.0,1.0,0.0,0.0,0.0,0.0,0.0,0.39,8.14,0.0,
13.913,82.71229657434118,93.41429690224413,57.0,126.0,231.0,0.0,1.0,0.0,0.0,0.0,0.0,0.0,0.29,15.01,0.0,
13.926,79.67722965743413,82.08842969022442,226.0,242.0,-17.0,0.0,1.0,0.0,0.0,0.0,0.0,0.0,0.39,31.29,0.0,
13.94,81.4167229657434,83.17884296902244,172.0,83.0,9.0,0.0,0.0,0.0,0.0,0.0,0.0,0.0,0.59,77.5,0.0,
13.954,80.97867229657435,83.65688429690223,151.0,202.0,-76.0,0.0,0.0,0.0,0.0,0.0,0.0,0.0,0.59,91.72,0.0,
13.967,80.51186722965744,90.06768842969022,206.0,214.0,-18.0,0.0,1.0,0.0,0.0,0.0,0.0,0.0,0.69,105.85,0.59,
13.981,89.30318672296575,95.09176884296903,93.0,250.0,-65.0,0.0,1.0,0.0,0.0,0.0,0.0,0.0,0.59,119.98,0.59,
13.995,97.31031867229657,98.51017688429691,81.0,-77.0,-83.0,0.0,2.0,0.0,0.0,0.0,0.0,0.0,0.39,154.9,2.06,
14.009,95.97803186722966,101.0930176884297,-65.0,-208.0,219.0,0.0,2.0,0.0,0.0,0.0,0.0,0.0,0.88,171.18,7.85,
14.023,89.04980318672295,95.09630176884298,-59.0,-73.0,204.0,0.0,3.0,0.0,0.0,0.0,0.0,0.0,2.06,178.84,9.03,
14.038,88.17698031867229,90.8786301768843,39.0,86.0,-56.0,1.0,3.0,1.0,0.0,0.0,0.0,0.0,4.02,179.62,9.52,
14.051,94.52469803186723,89.51186301768843,26.0,41.0,-64.0,1.0,4.0,1.0,0.0,1.0,0.0,0.0,5.1,180.31,9.71,
14.065,91.68546980318672,88.50218630176884,-5.0,-112.0,95.0,2.0,4.0,1.0,0.0,1.0,0.0,0.0,6.38,183.45,10.5,
14.08,87.81054698031866,86.52921863017689,17.0,1.0,2.0,2.0,5.0,1.0,0.0,2.0,0.0,0.0,8.14,187.76,10.99,
14.094,88.67405469803187,87.01592186301768,24.0,19.0,-21.0,2.0,5.0,1.0,0.0,2.0,0.0,0.0,12.85,189.63,11.77,
14.108,88.13040546980318,87.23559218630177,0.0,-1.0,26.0,2.0,5.0,2.0,0.0,2.0,0.0,0.0,15.5,184.82,13.93,
14.123,89.48904054698032,86.64555921863017,4.0,0.0,1.0,3.0,6.0,2.0,0.0,3.0,0.0,0.0,17.85,180.5,15.11,
14.137,90.48890405469803,86.55055592186302,-4.0,-15.0,26.0,3.0,6.0,2.0,0.0,4.0,1.0,0.0,20.21,176.97,15.99,
14.151,91.00289040546981,84.5070555921863,2.0,-25.0,5.0,3.0,6.0,2.0,0.0,4.0,1.0,0.0,24.82,177.17,16.78,
14.166,90.90128904054698,85.04070555921864,5.0,-14.0,11.0,3.0,7.0,2.0,0.0,4.0,2.0,0.0,27.08,180.31,17.56,
14.18,90.38712890405469,84.39207055592185,3.0,-5.0,9.0,4.0,7.0,2.0,0.0,5.0,2.0,0.0,29.23,183.74,17.95,
14.194,89.81371289040547,84.54320705559218,7.0,1.0,-3.0,4.0,7.0,2.0,0.0,5.0,2.0,0.0,31.2,184.33,18.25,
14.209,89.39637128904053,84.59432070555921,4.0,-1.0,-1.0,4.0,7.0,2.0,0.0,5.0,2.0,0.0,34.04,180.9,19.13,
14.223,89.42663712890406,84.36543207055593,3.0,-3.0,-1.0,4.0,7.0,2.0,0.0,5.0,2.0,0.0,34.92,175.5,19.33,
14.237,89.67266371289041,84.18054320705559,3.0,-1.0,-1.0,4.0,7.0,2.0,0.0,5.0,2.0,0.0,35.51,169.32,19.42,
14.252,89.73326637128903,84.09005432070555,2.0,0.0,-2.0,4.0,7.0,2.0,0.0,5.0,2.0,0.0,36.2,156.57,19.52,
14.266,89.66732663712891,84.08100543207055,1.0,-4.0,-1.0,4.0,7.0,2.0,0.0,4.0,3.0,0.0,36.1,151.56,19.62,
14.28,89.54373266371289,84.07110054320705,0.0,-2.0,-2.0,4.0,7.0,2.0,0.0,4.0,3.0,0.0,35.81,147.93,19.62,
14.295,89.3243732663713,84.08811005432071,-1.0,4.0,-10.0,4.0,7.0,2.0,0.0,4.0,3.0,0.0,35.32,144.7,19.52,
14.309,89.18543732663713,84.17081100543209,-3.0,8.0,-12.0,4.0,6.0,2.0,0.0,3.0,2.0,0.0,33.35,145.78,19.33,
14.323,89.0365437326637,84.25108110054322,-6.0,7.0,-8.0,3.0,6.0,2.0,0.0,3.0,2.0,0.0,31.39,148.82,19.23,
14.338,89.33665437326637,84.00710811005433,-6.0,9.0,-9.0,3.0,6.0,2.0,0.0,2.0,2.0,0.0,28.94,158.14,19.03,
14.352,89.75366543732663,83.69471081100542,-6.0,2.0,-4.0,3.0,5.0,2.0,0.0,1.0,2.0,0.0,26.39,163.53,18.25,
14.366,90.43436654373266,83.09647108110055,-3.0,2.0,-5.0,3.0,5.0,2.0,0.0,1.0,2.0,0.0,22.07,168.83,17.95,
14.381,89.24243665437326,83.65764710811006,-21.0,-33.0,8.0,3.0,5.0,2.0,0.0,1.0,2.0,0.0,20.9,172.66,18.15,
14.395,90.17624366543734,83.587764710811,0.0,16.0,2.0,3.0,5.0,2.0,0.0,1.0,2.0,0.0,20.4,177.46,18.44,
14.409,91.79062436654372,83.8057764710811,10.0,8.0,55.0,3.0,5.0,2.0,0.0,1.0,2.0,0.0,20.31,179.52,19.42,
14.424,89.64806243665436,82.08157764710812,-8.0,11.0,-7.0,4.0,5.0,2.0,0.0,1.0,2.0,0.0,20.31,181.49,19.91,
14.438,88.90280624366544,84.13215776471081,5.0,23.0,-12.0,4.0,5.0,2.0,0.0,1.0,2.0,0.0,20.31,184.82,20.11,
14.452,88.78328062436654,83.92321577647108,-12.0,-8.0,28.0,4.0,5.0,2.0,0.0,1.0,2.0,0.0,20.21,186.0,20.21,
14.467,88.63632806243666,83.49732157764711,0.0,8.0,-21.0,4.0,5.0,2.0,0.0,1.0,2.0,0.0,19.91,186.59,20.11,
14.481,85.81363280624367,84.95773215776471,-16.0,46.0,0.0,4.0,5.0,2.0,0.0,1.0,3.0,0.0,19.82,186.29,20.01,
14.495,93.82936328062436,82.42177321577647,2.0,9.0,11.0,4.0,5.0,2.0,0.0,1.0,3.0,0.0,19.82,183.05,20.01,
14.51,91.13893632806244,82.45617732157764,-27.0,-35.0,20.0,4.0,5.0,2.0,0.0,1.0,3.0,0.0,20.01,180.41,20.01,
14.524,96.45889363280624,81.81161773215777,52.0,15.0,-46.0,4.0,5.0,2.0,0.0,1.0,3.0,0.0,20.5,177.66,20.11,
14.538,96.22588936328061,80.93716177321578,-13.0,-16.0,33.0,4.0,5.0,2.0,0.0,1.0,3.0,0.0,20.8,172.07,20.11,
14.553,95.44658893632806,81.72271617732159,8.0,26.0,-10.0,4.0,5.0,2.0,0.0,2.0,3.0,0.0,21.29,169.61,20.21,
14.567,97.9336588936328,81.32427161773217,42.0,26.0,-14.0,4.0,5.0,2.0,0.0,2.0,3.0,0.0,22.27,167.85,20.21,
14.581,95.21236588936327,82.09442716177321,6.0,-50.0,23.0,4.0,5.0,2.0,0.0,2.0,3.0,0.0,22.76,166.08,20.21,
14.596,90.95323658893633,84.12444271617731,9.0,25.0,-27.0,4.0,5.0,2.0,0.0,2.0,3.0,0.0,23.25,162.45,19.91,
14.61,91.62532365889363,84.61544427161773,-14.0,1.0,14.0,4.0,5.0,2.0,0.0,2.0,3.0,0.0,23.54,159.9,19.52,
14.624,91.74653236588937,84.27754442716177,1.0,-19.0,2.0,4.0,5.0,2.0,0.0,2.0,3.0,0.0,23.45,156.37,18.93,
14.639,90.81365323658893,84.16275444271619,-2.0,-4.0,2.0,4.0,5.0,2.0,0.0,2.0,3.0,0.0,23.15,148.62,18.15,
14.653,91.0083653236589,84.09727544427163,2.0,-10.0,-8.0,4.0,5.0,2.0,0.0,2.0,3.0,0.0,22.66,143.03,16.58,
14.667,90.91083653236589,83.78472754442716,0.0,-11.0,-1.0,3.0,4.0,2.0,0.0,1.0,3.0,0.0,21.97,135.77,15.7,
14.682,91.4770836532366,82.97047275444271,4.0,8.0,-9.0,3.0,4.0,2.0,0.0,1.0,3.0,0.0,20.21,116.74,14.81,
14.696,90.94870836532365,83.28504727544427,2.0,-10.0,2.0,2.0,4.0,2.0,0.0,1.0,2.0,0.0,19.23,106.54,13.05,
14.71,90.71587083653236,83.24450472754442,3.0,-5.0,4.0,2.0,4.0,1.0,0.0,1.0,2.0,0.0,18.15,96.63,12.16,
14.725,90.37758708365325,83.10545047275444,0.0,2.0,5.0,2.0,4.0,1.0,0.0,1.0,2.0,0.0,17.17,87.41,11.67,
14.738,89.74075870836532,83.75754504727544,5.0,-8.0,0.0,2.0,4.0,1.0,0.0,1.0,2.0,0.0,15.79,72.69,11.18,
14.752,89.56907587083653,83.93075450472755,3.0,-1.0,2.0,2.0,4.0,1.0,0.0,1.0,2.0,0.0,15.4,67.39,10.59,
14.767,89.21890758708366,84.23607545047275,2.0,-6.0,3.0,2.0,3.0,1.0,0.0,1.0,2.0,0.0,15.11,63.37,10.4,
14.781,89.08489075870835,84.32960754504728,2.0,-6.0,2.0,2.0,3.0,1.0,0.0,1.0,2.0,0.0,14.91,60.33,10.2,
14.795,89.00848907587084,84.41996075450473,5.0,-12.0,2.0,2.0,3.0,1.0,0.0,1.0,2.0,0.0,14.81,55.72,10.01,
14.809,88.91084890758708,84.69899607545048,4.0,-18.0,6.0,2.0,3.0,1.0,0.0,1.0,2.0,0.0,14.81,53.66,9.61,
14.823,88.6310848907587,84.60989960754505,2.0,-15.0,6.0,2.0,3.0,1.0,0.0,1.0,2.0,0.0,15.01,51.89,9.42,
14.837,88.40510848907587,84.9159899607545,5.0,-14.0,-3.0,2.0,3.0,1.0,0.0,1.0,2.0,0.0,15.3,49.25,9.32,
14.852,88.00451084890759,85.15359899607546,-2.0,-6.0,2.0,2.0,3.0,1.0,0.0,1.0,2.0,0.0,15.89,48.85,9.32,
14.865,87.90145108489075,85.10535989960755,0.0,-6.0,-2.0,2.0,3.0,1.0,0.0,1.0,2.0,0.0,16.19,49.25,9.22,
14.879,87.63014510848907,85.22653598996075,-2.0,-1.0,-1.0,2.0,3.0,1.0,0.0,1.0,3.0,0.0,16.38,50.33,9.32,
14.894,87.5490145108489,85.18465359899608,-4.0,0.0,-2.0,2.0,3.0,1.0,0.0,1.0,3.0,0.0,16.58,53.27,9.42,
14.908,87.5859014510849,85.18946535989961,-4.0,5.0,-4.0,2.0,3.0,1.0,0.0,1.0,3.0,0.0,16.68,54.84,9.61,
14.922,87.60759014510849,85.10894653598996,-6.0,4.0,-4.0,2.0,4.0,1.0,0.0,1.0,3.0,0.0,16.48,56.51,9.71,
14.936,87.59175901451086,85.073894653599,-5.0,3.0,-4.0,2.0,4.0,1.0,0.0,1.0,3.0,0.0,16.28,57.88,9.61,
14.95,87.69817590145108,85.0523894653599,-4.0,0.0,-3.0,2.0,3.0,1.0,0.0,1.0,2.0,0.0,16.09,59.55,9.52,
14.964,87.72681759014512,85.01423894653598,-2.0,-3.0,-1.0,2.0,3.0,1.0,0.0,1.0,2.0,0.0,15.3,59.25,8.83,
14.979,87.65768175901451,85.0194238946536,-1.0,-7.0,0.0,2.0,3.0,1.0,0.0,1.0,2.0,0.0,14.91,58.47,8.44,
14.992,87.59676817590145,85.01994238946536,0.0,-10.0,1.0,2.0,3.0,1.0,0.0,1.0,2.0,0.0,14.62,55.13,7.95,
15.006,87.41067681759014,84.92099423894653,1.0,-13.0,2.0,1.0,3.0,1.0,0.0,1.0,2.0,0.0,14.22,52.88,7.06,
15.021,87.22106768175902,84.86609942389465,3.0,-14.0,1.0,1.0,3.0,1.0,0.0,1.0,2.0,0.0,13.64,50.42,6.67,
15.035,86.70710676817592,85.19360994238947,1.0,-10.0,0.0,1.0,3.0,1.0,0.0,1.0,2.0,0.0,13.44,47.87,6.38,
15.048,86.0257106768176,85.59536099423896,0.0,-6.0,2.0,1.0,3.0,1.0,0.0,1.0,2.0,0.0,13.24,43.56,6.08,
15.063,85.40857106768178,85.95053609942389,-1.0,-3.0,0.0,1.0,3.0,1.0,0.0,1.0,2.0,0.0,13.24,42.18,5.89,
15.077,84.99585710676817,86.19305360994238,0.0,1.0,-2.0,1.0,3.0,1.0,0.0,1.0,2.0,0.0,13.34,41.5,5.89,
15.09,85.08958571067681,86.12730536099424,-2.0,-5.0,1.0,1.0,3.0,1.0,0.0,1.0,2.0,0.0,13.44,41.2,5.89,
15.105,85.26095857106769,85.98573053609942,-2.0,-1.0,-3.0,1.0,3.0,1.0,0.0,1.0,2.0,0.0,13.54,41.79,5.89,
15.119,85.66509585710676,85.71957305360993,-4.0,2.0,-3.0,2.0,3.0,1.0,0.0,1.0,2.0,0.0,13.64,42.58,5.98,
15.133,84.98550958571067,86.205957305361,-4.0,-1.0,-4.0,2.0,3.0,1.0,0.0,1.0,2.0,0.0,13.73,43.36,5.89,
15.148,85.12455095857106,86.2275957305361,-2.0,-5.0,-2.0,2.0,3.0,1.0,0.0,1.0,2.0,0.0,13.64,44.15,5.89,
15.162,85.34545509585712,86.00475957305362,-3.0,-2.0,-3.0,1.0,3.0,1.0,0.0,1.0,2.0,0.0,13.54,45.42,5.79,
15.175,85.41254550958571,85.87447595730536,-4.0,-1.0,-1.0,1.0,3.0,1.0,0.0,1.0,2.0,0.0,13.24,46.01,5.69,
15.19,85.49125455095857,85.80744759573054,-4.0,0.0,-3.0,1.0,3.0,1.0,0.0,1.0,2.0,0.0,12.85,46.4,5.59,
15.204,85.57112545509587,85.71974475957305,-5.0,0.0,-2.0,1.0,3.0,1.0,0.0,0.0,2.0,0.0,12.46,46.89,5.59,
15.218,85.66911254550959,85.65697447595731,-4.0,-1.0,-2.0,1.0,3.0,1.0,0.0,0.0,1.0,0.0,11.97,47.28,5.49,
15.233,85.75091125455097,85.58769744759573,-4.0,-2.0,-2.0,1.0,3.0,1.0,0.0,0.0,1.0,0.0,11.09,47.87,5.4,
15.246,85.75909112545511,85.50876974475958,-4.0,-2.0,-1.0,1.0,3.0,1.0,0.0,0.0,1.0,0.0,10.5,48.56,5.3,
15.26,85.71490911254551,85.29387697447595,-2.0,-4.0,0.0,1.0,3.0,1.0,0.0,0.0,1.0,0.0,10.01,50.13,4.91,
15.275,85.69249091125454,85.29938769744759,0.0,-7.0,0.0,1.0,3.0,1.0,0.0,0.0,1.0,0.0,9.81,50.52,4.71,
15.288,85.66324909112545,85.18293876974477,0.0,-5.0,0.0,1.0,3.0,1.0,0.0,0.0,1.0,0.0,9.61,50.42,4.61,
15.302,85.69632490911255,85.20729387697446,-1.0,-1.0,0.0,1.0,3.0,1.0,0.0,0.0,1.0,0.0,9.71,49.83,4.71,
15.316,85.82563249091126,85.21872938769745,0.0,-3.0,0.0,1.0,3.0,1.0,0.0,0.0,1.0,0.0,10.01,48.07,4.81,
15.33,85.68556324909113,85.25587293876976,-2.0,-1.0,0.0,1.0,3.0,1.0,0.0,0.0,1.0,0.0,10.2,47.48,4.91,
15.344,85.59955632490912,85.31358729387696,-2.0,0.0,-1.0,1.0,3.0,1.0,0.0,0.0,1.0,0.0,10.3,47.19,5.0,
15.358,85.53695563249092,85.31935872938769,-3.0,1.0,-1.0,1.0,3.0,1.0,0.0,0.0,1.0,0.0,10.4,47.48,5.0,
15.373,85.5306955632491,85.25693587293878,-3.0,3.0,-2.0,1.0,3.0,1.0,0.0,0.0,2.0,0.0,10.3,47.87,5.1,
15.386,85.53006955632492,85.22369358729388,-3.0,3.0,-1.0,1.0,3.0,1.0,0.0,0.0,2.0,0.0,10.3,48.17,5.1,
15.4,85.55700695563249,85.2203693587294,-3.0,4.0,-2.0,1.0,3.0,1.0,0.0,0.0,2.0,0.0,10.2,48.56,5.2,
15.415,85.64970069556324,85.21103693587293,-3.0,4.0,-1.0,1.0,3.0,1.0,0.0,0.0,2.0,0.0,10.2,48.85,5.3,
15.429,85.74897006955634,85.2461036935873,-3.0,5.0,-2.0,1.0,3.0,1.0,0.0,0.0,2.0,0.0,10.1,48.85,5.3,
15.442,85.78589700695565,85.23161036935873,-4.0,4.0,0.0,1.0,3.0,1.0,0.0,0.0,2.0,0.0,10.1,48.85,5.3,
15.457,85.80758970069556,85.23916103693587,-4.0,3.0,-1.0,1.0,3.0,1.0,0.0,0.0,2.0,0.0,10.01,48.95,5.3,
15.471,85.91775897006956,85.25791610369359,-4.0,3.0,-1.0,1.0,3.0,1.0,0.0,0.0,2.0,0.0,9.81,49.44,5.3,
15.484,86.02777589700696,85.20579161036936,-3.0,1.0,0.0,1.0,3.0,1.0,0.0,0.0,2.0,0.0,9.71,49.83,5.3,
15.499,86.06577758970069,85.12857916103694,-2.0,1.0,-1.0,1.0,3.0,1.0,0.0,0.0,2.0,0.0,9.61,50.13,5.2,
15.513,86.06957775897006,85.1748579161037,-3.0,0.0,0.0,1.0,3.0,1.0,0.0,0.0,2.0,0.0,9.61,50.23,5.3,
15.526,86.006957775897,85.18848579161038,-2.0,1.0,-1.0,1.0,3.0,1.0,0.0,0.0,2.0,0.0,9.71,50.42,5.3,
15.541,86.02769577758971,85.20784857916102,-3.0,2.0,-1.0,1.0,3.0,1.0,0.0,0.0,2.0,0.0,9.91,50.33,5.4,
15.555,86.02076957775895,85.20978485791609,-3.0,2.0,-1.0,1.0,3.0,1.0,0.0,0.0,2.0,0.0,9.81,50.23,5.4,
15.568,86.06507695777589,85.19197848579161,-3.0,2.0,-1.0,1.0,3.0,1.0,0.0,0.0,2.0,0.0,9.81,50.23,5.49,
15.583,86.12350769577759,85.19919784857916,-3.0,2.0,-1.0,1.0,3.0,1.0,0.0,0.0,2.0,0.0,9.81,50.33,5.59,
15.597,86.15635076957776,85.20891978485791,-2.0,2.0,-1.0,1.0,3.0,1.0,0.0,0.0,2.0,0.0,9.81,50.33,5.59,
15.61,86.21363507695777,85.1468919784858,-2.0,0.0,0.0,1.0,3.0,1.0,0.0,0.0,2.0,0.0,9.71,50.23,5.69,
15.625,86.22836350769578,85.11368919784859,-2.0,0.0,0.0,1.0,3.0,1.0,0.0,0.0,2.0,0.0,9.81,49.74,5.79,
15.638,86.23883635076957,85.15536891978486,-1.0,0.0,0.0,1.0,3.0,1.0,0.0,0.0,2.0,0.0,10.1,49.34,5.98,
15.652,86.23088363507695,85.13253689197849,-2.0,0.0,0.0,1.0,3.0,1.0,0.0,0.0,2.0,0.0,10.3,49.05,6.08,
15.667,86.25708836350769,85.16625368919786,-2.0,0.0,0.0,1.0,3.0,1.0,0.0,0.0,2.0,0.0,10.4,48.76,6.08,
15.68,86.28670883635077,85.1426253689198,-2.0,0.0,0.0,1.0,3.0,1.0,0.0,1.0,2.0,0.0,10.59,48.27,6.18,
15.694,86.32567088363508,85.19426253689198,-1.0,0.0,0.0,1.0,3.0,1.0,0.0,1.0,2.0,0.0,10.79,47.97,6.47,
15.709,86.3835670883635,85.2084262536892,-1.0,0.0,0.0,1.0,3.0,1.0,0.0,1.0,2.0,0.0,10.99,47.68,6.57,
15.722,86.38035670883636,85.19184262536892,-1.0,0.0,0.0,1.0,3.0,1.0,0.0,1.0,2.0,0.0,11.28,47.28,6.67,
15.736,86.36203567088364,85.1721842625369,-1.0,0.0,0.0,1.0,3.0,1.0,0.0,1.0,2.0,0.0,11.48,46.3,6.77,
15.75,86.33320356708836,85.1432184262537,-1.0,0.0,0.0,1.0,3.0,1.0,0.0,1.0,2.0,0.0,11.67,45.91,6.97,
15.764,86.35732035670884,85.17632184262537,-2.0,0.0,0.0,2.0,3.0,1.0,0.0,1.0,2.0,0.0,11.97,45.71,7.16,
15.778,86.32373203567089,85.19763218426255,-2.0,-1.0,0.0,2.0,3.0,1.0,0.0,1.0,2.0,0.0,12.16,45.71,7.16,
15.793,86.33837320356709,85.18176321842625,-2.0,-1.0,0.0,2.0,3.0,1.0,0.0,1.0,2.0,0.0,12.36,45.81,7.26,
15.806,86.3038373203567,85.18017632184262,-1.0,-1.0,0.0,2.0,3.0,1.0,0.0,1.0,2.0,0.0,12.46,45.91,7.26,
15.82,86.34538373203567,85.23401763218425,-1.0,-2.0,0.0,2.0,3.0,1.0,0.0,1.0,2.0,0.0,12.65,45.91,7.26,
15.835,86.34053837320357,85.22140176321844,-1.0,-1.0,0.0,2.0,3.0,1.0,0.0,1.0,2.0,0.0,12.85,45.91,7.36,
15.848,86.33105383732035,85.25614017632185,-1.0,0.0,0.0,2.0,3.0,1.0,0.0,1.0,2.0,0.0,13.05,45.32,7.46,
15.862,86.26710538373203,85.23261401763219,-2.0,0.0,-1.0,2.0,3.0,1.0,0.0,1.0,3.0,0.0,13.15,45.03,7.46,
15.877,86.3057105383732,85.28426140176323,-2.0,0.0,-1.0,2.0,3.0,1.0,0.0,1.0,3.0,0.0,13.24,44.73,7.55,
15.891,86.30057105383732,85.29842614017632,-2.0,0.0,0.0,2.0,3.0,1.0,0.0,1.0,3.0,0.0,13.34,44.83,7.55,
15.904,86.23705710538373,85.29084261401763,-2.0,0.0,-1.0,2.0,3.0,1.0,0.0,1.0,3.0,0.0,13.34,45.22,7.55,
15.919,86.29370571053838,85.30808426140177,-2.0,0.0,-1.0,2.0,3.0,1.0,0.0,1.0,3.0,0.0,13.34,45.62,7.65,
15.933,86.29037057105384,85.30080842614018,-2.0,0.0,-1.0,2.0,3.0,1.0,0.0,1.0,3.0,0.0,13.44,45.91,7.55,
15.946,86.36203705710538,85.30008084261401,-3.0,0.0,-1.0,2.0,3.0,1.0,0.0,1.0,3.0,0.0,13.34,46.21,7.55,
15.961,86.33320370571055,85.27300808426139,-2.0,0.0,0.0,2.0,3.0,1.0,0.0,1.0,3.0,0.0,13.44,46.4,7.55,
15.975,86.37532037057106,85.23430080842614,-2.0,0.0,-1.0,2.0,3.0,1.0,0.0,1.0,3.0,0.0,13.44,46.6,7.65,
15.989,86.4245320370571,85.23943008084261,-2.0,0.0,-1.0,2.0,3.0,1.0,0.0,1.0,3.0,0.0,13.44,46.79,7.65,
16.003,86.40245320370572,85.24894300808427,-2.0,0.0,0.0,2.0,3.0,1.0,0.0,1.0,3.0,0.0,13.54,47.09,7.65,
16.017,86.39124532037057,85.21389430080842,-2.0,0.0,-1.0,2.0,3.0,1.0,0.0,1.0,3.0,0.0,13.64,47.09,7.65,
16.031,86.41712453203706,85.24638943008085,-2.0,0.0,-1.0,2.0,3.0,1.0,0.0,1.0,3.0,0.0,13.64,47.19,7.65,
16.045,86.36571245320371,85.22263894300809,-2.0,0.0,0.0,2.0,3.0,1.0,0.0,1.0,3.0,0.0,13.64,47.28,7.65,
16.059,86.40557124532037,85.2112638943008,-2.0,0.0,-1.0,2.0,3.0,1.0,0.0,1.0,3.0,0.0,13.64,47.38,7.75,
16.073,86.36455712453204,85.23712638943007,-2.0,0.0,0.0,2.0,3.0,1.0,0.0,1.0,3.0,0.0,13.73,47.48,7.75,
16.087,86.3154557124532,85.22171263894302,-1.0,0.0,0.0,2.0,3.0,1.0,0.0,1.0,3.0,0.0,13.83,47.48,7.85,
16.101,86.30154557124533,85.25617126389432,-1.0,-1.0,0.0,2.0,3.0,1.0,0.0,1.0,3.0,0.0,13.83,47.58,7.85,
16.115,86.30915455712453,85.29561712638943,-1.0,0.0,0.0,2.0,3.0,1.0,0.0,1.0,3.0,0.0,14.03,47.28,7.95,
16.129,86.35491545571246,85.34456171263894,-1.0,0.0,-1.0,2.0,3.0,1.0,0.0,1.0,3.0,0.0,14.13,46.99,7.95,
16.143,86.32349154557124,85.36745617126391,-2.0,-1.0,0.0,2.0,3.0,1.0,0.0,1.0,3.0,0.0,14.22,46.89,8.04,
16.157,86.28434915455712,85.38774561712638,-2.0,0.0,-1.0,2.0,3.0,1.0,0.0,1.0,3.0,0.0,14.52,46.79,8.14,
16.172,86.29843491545572,85.38077456171264,-2.0,-1.0,0.0,2.0,3.0,1.0,0.0,1.0,3.0,0.0,14.52,46.79,8.24,
16.185,86.29084349154557,85.33507745617126,-2.0,0.0,-1.0,2.0,4.0,1.0,0.0,1.0,3.0,0.0,14.52,46.99,8.24,
16.199,86.29908434915455,85.36650774561714,-1.0,0.0,0.0,2.0,4.0,1.0,0.0,1.0,3.0,0.0,14.72,46.99,8.24,
16.214,86.29090843491545,85.34265077456172,-1.0,0.0,0.0,2.0,4.0,1.0,0.0,1.0,3.0,0.0,14.91,46.89,8.44,
16.227,86.27209084349154,85.34026507745618,-1.0,0.0,0.0,2.0,4.0,1.0,0.0,1.0,3.0,0.0,15.01,46.7,8.53,
16.241,86.36020908434915,85.32202650774562,-1.0,-1.0,0.0,2.0,4.0,1.0,0.0,1.0,3.0,0.0,15.11,46.4,8.73,
16.256,86.35102090843492,85.36520265077458,-1.0,-1.0,0.0,2.0,4.0,1.0,0.0,1.0,3.0,0.0,15.3,46.11,8.73,
16.27,86.34110209084349,85.41452026507746,-2.0,-1.0,0.0,2.0,4.0,1.0,0.0,1.0,3.0,0.0,15.6,46.01,8.83,
16.283,86.34911020908436,85.40145202650776,-1.0,0.0,0.0,2.0,4.0,1.0,0.0,1.0,3.0,0.0,15.7,46.01,8.93,
16.297,86.34991102090844,85.41814520265078,-1.0,-1.0,0.0,2.0,4.0,1.0,0.0,2.0,3.0,0.0,15.89,46.01,9.12,
16.312,86.27799110209084,85.37481452026509,-2.0,-2.0,0.0,2.0,4.0,1.0,0.0,2.0,3.0,0.0,16.09,46.11,9.22,
16.325,86.27079911020908,85.44248145202651,-1.0,-1.0,0.0,2.0,4.0,1.0,0.0,2.0,3.0,0.0,16.48,45.91,9.22,
16.339,86.2520799110209,85.44924814520265,-1.0,-1.0,0.0,3.0,4.0,1.0,0.0,2.0,3.0,0.0,16.68,45.71,9.42,
16.354,86.28620799110209,85.46792481452026,-2.0,-1.0,0.0,3.0,4.0,1.0,0.0,2.0,3.0,0.0,16.87,45.62,9.61,
16.368,86.19062079911022,85.48779248145203,-2.0,-1.0,0.0,3.0,4.0,1.0,0.0,2.0,3.0,0.0,17.07,45.42,9.61,
16.381,86.19006207991102,85.5257792481452,-2.0,0.0,-1.0,3.0,4.0,1.0,0.0,2.0,3.0,0.0,17.36,45.62,9.71,
16.396,86.18100620799112,85.50257792481452,-3.0,0.0,0.0,3.0,4.0,1.0,0.0,2.0,3.0,0.0,17.56,45.91,9.81,
16.41,86.18910062079911,85.44625779248145,-1.0,0.0,-1.0,3.0,4.0,1.0,0.0,2.0,3.0,0.0,17.66,46.11,9.81,
16.423,86.2349100620799,85.44962577924815,-2.0,-1.0,0.0,3.0,4.0,1.0,0.0,2.0,3.0,0.0,17.66,46.21,9.91,
16.438,86.19449100620798,85.44096257792481,-1.0,-1.0,-1.0,3.0,4.0,1.0,0.0,2.0,3.0,0.0,17.85,46.21,9.91,
16.452,86.2084491006208,85.47609625779248,-2.0,0.0,0.0,3.0,4.0,1.0,0.0,2.0,3.0,0.0,18.05,46.21,9.91,
16.466,86.18284491006209,85.49760962577925,-2.0,0.0,-1.0,3.0,4.0,1.0,0.0,2.0,3.0,0.0,18.15,46.21,9.91,
16.48,86.1442844910062,85.52676096257792,-2.0,0.0,0.0,3.0,4.0,1.0,0.0,2.0,3.0,0.0,18.05,46.01,9.91,
16.494,86.11342844910061,85.5026760962578,-2.0,0.0,-1.0,3.0,4.0,1.0,0.0,2.0,3.0,0.0,18.05,45.91,9.81,
16.508,86.11034284491005,85.44626760962578,-2.0,0.0,0.0,3.0,4.0,1.0,0.0,2.0,3.0,0.0,18.05,45.91,9.71,
16.522,86.08303428449099,85.41362676096257,-1.0,0.0,-1.0,3.0,4.0,1.0,0.0,2.0,3.0,0.0,18.05,46.01,9.71,
16.536,86.16130342844909,85.50036267609626,-2.0,-1.0,0.0,3.0,4.0,2.0,0.0,2.0,3.0,0.0,18.05,45.81,9.71,
16.55,86.13313034284491,85.47303626760963,-2.0,0.0,0.0,3.0,4.0,2.0,0.0,2.0,3.0,0.0,18.05,45.52,9.61,
16.565,86.13031303428448,85.53330362676097,-2.0,0.0,0.0,3.0,4.0,2.0,0.0,2.0,3.0,0.0,18.15,45.22,9.61,
16.578,86.13003130342844,85.5033303626761,-2.0,0.0,-1.0,3.0,4.0,2.0,0.0,2.0,3.0,0.0,18.15,44.93,9.61,
16.592,86.14800313034286,85.5093330362676,-2.0,0.0,-1.0,3.0,4.0,2.0,0.0,2.0,3.0,0.0,18.05,45.03,9.61,
16.607,86.17680031303429,85.50093330362677,-2.0,0.0,-1.0,3.0,4.0,2.0,0.0,2.0,3.0,0.0,18.05,45.32,9.61,
16.62,86.19768003130342,85.48209333036267,-3.0,0.0,0.0,3.0,4.0,2.0,0.0,2.0,3.0,0.0,17.95,45.52,9.61,
16.634,86.22676800313035,85.43520933303628,-2.0,0.0,-1.0,3.0,4.0,2.0,0.0,2.0,3.0,0.0,17.95,46.11,9.61,
16.649,86.22067680031303,85.43052093330364,-3.0,0.0,-1.0,3.0,4.0,2.0,0.0,2.0,3.0,0.0,17.85,46.3,9.61,
16.662,86.15706768003132,85.43005209333037,-2.0,0.0,0.0,3.0,4.0,2.0,0.0,2.0,3.0,0.0,17.85,46.5,9.52,
16.676,86.09670676800314,85.45700520933303,-2.0,0.0,-1.0,3.0,4.0,2.0,0.0,2.0,3.0,0.0,17.85,46.6,9.52,
16.691,86.14467067680033,85.4957005209333,-2.0,0.0,-1.0,3.0,4.0,2.0,0.0,2.0,3.0,0.0,17.76,46.99,9.42,
16.705,86.13146706768003,85.45457005209333,-3.0,0.0,0.0,3.0,4.0,2.0,0.0,2.0,3.0,0.0,17.76,47.28,9.52,
16.718,86.076146706768,85.46845700520933,-2.0,0.0,-1.0,3.0,4.0,2.0,0.0,2.0,3.0,0.0,17.66,47.58,9.52,
