time,t1:pitch,t1:roll,t1:gyrx,t1:gyry,t1:gyrz,t2:pitch,t2:roll,t2:gyrx,t2:gyry,t2:gyrz,k1:pitch,k1:roll,k1:gyrx,k1:gyry,k1:gyrz,k2:pitch,k2:roll,k2:gyrx,k2:gyry,k2:gyrz,W:pitch,W:roll,W:gyrx,W:gyry,W:gyrz,B:pitch,B:roll,B:gyrx,B:gyry,B:gyrz
0.288,1.0871814537929265,14.089809179819374,-0.03816793893129771,0.48854961832061067,0.22137404580152673,25.75981540342073,15.618955554043916,-0.022900763358778626,0.030534351145038167,0.0,-9.560264280813135,25.09875125375878,0.0,-0.007633587786259542,-0.007633587786259542,27.000583984891644,19.49980535036745,-0.022900763358778626,0.06870229007633588,0.17557251908396945,0.0,0.0,0.0,0.0,0.0,41.65,57.65,-6.0,-1.0,0.0,
0.326,2.0112856895169138,26.066146982665842,-0.03816793893129771,0.48854961832061067,0.22137404580152673,47.65565849632836,28.895067774981243,-0.022900763358778626,0.030534351145038167,0.0,-17.52968721532452,46.48530852744251,0.0,-0.015267175572519083,0.0,49.951080372049546,36.07463989817978,-0.022900763358778626,0.06870229007633588,0.17557251908396945,0.0,0.0,0.0,0.0,0.0,45.51,62.87,-6.0,-3.0,0.0,
0.364,2.796774289882303,36.24603411508534,-0.03816793893129771,0.48854961832061067,0.22137404580152673,66.26712512529983,40.179763162777974,-0.022900763358778626,0.030534351145038167,0.0,-24.362048602158374,64.69839174047506,-0.007633587786259542,-0.0,-0.007633587786259542,69.45900230113375,50.16324926382026,-0.022900763358778626,0.06870229007633588,0.17557251908396945,0.0,0.0,0.0,0.0,0.0,48.69,67.27,-5.0,0.0,-1.0,
0.403,3.598504966174329,44.85868906292674,-0.022900763358778626,0.4961832061068702,0.21374045801526717,82.08687175992559,49.771754242405194,-0.022900763358778626,0.030534351145038167,0.0,-30.16955578096715,80.17951247155271,-0.007633587786259542,-0.0,-0.007633587786259542,86.04073594085534,62.138567224614675,-0.022900763358778626,0.06870229007633588,0.17557251908396945,0.0,0.0,0.0,0.0,0.0,51.51,71.05,-5.0,-1.0,0.0,
0.44,4.279976041022551,52.17944576859194,-0.022900763358778626,0.4961832061068702,0.21374045801526717,95.53365639935748,57.92494666008833,-0.022900763358778626,0.030534351145038167,0.0,-35.10593688295461,93.33846509296872,-0.007633587786259542,-0.0,-0.007633587786259542,100.13520953461868,72.31758749128991,-0.022900763358778626,0.06870229007633588,0.17557251908396945,0.0,0.0,0.0,0.0,0.0,53.81,74.33,-5.0,-6.0,0.0,
0.478,4.85922645464354,58.402088968407355,-0.022900763358778626,0.4961832061068702,0.21374045801526717,107.12632172341871,65.01050286002993,0.0,0.007633587786259542,0.0,-39.30186081964395,104.52357482117232,-0.007633587786259542,-0.0,-0.007633587786259542,112.11551208931752,80.96975471796387,-0.022900763358778626,0.06870229007633588,0.17557251908396945,0.0,0.0,0.0,0.0,0.0,55.71,77.04,-6.0,-4.0,0.0,
0.516,5.221903143497144,63.787500071420226,-0.022900763358778626,0.4961832061068702,0.22137404580152673,116.98008724887076,71.0332256299803,0.0,0.007633587786259542,0.0,-42.86839616582989,114.03091809014538,-0.007633587786259542,-0.0,-0.007633587786259542,122.29876926081154,88.32409686063673,-0.022900763358778626,0.06870229007633588,0.17557251908396945,0.0,0.0,0.0,0.0,0.0,57.39,79.38,-5.0,-2.0,-1.0,
0.5549999999999999,5.530178329022707,68.36509950898116,-0.022900763358778626,0.4961832061068702,0.22137404580152673,125.355787945505,76.15253998443809,0.0,0.007633587786259542,0.0,-45.89995121008794,122.11215986877248,-0.007633587786259542,-0.0,-0.007633587786259542,130.9539538871158,94.5747685979392,-0.08396946564885496,-0.0,0.20610687022900764,0.0,0.0,0.0,0.0,0.0,58.72,81.35,-3.0,-4.0,-1.0,
0.593,5.792212236719435,72.25605903090795,-0.022900763358778626,0.4961832061068702,0.22137404580152673,132.4751335376441,80.50395718572723,0.0,0.007633587786259542,0.0,-48.66351900455189,128.93502686282156,0.0,0.007633587786259542,0.015267175572519083,138.31086081947444,99.88783957464629,-0.08396946564885496,-0.0,0.20610687022900764,0.0,0.0,0.0,0.0,0.0,59.87,83.05,-4.0,0.0,-1.0,
0.631,6.0149410582616545,75.56337462454573,-0.022900763358778626,0.4961832061068702,0.22137404580152673,138.52657729096234,84.202661806823,0.0,0.007633587786259542,0.0,-51.02018209787421,134.74759173472586,-0.015267175572519083,-0.022900763358778626,0.007633587786259542,144.5642317119793,104.40394990484732,-0.08396946564885496,-0.0,0.20610687022900764,0.0,0.0,0.0,0.0,0.0,60.91,84.4,-5.0,-4.0,-1.0,
0.669,6.204260556572541,78.37459287913784,-0.022900763358778626,0.4961832061068702,0.22137404580152673,143.61755847265613,87.53957586869629,-0.007633587786259542,-0.0,0.007633587786259542,-53.02334572719819,139.68827187584452,-0.015267175572519083,-0.022900763358778626,0.007633587786259542,149.8795969706084,108.2426436855182,-0.08396946564885496,-0.0,0.20610687022900764,0.0,0.0,0.0,0.0,0.0,61.65,85.53,-5.0,-4.0,0.0,
0.7070000000000001,6.273593454221946,80.45529430783829,-0.030534351145038167,0.5038167938931297,0.21374045801526717,147.94489247709586,90.37595282128859,-0.007633587786259542,-0.0,0.007633587786259542,-54.72603481212357,143.88784999579536,-0.015267175572519083,-0.022900763358778626,0.007633587786259542,154.39765744044314,111.50553339908845,-0.08396946564885496,-0.0,0.20610687022900764,0.0,0.0,0.0,0.0,0.0,62.16,86.57,-3.0,-6.0,0.0,
0.745,6.332526417223941,82.22389052223367,-0.030534351145038167,0.5038167938931297,0.21374045801526717,151.62312638086962,92.78687323099206,-0.007633587786259542,-0.0,0.007633587786259542,-56.17332053431015,147.45749139775359,-0.015267175572519083,-0.022900763358778626,0.007633587786259542,158.23813861079503,114.27911942661552,-0.06870229007633588,0.015267175572519083,0.22900763358778625,0.0,0.0,0.0,0.0,0.0,62.74,87.4,-3.0,-3.0,0.0,
0.783,6.483181072439883,83.73074190637195,-0.030534351145038167,0.4961832061068702,0.22900763358778625,154.74962519907731,94.83615557924,-0.007633587786259542,-0.0,0.007633587786259542,-57.40351339816874,150.49168658941807,-0.015267175572519083,-0.022900763358778626,0.007633587786259542,161.50254760559415,116.63666755001354,-0.06870229007633588,0.015267175572519083,0.22900763358778625,0.0,0.0,0.0,0.0,0.0,63.04,88.04,-5.0,-5.0,2.0,
0.821,6.611237529373433,85.01156558288946,-0.030534351145038167,0.4961832061068702,0.22900763358778625,157.40714919455388,96.57804557525074,-0.007633587786259542,-0.0,0.007633587786259542,-58.44917733244854,153.07075250233288,-0.015267175572519083,-0.022900763358778626,0.007633587786259542,164.27716548018103,118.64064834039804,-0.061068702290076333,-0.0,0.16030534351145037,0.0,0.0,0.0,0.0,0.0,63.37,88.83,-4.0,-3.0,1.0,
0.859,6.720085517766951,86.10026570792934,-0.030534351145038167,0.4961832061068702,0.22900763358778625,159.66604459070894,98.05865207185988,-0.007633587786259542,-0.0,0.007633587786259542,-59.33799167658637,155.26295852831046,-0.015267175572519083,-0.022900763358778626,0.007633587786259542,166.63565555907604,120.34396712672869,-0.06870229007633588,0.007633587786259542,0.16030534351145037,0.0,0.0,0.0,0.0,0.0,63.62,89.33,-4.0,0.0,0.0,
0.897,6.812606307901441,87.02566081421324,-0.030534351145038167,0.4961832061068702,0.22900763358778625,161.52086612899424,99.0831476021893,0.0,-0.0,-0.015267175572519083,-60.09348386910352,157.12633365039142,-0.015267175572519083,-0.022900763358778626,0.007633587786259542,168.6403721261368,121.79178809510972,-0.06870229007633588,0.007633587786259542,0.16030534351145037,0.0,0.0,0.0,0.0,0.0,63.89,89.89,-3.0,0.0,0.0,
0.935,6.891248979515757,87.81224665455457,-0.030534351145038167,0.4961832061068702,0.22900763358778625,163.09746443653677,99.95396880296931,0.0,-0.0,-0.015267175572519083,-60.73565223274311,158.71020250416024,-0.015267175572519083,-0.022900763358778626,0.007633587786259542,170.34457586462702,123.02243591823361,-0.06870229007633588,0.030534351145038167,0.20610687022900764,0.0,0.0,0.0,0.0,0.0,64.17,90.35,-3.0,0.0,-3.0,
0.973,6.9580952503879265,88.48084461884469,-0.030534351145038167,0.4961832061068702,0.22900763358778625,164.45520973962422,100.8777960011153,0.0,0.007633587786259542,-0.007633587786259542,-61.28149534183675,160.05649102986374,-0.015267175572519083,-0.022900763358778626,0.007633587786259542,171.79314904234369,124.06848656788891,-0.06870229007633588,0.030534351145038167,0.20610687022900764,0.0,0.0,0.0,0.0,0.0,64.42,90.75,-3.0,5.0,-3.0,
1.0110000000000001,7.01491458062927,89.04915288849128,-0.030534351145038167,0.4961832061068702,0.22900763358778625,165.62064327814866,101.61530512312014,0.0,0.007633587786259542,-0.007633587786259542,-61.745461984566354,161.2008362767117,-0.015267175572519083,-0.022900763358778626,0.007633587786259542,173.02443624340287,124.95762962009591,-0.06870229007633588,0.030534351145038167,0.20610687022900764,0.0,0.0,0.0,0.0,0.0,64.74,91.07,-3.0,6.0,-2.0,
1.049,7.063211011334412,89.53221491769091,-0.030534351145038167,0.4961832061068702,0.22900763358778625,166.61126178589444,102.24218787682425,0.0,0.007633587786259542,-0.007633587786259542,-62.139833630886514,162.17352973653246,-0.015267175572519083,-0.022900763358778626,0.007633587786259542,174.07096547880698,125.71353098546425,-0.05343511450381679,0.022900763358778626,0.19083969465648856,0.0,0.0,0.0,0.0,0.0,64.91,91.08,-4.0,0.0,-1.0,
1.087,6.960790760331704,90.05976748504672,-0.022900763358778626,0.48091603053435117,0.2366412213740458,167.45328751747834,102.77503821747274,0.0,0.007633587786259542,-0.007633587786259542,-62.47504953025865,163.0003191773801,-0.015267175572519083,-0.022900763358778626,0.007633587786259542,174.96051532890047,126.35604714602732,-0.05343511450381679,0.022900763358778626,0.19083969465648856,0.0,0.0,0.0,0.0,0.0,65.16,91.35,-3.0,0.0,0.0,
1.124,6.873733546979402,90.50818716729916,-0.022900763358778626,0.48091603053435117,0.2366412213740458,168.16900938932469,103.22796100702396,0.0,0.007633587786259542,-0.007633587786259542,-62.75998304472497,163.7030902021006,-0.015267175572519083,-0.022900763358778626,0.007633587786259542,175.71650293048756,126.90205611151357,-0.06870229007633588,0.007633587786259542,0.183206106870229,0.0,0.0,0.0,0.0,0.0,65.28,91.54,-4.0,0.0,0.0,
1.163,6.799734915629945,90.88934389721372,-0.022900763358778626,0.48091603053435117,0.2366412213740458,168.77737298039406,103.6129453781425,0.0,0.007633587786259542,-0.007633587786259542,-63.00217653202134,164.30044557311305,-0.015267175572519083,-0.022900763358778626,0.007633587786259542,176.35928704832517,127.36616373217689,-0.06870229007633588,0.030534351145038167,0.1984732824427481,0.0,0.0,0.0,0.0,0.0,65.3,91.71,-3.0,-4.0,-1.0,
1.201,6.690400517290087,91.4165977533465,-0.022900763358778626,0.4961832061068702,0.22900763358778625,169.29448203280305,103.94018209359325,0.0,0.007633587786259542,-0.007633587786259542,-63.20804099622325,164.80819763847362,-0.015267175572519083,-0.022900763358778626,0.007633587786259542,176.90565354848712,127.7606552097407,-0.06870229007633588,0.030534351145038167,0.1984732824427481,0.0,0.0,0.0,0.0,0.0,65.3,91.88,-3.0,-1.0,-1.0,
1.2389999999999999,6.597466278701207,91.86476353105935,-0.022900763358778626,0.4961832061068702,0.22900763358778625,169.73402472735066,104.21833330172639,0.0,0.007633587786259542,-0.007633587786259542,-63.38302579079487,165.2397868940301,-0.015267175572519083,-0.022900763358778626,0.007633587786259542,177.37006507362477,128.09603785116613,-0.061068702290076333,0.030534351145038167,0.19083969465648856,0.0,0.0,0.0,0.0,0.0,65.31,91.93,-4.0,-1.0,-1.0,
1.277,6.618669172027905,92.47302665906062,-0.03816793893129771,0.5114503816793893,0.2366412213740458,170.10763601771615,104.45476182863956,0.0,0.007633587786259542,-0.007633587786259542,-63.53176286618075,165.6066377612531,-0.015267175572519083,-0.022900763358778626,0.007633587786259542,177.7648148699918,128.38111309637773,-0.061068702290076333,0.030534351145038167,0.19083969465648856,0.0,0.0,0.0,0.0,0.0,65.45,91.95,-3.0,-2.0,-1.0,
1.316,6.6366916313556,92.99005031786169,-0.03816793893129771,0.5114503816793893,0.2366412213740458,170.5609268975789,104.7445407335419,0.0,-0.007633587786259542,0.0,-63.65818938025875,165.91846099839265,-0.015267175572519083,-0.022900763358778626,0.007633587786259542,178.10035219690377,128.6234270548076,-0.061068702290076333,0.030534351145038167,0.19083969465648856,0.0,0.0,0.0,0.0,0.0,65.49,92.02,-4.0,-3.0,0.0,
1.354,6.652010721784139,93.42952042784262,-0.03816793893129771,0.5114503816793893,0.2366412213740458,170.8560628774991,104.87152542868945,0.0,-0.015267175572519083,0.0,-63.76565191722505,166.18351074996127,-0.015267175572519083,-0.022900763358778626,0.007633587786259542,178.38555892477893,128.82939391947298,-0.061068702290076333,0.030534351145038167,0.19083969465648856,0.0,0.0,0.0,0.0,0.0,65.49,92.13,-4.0,0.0,-2.0,
1.392,6.665031948648398,93.80307002132639,-0.03816793893129771,0.5114503816793893,0.2366412213740458,171.11461651726958,105.07961947203859,0.0,-0.022900763358778626,0.007633587786259542,-63.8569950736464,166.40880303879462,-0.015267175572519083,-0.022900763358778626,0.007633587786259542,178.62798464347281,129.00446575443857,-0.061068702290076333,0.030534351145038167,0.19083969465648856,0.0,0.0,0.0,0.0,0.0,65.45,92.14,-5.0,-1.0,-3.0,
1.43,6.722022754474497,93.74713836340632,-0.030534351145038167,0.5343511450381679,0.20610687022900764,171.33438711107448,105.25649940888535,0.0,-0.022900763358778626,0.007633587786259542,-63.934636756604554,166.60030148430295,-0.015267175572519083,-0.022900763358778626,0.007633587786259542,178.83404650436262,129.1532768141593,-0.061068702290076333,0.030534351145038167,0.19083969465648856,0.0,0.0,0.0,0.0,0.0,65.37,92.21,-4.0,0.0,-1.0,
1.467,6.770464939426681,93.69959645417427,-0.030534351145038167,0.5343511450381679,0.20610687022900764,171.49381173407616,105.35934606813312,0.0,-0.007633587786259542,0.007633587786259542,-64.00063218711898,166.76307516298502,-0.015267175572519083,-0.022900763358778626,0.007633587786259542,179.00919908611897,129.27976621492195,-0.061068702290076333,0.030534351145038167,0.19083969465648856,0.0,0.0,0.0,0.0,0.0,65.47,92.29,-4.0,2.0,-1.0,
1.505,6.811640796636037,93.65918583132702,-0.030534351145038167,0.5343511450381679,0.20610687022900764,171.60065615054742,105.2948629469466,0.0,-0.0,0.015267175572519083,-64.05672830305626,166.9014327898648,-0.015267175572519083,-0.022900763358778626,0.007633587786259542,179.15807878061185,129.38728220557016,-0.061068702290076333,0.030534351145038167,0.19083969465648856,0.0,0.0,0.0,0.0,0.0,65.48,92.2,-4.0,0.0,-2.0,
1.543,6.84664027526399,93.62483680190687,-0.030534351145038167,0.5343511450381679,0.20610687022900764,171.68491569036317,105.23364581903893,0.0,-0.0,0.0,-64.10441000160294,167.0190367727126,-0.015267175572519083,-0.022900763358778626,0.007633587786259542,179.2846265209308,129.47867079762113,-0.061068702290076333,0.030534351145038167,0.19083969465648856,0.0,0.0,0.0,0.0,0.0,65.57,92.39,-5.0,0.0,-2.0,
1.581,6.87638983209775,93.59564012689974,-0.030534351145038167,0.5343511450381679,0.20610687022900764,171.76162844760165,105.29087848598724,0.0,0.007633587786259542,0.0,-64.14493944536763,167.11900015813325,-0.015267175572519083,-0.022900763358778626,0.007633587786259542,179.39219210020192,129.5563511008645,-0.061068702290076333,0.030534351145038167,0.19083969465648856,0.0,0.0,0.0,0.0,0.0,65.69,92.38,-4.0,0.0,-2.0,
1.619,7.032992612304763,93.4915103455678,-0.030534351145038167,0.4961832061068702,0.22137404580152673,171.82683429125436,105.33952625289331,0.0,0.007633587786259542,0.0,-64.1793894725676,167.20396903574078,-0.015267175572519083,-0.022900763358778626,0.007633587786259542,179.48362284258238,129.62237935862134,-0.061068702290076333,0.030534351145038167,0.19083969465648856,0.0,0.0,0.0,0.0,0.0,65.61,92.24,-5.0,-3.0,-1.0,
1.657,7.166104975480724,93.40300003143565,-0.030534351145038167,0.4961832061068702,0.22137404580152673,171.88225925835917,105.38087685476346,0.0,0.007633587786259542,0.0,-64.20867199568758,167.2761925817072,-0.015267175572519083,-0.022900763358778626,0.007633587786259542,179.56140385910192,129.6784384922185,-0.06870229007633588,0.03816793893129771,0.1984732824427481,0.0,0.0,0.0,0.0,0.0,65.47,92.37,-3.0,2.0,0.0,
1.695,7.27925048418029,93.32776626442333,-0.030534351145038167,0.4961832061068702,0.22137404580152673,171.92937048039826,105.41602486635308,0.0,0.007633587786259542,0.0,-64.1393100070119,167.27941794591678,-0.007633587786259542,-0.03816793893129771,0.03816793893129771,179.62751772314354,129.72608875577606,-0.06870229007633588,0.03816793893129771,0.1984732824427481,0.0,0.0,0.0,0.0,0.0,65.67,92.49,-2.0,7.0,-2.0,
1.733,7.304553188048175,93.34876850531882,-0.030534351145038167,0.4732824427480916,0.22900763358778625,171.96941501913147,105.44590067620427,0.0,0.007633587786259542,0.0,-64.08035231663757,167.28215950549492,-0.007633587786259542,-0.03816793893129771,0.03816793893129771,179.6837145075789,129.7665914798,-0.06870229007633588,0.03816793893129771,0.1984732824427481,0.0,0.0,0.0,0.0,0.0,65.87,92.4,-3.0,2.0,0.0,
1.771,7.326060486335877,93.36662041007997,-0.030534351145038167,0.4732824427480916,0.22900763358778625,172.0034528770547,105.47129511457779,0.0,0.007633587786259542,0.0,-64.03023827981939,167.28448983113634,-0.007633587786259542,-0.03816793893129771,0.03816793893129771,179.7317413163337,129.80108368071654,-0.061068702290076333,0.06870229007633588,0.17557251908396945,0.0,0.0,0.0,0.0,0.0,65.96,92.41,-3.0,-2.0,1.0,
1.808,7.344341689880424,93.38179452912695,-0.030534351145038167,0.4732824427480916,0.22900763358778625,172.03238505628946,105.49288038719527,0.0,0.007633587786259542,0.0,-63.98764134852393,167.28647060793153,-0.007633587786259542,-0.03816793893129771,0.03816793893129771,179.77236944728676,129.83040205149558,-0.061068702290076333,0.04580152671755725,0.17557251908396945,0.0,0.0,0.0,0.0,0.0,65.96,92.37,-3.0,1.0,0.0,
1.846,7.216065553728116,93.79378670630682,-0.015267175572519083,0.4580152671755725,0.25190839694656486,172.056977408639,105.51122786892013,0.0,0.007633587786259542,0.0,-63.9514339569228,167.28815426820745,-0.007633587786259542,-0.03816793893129771,0.03816793893129771,179.80690335859686,129.85532266665777,-0.061068702290076333,0.04580152671755725,0.17557251908396945,0.0,0.0,0.0,0.0,0.0,66.07,92.53,-5.0,1.0,-1.0,
1.884,6.990012817844282,94.42995729979401,-0.03816793893129771,0.48091603053435117,0.1984732824427481,172.0778809081361,105.52682322838626,0.0,0.007633587786259542,0.0,-63.920657674061836,167.28958537944197,-0.007633587786259542,-0.03816793893129771,0.03816793893129771,179.83625718321042,129.87650518954564,-0.061068702290076333,0.04580152671755725,0.17557251908396945,0.0,0.0,0.0,0.0,0.0,66.23,92.6,-5.0,1.0,-4.0,
1.922,6.797867992343023,94.97070230425813,-0.03816793893129771,0.48091603053435117,0.1984732824427481,172.09564888270864,105.54007928393247,0.0,0.007633587786259542,0.0,-63.89449783363002,167.29080182399133,-0.007633587786259542,-0.03816793893129771,0.03816793893129771,179.86120793413195,129.89444544850414,-0.06870229007633588,0.04580152671755725,0.17557251908396945,0.0,0.0,0.0,0.0,0.0,66.34,92.74,-6.0,5.0,-5.0,
1.96,6.634544890666953,95.43033555805263,-0.03816793893129771,0.48091603053435117,0.1984732824427481,172.1107516610953,105.55134693114675,0.0,0.007633587786259542,0.0,-63.87226196926297,167.29183580185827,-0.007633587786259542,-0.03816793893129771,0.03816793893129771,179.88235118691907,129.90975955411506,-0.061068702290076333,0.03816793893129771,0.17557251908396945,0.0,0.0,0.0,0.0,0.0,66.53,92.82,-4.0,8.0,-7.0,
1.998,6.495720254242293,95.82102382377796,-0.03816793893129771,0.48091603053435117,0.1984732824427481,172.12358902272396,105.56092443127889,0.0,0.007633587786259542,0.0,-63.85336148455098,167.29271468304518,-0.007633587786259542,-0.03816793893129771,0.03816793893129771,179.90025806629194,129.92284142938053,-0.05343511450381679,0.030534351145038167,0.19083969465648856,0.0,0.0,0.0,0.0,0.0,66.67,92.7,-2.0,9.0,-11.0,
2.036,6.377719313281333,96.1531088496445,-0.03816793893129771,0.48091603053435117,0.1984732824427481,172.28588264014442,105.96563406427494,0.007633587786259542,-0.0,0.0,-63.83729607254579,167.29346173205406,-0.007633587786259542,-0.03816793893129771,0.03816793893129771,179.91547891375888,129.93396102335618,-0.05343511450381679,0.030534351145038167,0.19083969465648856,0.0,0.0,0.0,0.0,0.0,66.14,92.35,-7.0,-23.0,4.0,
2.074,6.191828879855782,96.1345137214281,-0.03816793893129771,0.5114503816793893,0.21374045801526717,172.4238322149518,106.30963725232158,0.007633587786259542,-0.0,0.0,-63.82364047234138,167.2940967237116,-0.007633587786259542,-0.03816793893129771,0.03816793893129771,179.9284166341058,129.94341267823546,-0.05343511450381679,0.030534351145038167,0.19083969465648856,0.0,0.0,0.0,0.0,0.0,66.27,92.1,-8.0,-6.0,1.0,
2.112,6.033822011444064,96.11870786244418,-0.03816793893129771,0.5114503816793893,0.21374045801526717,172.5497197861148,106.54266140333304,0.0,-0.0,0.0,-63.812033212167634,167.29463646662052,-0.007633587786259542,-0.03816793893129771,0.03816793893129771,179.93941369640066,129.95144658488286,-0.05343511450381679,0.030534351145038167,0.19083969465648856,0.0,0.0,0.0,0.0,0.0,66.22,91.84,-9.0,-12.0,8.0,
2.149,5.899516173294104,96.10527288230784,-0.03816793893129771,0.5114503816793893,0.21374045801526717,172.60390107756348,106.62710066047913,0.0,-0.0,0.007633587786259542,-63.80216704101995,167.2950952480931,-0.007633587786259542,-0.03816793893129771,0.03816793893129771,179.94876119935128,129.95827540553313,-0.05343511450381679,0.030534351145038167,0.19083969465648856,0.0,0.0,0.0,0.0,0.0,66.25,91.62,-5.0,-5.0,1.0,
2.1870000000000003,5.785356210866637,96.09385314919196,-0.03816793893129771,0.5114503816793893,0.21374045801526717,172.6825121100767,106.38625082596019,-0.007633587786259542,-0.0,0.015267175572519083,-63.793780795544414,167.2954852123448,-0.007633587786259542,-0.03816793893129771,0.03816793893129771,179.95670657685932,129.96407990308586,-0.05343511450381679,0.030534351145038167,0.19083969465648856,0.0,0.0,0.0,0.0,0.0,66.28,91.69,-4.0,-8.0,3.0,
2.225,5.68832024280329,96.08414637604345,-0.03816793893129771,0.5114503816793893,0.21374045801526717,172.7493314877129,106.1815284666191,-0.007633587786259542,-0.0,0.015267175572519083,-63.78665248689021,167.29581668195874,-0.007633587786259542,-0.03816793893129771,0.03816793893129771,179.96313572026025,129.96881906951717,-0.07633587786259542,-0.007633587786259542,0.19083969465648856,0.0,0.0,0.0,0.0,0.0,66.16,91.93,-5.0,-11.0,2.0,
2.263,5.605839669949446,96.07589561886722,-0.03816793893129771,0.5114503816793893,0.21374045801526717,172.8061279587037,106.00751446117917,-0.007633587786259542,-0.0,0.015267175572519083,-63.884312715588905,167.31901116714852,0.0,-0.0,0.0,179.96860049215104,129.97284736098376,-0.07633587786259542,-0.007633587786259542,0.19083969465648856,0.0,0.0,0.0,0.0,0.0,65.8,92.08,-4.0,-7.0,2.0,
2.301,5.535731183023678,96.06888247526743,-0.03816793893129771,0.5114503816793893,0.21374045801526717,172.8544049590459,105.85960255655523,-0.007633587786259542,-0.0,0.015267175572519083,-63.88402273311875,167.32094870760116,-0.007633587786259542,-0.007633587786259542,0.0,179.9732455482582,129.97627140873038,-0.07633587786259542,-0.007633587786259542,0.19083969465648856,0.0,0.0,0.0,0.0,0.0,65.66,92.3,-3.0,-2.0,0.0,
2.339,5.476138969136776,96.0629213032076,-0.03816793893129771,0.5114503816793893,0.21374045801526717,172.89544040933674,105.73387743762488,-0.007633587786259542,-0.0,0.015267175572519083,-64.13284236162569,167.32928240270084,-0.007633587786259542,-0.015267175572519083,0.04580152671755725,179.9771938459493,129.979181849315,-0.07633587786259542,-0.007633587786259542,0.19083969465648856,0.0,0.0,0.0,0.0,0.0,65.74,92.48,-5.0,6.0,-4.0,
2.377,5.589452851909215,96.14871626425119,-0.022900763358778626,0.4961832061068702,0.22900763358778625,172.93032054208396,105.62701108653408,-0.007633587786259542,-0.0,0.015267175572519083,-64.3443390458566,167.33636604353558,-0.007633587786259542,-0.015267175572519083,0.04580152671755725,179.98054989898674,129.98165572381194,-0.07633587786259542,-0.007633587786259542,0.19083969465648856,0.0,0.0,0.0,0.0,0.0,65.59,92.43,-6.0,0.0,-2.0,
2.415,5.685769652265788,96.22164198113823,-0.022900763358778626,0.4961832061068702,0.22900763358778625,172.87488077345537,105.68817340306596,-0.015267175572519083,-0.007633587786259542,-0.015267175572519083,-64.52411122745286,167.3423871382451,-0.007633587786259542,-0.015267175572519083,0.04580152671755725,179.98340254406855,129.98375851713433,-0.07633587786259542,-0.007633587786259542,0.19083969465648856,0.0,0.0,0.0,0.0,0.0,65.63,92.44,-5.0,4.0,-4.0,
2.453,5.767638932568875,96.28362884049223,-0.022900763358778626,0.4961832061068702,0.22900763358778625,172.82775697012107,105.74016137211805,-0.015267175572519083,-0.007633587786259542,-0.015267175572519083,-64.47877216319785,167.3482228411903,-0.007633587786259542,-0.030534351145038167,0.007633587786259542,179.98582729238808,129.98554589145834,-0.07633587786259542,-0.007633587786259542,0.19083969465648856,0.0,0.0,0.0,0.0,0.0,65.8,92.31,-5.0,9.0,-7.0,
2.49,5.8372278208265,96.33631767094312,-0.022900763358778626,0.4961832061068702,0.22900763358778625,172.7877017372869,105.78435114581234,-0.015267175572519083,-0.007633587786259542,-0.015267175572519083,-64.58919922363536,167.34129621262196,-0.015267175572519083,-0.03816793893129771,0.03816793893129771,179.9878883284597,129.98706515963377,-0.07633587786259542,-0.007633587786259542,0.19083969465648856,0.0,0.0,0.0,0.0,0.0,65.87,92.19,-4.0,5.0,-3.0,
2.529,5.89637837584548,96.38110317682637,-0.022900763358778626,0.4961832061068702,0.22900763358778625,172.75365478937786,105.82191245345247,-0.015267175572519083,-0.007633587786259542,-0.015267175572519083,-64.94233513242608,167.35159051541123,-0.030534351145038167,-0.06870229007633588,0.05343511450381679,179.98964020912055,129.9883565375829,-0.07633587786259542,-0.007633587786259542,0.19083969465648856,0.0,0.0,0.0,0.0,0.0,65.94,92.17,-4.0,3.0,-3.0,
2.567,5.876923476963262,96.09327617244365,-0.015267175572519083,0.46564885496183206,0.22137404580152673,172.7247148836552,105.85383956494658,-0.015267175572519083,-0.007633587786259542,-0.015267175572519083,-65.2425006548982,167.36034067278212,-0.030534351145038167,-0.06870229007633588,0.05343511450381679,179.9911293076823,129.98945420883962,-0.07633587786259542,-0.007633587786259542,0.19083969465648856,0.0,0.0,0.0,0.0,0.0,66.1,91.98,-6.0,4.0,-4.0,
2.605,5.860386812913377,95.84862321871834,-0.015267175572519083,0.46564885496183206,0.22137404580152673,172.70011596379092,105.88097760971658,-0.015267175572519083,-0.007633587786259542,-0.015267175572519083,-65.49764134899948,167.36777830654736,-0.030534351145038167,-0.06870229007633588,0.05343511450381679,179.99317366741394,129.9905170004002,-0.061068702290076333,0.08396946564885496,0.11450381679389313,0.0,0.0,0.0,0.0,0.0,66.35,91.84,-6.0,1.0,-3.0,
2.643,5.846330648470975,95.64066820805184,-0.015267175572519083,0.46564885496183206,0.22137404580152673,172.67920688190628,105.90404494777108,-0.015267175572519083,-0.007633587786259542,-0.015267175572519083,-65.76857443877927,167.34449127494312,-0.05343511450381679,-0.21374045801526717,0.09923664122137404,179.99491137318586,129.99142037322667,-0.061068702290076333,0.08396946564885496,0.11450381679389313,0.0,0.0,0.0,0.0,0.0,66.35,91.72,-2.0,1.0,-3.0,
2.682,5.834382908694932,95.4639064489853,-0.015267175572519083,0.46564885496183206,0.22137404580152673,172.66143416230435,105.9236521851174,-0.015267175572519083,-0.007633587786259542,-0.015267175572519083,-66.05543756404546,167.25435241791197,-0.05343511450381679,-0.2900763358778626,0.15267175572519084,179.996388423092,129.9921882401292,-0.061068702290076333,0.08396946564885496,0.11450381679389313,0.0,0.0,0.0,0.0,0.0,66.57,91.52,-2.0,0.0,-3.0,
2.72,5.791571479128203,95.73457851862557,-0.015267175572519083,0.4122137404580153,0.22137404580152673,172.6463273506427,105.94031833686178,-0.015267175572519083,-0.007633587786259542,-0.015267175572519083,-66.29927122052172,167.1777343894355,-0.05343511450381679,-0.2900763358778626,0.15267175572519084,179.99764391551219,129.99284092699634,-0.061068702290076333,0.08396946564885496,0.11450381679389313,0.0,0.0,0.0,0.0,0.0,66.62,91.56,-2.0,3.0,-6.0,
2.758,5.755181763996483,95.9646497778198,-0.015267175572519083,0.4122137404580153,0.22137404580152673,172.6334865607303,105.9544845658445,-0.015267175572519083,-0.007633587786259542,-0.015267175572519083,-67.08425624175841,167.05341920496664,-0.04580152671755725,-0.4198473282442748,0.183206106870229,179.99871108406936,129.9933957108334,-0.061068702290076333,0.08396946564885496,0.11450381679389313,0.0,0.0,0.0,0.0,0.0,66.58,91.63,-2.0,8.0,-5.0,
2.797,5.7242505061345215,96.1602103481349,-0.015267175572519083,0.4122137404580153,0.22137404580152673,172.62257188930474,105.9665258604798,-0.015267175572519083,-0.007633587786259542,-0.015267175572519083,-67.75149350980959,166.9477512981681,-0.04580152671755725,-0.4198473282442748,0.183206106870229,180.00162962772464,129.9943214755682,-0.007633587786259542,0.32061068702290074,-0.022900763358778626,0.0,0.0,0.0,0.0,0.0,66.79,91.67,0.0,25.0,-12.0,
2.835,5.697958936951854,96.32643683290273,-0.015267175572519083,0.4122137404580153,0.22137404580152673,172.85996567863612,106.24416523037105,0.04580152671755725,0.022900763358778626,-0.10687022900763359,-68.3186451876531,166.85793357738936,-0.04580152671755725,-0.4198473282442748,0.183206106870229,180.00411038983165,129.9951083755928,-0.007633587786259542,0.32061068702290074,-0.022900763358778626,0.0,0.0,0.0,0.0,0.0,66.62,91.67,-6.0,-3.0,0.0,
2.873,5.479955517518293,96.60614347008554,-0.03816793893129771,0.37404580152671757,0.2824427480916031,173.06175039956779,106.48015869477861,0.04580152671755725,0.022900763358778626,-0.10687022900763359,-68.80072411382008,166.78158851472745,-0.04580152671755725,-0.4198473282442748,0.183206106870229,180.0062190376226,129.99577724061368,-0.007633587786259542,0.32061068702290074,-0.022900763358778626,0.0,0.0,0.0,0.0,0.0,66.76,91.85,-7.0,-5.0,7.0,
2.912,5.294652610999766,96.84389411169093,-0.03816793893129771,0.37404580152671757,0.2824427480916031,173.01322659898227,105.99821222115955,0.08396946564885496,0.04580152671755725,-0.22900763358778625,-69.21049120106201,166.7166952114648,-0.04580152671755725,-0.4198473282442748,0.183206106870229,180.0080113882449,129.99634577588145,-0.007633587786259542,0.32061068702290074,-0.022900763358778626,0.0,0.0,0.0,0.0,0.0,67.32,91.9,-7.0,14.0,3.0,
2.95,5.137145140459017,97.0459821570555,-0.03816793893129771,0.37404580152671757,0.2824427480916031,172.9719813684846,105.58855771858335,0.08396946564885496,0.04580152671755725,-0.22900763358778625,-69.55879322521766,166.66153590369157,-0.04580152671755725,-0.4198473282442748,0.183206106870229,180.01154633665553,129.99605040490485,-0.09923664122137404,0.5572519083969466,-0.04580152671755725,0.0,0.0,0.0,0.0,0.0,66.95,92.17,-2.0,14.0,5.0,
2.989,5.003263790499381,97.2177569956154,-0.03816793893129771,0.37404580152671757,0.2824427480916031,172.93692292256156,105.24035139139357,0.08396946564885496,0.04580152671755725,-0.22900763358778625,-70.72925511102025,166.42484619269786,-0.1297709923664122,-0.40458015267175573,0.11450381679389313,180.01455104280456,129.99579933957472,-0.09923664122137404,0.5572519083969466,-0.04580152671755725,0.0,0.0,0.0,0.0,0.0,67.3,91.95,-8.0,10.0,9.0,
3.028,4.8894646430336905,97.36376560839132,-0.03816793893129771,0.37404580152671757,0.2824427480916031,172.907123243527,104.94437601328227,0.08396946564885496,0.04580152671755725,-0.22900763358778625,-71.72967111930994,166.1346324278731,-0.1297709923664122,-0.3816793893129771,0.061068702290076333,180.01710504303122,129.99558593404413,-0.09923664122137404,0.5572519083969466,-0.04580152671755725,0.0,0.0,0.0,0.0,0.0,67.49,91.66,-6.0,33.0,2.0,
3.067,4.792735367687854,97.48787292925084,-0.03816793893129771,0.37404580152671757,0.2824427480916031,173.35938019365875,107.57419881551604,0.16793893129770993,0.13740458015267176,-0.21374045801526717,-72.58002472635619,165.88795072777205,-0.1297709923664122,-0.3816793893129771,0.061068702290076333,180.0192759432239,129.9954045393431,-0.09923664122137404,0.5572519083969466,-0.04580152671755725,0.0,0.0,0.0,0.0,0.0,67.74,91.48,-2.0,26.0,3.0,
3.106,4.710515483643893,97.59336415198143,-0.03816793893129771,0.37404580152671757,0.2824427480916031,173.68109974514257,109.82196110103584,0.1450381679389313,0.16030534351145037,-0.13740458015267176,-73.30282529234549,165.67827128268615,-0.1297709923664122,-0.3816793893129771,0.061068702290076333,180.02112120838768,129.99525035384724,-0.09923664122137404,0.5572519083969466,-0.04580152671755725,0.0,0.0,0.0,0.0,0.0,68.3,91.69,-2.0,47.0,1.0,
3.144,3.9439933381779873,102.92871177154794,-0.07633587786259542,0.2366412213740458,0.2595419847328244,173.95456136390382,111.73255904372768,0.1450381679389313,0.16030534351145037,-0.13740458015267176,-73.9172057734364,165.50004375436316,-0.1297709923664122,-0.3816793893129771,0.061068702290076333,180.0226896837769,129.99511929617574,-0.09923664122137404,0.5572519083969466,-0.04580152671755725,0.0,0.0,0.0,0.0,0.0,68.66,91.42,-5.0,34.0,11.0,
3.183,3.292449514531967,107.46375724817946,-0.07633587786259542,0.2366412213740458,0.2595419847328244,174.34447085915338,113.52956855222953,0.05343511450381679,0.13740458015267176,-0.1984732824427481,-74.43942918236367,165.3485503552886,-0.1297709923664122,-0.3816793893129771,0.061068702290076333,180.0240228878577,129.995007897155,-0.09923664122137404,0.5572519083969466,-0.04580152671755725,0.0,0.0,0.0,0.0,0.0,69.83,91.33,0.0,51.0,4.0,
3.222,2.73863726443285,111.31854590331625,-0.07633587786259542,0.2366412213740458,0.2595419847328244,174.50201364118436,114.78612734645338,0.07633587786259542,0.1450381679389313,-0.007633587786259542,-74.88331907995185,165.21978096607523,-0.1297709923664122,-0.3816793893129771,0.061068702290076333,180.0251561113264,129.99491320798737,-0.09923664122137404,0.5572519083969466,-0.04580152671755725,0.0,0.0,0.0,0.0,0.0,71.24,91.32,0.0,43.0,2.0,
3.261,2.079255118727257,116.00696199392833,-0.061068702290076333,0.2366412213740458,0.24427480916030533,174.6359250059107,115.85420232154365,0.07633587786259542,0.1450381679389313,-0.007633587786259542,-75.2606254929018,165.11032698524386,-0.1297709923664122,-0.3816793893129771,0.061068702290076333,180.0261193512748,129.99483272219487,-0.09923664122137404,0.5572519083969466,-0.04580152671755725,0.0,0.0,0.0,0.0,0.0,72.81,91.58,0.0,51.0,5.0,
3.299,1.5187802948775035,119.99211567094859,-0.061068702290076333,0.2366412213740458,0.24427480916030533,175.0222115971714,117.15098660219111,0.08396946564885496,0.1450381679389313,-0.022900763358778626,-75.58133594390925,165.0172911015372,-0.1297709923664122,-0.3816793893129771,0.061068702290076333,180.02693810523093,129.99476430927126,-0.09923664122137404,0.5572519083969466,-0.04580152671755725,0.0,0.0,0.0,0.0,0.0,75.01,92.18,2.0,45.0,0.0,
3.337,0.7954903381123639,124.27284952456219,-0.03816793893129771,0.06870229007633588,0.22137404580152673,175.35055519974298,118.25325324074144,0.08396946564885496,0.1450381679389313,-0.022900763358778626,-75.85393982726559,164.93821060038655,-0.1297709923664122,-0.3816793893129771,0.061068702290076333,180.02763404609365,129.9947061582862,-0.09923664122137404,0.5572519083969466,-0.04580152671755725,0.0,0.0,0.0,0.0,0.0,76.24,91.54,2.0,51.0,16.0,
3.376,0.18069387486199529,127.91147330013375,-0.03816793893129771,0.06870229007633588,0.22137404580152673,175.63879991049586,118.9691257917903,0.1297709923664122,0.22900763358778625,0.022900763358778626,-76.08565312811848,164.87099217440849,-0.1297709923664122,-0.3816793893129771,0.061068702290076333,180.02822559582697,129.99465672994887,-0.09923664122137404,0.5572519083969466,-0.04580152671755725,0.0,0.0,0.0,0.0,0.0,78.36,92.07,7.0,57.0,5.0,
3.415,-0.341883118900818,131.00430350936958,-0.03816793893129771,0.06870229007633588,0.22137404580152673,176.3148020987903,120.66795392366213,0.12213740458015267,0.3053435114503817,-0.10687022900763359,-76.28260943384345,164.81385651232713,-0.1297709923664122,-0.3816793893129771,0.061068702290076333,180.02872841310028,129.99461471586216,-0.09923664122137404,0.5572519083969466,-0.04580152671755725,0.0,0.0,0.0,0.0,0.0,80.43,92.27,4.0,63.0,4.0,
3.454,-0.7860735635992093,133.63320918722005,-0.03816793893129771,0.06870229007633588,0.22137404580152673,177.19554444759598,122.78915604835629,0.16793893129770993,0.3816793893129771,-0.16793893129770993,-76.45002229370967,164.765291199558,-0.1297709923664122,-0.3816793893129771,0.061068702290076333,180.0291558077826,129.99457900388845,-0.09923664122137404,0.5572519083969466,-0.04580152671755725,0.0,0.0,0.0,0.0,0.0,82.77,92.53,0.0,67.0,3.0,
3.492,-1.163635441592842,135.86777901339292,-0.03816793893129771,0.06870229007633588,0.22137404580152673,177.94417544408083,124.59217785434633,0.16793893129770993,0.3816793893129771,-0.16793893129770993,-25.290742778533904,165.02979605624327,-0.31297709923664124,-0.5038167938931297,-0.05343511450381679,180.02951909326256,129.9945486487108,-0.09923664122137404,0.5572519083969466,-0.04580152671755725,0.0,0.0,0.0,0.0,0.0,84.68,92.73,0.0,46.0,-4.0,
3.531,-1.4845630378874297,137.76716336563987,-0.03816793893129771,0.06870229007633588,0.22137404580152673,179.36097141353605,127.20033357088138,0.2824427480916031,0.3511450381679389,-0.17557251908396945,18.194644809365492,165.25462518442578,-0.31297709923664124,-0.5038167938931297,-0.05343511450381679,180.02982788592053,129.9945228468098,-0.09923664122137404,0.5572519083969466,-0.04580152671755725,0.0,0.0,0.0,0.0,0.0,86.86,93.15,-4.0,56.0,-7.0,
3.57,-1.7573514947378293,139.3816400650498,-0.03816793893129771,0.06870229007633588,0.22137404580152673,180.5606288312469,129.13709975554605,0.22900763358778625,0.2366412213740458,-0.1984732824427481,55.157224259079975,165.44572994338088,-0.31297709923664124,-0.5038167938931297,-0.05343511450381679,180.0300903596798,129.99450091519392,-0.09923664122137404,0.5572519083969466,-0.04580152671755725,0.0,0.0,0.0,0.0,0.0,89.28,93.42,-8.0,44.0,-9.0,
3.609,-1.9892216830606688,140.75394525954823,-0.03816793893129771,0.06870229007633588,0.22137404580152673,181.58033763630115,130.783351012511,0.22900763358778625,0.2366412213740458,-0.1984732824427481,86.7730159134212,165.37636523206325,-0.022900763358778626,-0.06870229007633588,0.030534351145038167,180.03031346237518,129.99448227332044,-0.09923664122137404,0.5572519083969466,-0.04580152671755725,0.0,0.0,0.0,0.0,0.0,91.82,93.69,-7.0,34.0,-7.0,
3.648,-2.1863113431350825,141.9204046748719,-0.03816793893129771,0.06870229007633588,0.22137404580152673,182.44709012059727,132.1826645809312,0.22900763358778625,0.2366412213740458,-0.1984732824427481,60.87301946664665,165.29574286337143,-0.06870229007633588,-0.07633587786259542,0.0,180.03050309966625,129.99446642772799,-0.09923664122137404,0.5572519083969466,-0.04580152671755725,0.0,0.0,0.0,0.0,0.0,94.21,94.07,-6.0,33.0,-12.0,
3.687,-2.3538375541983343,142.911895177897,-0.03816793893129771,0.06870229007633588,0.22137404580152673,183.18382973224894,133.37208111408836,0.22900763358778625,0.2366412213740458,-0.1984732824427481,38.2505387760706,165.26764252703492,-0.007633587786259542,-0.03816793893129771,0.05343511450381679,180.03066429136368,129.9944529589744,-0.09923664122137404,0.5572519083969466,-0.04580152671755725,0.0,0.0,0.0,0.0,0.0,97.01,94.47,-10.0,43.0,-14.0,
3.725,-3.2101605312699277,146.70671869416532,-0.030534351145038167,0.40458015267175573,0.24427480916030533,183.81005840215286,134.38308516727196,0.22900763358778625,0.2366412213740458,-0.1984732824427481,19.02143018908096,165.2437572411489,-0.007633587786259542,-0.03816793893129771,0.05343511450381679,180.0308013043065,129.99444151053385,-0.09923664122137404,0.5572519083969466,-0.04580152671755725,0.0,0.0,0.0,0.0,0.0,99.78,93.98,-10.0,50.0,-17.0,
3.764,-4.580762014949411,150.18211045000183,-0.03816793893129771,0.3893129770992366,0.10687022900763359,184.3423527715712,135.24243861247803,0.22900763358778625,0.2366412213740458,-0.1984732824427481,2.676687890139764,165.22345474814577,-0.007633587786259542,-0.03816793893129771,0.05343511450381679,180.03091776530786,129.9944317793594,-0.09923664122137404,0.5572519083969466,-0.04580152671755725,0.0,0.0,0.0,0.0,0.0,102.15,93.71,-8.0,29.0,-15.0,
3.804,-5.745773276076971,153.13619344246288,-0.03816793893129771,0.3893129770992366,0.10687022900763359,184.79480298557678,135.97288904090317,0.22900763358778625,0.2366412213740458,-0.1984732824427481,-11.216343063960252,165.2061976290931,-0.007633587786259542,-0.03816793893129771,0.05343511450381679,180.91191100032563,130.9428211021949,-0.09923664122137404,0.5572519083969466,-0.04580152671755725,94.0,88.0,-36.0,-5.0,3.0,103.96,94.29,-4.0,20.0,-11.0,
3.843,-6.736032848035397,155.64716398605475,-0.03816793893129771,0.3893129770992366,0.10687022900763359,185.17938566748154,136.59377190506456,0.22900763358778625,0.2366412213740458,-0.1984732824427481,30.130490726958303,165.45506441619892,-0.07633587786259542,-0.04580152671755725,-0.022900763358778626,181.66075525009072,131.74895202660508,-0.09923664122137404,0.5572519083969466,-0.04580152671755725,94.0,88.0,-36.0,-5.0,3.0,105.21,94.39,-5.0,8.0,-8.0,
3.883,-7.57775348420006,157.78148894810784,-0.03816793893129771,0.3893129770992366,0.10687022900763359,185.50628094710058,137.1215223396017,0.22900763358778625,0.2366412213740458,-0.1984732824427481,65.32080752313684,165.65390799766612,-0.10687022900763359,-0.022900763358778626,0.0,182.29727286239105,132.43416331235375,-0.09923664122137404,0.5572519083969466,-0.04580152671755725,94.0,88.0,-36.0,-5.0,3.0,106.05,94.58,-6.0,2.0,-6.0,
3.922,-8.171154170126837,159.1686578980372,0.06870229007633588,0.5114503816793893,0.366412213740458,185.78414193477676,137.5701102089583,0.22900763358778625,0.2366412213740458,-0.1984732824427481,95.23257679988859,165.82292504191327,-0.10687022900763359,-0.022900763358778626,0.0,182.83831283284633,133.01659290524012,-0.09923664122137404,0.5572519083969466,-0.04580152671755725,94.0,88.0,-36.0,-5.0,3.0,106.64,94.59,-8.0,-1.0,-7.0,
3.962,-8.455394424031324,159.51705232426053,0.061068702290076333,0.5114503816793893,0.366412213740458,186.02032377430152,137.95140989791142,0.22900763358778625,0.2366412213740458,-0.1984732824427481,120.65758068512758,165.96658952952333,-0.10687022900763359,-0.022900763358778626,0.0,183.29819680773332,133.51165805919354,-0.09923664122137404,0.5572519083969466,-0.04580152671755725,94.0,88.0,-36.0,-5.0,3.0,107.38,94.61,-8.0,0.0,-7.0,
4.0009999999999994,-8.696998639850138,159.81318758655036,0.061068702290076333,0.5114503816793893,0.366412213740458,186.1028589804546,138.6013092479627,-0.05343511450381679,-0.0,0.03816793893129771,142.26883398758073,166.08870434399188,-0.10687022900763359,-0.022900763358778626,0.0,183.68909818638727,133.93246344005394,-0.09923664122137404,0.5572519083969466,-0.04580152671755725,94.0,88.0,-36.0,-5.0,3.0,107.84,94.53,-9.0,-2.0,-4.0,
4.04,-8.90236222329613,160.06490255949672,0.061068702290076333,0.5114503816793893,0.366412213740458,186.17301390568474,139.15372369550624,-0.05343511450381679,-0.0,0.03816793893129771,161.16996905895377,165.8320694659799,-0.061068702290076333,0.022900763358778626,0.04580152671755725,184.02136435824312,134.29014801378528,-0.09923664122137404,0.5572519083969466,-0.04580152671755725,94.0,88.0,-36.0,-5.0,3.0,108.23,94.41,-7.0,-3.0,-4.0,
4.08,-9.076921269225224,160.27886028650113,0.061068702290076333,0.5114503816793893,0.366412213740458,186.23264559213035,139.6232759759183,-0.05343511450381679,-0.0,0.03816793893129771,176.64749616591902,165.74089080860236,0.015267175572519083,0.030534351145038167,0.10687022900763359,184.3037906043206,134.59417990145693,-0.09923664122137404,0.5572519083969466,-0.04580152671755725,94.0,88.0,-36.0,-5.0,3.0,108.29,94.37,-7.0,-7.0,-3.0,
4.119,-9.225296458264953,160.46072435445487,0.061068702290076333,0.5114503816793893,0.366412213740458,186.28333252560913,140.02239541426852,-0.05343511450381679,-0.0,0.03816793893129771,189.8033942068395,165.66338894983144,0.015267175572519083,0.030534351145038167,0.10687022900763359,183.71206880400263,133.95800470871228,-0.09923664122137404,0.5572519083969466,-0.04580152671755725,94.0,81.0,-2.0,-7.0,-3.0,108.32,94.28,-7.0,-11.0,0.0,
4.1579999999999995,-9.351415368948723,160.61530881221555,0.061068702290076333,0.5114503816793893,0.366412213740458,186.52956855361714,141.01431018511323,0.0,-0.022900763358778626,-0.030534351145038167,200.98590754162188,165.59751236987614,0.015267175572519083,0.030534351145038167,0.10687022900763359,183.20910527373235,133.41725579487934,-0.09923664122137404,0.5572519083969466,-0.04580152671755725,94.0,81.0,-2.0,-7.0,-3.0,108.24,94.21,-6.0,-13.0,1.0,
4.196,-9.458616443029927,160.74670560131213,0.061068702290076333,0.5114503816793893,0.366412213740458,186.6413082745659,141.6709106692803,0.015267175572519083,-0.030534351145038167,-0.04580152671755725,210.49104387618692,165.54151727691413,0.015267175572519083,0.030534351145038167,0.10687022900763359,182.78158627300263,132.95761921812135,-0.09923664122137404,0.5572519083969466,-0.04580152671755725,94.0,81.0,-2.0,-7.0,-3.0,108.02,94.13,-6.0,-13.0,2.0,
4.234999999999999,-9.54973735599895,160.85839287204422,0.061068702290076333,0.5114503816793893,0.366412213740458,186.7330825632908,142.11085019809786,0.022900763358778626,-0.03816793893129771,-0.06870229007633588,218.5704097605672,165.49392144789644,0.015267175572519083,0.030534351145038167,0.10687022900763359,182.41819512238237,132.56692812787705,-0.09923664122137404,0.5572519083969466,-0.04580152671755725,94.0,81.0,-2.0,-7.0,-3.0,107.72,94.02,-6.0,-14.0,2.0,
4.275,-9.627190132022621,160.95332705216651,0.061068702290076333,0.5114503816793893,0.366412213740458,186.81109070870696,142.4847987975928,0.022900763358778626,-0.03816793893129771,-0.06870229007633588,225.43787076229043,165.4534649932314,0.015267175572519083,0.030534351145038167,0.10687022900763359,181.96198545022,132.0734761417861,-0.09923664122137404,0.5572519083969466,-0.04580152671755725,94.0,81.0,4.0,-4.0,-1.0,107.49,94.0,-5.0,-11.0,2.0,
4.314,-9.69302499164274,161.03402110527045,0.061068702290076333,0.5114503816793893,0.366412213740458,186.8773976323107,142.80265510716347,0.022900763358778626,-0.03816793893129771,-0.06870229007633588,231.9491578139449,165.01524325288395,0.05343511450381679,-0.13740458015267176,-0.007633587786259542,181.57420722888196,131.6540419536088,-0.09923664122137404,0.5572519083969466,-0.04580152671755725,94.0,81.0,4.0,-4.0,-1.0,107.17,93.95,-4.0,-13.0,5.0,
4.353,-9.748984622319842,161.1026110504088,0.061068702290076333,0.5114503816793893,0.366412213740458,187.00709381723155,142.8331811567436,0.0,-0.030534351145038167,-0.05343511450381679,237.4837518078512,164.64275477358862,0.05343511450381679,-0.13740458015267176,-0.007633587786259542,181.24459574074464,131.2975228936581,-0.09923664122137404,0.5572519083969466,-0.04580152671755725,94.0,81.0,4.0,-4.0,-1.0,106.78,93.8,-2.0,-14.0,6.0,
4.392,-10.015061882435365,160.84298605881628,-0.04580152671755725,0.5419847328244275,0.1984732824427481,187.11733557441428,142.8591282988867,0.0,-0.030534351145038167,-0.05343511450381679,242.18815670267156,164.32613956618758,0.05343511450381679,-0.13740458015267176,-0.007633587786259542,180.9644259758279,130.99448169270002,-0.09923664122137404,0.5572519083969466,-0.04580152671755725,94.0,81.0,4.0,-4.0,-1.0,106.27,93.74,-1.0,-19.0,6.0,
4.431,-10.24122755353356,160.62230481596265,-0.04580152671755725,0.5419847328244275,0.1984732824427481,187.17884192570565,142.91490892687398,-0.022900763358778626,-0.015267175572519083,0.0,246.18690086326887,164.05701663989672,0.05343511450381679,-0.13740458015267176,-0.007633587786259542,180.7262816756487,130.73689667188563,-0.09923664122137404,0.5572519083969466,-0.04580152671755725,94.0,81.0,4.0,-4.0,-1.0,105.58,93.55,0.0,-17.0,6.0,
4.47,-10.433468373967028,160.43472575953706,-0.04580152671755725,0.5419847328244275,0.1984732824427481,187.1936971405896,142.97000240425862,-0.030534351145038167,-0.015267175572519083,0.007633587786259542,249.5858333997766,163.82826215254948,0.05343511450381679,-0.13740458015267176,-0.007633587786259542,180.52385902049636,130.51794940419342,-0.09923664122137404,0.5572519083969466,-0.04580152671755725,94.0,81.0,4.0,-4.0,-1.0,104.89,93.49,0.0,-18.0,5.0,
4.509,-10.596873071335473,160.27528356157535,-0.04580152671755725,0.5419847328244275,0.1984732824427481,187.20632407324092,143.01683186003558,-0.030534351145038167,-0.015267175572519083,0.007633587786259542,251.9261493553209,164.0645957932332,0.030534351145038167,0.06870229007633588,-0.015267175572519083,180.35179976361687,130.33184422665502,-0.09923664122137404,0.5572519083969466,-0.04580152671755725,94.0,81.0,4.0,-4.0,-1.0,104.11,93.5,-1.0,-14.0,3.0,
4.548,-10.735767064098653,160.13975769330784,-0.04580152671755725,0.5419847328244275,0.1984732824427481,187.21705696599457,143.056636897446,-0.030534351145038167,-0.015267175572519083,0.007633587786259542,253.81281249777794,164.32110876103815,0.015267175572519083,0.06870229007633588,-0.05343511450381679,180.20554939526932,130.17365482574738,-0.09923664122137404,0.5572519083969466,-0.04580152671755725,94.0,81.0,4.0,-4.0,-1.0,103.45,93.45,-2.0,-12.0,0.0,
4.587,-10.512745425689529,160.73968198092098,-0.05343511450381679,0.5419847328244275,0.17557251908396945,187.22617992483518,143.09047117924484,-0.030534351145038167,-0.015267175572519083,0.007633587786259542,255.41647616886644,164.53914478367236,0.015267175572519083,0.06870229007633588,-0.05343511450381679,180.0812365821739,130.0391938349759,-0.09923664122137404,0.5572519083969466,-0.04580152671755725,94.0,81.0,4.0,-4.0,-1.0,102.88,93.41,-3.0,-9.0,-1.0,
4.626,-10.323177033041773,161.24961762539215,-0.05343511450381679,0.5419847328244275,0.17557251908396945,187.2339344398497,143.11923031877387,-0.030534351145038167,-0.015267175572519083,0.007633587786259542,257.3731249177911,164.66444640613577,-0.015267175572519083,0.07633587786259542,-0.1450381679389313,179.97557069104278,129.92490199282014,-0.09923664122137404,0.5572519083969466,-0.04580152671755725,94.0,81.0,4.0,-4.0,-1.0,102.44,93.49,-2.0,-10.0,-1.0,
4.665,-10.070010711618705,161.58932087000758,-0.030534351145038167,0.5267175572519084,0.2366412213740458,187.24052577761202,143.14367558737354,-0.030534351145038167,-0.015267175572519083,0.007633587786259542,259.03627635437704,164.77095278522967,-0.015267175572519083,0.07633587786259542,-0.1450381679389313,179.88575468358133,129.82775392698773,-0.09923664122137404,0.5572519083969466,-0.04580152671755725,94.0,81.0,4.0,-4.0,-1.0,101.85,93.63,-2.0,-10.0,0.0,
4.704,-9.854819338409097,161.8780686279307,-0.030534351145038167,0.5267175572519084,0.2366412213740458,187.24612841471,143.16445406568326,-0.030534351145038167,-0.015267175572519083,0.007633587786259542,260.070959512788,164.86961498199548,-0.04580152671755725,0.061068702290076333,-0.061068702290076333,179.8094110772391,129.74517807103018,-0.09923664122137404,0.5572519083969466,-0.04580152671755725,94.0,81.0,4.0,-4.0,-1.0,101.44,93.77,-4.0,-7.0,0.0,
4.743,-9.797261966544541,161.9028643671105,-0.022900763358778626,0.5267175572519084,0.24427480916030533,187.25089065624329,143.1821157722465,-0.030534351145038167,-0.015267175572519083,0.007633587786259542,260.9504401974374,164.95347784924638,-0.04580152671755725,0.061068702290076333,-0.061068702290076333,179.7445190118482,129.67498859346628,-0.09923664122137404,0.5572519083969466,-0.04580152671755725,94.0,81.0,4.0,-4.0,-1.0,100.96,93.72,-2.0,-8.0,0.0,
4.782,-9.748338200459667,161.92394074541335,-0.022900763358778626,0.5267175572519084,0.24427480916030533,187.25493856154657,143.19712822282528,-0.030534351145038167,-0.015267175572519083,0.007633587786259542,261.6979987793893,165.02476128640967,-0.04580152671755725,0.061068702290076333,-0.061068702290076333,179.68936075626596,129.61532753753696,-0.09923664122137404,0.5572519083969466,-0.04580152671755725,95.0,85.0,4.0,-5.0,-1.0,100.65,93.89,-1.0,-8.0,0.0,
4.821,-9.679234748034453,161.5944587737246,-0.022900763358778626,0.5114503816793893,0.25190839694656486,187.25837928105437,143.20988880581723,-0.030534351145038167,-0.015267175572519083,0.007633587786259542,262.3334235740485,165.08535220799848,-0.04580152671755725,0.061068702290076333,-0.061068702290076333,179.64247623902102,129.56461563999704,-0.09923664122137404,0.5572519083969466,-0.04580152671755725,95.0,85.0,4.0,-5.0,-1.0,100.13,94.01,-2.0,-7.0,0.0,
4.86,-9.62049681347302,161.31439909778916,-0.022900763358778626,0.5114503816793893,0.25190839694656486,187.261303892636,143.22073530136038,-0.030534351145038167,-0.015267175572519083,0.007633587786259542,262.9989194228917,165.03930075521887,-0.04580152671755725,0.07633587786259542,0.0,179.60262439936284,129.5215105270881,-0.09923664122137404,0.5572519083969466,-0.04580152671755725,95.0,85.0,4.0,-5.0,-1.0,99.79,93.98,-5.0,-3.0,-1.0,
4.9,-9.688657534585637,161.04876576835878,-0.030534351145038167,0.5114503816793893,0.22900763358778625,187.26378981248038,143.22995482257207,-0.030534351145038167,-0.015267175572519083,0.007633587786259542,263.56459089440835,165.0001570203562,-0.04580152671755725,0.07633587786259542,0.0,179.5687503356534,129.48487118111552,-0.09923664122137404,0.5572519083969466,-0.04580152671755725,95.0,85.0,4.0,-5.0,-1.0,99.52,94.03,-4.0,-1.0,0.0,
4.939,-9.746594147531361,160.82297743834295,-0.030534351145038167,0.5114503816793893,0.22900763358778625,187.16732419343884,142.99615446545744,-0.007633587786259542,0.007633587786259542,0.022900763358778626,264.04541164519753,164.96688484572294,-0.04580152671755725,0.07633587786259542,0.0,179.53995738150036,129.4537277370388,-0.09923664122137404,0.5572519083969466,-0.04580152671755725,95.0,85.0,4.0,-5.0,-1.0,99.15,93.8,-3.0,-2.0,0.0,
4.978,-9.795840268535228,160.6310573578295,-0.030534351145038167,0.5114503816793893,0.22900763358778625,187.08532841725352,142.79742416191,-0.007633587786259542,0.007633587786259542,0.022900763358778626,264.4541092833684,164.93860349728467,-0.04580152671755725,0.07633587786259542,0.0,154.5951715193892,129.36904953338757,-0.07633587786259542,0.015267175572519083,0.19083969465648856,95.0,85.0,4.0,-5.0,-1.0,98.83,93.92,-2.0,2.0,-3.0,
5.017,-9.74736077529058,160.6658010951737,-0.022900763358778626,0.5038167938931297,0.1984732824427481,187.015632007496,142.62850340389465,-0.007633587786259542,0.007633587786259542,0.022900763358778626,264.80150227581356,164.91456435111215,-0.04580152671755725,0.07633587786259542,0.0,133.3921035365947,129.29707306028402,-0.07633587786259542,0.015267175572519083,0.19083969465648856,95.0,85.0,4.0,-5.0,-1.0,98.79,93.97,-5.0,1.0,-3.0,
5.055,-9.745334042631908,160.59239405500193,-0.022900763358778626,0.5038167938931297,0.20610687022900764,186.95639005920214,142.48492075958163,-0.007633587786259542,0.007633587786259542,0.022900763358778626,265.096786319392,164.89413107686548,-0.04580152671755725,0.07633587786259542,0.0,115.36949575121936,129.235893058146,-0.07633587786259542,0.015267175572519083,0.19083969465648856,95.0,85.0,4.0,-5.0,-1.0,98.87,94.02,-6.0,4.0,-4.0,
5.095,-9.743611319872038,160.52999807085595,-0.022900763358778626,0.5038167938931297,0.20610687022900764,186.90603440315232,142.36287551191555,-0.007633587786259542,0.007633587786259542,0.022900763358778626,265.34777775643363,164.87676279375583,-0.04580152671755725,0.07633587786259542,0.0,96.56300417217125,129.4743721740895,-0.07633587786259542,0.015267175572519083,0.19083969465648856,95.0,87.0,-3.0,-7.0,0.0,98.81,94.04,-6.0,1.0,-2.0,
5.132,-9.742147005526148,160.47696148433187,-0.022900763358778626,0.5038167938931297,0.20610687022900764,186.86323209550997,142.2591370513994,-0.007633587786259542,0.007633587786259542,0.022900763358778626,265.90727365146284,164.8271177238825,0.0,0.015267175572519083,0.0,80.57748632998036,129.67707942264147,-0.07633587786259542,0.015267175572519083,0.19083969465648856,95.0,87.0,-3.0,-7.0,0.0,98.75,94.16,-7.0,1.0,0.0,
5.171,-9.740902338332141,160.43188038578637,-0.022900763358778626,0.5038167938931297,0.20610687022900764,186.826850134014,142.17095935996065,-0.007633587786259542,0.007633587786259542,0.022900763358778626,266.3661002783648,164.8321239664018,0.0,0.007633587786259542,0.030534351145038167,66.9897961641181,129.84938058391066,-0.07633587786259542,0.015267175572519083,0.19083969465648856,95.0,87.0,-3.0,-7.0,0.0,98.73,94.04,-7.0,4.0,-2.0,
5.21,-9.739844371217234,160.3935614520227,-0.022900763358778626,0.5038167938931297,0.20610687022900764,186.7959254667424,142.0960083222377,-0.007633587786259542,0.007633587786259542,0.022900763358778626,266.7561029112315,164.83637927254318,0.0,0.007633587786259542,0.030534351145038167,55.87283381250263,129.97094688774985,-0.07633587786259542,0.030534351145038167,0.21374045801526717,95.0,87.0,-3.0,-7.0,0.0,98.92,93.93,-6.0,2.0,-3.0,
5.249,-9.738945099169564,160.3609903583236,-0.022900763358778626,0.5038167938931297,0.20610687022900764,186.76963949956155,142.03229994017323,-0.007633587786259542,0.007633587786259542,0.022900763358778626,267.08760514916816,164.83999628276337,0.0,0.007633587786259542,0.030534351145038167,46.32739336309121,130.08292705733714,-0.05343511450381679,0.030534351145038167,0.21374045801526717,95.0,87.0,-3.0,-7.0,0.0,99.1,93.97,-8.0,0.0,-3.0,
5.287,-9.699129652322132,160.52077385004216,-0.007633587786259542,0.48854961832061067,0.20610687022900764,186.74729642745783,141.97814781541842,-0.007633587786259542,0.007633587786259542,0.022900763358778626,267.36938205141433,164.8430707414505,0.0,0.007633587786259542,0.030534351145038167,38.213768981091505,130.17811020148633,-0.05343511450381679,0.030534351145038167,0.21374045801526717,95.0,87.0,-3.0,-7.0,0.0,99.48,93.94,-7.0,2.0,-3.0,
5.326,-9.639038281995811,160.63387941420234,-0.007633587786259542,0.48854961832061067,0.20610687022900764,186.72830481616967,141.93211850937683,-0.007633587786259542,0.007633587786259542,0.022900763358778626,267.6088924183236,164.8456840313346,0.0,0.007633587786259542,0.030534351145038167,31.31718825639176,130.25901587401316,-0.05343511450381679,0.030534351145038167,0.21374045801526717,95.0,87.0,-3.0,-7.0,0.0,99.73,93.88,-7.0,2.0,-2.0,
5.365,-9.587960617218439,160.73001914373847,-0.007633587786259542,0.48854961832061067,0.20610687022900764,186.71216194657472,141.8929935992415,-0.007633587786259542,0.007633587786259542,0.022900763358778626,267.897764059112,164.7802967523478,0.0,-0.007633587786259542,0.061068702290076333,25.455094640396975,130.32778569566096,-0.05343511450381679,0.030534351145038167,0.21374045801526717,95.0,87.0,-3.0,-7.0,0.0,99.86,93.71,-6.0,2.0,-1.0,
5.404,-9.544544602157671,160.8117379138442,-0.007633587786259542,0.48854961832061067,0.20610687022900764,186.69844050741904,141.85973742562643,-0.007633587786259542,0.007633587786259542,0.022900763358778626,268.1433049537821,164.724717565209,0.0,-0.007633587786259542,0.061068702290076333,20.610738843324853,130.39619674700222,-0.061068702290076333,0.03816793893129771,0.22137404580152673,95.0,87.0,-3.0,-7.0,0.0,99.94,93.58,-6.0,0.0,0.0,
5.442,-9.763863325779528,161.19194230032315,-0.007633587786259542,0.48091603053435117,0.21374045801526717,186.6867772841367,141.83146967805365,-0.007633587786259542,0.007633587786259542,0.022900763358778626,268.3520147142517,164.67747525614104,0.0,-0.007633587786259542,0.061068702290076333,16.49303641581355,130.4543461406423,-0.061068702290076333,0.03816793893129771,0.22137404580152673,95.0,87.0,-3.0,-7.0,0.0,99.91,93.45,-4.0,-2.0,0.0,
5.481,-9.950284240858107,161.51511602883025,-0.007633587786259542,0.48091603053435117,0.21374045801526717,186.6768635443467,141.80744209261678,-0.007633587786259542,0.007633587786259542,0.022900763358778626,268.52941801065083,164.63731929343325,0.0,-0.007633587786259542,0.061068702290076333,12.992989352428939,130.50377312523634,-0.061068702290076333,0.03816793893129771,0.22137404580152673,95.0,86.0,-3.0,-7.0,-1.0,99.82,93.37,-5.0,-3.0,1.0,
5.518,-10.108742018674898,161.7898136980613,-0.007633587786259542,0.48091603053435117,0.21374045801526717,186.66843686552522,141.78701864499544,-0.007633587786259542,0.007633587786259542,0.022900763358778626,268.68021081259013,164.60318672513165,0.0,-0.007633587786259542,0.061068702290076333,10.471994593837495,130.54695056786065,-0.06870229007633588,0.007633587786259542,0.22137404580152673,95.0,86.0,-3.0,-7.0,-1.0,99.74,93.34,-6.0,-1.0,0.0,
5.557,-10.24343112981917,162.02330671690768,-0.007633587786259542,0.48091603053435117,0.21374045801526717,186.66127418852696,141.7696587145173,-0.007633587786259542,0.007633587786259542,0.022900763358778626,268.8083846942385,164.57417404207527,0.0,-0.007633587786259542,0.061068702290076333,8.71030577160535,130.504111316866,-0.06870229007633588,0.007633587786259542,0.22137404580152673,95.0,86.0,-1.0,-7.0,-1.0,99.75,93.25,-6.0,0.0,0.0,
5.595,-10.357916874291801,162.2217757829271,-0.007633587786259542,0.48091603053435117,0.21374045801526717,186.65518591307844,141.75490277361087,-0.007633587786259542,0.007633587786259542,0.022900763358778626,268.9173324936396,164.54951326147736,0.0,-0.007633587786259542,0.061068702290076333,7.107519788467747,130.4673526899107,-0.061068702290076333,-0.0,0.22137404580152673,95.0,86.0,-1.0,-7.0,-1.0,99.76,93.16,-6.0,0.0,0.0,
5.634,-10.331349765346312,162.0275261445774,-0.03816793893129771,0.5114503816793893,0.22900763358778625,186.6500108789472,141.7423602238404,-0.007633587786259542,0.007633587786259542,0.022900763358778626,269.0099381231306,164.52855159796914,0.0,-0.007633587786259542,0.061068702290076333,5.745151702800784,130.43610785699872,-0.061068702290076333,-0.0,0.22137404580152673,95.0,86.0,-1.0,-7.0,-1.0,99.73,93.1,-6.0,-1.0,0.0,
5.672,-10.308767722742646,161.86241395198016,-0.03816793893129771,0.5114503816793893,0.22900763358778625,186.64561209993565,141.7316990565355,-0.007633587786259542,0.007633587786259542,0.022900763358778626,269.0886529081979,164.51073418398715,0.0,-0.007633587786259542,0.061068702290076333,4.539852310662461,130.41517328008194,-0.05343511450381679,0.007633587786259542,0.21374045801526717,95.0,86.0,-1.0,-7.0,-1.0,99.65,93.0,-5.0,-1.0,0.0,
5.711,-10.28957298652953,161.7220685882725,-0.03816793893129771,0.5114503816793893,0.22900763358778625,186.6418731377758,141.72263706432634,-0.007633587786259542,0.007633587786259542,0.022900763358778626,269.1555604755051,164.49558938210245,0.0,-0.007633587786259542,0.061068702290076333,3.5153478273448866,130.39737888970268,-0.05343511450381679,0.007633587786259542,0.21374045801526717,94.0,87.0,-1.0,-6.0,0.0,99.64,92.92,-5.0,-2.0,0.0,
5.749,-10.27325746074838,161.60277502912098,-0.03816793893129771,0.5114503816793893,0.22900763358778625,186.6649837861031,141.89334534453565,-0.007633587786259542,-0.0,0.0,269.2124319077163,164.48271630050047,0.0,-0.007633587786259542,0.061068702290076333,2.6445190165249484,130.3822536578803,-0.05343511450381679,0.007633587786259542,0.21374045801526717,94.0,87.0,-1.0,-6.0,0.0,99.59,92.87,-6.0,-2.0,-1.0,
5.788,-10.209683521762063,161.48418203936794,-0.030534351145038167,0.5114503816793893,0.22900763358778625,186.6846278371813,142.03844738271357,-0.007633587786259542,-0.0,0.0,269.2607726250958,164.47177418113878,0.0,-0.007633587786259542,0.061068702290076333,1.9043145273280009,130.3693972108313,-0.05343511450381679,0.007633587786259542,0.21374045801526717,94.0,87.0,-1.0,-6.0,0.0,99.58,92.88,-7.0,-2.0,-2.0,
5.826,-10.155645673623694,161.38337799807786,-0.030534351145038167,0.5114503816793893,0.22900763358778625,186.6946223679246,142.1022611953344,-0.007633587786259542,-0.0,0.0,269.30186223486834,164.46247337968134,0.0,-0.007633587786259542,0.061068702290076333,1.2751407115105955,130.35846923083963,-0.05343511450381679,0.007633587786259542,0.21374045801526717,94.0,87.0,-1.0,-6.0,0.0,99.57,92.75,-7.0,-1.0,-3.0,
5.865,-10.063347699730889,161.1693056939299,-0.030534351145038167,0.5114503816793893,0.22900763358778625,186.70311771905642,142.15650293606208,-0.007633587786259542,-0.0,0.0,269.336788403175,164.4545676984425,0.0,-0.007633587786259542,0.061068702290076333,0.7403429680658009,130.34918044784672,-0.05343511450381679,0.007633587786259542,0.21374045801526717,94.0,87.0,-1.0,-6.0,0.0,99.58,92.67,-7.0,0.0,-3.0,
5.902,-10.027157708174126,161.04822908786252,-0.022900763358778626,0.5038167938931297,0.22137404580152673,186.71033876751846,142.20260841568063,-0.007633587786259542,-0.0,0.0,269.36647564623564,164.4478478693895,0.0,-0.007633587786259542,0.061068702290076333,0.2857648861377256,130.34128498230274,-0.05343511450381679,0.007633587786259542,0.21374045801526717,94.0,87.0,-1.0,-6.0,0.0,99.56,92.6,-6.0,0.0,-2.0,
5.941,-10.031278632593729,160.91797750076998,-0.030534351145038167,0.5038167938931297,0.22137404580152673,186.7164766587112,142.2417980733564,-0.007633587786259542,-0.0,0.0,269.3917098028372,164.44213601469446,0.0,-0.007633587786259542,0.061068702290076333,-0.10062648350113837,130.33457383659035,-0.05343511450381679,0.007633587786259542,0.21374045801526717,94.0,87.0,-1.0,-6.0,0.0,99.56,92.43,-6.0,0.0,-2.0,
5.979,-10.034781418350391,160.80726365174132,-0.030534351145038167,0.5038167938931297,0.22137404580152673,186.72169386622502,142.27510928238078,-0.007633587786259542,-0.0,0.0,269.4131588359486,164.43728093820366,0.0,-0.007633587786259542,0.061068702290076333,-0.39221402909326725,130.32532084435334,-0.06870229007633588,0.015267175572519083,0.19083969465648856,94.0,87.0,-1.0,-6.0,0.0,99.52,92.4,-6.0,-2.0,-2.0,
6.018,-10.037758786243554,160.71315688006698,-0.030534351145038167,0.5038167938931297,0.22137404580152673,186.7261284926118,142.30342381005153,-0.007633587786259542,-0.0,0.0,269.205309729562,164.41556239126203,0.0,0.007633587786259542,0.007633587786259542,-0.6400634428465768,130.31745580095188,-0.06870229007633588,0.015267175572519083,0.19083969465648856,94.0,87.0,-1.0,-6.0,0.0,99.55,92.37,-6.0,-1.0,-2.0,
6.057,-10.040289548952742,160.63316612414377,-0.030534351145038167,0.5038167938931297,0.22137404580152673,186.72989792504055,142.32749115857166,-0.007633587786259542,-0.0,0.0,269.02863798913336,164.39710162636163,0.0,0.007633587786259542,0.007633587786259542,-1.7634395253701203,130.43522366318902,-0.06870229007633588,0.015267175572519083,0.19083969465648856,95.0,87.0,-4.0,-5.0,0.0,99.53,92.32,-6.0,-1.0,-2.0,
6.095,-10.042440697255554,160.56517398160904,-0.030534351145038167,0.5038167938931297,0.22137404580152673,186.73310194260497,142.34794840481376,-0.007633587786259542,-0.0,0.0,268.878467009769,164.3814099761963,0.0,0.007633587786259542,0.007633587786259542,-2.416119376989242,130.49386807387225,-0.06870229007633588,0.015267175572519083,0.19083969465648856,95.0,87.0,-3.0,-6.0,0.0,99.5,92.24,-5.0,0.0,-2.0,
6.134,-10.044269173312943,160.50738066045452,-0.030534351145038167,0.5038167938931297,0.22137404580152673,186.73582535753474,142.36533706411956,-0.007633587786259542,-0.0,0.0,268.7508216773093,164.36807207355577,0.0,0.007633587786259542,0.007633587786259542,-3.21834661896924,130.5464807291936,-0.06870229007633588,0.015267175572519083,0.1984732824427481,95.0,87.0,-3.0,-6.0,0.0,99.45,92.14,-5.0,-2.0,-2.0,
6.172,-10.045823377961723,160.4582563374732,-0.030534351145038167,0.5038167938931297,0.22137404580152673,186.73814026022504,142.3801174245295,-0.007633587786259542,-0.0,0.0,268.6423231447186,164.35673485631133,0.0,0.007633587786259542,0.007633587786259542,-4.015014828015696,130.59705176229272,-0.07633587786259542,0.022900763358778626,0.21374045801526717,95.0,87.0,-3.0,-6.0,0.0,99.35,92.05,-5.0,-1.0,-2.0,
6.211,-10.047144451913187,160.41650066293906,-0.030534351145038167,0.5038167938931297,0.22137404580152673,186.7401079275118,142.3926807308779,-0.007633587786259542,-0.0,0.0,268.5500993920165,164.34709822165357,0.0,0.007633587786259542,0.007633587786259542,-4.147496717154843,130.64652865431086,-0.07633587786259542,0.015267175572519083,0.21374045801526717,95.0,87.0,-3.0,-6.0,0.0,99.25,91.99,-4.0,-2.0,-2.0,
6.25,-10.048267364771931,160.38100833958504,-0.030534351145038167,0.5038167938931297,0.22137404580152673,186.74178044470554,142.40335954127409,-0.007633587786259542,-0.0,0.0,268.4546328078689,164.34342121582995,0.0,0.007633587786259542,0.0,-4.260106322923119,130.68858401252626,-0.07633587786259542,0.015267175572519083,0.21374045801526717,95.0,87.0,-3.0,-6.0,0.0,99.1,91.96,-4.0,-1.0,-3.0,
6.288,-10.049221840701863,160.35083986473413,-0.030534351145038167,0.5038167938931297,0.22137404580152673,186.74320208432022,142.41243653011082,-0.007633587786259542,-0.0,0.0,268.37348621134345,164.34029576087988,0.0,0.007633587786259542,0.0,-4.538351040405474,130.69920476278276,-0.07633587786259542,0.007633587786259542,0.20610687022900764,95.0,87.0,-3.0,-6.0,0.0,99.0,91.96,-5.0,0.0,-2.0,
6.326,-10.050033145242306,160.32519666111085,-0.030534351145038167,0.5038167938931297,0.22137404580152673,186.80483487842173,142.44337413554248,-0.007633587786259542,-0.007633587786259542,0.0,268.3045116042968,164.3376391241723,0.0,0.007633587786259542,0.0,-4.774859050265476,130.70823240050078,-0.07633587786259542,0.007633587786259542,0.20610687022900764,95.0,87.0,-3.0,-6.0,0.0,98.98,91.98,-5.0,0.0,-3.0,
6.365,-10.069648595654241,160.1681735449812,-0.05343511450381679,0.5114503816793893,0.1984732824427481,186.85722275340802,142.4696711001594,-0.007633587786259542,-0.007633587786259542,0.0,268.2458831883072,164.3353809829709,0.0,0.007633587786259542,0.0,-4.975890858646478,130.7159058925611,-0.07633587786259542,0.007633587786259542,0.20610687022900764,95.0,87.0,-3.0,-6.0,0.0,99.01,91.98,-5.0,0.0,-3.0,
6.404,-10.022517679145574,160.1810414205388,-0.05343511450381679,0.5114503816793893,0.19083969465648856,186.90175244714635,142.49202352008376,-0.007633587786259542,-0.007633587786259542,0.0,268.196049034716,164.33346156294968,0.0,0.007633587786259542,0.0,-5.14676789577033,130.7224283608124,-0.07633587786259542,0.007633587786259542,0.20610687022900764,95.0,87.0,-3.0,-6.0,0.0,98.99,91.92,-4.0,0.0,-1.0,
6.443,-9.982456400113207,160.1919791147628,-0.05343511450381679,0.5114503816793893,0.19083969465648856,186.93960268682395,142.51102307701947,-0.007633587786259542,-0.007633587786259542,0.0,268.1536900041635,164.33183005593165,0.0,0.007633587786259542,0.0,-4.987530359031105,130.68979944788367,-0.07633587786259542,0.007633587786259542,0.20610687022900764,95.0,87.0,-2.0,-7.0,0.0,99.01,91.93,-5.0,-1.0,0.0,
6.482,-9.948404312935695,160.2012761548532,-0.05343511450381679,0.5114503816793893,0.19083969465648856,186.9717753905499,142.52717270041484,-0.007633587786259542,-0.007633587786259542,0.0,268.2398746565522,164.38824845265805,0.015267175572519083,-0.0,-0.022900763358778626,-4.852178452802764,130.66206487189424,-0.07633587786259542,0.007633587786259542,0.20610687022900764,95.0,87.0,-2.0,-7.0,0.0,98.7,91.83,-4.0,0.0,1.0,
6.52,-9.91946003883481,160.20917863893,-0.05343511450381679,0.5114503816793893,0.19083969465648856,186.99912218871697,142.54089988030088,-0.007633587786259542,-0.007633587786259542,0.0,268.31313161108267,164.43620408987547,0.015267175572519083,-0.0,-0.022900763358778626,-4.124286814812164,130.56210629300426,-0.07633587786259542,0.007633587786259542,0.20610687022900764,95.0,87.0,0.0,-7.0,-1.0,98.55,91.88,-3.0,1.0,1.0,
6.559,-9.894857405849057,160.2158957503953,-0.05343511450381679,0.5114503816793893,0.19083969465648856,187.02236696715897,142.55256798320403,-0.007633587786259542,-0.007633587786259542,0.0,268.3754000224335,164.4769663815103,0.015267175572519083,-0.0,-0.022900763358778626,-4.118421440216664,130.55352569024674,-0.07633587786259542,0.007633587786259542,0.20610687022900764,94.0,87.0,-2.0,-7.0,0.0,98.52,91.68,-3.0,12.0,5.0,
6.598,-9.873945167811168,160.22160529514082,-0.05343511450381679,0.5114503816793893,0.19083969465648856,187.04212502883468,142.5624858706717,-0.007633587786259542,-0.007633587786259542,0.0,268.4283281720817,164.5116143293999,0.015267175572519083,-0.0,-0.022900763358778626,-3.807404627797647,130.50804390182645,-0.07633587786259542,0.007633587786259542,0.20610687022900764,94.0,87.0,-1.0,-7.0,0.0,98.52,91.59,-1.0,22.0,4.0,
6.636,-9.856169765478963,160.2264584081745,-0.05343511450381679,0.5114503816793893,0.19083969465648856,187.0413889921808,142.70332318116954,-0.007633587786259542,-0.0,0.0,268.4733170992827,164.54106508510606,0.015267175572519083,-0.0,-0.022900763358778626,-3.543040337241483,130.46938438166922,-0.07633587786259542,0.007633587786259542,0.20610687022900764,94.0,87.0,-1.0,-7.0,0.0,99.55,91.54,0.0,34.0,1.0,
6.675,-9.841060673496589,160.23058355425312,-0.05343511450381679,0.5114503816793893,0.19083969465648856,187.04076336102503,142.82303489509272,-0.007633587786259542,-0.0,0.0,268.5115576874036,164.56609822745628,0.015267175572519083,-0.0,-0.022900763358778626,-3.206942088687428,130.4579412382324,-0.08396946564885496,-0.007633587786259542,0.16030534351145037,94.0,87.0,-1.0,-7.0,0.0,99.72,91.12,7.0,29.0,0.0,
6.713,-9.82821794531157,160.23408992841996,-0.05343511450381679,0.5114503816793893,0.19083969465648856,187.04023157454262,142.92478985192741,-0.007633587786259542,-0.0,0.0,268.5440621873063,164.58737639845398,0.015267175572519083,-0.0,-0.022900763358778626,-2.8978301022291433,130.43846844701008,-0.12213740458015267,-0.007633587786259542,0.16793893129770993,94.0,87.0,-1.0,-7.0,0.0,99.32,91.56,8.0,15.0,-2.0,
6.751,-9.817301626354304,160.23707034646176,-0.05343511450381679,0.5114503816793893,0.19083969465648856,187.03977955603256,143.0112815652369,-0.007633587786259542,-0.0,0.0,268.5716910122236,164.60546284380203,0.015267175572519083,-0.0,-0.022900763358778626,-4.649352920020785,131.0187701802377,-0.12213740458015267,-0.007633587786259542,0.16793893129770993,94.0,86.0,-13.0,-14.0,10.0,98.34,92.11,8.0,2.0,5.0,
6.79,-9.808022755240628,160.2396037017973,-0.05343511450381679,0.5114503816793893,0.19083969465648856,186.71064327055927,142.50277547496594,-0.0916030534351145,-0.007633587786259542,-0.007633587786259542,268.5951755134033,164.62083632234788,0.015267175572519083,-0.0,-0.022900763358778626,-6.138147315143681,131.5120266534812,-0.12213740458015267,-0.007633587786259542,0.16793893129770993,94.0,86.0,-13.0,-14.0,10.0,97.69,92.54,5.0,49.0,1.0,
6.829,-8.677638068537211,157.55597000782043,-0.04580152671755725,0.5343511450381679,0.2748091603053435,186.43087742790698,142.07054529823563,-0.0916030534351145,-0.007633587786259542,-0.007633587786259542,268.6151373394061,164.63390377911185,0.015267175572519083,-0.0,-0.022900763358778626,-7.403622550998143,131.93129465573816,-0.12213740458015267,-0.007633587786259542,0.16793893129770993,94.0,86.0,-13.0,-14.0,10.0,98.23,92.57,-10.0,40.0,-4.0,
6.868,-7.716811084839306,155.27488136794008,-0.04580152671755725,0.5343511450381679,0.2748091603053435,186.19307646165254,141.70314964801486,-0.0916030534351145,-0.007633587786259542,-0.007633587786259542,268.63210489150845,164.6450111173612,0.015267175572519083,-0.0,-0.022900763358778626,-8.317504063703142,132.2387374046378,-0.12213740458015267,-0.007633587786259542,0.16793893129770993,93.0,88.0,-12.0,-8.0,-1.0,99.61,92.33,0.0,44.0,-6.0,
6.907,-6.900108148696088,153.3359560240418,-0.04580152671755725,0.5343511450381679,0.2748091603053435,185.99094564033626,141.3908633453272,-0.0916030534351145,-0.007633587786259542,-0.007633587786259542,215.29769842118645,164.73323615803935,0.022900763358778626,-0.07633587786259542,0.12213740458015267,-9.094303349502391,132.50006374120247,-0.12213740458015267,-0.007633587786259542,0.16793893129770993,93.0,88.0,-12.0,-8.0,-1.0,102.41,92.53,-5.0,53.0,-1.0,
6.946,-6.698001766039074,132.25411405867104,0.007633587786259542,0.3435114503816794,0.15267175572519084,185.81913444221743,141.1254199880427,-0.0916030534351145,-0.007633587786259542,-0.007633587786259542,169.96345292141277,164.80822744261576,0.022900763358778626,-0.07633587786259542,0.12213740458015267,-9.754582742431753,132.72219112728243,-0.12213740458015267,-0.007633587786259542,0.16793893129770993,93.0,88.0,-12.0,-8.0,-1.0,104.19,92.44,-12.0,52.0,-4.0,
6.985,-6.526211340780611,114.33454838810592,0.007633587786259542,0.3435114503816794,0.15267175572519084,185.6331129616593,141.08983101995955,0.0916030534351145,0.22900763358778625,-0.022900763358778626,131.42934424660513,164.8719700345057,0.022900763358778626,-0.07633587786259542,0.12213740458015267,-10.315820226421708,132.9109994054504,-0.12213740458015267,-0.007633587786259542,0.16793893129770993,93.0,88.0,-12.0,-8.0,-1.0,104.73,90.59,-15.0,-11.0,-8.0,
7.025,-6.380189479310918,99.10291756812558,0.007633587786259542,0.3435114503816794,0.15267175572519084,185.47499470318485,141.0595803970889,0.0916030534351145,0.22900763358778625,-0.022900763358778626,98.67535187301863,164.92615123761215,0.022900763358778626,-0.07633587786259542,0.12213740458015267,-13.41307557849885,133.90937639642675,-0.12213740458015267,-0.007633587786259542,0.16793893129770993,92.0,86.0,-30.0,3.0,4.0,105.24,90.99,-3.0,-20.0,-11.0,
7.064,-6.2560708970616785,86.15603137114229,0.007633587786259542,0.3435114503816794,0.15267175572519084,184.34862126235024,138.35062998444764,0.007633587786259542,0.1984732824427481,-0.04580152671755725,70.83445835547009,164.97220526025262,0.022900763358778626,-0.07633587786259542,0.12213740458015267,-16.04574262776442,134.75799683875664,-0.12213740458015267,-0.007633587786259542,0.16793893129770993,92.0,86.0,-30.0,3.0,4.0,105.31,91.52,-5.0,-14.0,-10.0,
7.103,-6.150570102149826,75.1511781037065,0.007633587786259542,0.3435114503816794,0.15267175572519084,183.39120383764083,136.04802213370257,0.007633587786259542,0.1984732824427481,-0.04580152671755725,47.3803936016421,164.84349426856517,-0.26717557251908397,-0.35877862595419846,0.15267175572519084,-18.283509619640157,135.47932421473706,-0.12213740458015267,-0.007633587786259542,0.16793893129770993,92.0,86.0,-30.0,3.0,4.0,105.58,91.65,-8.0,-20.0,-13.0,
7.143,-5.74615835192593,84.71410177829897,0.16030534351145037,0.3435114503816794,0.4961832061068702,182.57739902663783,134.09080546056927,0.007633587786259542,0.1984732824427481,-0.04580152671755725,27.4444385608883,164.73408992563083,-0.26717557251908397,-0.35877862595419846,0.15267175572519084,-20.185611562734532,136.0924524843204,-0.12213740458015267,-0.007633587786259542,0.16793893129770993,92.0,86.0,-30.0,3.0,4.0,105.93,92.05,-9.0,-9.0,-16.0,
7.181,-5.678463332811026,93.1287172855734,0.16793893129770993,0.24427480916030533,0.3511450381679389,181.88566493728527,132.42717128840596,0.007633587786259542,0.1984732824427481,-0.04580152671755725,10.498876776247576,164.64109623413665,-0.26717557251908397,-0.35877862595419846,0.15267175572519084,-21.802398214364754,136.61361151346625,-0.12213740458015267,-0.007633587786259542,0.16793893129770993,92.0,86.0,-30.0,3.0,4.0,106.32,93.14,-12.0,12.0,-9.0,
7.22,-6.394064765327922,101.7983380080383,0.20610687022900764,0.20610687022900764,0.32061068702290074,181.2976909613356,131.01308224206713,0.007633587786259542,0.1984732824427481,-0.04580152671755725,-3.904850740697041,164.56205159636662,-0.26717557251908397,-0.35877862595419846,0.15267175572519084,-23.17666686825044,137.05659668824023,-0.12213740458015267,-0.007633587786259542,0.16793893129770993,92.0,86.0,-30.0,3.0,4.0,106.8,93.72,-2.0,29.0,-20.0,
7.259,-7.002325982967284,109.16751562213346,0.20610687022900764,0.20610687022900764,0.32061068702290074,180.79791308177838,129.81110655267912,0.007633587786259542,0.1984732824427481,-0.04580152671755725,35.176033087554664,164.03203658289917,-0.1450381679389313,-0.7251908396946565,0.3053435114503817,-24.344795224053275,137.4331340867981,-0.12213740458015267,-0.007633587786259542,0.16793893129770993,92.0,86.0,-30.0,3.0,4.0,107.55,94.39,-7.0,34.0,-1.0,
7.298,-7.519348017960742,115.43131659411435,0.20610687022900764,0.20610687022900764,0.32061068702290074,182.87482389480903,133.5476771412653,0.030534351145038167,0.48854961832061067,-0.10687022900763359,68.39478434156861,163.58152382145184,-0.1450381679389313,-0.7251908396946565,0.3053435114503817,-25.33770432648568,137.7531908755723,-0.12213740458015267,-0.007633587786259542,0.16793893129770993,92.0,86.0,-30.0,3.0,4.0,110.09,95.55,-7.0,72.0,1.0,
7.338,-7.958816747705181,120.7555474202981,0.20610687022900764,0.20610687022900764,0.32061068702290074,184.6401980858851,136.72376214156355,0.030534351145038167,0.48854961832061067,-0.10687022900763359,94.45882516892095,163.16868516471925,-0.007633587786259542,-0.6870229007633588,0.2366412213740458,-26.181677063553227,138.02523914603037,-0.12213740458015267,-0.007633587786259542,0.16793893129770993,92.0,86.0,-30.0,3.0,4.0,113.43,95.37,-9.0,47.0,5.0,
7.377,-8.332365167987955,125.2811436225543,0.20610687022900764,0.20610687022900764,0.32061068702290074,187.66306191589632,139.6585536466301,0.16793893129770993,0.7633587786259542,-0.183206106870229,116.61325987217046,162.81777230649655,-0.007633587786259542,-0.6870229007633588,0.2366412213740458,-26.899053890060642,138.25648017591973,-0.12213740458015267,-0.007633587786259542,0.16793893129770993,92.0,86.0,-30.0,3.0,4.0,115.0,94.89,-2.0,-5.0,9.0,
7.416,-8.649881325228314,129.12790039447205,0.20610687022900764,0.20610687022900764,0.32061068702290074,190.23249617140587,142.15312642593668,0.16793893129770993,0.7633587786259542,-0.183206106870229,135.35593276956837,162.6252563206164,0.03816793893129771,-0.40458015267175573,0.10687022900763359,-27.508824192591945,138.45303505132568,-0.12213740458015267,-0.007633587786259542,0.16793893129770993,92.0,86.0,-30.0,3.0,4.0,115.64,94.8,-7.0,9.0,0.0,
7.456,-8.91977005888262,132.39764365060216,0.20610687022900764,0.20610687022900764,0.32061068702290074,192.41651528858898,144.27351328834726,0.16793893129770993,0.7633587786259542,-0.183206106870229,151.3096505475131,162.63362588123385,0.05343511450381679,-0.26717557251908397,0.061068702290076333,-28.027128949743553,138.62010669542073,-0.12213740458015267,-0.007633587786259542,0.16793893129770993,92.0,86.0,-30.0,3.0,4.0,116.75,94.45,-20.0,8.0,0.0,
7.495,-12.422809911179273,137.2421058646938,-0.015267175572519083,-0.31297709923664124,0.183206106870229,194.27293153819463,146.07584212139625,0.16793893129770993,0.7633587786259542,-0.183206106870229,164.87031065876607,162.64074000775867,0.05343511450381679,-0.26717557251908397,0.061068702290076333,-28.467687993322418,138.76211759290152,-0.12213740458015267,-0.007633587786259542,0.16793893129770993,92.0,86.0,-30.0,3.0,4.0,117.89,94.26,-19.0,-15.0,6.0,
7.534,-15.40039378563143,141.3598987466717,-0.015267175572519083,-0.31297709923664124,0.183206106870229,196.4126040968744,147.49104200909625,0.061068702290076333,0.8625954198473282,-0.1450381679389313,176.39687175333114,162.64678701530477,0.05343511450381679,-0.26717557251908397,0.061068702290076333,-28.842163180364455,138.8828268557602,-0.12213740458015267,-0.007633587786259542,0.16793893129770993,92.0,86.0,-30.0,3.0,4.0,118.54,93.85,-13.0,-11.0,4.0,
7.573,-17.931340078915763,144.8600226963529,-0.015267175572519083,-0.31297709923664124,0.183206106870229,198.23132577175218,148.69396191364126,0.061068702290076333,0.8625954198473282,-0.1450381679389313,186.1944486837114,162.65192697171898,0.05343511450381679,-0.26717557251908397,0.061068702290076333,-28.36205448227263,138.71773589256316,-0.12213740458015267,-0.007633587786259542,0.16793893129770993,93.0,73.0,-24.0,-27.0,-3.0,118.84,93.57,-15.0,-16.0,6.0,
7.613,-20.082644428207445,147.83512805358194,-0.015267175572519083,-0.31297709923664124,0.183206106870229,201.96539632064454,150.3505249691233,0.07633587786259542,1.0458015267175573,-0.10687022900763359,194.52238907453466,162.65629593467105,0.05343511450381679,-0.26717557251908397,0.061068702290076333,-27.953962088894578,138.57740857384567,-0.12213740458015267,-0.007633587786259542,0.16793893129770993,93.0,73.0,-24.0,-27.0,-3.0,118.57,92.55,-19.0,-31.0,6.0,
7.651,-21.911253125105375,150.3639676072266,-0.015267175572519083,-0.31297709923664124,0.183206106870229,205.4529686029183,151.87343595084852,0.06870229007633588,1.0916030534351144,-0.061068702290076333,201.60113840673444,162.66000955318032,0.05343511450381679,-0.26717557251908397,0.061068702290076333,-27.607083554523236,138.45813035293583,-0.12213740458015267,-0.007633587786259542,0.16793893129770993,93.0,73.0,-24.0,-27.0,-3.0,118.34,92.36,-20.0,-8.0,4.0,
7.69,-25.920832084173206,152.78006223495314,0.08396946564885496,-0.6259541984732825,0.2595419847328244,208.417405042851,153.16791028531492,0.06870229007633588,1.0916030534351144,-0.061068702290076333,207.61807533910422,162.6631661289132,0.05343511450381679,-0.26717557251908397,0.061068702290076333,-27.312236800307595,138.35674386516243,-0.12213740458015267,-0.007633587786259542,0.16793893129770993,93.0,73.0,-24.0,-27.0,-3.0,117.72,91.73,-19.0,-31.0,5.0,
7.73,-30.022284038664964,155.12599321690308,0.16030534351145037,-0.7404580152671756,0.16793893129770993,210.93717601679379,154.26821346961137,0.06870229007633588,1.0916030534351144,-0.061068702290076333,212.73247173161855,162.66584921828616,0.05343511450381679,-0.26717557251908397,0.061068702290076333,-27.0616170592243,138.27056535055505,-0.12213740458015267,-0.007633587786259542,0.16793893129770993,93.0,73.0,-24.0,-27.0,-3.0,117.51,91.31,-23.0,-45.0,6.0,
7.769,-33.50851819998296,157.12003455156054,0.16030534351145037,-0.7404580152671756,0.16793893129770993,215.13048836540116,155.49949368786466,0.04580152671755725,1.3206106870229009,-0.17557251908396945,217.07970866525574,162.66812984425314,0.05343511450381679,-0.26717557251908397,0.061068702290076333,-26.8485902793035,138.19731361313876,-0.12213740458015267,-0.007633587786259542,0.16793893129770993,93.0,73.0,-24.0,-27.0,-3.0,116.75,90.91,-18.0,-31.0,0.0,
7.809,-36.47181723710326,158.81496968601937,0.16030534351145037,-0.7404580152671756,0.16793893129770993,218.69480386171745,156.54608187337993,0.04580152671755725,1.3206106870229009,-0.17557251908396945,220.77486005884737,162.6700683763251,0.05343511450381679,-0.26717557251908397,0.061068702290076333,-22.306322083374056,136.81597828250338,-0.12213740458015267,-0.007633587786259542,0.16793893129770993,87.0,70.0,3.0,-40.0,-13.0,117.67,90.35,-17.0,-27.0,0.0,
7.848,-38.990621418655515,160.25566455030938,0.16030534351145037,-0.7404580152671756,0.16793893129770993,222.184176694271,157.2786356654806,-0.022900763358778626,1.4122137404580153,-0.1450381679389313,223.91573874340025,162.67171612858624,0.05343511450381679,-0.26717557251908397,0.061068702290076333,-18.445394116834027,135.6418432514633,-0.12213740458015267,-0.007633587786259542,0.16793893129770993,87.0,70.0,3.0,-40.0,-13.0,116.96,90.11,-8.0,-46.0,8.0,
7.887,-41.131604972974934,161.4802551849559,0.16030534351145037,-0.7404580152671756,0.16793893129770993,225.15014360194152,157.9013063887662,-0.022900763358778626,1.4122137404580153,-0.1450381679389313,228.27243355997433,162.76021359706573,0.06870229007633588,0.8015267175572519,-0.08396946564885496,-15.163605345275004,134.64382847507926,-0.12213740458015267,-0.007633587786259542,0.16793893129770993,87.0,70.0,3.0,-40.0,-13.0,115.66,89.86,-6.0,-54.0,11.0,
7.927,-42.95144099414644,162.5211572244054,0.16030534351145037,-0.7404580152671756,0.16793893129770993,227.67121547346147,158.4305765035589,-0.022900763358778626,1.4122137404580153,-0.1450381679389313,234.11505948333172,162.91962115874006,0.03816793893129771,0.7938931297709924,-0.16030534351145037,-12.374084889449833,133.7955159151528,-0.12213740458015267,-0.007633587786259542,0.16793893129770993,87.0,70.0,3.0,-40.0,-13.0,114.33,89.55,-4.0,-52.0,11.0,
7.966,-46.774421941198874,163.16427091336092,0.022900763358778626,-0.8396946564885496,0.22900763358778625,229.8141265642534,158.88045610113272,-0.022900763358778626,1.4122137404580153,-0.1450381679389313,239.0812915181855,163.05511758616325,0.03816793893129771,0.7938931297709924,-0.16030534351145037,-10.002992501998436,133.07445023921534,-0.12213740458015267,-0.007633587786259542,0.16793893129770993,87.0,70.0,3.0,-40.0,-13.0,112.5,89.29,-6.0,-51.0,14.0,
8.006,-50.023955746193444,163.7109175489731,0.022900763358778626,-0.8396946564885496,0.22900763358778625,232.9516034042272,159.178097588016,0.07633587786259542,1.1145038167938932,-0.1984732824427481,243.30258874781123,163.17028954947295,0.03816793893129771,0.7938931297709924,-0.16030534351145037,-7.98756397266475,132.46154441466848,-0.12213740458015267,-0.007633587786259542,0.16793893129770993,87.0,70.0,3.0,-40.0,-13.0,110.53,88.96,-6.0,-50.0,13.0,
8.046,-52.78605948043883,164.17556718924345,0.022900763358778626,-0.8396946564885496,0.22900763358778625,235.61845871820492,159.43109285186677,0.07633587786259542,1.1145038167938932,-0.1984732824427481,246.8906913929931,163.2681857182862,0.03816793893129771,0.7938931297709924,-0.16030534351145037,-3.9727892911018334,131.25070080420036,-0.12213740458015267,-0.007633587786259542,0.16793893129770993,84.0,71.0,17.0,-12.0,2.0,108.9,89.79,-11.0,-58.0,5.0,
8.085,-55.13384765454741,164.57051938347325,0.022900763358778626,-0.8396946564885496,0.22900763358778625,239.28681459992433,159.68414138789913,0.07633587786259542,0.9694656488549618,0.007633587786259542,249.94057864139768,163.35139746177745,0.03816793893129771,0.7938931297709924,-0.16030534351145037,-0.5602308117733545,130.22148373530246,-0.12213740458015267,-0.007633587786259542,0.16793893129770993,84.0,71.0,17.0,-12.0,2.0,106.42,89.66,-7.0,-52.0,30.0,
8.125,-57.1294676025397,164.9062287485686,0.022900763358778626,-0.8396946564885496,0.22900763358778625,242.7565569428071,160.06883175045706,0.10687022900763359,0.8320610687022901,0.030534351145038167,252.53298280254157,163.422127443745,0.03816793893129771,0.7938931297709924,-0.16030534351145037,2.340443895655852,129.34664922673923,-0.12213740458015267,-0.007633587786259542,0.16793893129770993,84.0,71.0,17.0,-12.0,2.0,104.45,89.33,-6.0,-39.0,28.0,
8.163,-58.82574455833315,165.19158170889963,0.022900763358778626,-0.8396946564885496,0.22900763358778625,245.4218449290339,160.40878563453086,0.07633587786259542,0.6946564885496184,-0.1450381679389313,254.7365263395139,163.48224792841745,0.03816793893129771,0.7938931297709924,-0.16030534351145037,4.806017396970678,128.6030398944605,-0.12213740458015267,-0.007633587786259542,0.16793893129770993,84.0,71.0,17.0,-12.0,2.0,103.19,88.49,-8.0,-20.0,24.0,
8.202,-60.26757997075758,165.434131725181,0.022900763358778626,-0.8396946564885496,0.22900763358778625,247.5092242240607,160.73037431165096,0.0916030534351145,0.5801526717557252,-0.35877862595419846,256.60953834594034,163.533350340389,0.03816793893129771,0.7938931297709924,-0.16030534351145037,6.901754873088279,127.97097196202358,-0.12213740458015267,-0.007633587786259542,0.16793893129770993,84.0,71.0,17.0,-12.0,2.0,101.96,87.95,-6.0,-20.0,19.0,
8.242,-63.83291154247872,166.0134062549336,0.10687022900763359,0.12213740458015267,0.8396946564885496,249.28349662483345,161.00372468720303,0.0916030534351145,0.5801526717557252,-0.35877862595419846,258.20159855140287,163.57678739056485,0.03816793893129771,0.7938931297709924,-0.16030534351145037,8.683131727788242,127.4337142194522,-0.12213740458015267,-0.007633587786259542,0.16793893129770993,84.0,71.0,17.0,-12.0,2.0,100.42,87.62,-7.0,-14.0,18.0,
8.281,-14.230442728405535,166.2270242392538,0.06870229007633588,0.1297709923664122,0.7786259541984732,250.7916281654903,161.2360725064223,0.0916030534351145,0.5801526717557252,-0.35877862595419846,259.554849726046,163.61370888321431,0.03816793893129771,0.7938931297709924,-0.16030534351145037,10.19730205428321,126.97704513826653,-0.12213740458015267,-0.007633587786259542,0.16793893129770993,84.0,71.0,17.0,-12.0,2.0,98.8,87.17,-5.0,-9.0,21.0,
8.32,27.93165576355667,166.40859952592595,0.06870229007633588,0.1297709923664122,0.7786259541984732,252.07353997504862,161.43356815275868,0.0916030534351145,0.5801526717557252,-0.35877862595419846,260.7051132244926,163.64509215196637,0.03816793893129771,0.7938931297709924,-0.16030534351145037,9.011233352006936,127.32895448907712,-0.12213740458015267,-0.007633587786259542,0.16793893129770993,82.0,71.0,2.0,-4.0,16.0,97.27,86.59,-6.0,-15.0,25.0,
8.359,10.816669294157608,142.97871740172565,-0.04580152671755725,0.3816793893129771,-0.1450381679389313,253.1631650131732,161.6014394521446,0.0916030534351145,0.5801526717557252,-0.35877862595419846,261.68283719817225,163.6717679304056,0.03816793893129771,0.7938931297709924,-0.16030534351145037,8.003074955072103,127.62807743726611,-0.12213740458015267,-0.007633587786259542,0.16793893129770993,82.0,71.0,2.0,-4.0,16.0,96.04,86.05,-5.0,-13.0,22.0,
8.398,49.61822294434002,146.66592582261893,-0.015267175572519083,0.46564885496183206,-0.007633587786259542,254.0893462955791,161.74413005662262,0.0916030534351145,0.5801526717557252,-0.35877862595419846,262.5139025758,163.69444234207893,0.03816793893129771,0.7938931297709924,-0.16030534351145037,7.146140317677495,127.88233194322676,-0.12213740458015267,-0.007633587786259542,0.16793893129770993,82.0,71.0,2.0,-4.0,16.0,95.11,85.81,-5.0,-10.0,18.0,
8.437,82.59954354699508,149.8000529803782,-0.015267175572519083,0.46564885496183206,-0.007633587786259542,254.8766003856241,161.86541707042895,0.0916030534351145,0.5801526717557252,-0.35877862595419846,263.22030814678357,163.71371559200128,0.03816793893129771,0.7938931297709924,-0.16030534351145037,5.38806617933459,128.39979649116822,-0.12213740458015267,-0.007633587786259542,0.16793893129770993,81.0,73.0,-4.0,-2.0,12.0,94.07,85.93,-9.0,-7.0,20.0,
8.476,110.63366605925188,152.4640610644736,-0.015267175572519083,0.46564885496183206,-0.007633587786259542,204.28415108311333,162.16076818455417,0.022900763358778626,0.05343511450381679,-0.17557251908396945,263.82075288211956,163.7300978544353,0.03816793893129771,0.7938931297709924,-0.16030534351145037,3.8937031617431215,128.83964135691843,-0.12213740458015267,-0.007633587786259542,0.16793893129770993,81.0,73.0,-4.0,-2.0,12.0,93.19,85.48,-6.0,-1.0,17.0,
8.515,134.46267019467015,154.7284679359547,-0.015267175572519083,0.46564885496183206,-0.007633587786259542,160.79677124927,162.464871068145,0.0,0.05343511450381679,-0.10687022900763359,264.33113090715517,163.74402277750417,0.03816793893129771,0.7938931297709924,-0.16030534351145037,2.623494596790373,129.21350949280614,-0.12213740458015267,-0.007633587786259542,0.16793893129770993,81.0,73.0,-4.0,-2.0,12.0,92.58,85.18,-5.0,-5.0,11.0,
8.554,154.46591960631605,156.81042433499354,0.0,0.3969465648854962,0.17557251908396945,123.83249839050316,162.72335851919718,0.0,0.05343511450381679,-0.10687022900763359,264.76495222843545,163.75585896211274,0.03816793893129771,0.7938931297709924,-0.16030534351145037,1.5438173165805371,129.53129740831068,-0.12213740458015267,-0.007633587786259542,0.16793893129770993,81.0,73.0,-4.0,-2.0,12.0,91.95,84.89,-4.0,-9.0,3.0,
8.591,171.5626350241905,158.51219767738013,-0.015267175572519083,0.4198473282442748,0.11450381679389313,92.41286646055136,162.94307285259154,0.0,0.05343511450381679,-0.10687022900763359,265.1337003515237,163.76591971903002,0.03816793893129771,0.7938931297709924,-0.16030534351145037,0.6260916284021759,129.80141713648953,-0.12213740458015267,-0.007633587786259542,0.16793893129770993,81.0,73.0,-4.0,-2.0,12.0,91.42,84.84,-4.0,0.0,0.0,
8.63,186.0948431293838,159.95870501840872,-0.015267175572519083,0.4198473282442748,0.11450381679389313,65.70617932009232,163.12983003597677,0.0,0.05343511450381679,-0.10687022900763359,212.14863451178857,163.9418595063292,0.0,-0.061068702290076333,0.0,-0.15397520654943098,130.03101890544156,-0.12213740458015267,-0.007633587786259542,0.16793893129770993,81.0,73.0,-4.0,-2.0,12.0,91.37,84.92,-5.0,0.0,-3.0,
8.669,198.4472200187981,161.188236258283,-0.015267175572519083,0.4198473282442748,0.11450381679389313,43.6431308694016,163.27960192620068,0.015267175572519083,0.030534351145038167,-0.09923664122137404,167.1113285480137,164.09140832553348,0.0,-0.061068702290076333,0.0,-0.8170320162582968,130.22618040905078,-0.12213740458015267,-0.007633587786259542,0.16793893129770993,81.0,73.0,-4.0,-2.0,12.0,91.09,84.85,-3.0,-5.0,-5.0,
8.707,208.94674037480024,162.23333781217616,-0.015267175572519083,0.4198473282442748,0.11450381679389313,24.81650099013718,163.39233067976002,0.015267175572519083,0.03816793893129771,-0.015267175572519083,128.82961847880503,164.21852482185713,0.0,-0.061068702290076333,0.0,-1.3806303045108328,130.39206768711864,-0.12213740458015267,-0.007633587786259542,0.16793893129770993,81.0,73.0,-4.0,-2.0,12.0,90.73,84.86,-3.0,-13.0,-3.0,
8.745,217.87133267740208,163.12167413298533,-0.015267175572519083,0.4198473282442748,0.11450381679389313,8.571926978873249,163.49402737882323,0.022900763358778626,0.022900763358778626,-0.030534351145038167,96.29016491997768,164.32657384373223,0.0,-0.061068702290076333,0.0,-1.8596888495254884,130.5330718734763,-0.12213740458015267,-0.007633587786259542,0.16793893129770993,81.0,73.0,-4.0,-2.0,12.0,90.49,84.76,-6.0,1.0,-9.0,
8.784,225.45723613461362,163.87676000567313,-0.015267175572519083,0.4198473282442748,0.11450381679389313,-5.235960930701093,163.58046957302696,0.022900763358778626,0.022900763358778626,-0.030534351145038167,122.03762036183056,164.4869048721616,0.0,-0.007633587786259542,0.08396946564885496,-2.2668886127879455,130.65292543188033,-0.12213740458015267,-0.007633587786259542,0.16793893129770993,81.0,73.0,-4.0,-2.0,12.0,90.54,84.58,-6.0,4.0,-13.0,
8.822,231.90525407324344,164.51858299745777,-0.015267175572519083,0.4198473282442748,0.11450381679389313,-16.972665653839282,163.65394543810012,0.022900763358778626,0.022900763358778626,-0.030534351145038167,143.9229574874055,164.62318624632658,0.0,-0.007633587786259542,0.08396946564885496,-2.1813638795305037,130.62797949991202,-0.05343511450381679,0.007633587786259542,0.0916030534351145,81.0,73.0,-4.0,-2.0,12.0,90.34,84.74,-4.0,4.0,-11.0,
8.861,237.3860693210788,165.0641325404747,-0.015267175572519083,0.4198473282442748,0.11450381679389313,-26.712372299012323,163.79130221806207,0.022900763358778626,0.007633587786259542,-0.04580152671755725,162.5254940441442,164.7390254143668,0.0,-0.007633587786259542,0.08396946564885496,-2.108667856261678,130.60677545773893,-0.05343511450381679,0.007633587786259542,0.0916030534351145,81.0,73.0,-4.0,-2.0,12.0,90.19,84.66,-4.0,5.0,-8.0,
8.899,242.04476228173883,165.5278496520391,-0.015267175572519083,0.4198473282442748,0.11450381679389313,-34.99112294740941,163.90805548102975,0.022900763358778626,0.007633587786259542,-0.04580152671755725,178.33765011737214,164.837488707201,0.0,-0.007633587786259542,0.08396946564885496,-1.2836018942015155,130.36846506984196,-0.05343511450381679,0.007633587786259542,0.0916030534351145,83.0,74.0,8.0,-1.0,-12.0,90.16,84.61,-2.0,1.0,-7.0,
8.938,246.00465129829988,165.92200919686883,-0.015267175572519083,0.4198473282442748,0.11450381679389313,-42.02806099854693,164.00729575455227,0.022900763358778626,0.007633587786259542,-0.04580152671755725,191.7317010136373,164.9254891617292,-0.007633587786259542,0.007633587786259542,0.0916030534351145,-0.5822958264503769,130.16590124012956,-0.05343511450381679,0.007633587786259542,0.0916030534351145,83.0,74.0,8.0,-1.0,-12.0,90.15,84.6,0.0,2.0,-6.0,
8.975,249.37055696237675,166.2570448099741,-0.015267175572519083,0.4198473282442748,0.11450381679389313,-48.012171942805296,164.16959805121473,0.015267175572519083,-0.015267175572519083,-0.05343511450381679,203.11664427546268,165.00028954807814,-0.007633587786259542,0.007633587786259542,0.0916030534351145,0.01381433113809083,129.993721984874,-0.05343511450381679,0.007633587786259542,0.0916030534351145,83.0,74.0,8.0,-1.0,-12.0,90.04,84.77,-1.0,11.0,-6.0,
9.014,252.2315767768421,166.5418250811136,-0.015267175572519083,0.4198473282442748,0.11450381679389313,-53.09866624542491,164.30755500337784,0.015267175572519083,-0.015267175572519083,-0.05343511450381679,212.79384604801425,165.06386987647477,-0.007633587786259542,0.007633587786259542,0.0916030534351145,0.7187606881666803,129.84362679593127,-0.06870229007633588,-0.022900763358778626,0.20610687022900764,83.0,74.0,8.0,-1.0,-12.0,89.8,84.82,-1.0,3.0,-6.0,
9.052,254.66344361913764,166.78388831158216,-0.015267175572519083,0.4198473282442748,0.11450381679389313,-57.42218640265159,164.42481841271646,0.015267175572519083,-0.015267175572519083,-0.05343511450381679,220.99208445781935,165.085271331227,-0.007633587786259542,0.022900763358778626,0.015267175572519083,1.317965091640981,129.71604588532995,-0.06870229007633588,-0.022900763358778626,0.20610687022900764,83.0,74.0,8.0,-1.0,-12.0,89.63,84.95,0.0,3.0,-3.0,
9.091,256.7305304350889,166.98964205748044,-0.015267175572519083,0.4198473282442748,0.11450381679389313,-61.097178536294265,164.5244923106543,0.015267175572519083,-0.015267175572519083,-0.05343511450381679,227.95056148501442,165.1271326467518,0.0,0.04580152671755725,0.03816793893129771,1.827288834594137,129.6076021113188,-0.06870229007633588,-0.022900763358778626,0.20610687022900764,83.0,74.0,8.0,-1.0,-12.0,89.58,85.0,0.0,2.0,-2.0,
9.129,258.4875542286474,167.16453274149399,-0.015267175572519083,0.4198473282442748,0.11450381679389313,-64.48290417100573,164.59339100754826,0.0,-0.03816793893129771,0.0,233.86526695813023,165.16271476494785,0.0,0.04580152671755725,0.03816793893129771,2.260214016104319,129.51542490340935,-0.06870229007633588,-0.022900763358778626,0.20610687022900764,83.0,74.0,8.0,-1.0,-12.0,89.5,85.09,0.0,3.0,-4.0,
9.167,259.98102445317215,167.31318982290549,-0.015267175572519083,0.4198473282442748,0.11450381679389313,-67.36077096051046,164.65195489990813,0.0,-0.03816793893129771,0.0,238.89276661027867,165.1929595654145,0.0,0.04580152671755725,0.03816793893129771,2.766939886572069,129.441389223773,-0.06870229007633588,-0.03816793893129771,0.20610687022900764,83.0,74.0,8.0,-1.0,-12.0,89.48,85.27,0.0,1.0,-3.0,
9.205,261.2504741440182,167.43954834210527,-0.015267175572519083,0.4198473282442748,0.11450381679389313,-69.80695773158949,164.70173420841402,0.0,-0.03816793893129771,0.0,243.16614131460483,165.21866764581114,0.0,0.04580152671755725,0.03816793893129771,1.7161152400943998,129.63422376203567,-0.06870229007633588,-0.03816793893129771,0.20610687022900764,83.0,77.0,-6.0,-5.0,0.0,89.4,85.43,1.0,5.0,-4.0,
9.243,262.32950638123737,167.54695308342508,-0.015267175572519083,0.4198473282442748,0.11450381679389313,-71.88621648700666,164.74404662064404,0.0,-0.03816793893129771,0.0,246.79850981328207,165.2405195141483,0.0,0.04580152671755725,0.03816793893129771,1.0343048239645636,129.76160197413705,-0.06870229007633588,-0.03816793893129771,0.20610687022900764,83.0,77.0,-4.0,-5.0,-1.0,89.23,85.54,1.0,5.0,-5.0,
9.281,263.2466837828736,167.63824711354692,-0.015267175572519083,0.4198473282442748,0.11450381679389313,-73.65358642911126,164.78001217103954,0.0,-0.03816793893129771,0.0,249.88602303715774,165.25909360223488,0.0,0.04580152671755725,0.03816793893129771,0.24344032237420332,129.87093768991141,-0.06870229007633588,-0.030534351145038167,0.19083969465648856,83.0,77.0,-4.0,-5.0,-1.0,89.11,85.68,0.0,7.0,-7.0,
9.319,264.0262845742644,167.7158470391505,-0.015267175572519083,0.4198473282442748,0.11450381679389313,-75.46643306978277,164.76913828502325,-0.007633587786259542,-0.04580152671755725,0.015267175572519083,252.51040927745206,165.2748815771085,0.0,0.04580152671755725,0.03816793893129771,-0.4287945039776029,129.96387304831964,-0.06870229007633588,-0.030534351145038167,0.19083969465648856,83.0,77.0,-4.0,-5.0,-1.0,89.03,85.8,0.0,6.0,-10.0,
9.357,264.6889452469466,167.78180697591353,-0.015267175572519083,0.4198473282442748,0.11450381679389313,-76.97649778591963,164.75576822130833,-0.007633587786259542,-0.04580152671755725,0.030534351145038167,254.74113758170222,165.28830135575103,0.0,0.04580152671755725,0.03816793893129771,-1.0001941063766382,130.04286810296662,-0.06870229007633588,-0.030534351145038167,0.19083969465648856,83.0,77.0,-4.0,-5.0,-1.0,89.28,85.93,0.0,5.0,-10.0,
9.395,265.2522068187265,167.83787292216212,-0.015267175572519083,0.4198473282442748,0.11450381679389313,-78.32203258254837,164.73405984828128,-0.007633587786259542,-0.030534351145038167,0.030534351145038167,256.63725664031483,165.2997081675972,0.0,0.04580152671755725,0.03816793893129771,-1.4858837684158182,130.11001389941657,-0.06870229007633588,-0.030534351145038167,0.19083969465648856,83.0,77.0,-4.0,-5.0,-1.0,89.47,86.05,-1.0,5.0,-10.0,
9.433,265.5717403188922,167.95415829968317,-0.04580152671755725,0.48854961832061067,0.22137404580152673,-79.4657371596828,164.71560773120828,-0.007633587786259542,-0.030534351145038167,0.030534351145038167,258.2489578401355,165.30940395766646,0.0,0.04580152671755725,0.03816793893129771,-1.8987199811491213,130.167087826399,-0.06870229007633588,-0.030534351145038167,0.19083969465648856,83.0,77.0,-4.0,-5.0,-1.0,89.63,86.18,-1.0,-1.0,-9.0,
9.472,265.84334379403305,168.05300087057608,-0.04580152671755725,0.48854961832061067,0.22137404580152673,-80.43788605024706,164.69992343169625,-0.007633587786259542,-0.030534351145038167,0.030534351145038167,259.6189038599831,165.31764537922533,0.0,0.04580152671755725,0.03816793893129771,-2.1860881106962218,130.21566554983028,-0.061068702290076333,-0.007633587786259542,0.20610687022900764,83.0,77.0,-4.0,-5.0,-1.0,89.74,86.36,-2.0,-1.0,-9.0,
9.51,266.0742067479028,168.13701705583506,-0.04580152671755725,0.48854961832061067,0.22137404580152673,-81.26421260722668,164.686591777111,-0.007633587786259542,-0.030534351145038167,0.030534351145038167,207.3583675958394,165.28217779782509,-0.015267175572519083,0.04580152671755725,0.022900763358778626,-2.430351020811257,130.25695661474685,-0.061068702290076333,-0.007633587786259542,0.20610687022900764,83.0,77.0,-4.0,-5.0,-1.0,89.86,86.51,-3.0,-5.0,-7.0,
9.549,266.2704402586921,168.20843081330517,-0.04580152671755725,0.48854961832061067,0.22137404580152673,-81.96659018065935,164.67525987071355,-0.007633587786259542,-0.030534351145038167,0.030534351145038167,163.05645608590407,165.27411371133488,-0.015267175572519083,0.030534351145038167,0.03816793893129771,-2.637974494409037,130.29205401992593,-0.061068702290076333,-0.007633587786259542,0.20610687022900764,83.0,77.0,-4.0,-5.0,-1.0,89.93,86.65,-4.0,-5.0,-5.0,
9.587,266.4372387428629,168.26913250715478,-0.04580152671755725,0.48854961832061067,0.22137404580152673,-82.56361111807713,164.66562775027572,-0.007633587786259542,-0.030534351145038167,0.030534351145038167,125.30537853735935,165.25474484658346,-0.015267175572519083,0.015267175572519083,0.061068702290076333,-2.81445444696715,130.32188681432814,-0.061068702290076333,-0.007633587786259542,0.20610687022900764,83.0,77.0,-4.0,-5.0,-1.0,90.01,86.85,-5.0,-4.0,-2.0,
9.626,266.3909293573681,168.29571026860685,-0.022900763358778626,0.48854961832061067,0.31297709923664124,-83.07107891488225,164.65744044790355,-0.007633587786259542,-0.030534351145038167,0.030534351145038167,93.21696262109633,165.23828131154477,-0.015267175572519083,0.015267175572519083,0.061068702290076333,-2.964462406641546,130.34724468957003,-0.061068702290076333,-0.007633587786259542,0.20610687022900764,83.0,77.0,-4.0,-5.0,-1.0,90.02,86.93,-5.0,-4.0,0.0,
9.664,266.3515663796976,168.31830136584114,-0.022900763358778626,0.48854961832061067,0.31297709923664124,-83.50242654216659,164.65048124088722,-0.007633587786259542,-0.030534351145038167,0.030534351145038167,119.67401707599691,165.19184345473343,-0.007633587786259542,-0.0,0.03816793893129771,-3.091969172364782,130.36879888352564,-0.061068702290076333,-0.007633587786259542,0.20610687022900764,83.0,77.0,-4.0,-5.0,-1.0,90.16,86.93,-6.0,-1.0,3.0,
9.701,266.31810784867764,168.33750379849027,-0.022900763358778626,0.48854961832061067,0.31297709923664124,-83.86907202535828,164.64456591492333,-0.007633587786259542,-0.030534351145038167,0.030534351145038167,142.16251336266242,165.15237127644377,-0.007633587786259542,-0.0,0.03816793893129771,-3.2003499232295334,130.3871199483879,-0.061068702290076333,-0.007633587786259542,0.20610687022900764,83.0,77.0,-4.0,-5.0,-1.0,90.3,86.83,-6.0,-2.0,4.0,
9.74,266.09220105911004,168.3480822794506,-0.015267175572519083,0.48854961832061067,0.26717557251908397,-84.18072068607121,164.63953788785403,-0.007633587786259542,-0.030534351145038167,0.030534351145038167,161.2777352063281,165.1188199248976,-0.007633587786259542,-0.0,0.03816793893129771,-3.2924735614645715,130.40269285352082,-0.061068702290076333,-0.007633587786259542,0.20610687022900764,83.0,77.0,-4.0,-5.0,-1.0,90.27,86.82,-6.0,-2.0,3.0,
9.778,265.8852689111219,168.39673265720756,-0.015267175572519083,0.5038167938931297,0.2366412213740458,-84.4456220476772,164.63526406484513,-0.007633587786259542,-0.030534351145038167,0.030534351145038167,177.5256737734439,165.09030127608332,-0.007633587786259542,-0.0,0.03816793893129771,-3.3707786539643543,130.4159298228838,-0.061068702290076333,-0.007633587786259542,0.20610687022900764,83.0,77.0,-4.0,-5.0,-1.0,90.36,86.79,-6.0,-3.0,3.0,
9.816,265.70700210038706,168.4257552669032,-0.015267175572519083,0.5114503816793893,0.19083969465648856,-84.6707882050423,164.63163131528756,-0.007633587786259542,-0.030534351145038167,0.030534351145038167,191.33642155549236,165.06606042459123,-0.007633587786259542,-0.0,0.03816793893129771,-3.4373379825891694,130.42718124684234,-0.061068702290076333,-0.007633587786259542,0.20610687022900764,83.0,77.0,-4.0,-5.0,-1.0,90.32,86.64,-5.0,-2.0,3.0,
9.854,265.5554753112624,168.45042448514448,-0.015267175572519083,0.5114503816793893,0.19083969465648856,-84.86217943880263,164.62854347816364,-0.007633587786259542,-0.030534351145038167,0.030534351145038167,203.13589346752434,165.04616895033286,-0.007633587786259542,-0.007633587786259542,-0.007633587786259542,-3.4939134119202624,130.43674495720708,-0.061068702290076333,-0.007633587786259542,0.20610687022900764,83.0,77.0,-4.0,-5.0,-1.0,90.27,86.5,-5.0,-4.0,1.0,
9.892,265.42667754050643,168.47139332064958,-0.015267175572519083,0.5114503816793893,0.19083969465648856,-85.0082405209098,164.6832830902883,-0.015267175572519083,-0.0,-0.061068702290076333,213.1654445927515,165.02926119721323,-0.007633587786259542,-0.007633587786259542,-0.007633587786259542,-3.5420025268516913,130.44487411101713,-0.061068702290076333,-0.007633587786259542,0.20610687022900764,83.0,77.0,-4.0,-5.0,-1.0,90.2,86.34,-5.0,-2.0,-1.0,
9.931,265.3171994353639,168.48921683082892,-0.015267175572519083,0.5114503816793893,0.19083969465648856,-85.13239244070088,164.7298117605943,-0.015267175572519083,-0.0,-0.061068702290076333,221.67337019295294,165.04746347155984,0.0,-0.0,-0.015267175572519083,-3.582878274543406,130.45178389175567,-0.061068702290076333,-0.007633587786259542,0.20610687022900764,83.0,77.0,-4.0,-5.0,-1.0,90.02,86.24,-5.0,-8.0,-1.0,
9.969,265.2241430459927,168.50436681448136,-0.015267175572519083,0.5114503816793893,0.19083969465648856,-85.2379215725233,164.76936113035438,-0.015267175572519083,-0.0,-0.061068702290076333,228.90510695312418,165.06293540475446,0.0,-0.0,-0.015267175572519083,-3.535760195841256,130.45746254889488,-0.08396946564885496,0.030534351145038167,0.17557251908396945,83.0,77.0,-4.0,-5.0,-1.0,89.87,86.11,-3.0,-3.0,-5.0,
10.008,265.14504511502724,168.51724430058593,-0.015267175572519083,0.5114503816793893,0.19083969465648856,-85.32762133457237,164.80297809465046,-0.015267175572519083,-0.0,-0.061068702290076333,235.06927605551135,165.0539705999161,0.0,-0.007633587786259542,-0.007633587786259542,-3.495709828944429,130.4622894074632,-0.08396946564885496,0.030534351145038167,0.17557251908396945,83.0,77.0,-4.0,-5.0,-1.0,89.81,86.14,-1.0,-7.0,-7.0,
10.046,265.0778118737066,168.5281901637748,-0.015267175572519083,0.5114503816793893,0.19083969465648856,-85.19889867349016,164.8361414691562,-0.015267175572519083,-0.015267175572519083,0.022900763358778626,240.30881979254048,165.0463505158035,0.0,-0.007633587786259542,-0.007633587786259542,-3.4616670170821258,130.46639223724628,-0.08396946564885496,0.030534351145038167,0.17557251908396945,83.0,77.0,-4.0,-5.0,-1.0,89.82,86.28,0.0,1.0,-8.0,
10.083,265.020663618584,168.53749414748538,-0.015267175572519083,0.5114503816793893,0.19083969465648856,-85.0894844115703,164.86433033748608,-0.015267175572519083,-0.015267175572519083,0.022900763358778626,244.7624319690152,165.0398734443078,0.0,-0.007633587786259542,-0.007633587786259542,-3.6876185480294326,130.47134777687552,-0.08396946564885496,0.030534351145038167,0.183206106870229,83.0,77.0,-4.0,-5.0,-1.0,89.8,86.47,-2.0,3.0,-8.0,
10.121,265.1188026377327,168.55245802449656,-0.030534351145038167,0.5038167938931297,0.20610687022900764,-84.99648228893841,164.88829087556647,-0.015267175572519083,-0.015267175572519083,0.022900763358778626,248.54800231901874,165.03436793353646,0.0,-0.007633587786259542,-0.007633587786259542,-3.8796773493346435,130.47555998556038,-0.08396946564885496,0.030534351145038167,0.183206106870229,83.0,77.0,-4.0,-5.0,-1.0,90.0,86.67,-4.0,3.0,-9.0,
10.16,265.2022208040091,168.56517731995606,-0.030534351145038167,0.5038167938931297,0.20610687022900764,-84.9174304847013,164.9086573329348,-0.015267175572519083,-0.015267175572519083,0.022900763358778626,251.5669683585284,165.0608547462395,0.007633587786259542,0.022900763358778626,0.08396946564885496,-4.042927330444073,130.4791403629425,-0.08396946564885496,0.030534351145038167,0.183206106870229,83.0,77.0,-4.0,-5.0,-1.0,90.16,86.71,-7.0,4.0,-11.0,
10.198,265.273126245344,168.57598872109662,-0.030534351145038167,0.5038167938931297,0.20610687022900764,-84.85023645109976,164.9259688216979,-0.015267175572519083,-0.015267175572519083,0.022900763358778626,254.13308949211165,165.08336853703707,0.007633587786259542,0.022900763358778626,0.08396946564885496,-3.6638408233306348,130.48371111286258,-0.08396946564885496,0.030534351145038167,0.2595419847328244,83.0,77.0,-4.0,-5.0,-1.0,90.21,86.64,-9.0,0.0,-9.0,
10.237,265.3333958704786,168.5851784120661,-0.030534351145038167,0.5038167938931297,0.20610687022900764,-84.79312152253846,164.9406835871465,-0.015267175572519083,-0.015267175572519083,0.022900763358778626,256.3142924556574,165.102505259215,0.007633587786259542,0.022900763358778626,0.08396946564885496,-3.491796064229358,130.48792290993967,-0.0916030534351145,-0.0,0.24427480916030533,83.0,77.0,-4.0,-5.0,-1.0,90.2,86.66,-6.0,1.0,-6.0,
10.275,265.3846250518431,168.59298964939018,-0.030534351145038167,0.5038167938931297,0.20610687022900764,-84.74457383326134,164.95319113777785,-0.015267175572519083,-0.015267175572519083,0.022900763358778626,258.1683149746713,165.11877147306626,0.007633587786259542,0.022900763358778626,0.08396946564885496,-3.4397702902647027,130.51088221880187,-0.0916030534351145,-0.0,0.24427480916030533,85.0,76.0,-5.0,-10.0,-6.0,89.97,86.87,-6.0,0.0,-3.0,
10.314,265.10703761189404,168.62363795519053,-0.03816793893129771,0.5114503816793893,0.25190839694656486,-84.7033082973758,164.9638225558145,-0.015267175572519083,-0.015267175572519083,0.022900763358778626,259.74423411583314,165.13259775483982,0.007633587786259542,0.022900763358778626,0.08396946564885496,-3.3955483823947454,130.53039763133472,-0.0916030534351145,-0.0,0.24427480916030533,85.0,76.0,-5.0,-10.0,-6.0,89.79,86.91,-5.0,-6.0,0.0,
10.352,264.8710882879373,168.64968901512083,-0.03816793893129771,0.5114503816793893,0.25190839694656486,-84.66823259187308,164.97285926114563,-0.015267175572519083,-0.015267175572519083,0.022900763358778626,207.35132316980358,165.26984812263402,0.05343511450381679,0.06870229007633588,-0.03816793893129771,-3.357959760705282,130.54698573198766,-0.0916030534351145,-0.0,0.24427480916030533,85.0,76.0,-5.0,-10.0,-6.0,89.62,86.81,-4.0,-5.0,-2.0,
10.391,264.6705313625741,168.6718324160616,-0.03816793893129771,0.5114503816793893,0.25190839694656486,-84.63841824219577,164.9805404606771,-0.015267175572519083,-0.015267175572519083,0.022900763358778626,162.81734886567847,165.38651093525908,0.05343511450381679,0.06870229007633588,-0.03816793893129771,-3.6192661732728144,130.55017440999362,-0.0916030534351145,0.03816793893129771,0.32061068702290074,85.0,76.0,-5.0,-10.0,-6.0,89.5,86.79,-5.0,-4.0,-1.0,
10.429,265.0876357518157,168.6951182342203,-0.015267175572519083,0.5267175572519084,0.183206106870229,-84.61307604497006,164.98706948027885,-0.015267175572519083,-0.015267175572519083,0.022900763358778626,124.9634707071721,165.48567432599037,0.05343511450381679,0.06870229007633588,-0.03816793893129771,-3.8413766239552167,130.5528847862987,-0.0916030534351145,0.03816793893129771,0.32061068702290074,85.0,76.0,-5.0,-10.0,-6.0,89.53,86.86,-4.0,-1.0,-2.0,
10.467,265.4421744826711,168.71491117965522,-0.015267175572519083,0.5267175572519084,0.183206106870229,-84.5915351773282,164.99261914694034,-0.015267175572519083,-0.015267175572519083,0.022900763358778626,92.78767427244169,165.56996320811197,0.05343511450381679,0.06870229007633588,-0.03816793893129771,-3.6117242210261082,130.55757707447037,-0.0916030534351145,-0.022900763358778626,0.20610687022900764,85.0,76.0,-5.0,-10.0,-6.0,89.51,86.86,-3.0,-1.0,-2.0,
10.506,265.74353240389814,168.73173518327488,-0.015267175572519083,0.5267175572519084,0.183206106870229,-84.57322543983263,164.9973363636026,-0.015267175572519083,-0.015267175572519083,0.022900763358778626,65.43824730292084,165.64160875791532,0.05343511450381679,0.06870229007633588,-0.03816793893129771,-4.042556429336343,130.55772004547657,-0.08396946564885496,-0.015267175572519083,0.24427480916030533,85.0,76.0,-5.0,-10.0,-6.0,89.41,86.91,-3.0,-6.0,-1.0,
10.544,265.99968663694114,168.7460355863516,-0.015267175572519083,0.5267175572519084,0.183206106870229,-84.55766216296139,165.00134599776553,-0.015267175572519083,-0.015267175572519083,0.022900763358778626,42.19123437882813,165.70250747524818,0.05343511450381679,0.06870229007633588,-0.03816793893129771,-4.3101891712900775,130.55981742384915,-0.07633587786259542,-0.007633587786259542,0.22900763358778625,85.0,76.0,-5.0,-10.0,-6.0,89.28,86.79,-4.0,-3.0,-1.0,
10.583,266.21741773502765,168.75819092896683,-0.015267175572519083,0.5267175572519084,0.183206106870229,-84.54443337762083,165.004754186804,-0.015267175572519083,-0.015267175572519083,0.022900763358778626,22.431273393349322,165.7542713849811,0.05343511450381679,0.06870229007633588,-0.03816793893129771,-4.759524742271397,130.56199280710374,-0.07633587786259542,-0.0,0.22137404580152673,85.0,76.0,-5.0,-10.0,-6.0,89.1,86.7,-5.0,-2.0,-2.0,
10.622,266.4024891684012,168.76852297018976,-0.015267175572519083,0.5267175572519084,0.183206106870229,-84.53318891008136,165.0076511474867,-0.015267175572519083,-0.015267175572519083,0.022900763358778626,5.635306555692333,165.7982707082541,0.05343511450381679,0.06870229007633588,-0.03816793893129771,-4.045596046356685,130.47704503793233,-0.07633587786259542,-0.0,0.22137404580152673,85.0,78.0,0.0,-5.0,0.0,89.03,86.61,-4.0,-2.0,-4.0,
10.66,266.5597998867687,168.77730520522925,-0.015267175572519083,0.5267175572519084,0.183206106870229,-84.52363111267282,165.010113564067,-0.015267175572519083,-0.015267175572519083,0.022900763358778626,-8.641265256316107,165.83567013303616,0.05343511450381679,0.06870229007633588,-0.03816793893129771,-3.4387566548291812,130.40483943413665,-0.07633587786259542,-0.0,0.22137404580152673,85.0,79.0,0.0,-6.0,0.0,88.97,86.57,-4.0,-3.0,-5.0,
10.698,266.69351399738116,168.78477010501283,-0.015267175572519083,0.5267175572519084,0.183206106870229,-84.99662092009717,164.8884151055888,0.0,-0.030534351145038167,0.022900763358778626,-20.77635129652328,165.8674596441009,0.05343511450381679,0.06870229007633588,-0.03816793893129771,-2.9229431720308026,130.34346467091032,-0.07633587786259542,-0.0,0.22137404580152673,85.0,79.0,0.0,-6.0,0.0,88.88,86.53,-5.0,-4.0,-5.0,
10.737,266.8071709914017,168.79111526982885,-0.015267175572519083,0.5267175572519084,0.183206106870229,-85.39866225640787,164.7849714158823,0.0,-0.030534351145038167,0.022900763358778626,-31.091174430699375,165.89448072850593,0.05343511450381679,0.06870229007633588,-0.03816793893129771,-2.484501711652181,130.29129612216795,-0.07633587786259542,-0.0,0.22137404580152673,85.0,79.0,0.0,-6.0,-2.0,88.67,86.49,-5.0,-3.0,-6.0,
10.775,266.90377943631916,168.79650865992247,-0.015267175572519083,0.5267175572519084,0.183206106870229,-85.74039739227197,164.6970442796318,0.0,-0.030534351145038167,0.022900763358778626,-39.85877409474906,165.9174486502502,0.05343511450381679,0.06870229007633588,-0.03816793893129771,-1.8915063629207276,130.22959061786287,-0.07633587786259542,-0.0,0.22137404580152673,85.0,79.0,1.0,-7.0,-4.0,88.58,86.4,-6.0,-3.0,-7.0,
10.814,266.985896614499,168.80109304150204,-0.015267175572519083,0.5267175572519084,0.183206106870229,-86.03087225775646,164.62230621381886,0.0,-0.030534351145038167,0.022900763358778626,-47.311233809191286,165.93697138373284,0.05343511450381679,0.06870229007633588,-0.03816793893129771,-1.1674294064422697,130.1597794187378,-0.07633587786259542,-0.0,0.22137404580152673,85.0,79.0,2.0,-8.0,-5.0,88.47,86.39,-5.0,-2.0,-6.0,
