time,pitch,roll,gyrx,gyry,gyrz,f1,f2,f3,f4,f5,f6,f7,g1,g2,g3
0.418,66.09,69.14,-2.25,1.86,1.6,0,0,0,0,0,0,0,0.00,0.00,0.49,
0.442,72.975,76.376,-1.76,1.64,0.94,0,0,0,0,0,0,0,0.00,0.10,0.39,
0.465,79.7385,83.36359999999999,-0.47,1.02,-0.28,0,0,0,0,0,0,0,0.00,0.00,0.78,
0.489,85.64385,89.35436,0.18,-0.08,0.21,0,0,0,0,0,0,0,0.00,0.00,0.88,
0.513,90.581385,94.291436,0.72,-0.51,0.55,0,0,0,0,0,0,0,0.00,0.00,0.88,
0.535,94.7291385,98.44814360000001,-0.54,-1.2,-0.64,0,0,0,0,0,0,0,0.00,0.00,0.88,
0.56,98.28491385000001,102.04981436,-2.33,-0.97,-0.27,0,0,0,0,0,0,0,0.00,0.00,0.88,
0.583,101.37649138500001,105.226981436,-3.54,0.16,0.42,0,0,0,0,0,0,0,0.00,0.00,0.88,
0.607,104.10664913849999,108.0016981436,-4.21,0.05,0.79,0,0,0,0,0,0,0,0.00,0.00,0.98,
0.63,106.52166491385,110.46616981436,-5.13,0.02,0.95,0,0,0,0,0,0,0,0.00,0.00,0.98,
0.654,108.563166491385,112.47661698143601,-5.74,0.52,1.89,0,0,0,0,0,0,0,0.00,0.00,0.78,
0.677,110.0543166491385,114.19866169814361,-3.44,3.08,1.23,0,0,0,0,0,0,0,0.00,0.00,0.49,
0.701,111.58943166491385,115.92786616981437,-1.31,1.94,-0.67,0,0,0,0,0,0,0,0.00,0.00,0.59,
0.724,112.61594316649139,117.38778661698143,-1.05,-0.71,-1.43,0,0,0,0,0,0,0,0.00,0.00,0.59,
0.748,113.61859431664914,118.60477866169813,-0.03,-0.3,-1.18,0,0,0,0,0,0,0,0.00,0.00,0.69,
0.773,114.3758594316649,119.61747786616982,0.62,2.63,-1.3,0,0,0,0,0,0,0,0.00,0.00,0.59,
0.796,115.15358594316648,120.42074778661699,-0.75,1.58,-1.27,0,0,0,0,0,0,0,0.00,0.00,0.39,
0.82,115.69035859431665,121.0590747786617,-1.08,-0.68,-0.7,0,0,0,0,0,0,0,0.00,0.00,0.00,
0.843,116.16703585943166,121.59990747786617,-0.36,1.5,-0.79,0,0,0,0,0,0,0,0.00,0.00,0.20,
0.867,116.59270358594316,122.05899074778661,1.09,0.03,-1.15,0,0,0,0,0,0,0,0.00,0.00,0.00,
0.89,116.96827035859432,122.46489907477866,0.48,-0.04,-1.43,0,0,0,0,0,0,0,0.00,0.00,0.39,
0.914,117.27582703585944,122.84748990747786,0.73,-0.9,-0.93,0,0,0,0,0,0,0,0.00,0.10,0.29,
0.939,117.62158270358594,123.0927489907478,0.21,1.15,0.49,0,0,0,0,0,0,0,0.00,0.20,0.39,
0.962,117.8271582703586,123.21627489907479,-0.14,2.31,0.77,0,0,0,0,0,0,0,0.00,0.29,0.00,
0.986,118.06371582703586,123.31862748990747,-1.62,2.62,1.18,0,0,0,0,0,0,0,0.00,0.20,0.00,
1.009,118.24937158270359,123.27486274899074,-2.77,0.96,1.3,0,0,0,0,0,0,0,0.00,0.20,0.00,
1.033,118.35793715827036,123.26148627489908,-4.12,1.9,0.83,0,0,0,0,0,0,0,0.00,0.29,0.39,
1.056,118.43179371582704,123.0981486274899,-4.56,2.32,0.51,0,0,0,0,0,0,0,0.00,0.00,0.39,
1.08,118.5651793715827,122.892814862749,-5.26,1.31,0.04,0,0,0,0,0,0,0,0.00,0.00,0.49,
1.103,118.66851793715828,122.9172814862749,-7.46,0.98,0.47,0,0,0,0,0,0,0,0.00,0.00,0.39,
1.127,118.76885179371583,123.21672814862748,-8.59,0.38,1.93,0,0,0,0,0,0,0,0.00,0.00,0.29,
1.15,118.89588517937159,123.67867281486275,-8.91,0.91,2.95,0,0,0,0,0,0,0,0.00,0.00,0.29,
1.174,118.76458851793716,123.94086728148628,-8.8,0.46,3.06,0,0,0,0,0,0,0,0.00,0.00,0.39,
1.198,118.5444588517937,123.81408672814862,-7.21,0.02,0.92,0,0,0,0,0,0,0,0.00,0.00,0.20,
1.221,118.39644588517938,123.70240867281485,-7.34,0.42,-1.24,0,0,0,0,0,0,0,0.00,0.00,0.29,
1.245,118.39964458851793,123.72724086728148,-6.8,-1.16,-0.47,0,0,0,0,0,0,0,0.00,0.00,0.39,
1.269,118.4269644588518,123.83772408672814,-5.26,0.41,1.06,0,0,0,0,0,0,0,0.00,0.00,0.39,
1.293,118.51069644588517,124.04677240867281,-4.31,1.85,3.21,0,0,0,0,0,0,0,0.00,0.00,0.39,
1.316,118.41106964458852,124.19367724086727,-3.13,1.95,4.34,0,0,0,0,0,0,0,0.00,0.00,0.49,
1.34,118.48210696445884,124.55036772408673,-2.5,0.86,2.75,0,0,0,0,0,0,0,0.00,0.00,0.29,
1.363,118.49821069644588,124.85603677240867,-1.31,-0.35,1.44,0,0,0,0,0,0,0,0.00,0.00,0.49,
1.387,118.59882106964459,125.07560367724086,-1.73,1.18,-0.11,0,0,0,0,0,0,0,0.00,0.00,0.49,
1.411,118.74388210696446,125.13356036772409,-0.63,0.18,-0.62,0,0,0,0,0,0,0,0.00,0.00,0.29,
1.434,118.92038821069644,125.3013560367724,1.16,1.76,-0.7,0,0,0,0,0,0,0,0.00,0.00,0.39,
1.458,119.19003882106965,125.30913560367725,2.69,1.44,-0.24,0,0,0,0,0,0,0,0.00,0.00,0.39,
1.481,119.18100388210698,125.10291356036772,1.46,2.31,-0.27,0,0,0,0,0,0,0,0.00,0.00,0.29,
1.505,119.0991003882107,124.73129135603678,0.85,0.42,-1.36,0,0,0,0,0,0,0,0.00,0.00,0.20,
1.529,119.00091003882106,124.44212913560366,-0.84,2.21,-0.34,0,0,0,0,0,0,0,0.00,0.00,0.49,
1.553,118.98209100388212,124.14321291356036,-1.26,1.45,0.46,0,0,0,0,0,0,0,0.00,0.00,0.39,
1.576,119.00720910038822,123.98732129135604,-2.6,2.31,1.33,0,0,0,0,0,0,0,0.00,0.00,0.29,
1.6,119.01872091003881,124.01673212913559,-3.73,1.18,1.02,0,0,0,0,0,0,0,0.00,0.00,0.39,
1.624,118.97487209100389,124.12767321291355,-4.24,0.48,0.79,0,0,0,0,0,0,0,0.00,0.00,0.49,
1.647,119.1054872091004,124.27376732129136,-4.88,1.71,0.19,0,0,0,0,0,0,0,0.00,0.00,0.39,
1.671,119.08254872091004,124.29737673212914,-3.98,0.69,-0.09,0,0,0,0,0,0,0,0.00,0.00,0.39,
1.694,118.92725487209101,124.12873767321291,-3.85,2.1,-0.66,0,0,0,0,0,0,0,0.00,0.00,0.39,
1.718,118.8487254872091,123.82387376732129,-5.17,0.18,-0.92,0,0,0,0,0,0,0,0.00,0.00,0.49,
1.741,118.82287254872091,123.66738737673214,-7.15,1.07,-0.08,0,0,0,0,0,0,0,0.00,0.00,0.29,
1.766,118.79328725487208,123.68773873767321,-6.75,2.05,1.29,0,0,0,0,0,0,0,0.00,0.00,0.39,
1.789,119.04232872548721,123.92377387376733,-5.04,2.66,0.99,0,0,0,0,0,0,0,0.00,0.00,0.49,
1.813,119.18423287254872,124.10937738737672,-3.84,1.5,1.34,0,0,0,0,0,0,0,0.00,0.00,0.39,
1.837,119.14442328725487,124.14593773873769,-4.0,0.08,1.27,0,0,0,0,0,0,0,0.00,0.00,0.59,
1.86,118.89744232872549,124.05059377387377,-6.48,2.23,-0.45,0,0,0,0,0,0,0,91.92,0.00,0.39,
1.884,118.72874423287254,123.83405937738738,-7.01,-0.34,-2.53,0,0,0,0,0,0,0,0.00,0.00,0.49,
1.907,118.48687442328725,123.46140593773873,-7.66,-0.17,-0.48,0,0,0,0,0,0,0,0.00,0.00,0.49,
1.931,118.26468744232872,123.03714059377387,-9.85,0.91,-1.15,0,0,0,0,0,0,0,0.00,0.00,0.59,
1.955,118.14346874423286,122.58071405937739,-11.6,-3.06,-0.31,0,0,0,0,0,0,0,0.00,0.00,0.49,
1.979,118.14934687442329,121.83307140593774,-13.52,-2.11,1.28,0,0,0,0,0,0,0,0.00,0.00,0.59,
2.002,117.93393468744233,120.93930714059377,-16.81,-4.95,2.79,0,0,0,0,0,0,0,0.00,0.00,0.59,
2.026,117.80439346874424,119.86893071405937,-20.31,-4.56,4.66,0,0,0,0,0,0,0,0.00,0.00,0.69,
2.051,117.48543934687441,118.86189307140593,-25.05,-1.52,3.68,0,0,0,0,0,0,0,0.00,0.00,0.49,
2.074,117.20154393468744,117.7621893071406,-30.15,-6.34,1.26,0,0,0,0,0,0,0,0.00,0.00,0.69,
2.098,116.85815439346874,116.82421893071405,-34.54,-4.06,-1.47,0,0,0,0,0,0,0,0.00,0.00,0.69,
2.121,116.58981543934688,116.2804218930714,-37.75,-4.47,-2.11,0,0,0,0,0,0,0,0.00,0.00,0.69,
2.146,116.36498154393469,115.73104218930715,-38.84,-6.31,-1.08,0,0,0,0,0,0,0,0.00,0.00,0.59,
2.169,115.85649815439346,115.30710421893072,-39.46,-1.69,-0.38,0,0,0,0,0,0,0,0.00,0.00,0.88,
2.193,115.55364981543934,115.25571042189307,-39.92,-5.49,1.6,0,0,0,0,0,0,0,0.00,0.00,0.78,
2.216,115.04636498154393,115.2055710421893,-38.41,-8.74,5.56,0,0,0,0,0,0,0,0.00,0.00,0.59,
2.241,114.5096364981544,115.17355710421893,-38.03,-6.8,7.92,0,0,0,0,0,0,0,0.00,0.00,0.29,
2.265,113.96996364981544,114.89135571042189,-37.9,-14.87,7.63,0,0,0,0,0,0,0,0.00,0.00,0.88,
2.288,113.42099636498155,114.47613557104219,-39.47,-14.39,6.4,0,0,0,0,0,0,0,0.00,0.00,1.08,
2.313,113.02409963649815,113.94861355710422,-37.93,-12.53,3.94,0,0,0,0,0,0,0,0.00,0.00,0.78,
2.336,112.93940996364982,113.67086135571041,-36.83,-13.34,3.52,0,0,0,0,0,0,0,0.00,0.00,0.88,
2.36,112.83194099636498,113.17508613557105,-35.35,-15.11,4.59,0,0,0,0,0,0,0,0.00,0.00,0.69,
2.383,112.8121940996365,112.8195086135571,-37.98,-14.4,5.26,0,0,0,0,0,0,0,0.00,0.00,0.69,
2.408,112.67521940996366,112.3789508613557,-39.8,-14.14,7.1,0,0,0,0,0,0,0,0.00,0.00,0.00,
2.432,112.37352194099637,111.79489508613557,-39.33,-12.12,6.13,0,0,0,0,0,0,0,0.00,0.00,0.49,
2.455,112.22635219409962,111.30448950861356,-39.49,-15.97,6.81,0,0,0,0,0,0,0,0.00,0.00,1.37,
2.48,112.13063521940995,110.67944895086136,-41.78,-17.69,8.92,0,0,0,0,0,0,0,0.00,0.00,1.18,
2.503,111.680063521941,109.20394489508614,-39.45,-21.27,11.76,0,0,0,0,0,0,0,0.00,0.00,0.78,
2.527,111.0140063521941,107.03139448950861,-31.17,-14.23,7.74,0,0,0,0,0,0,0,0.00,0.00,0.78,
2.551,110.51540063521941,105.63513944895087,-30.91,-5.49,4.83,0,0,0,0,0,0,0,0.00,0.00,0.78,
2.575,110.12354006352194,104.59551394489509,-36.79,-14.92,3.66,0,0,0,0,0,0,0,0.00,0.00,0.49,
2.598,109.6433540063522,103.52855139448951,-41.21,-17.79,2.98,0,0,0,0,0,0,0,0.00,0.00,0.59,
2.622,109.05533540063522,102.13485513944896,-41.46,-17.47,0.53,0,0,0,0,0,0,0,0.00,0.00,1.08,
2.647,108.46553354006352,101.1134855139449,-38.61,-15.21,-1.83,0,0,0,0,0,0,0,0.00,0.00,0.69,
2.67,108.77555335400635,100.86734855139449,-35.56,-4.23,-0.67,0,0,0,0,0,0,0,0.00,0.00,0.78,
2.694,108.46455533540063,100.88773485513946,-32.88,-9.76,3.24,0,0,0,0,0,0,0,0.00,0.00,0.59,
2.718,108.24445553354006,100.58377348551394,-38.61,0.42,5.61,0,0,0,0,0,0,0,0.00,0.00,0.78,
2.742,108.15044555335402,100.51737734855139,-45.21,-10.77,4.82,0,0,0,0,0,0,0,0.00,0.00,0.78,
2.765,107.6280445553354,100.57373773485514,-47.5,-11.33,2.24,0,0,0,0,0,0,0,0.00,0.00,0.69,
2.79,113.92080445553354,106.69037377348552,-82.15,-86.41,-3.79,0,0,0,0,0,0,0,0.00,1.08,1.37,
2.813,110.00508044555335,108.83203737734854,55.05,-247.59,-116.06,0,0,0,0,0,0,0,0.00,0.00,1.28,
2.838,100.25350804455533,106.78720373773486,51.51,-250.13,-37.2,0,0,0,0,0,0,0,0.98,0.00,0.00,
2.862,97.04635080445553,105.0077203737735,-50.75,250.14,-23.14,0,0,0,0,0,0,0,1.08,0.00,4.41,
2.885,109.83863508044556,81.77177203737735,-18.11,124.27,20.85,0,0,0,0,0,0,0,0.78,0.00,10.20,
2.91,106.23086350804455,81.59017720373772,35.83,-250.13,2.73,0,0,0,0,0,0,0,0.98,0.00,12.75,
2.933,102.57608635080446,83.19201772037377,-11.77,89.11,-1.91,0,0,0,0,0,0,0,1.47,0.00,0.00,
2.958,103.07460863508044,84.47720177203738,-5.87,4.43,-12.93,0,0,0,0,0,0,0,1.77,0.00,0.00,
2.981,103.51146086350805,85.92872017720374,-7.36,5.89,-3.09,0,0,0,0,0,0,0,1.57,0.00,0.00,
3.005,102.23214608635081,86.95587201772037,-0.4,-20.45,-2.18,0,0,0,0,0,0,0,1.67,0.00,0.00,
3.028,101.29421460863507,88.10258720177205,-3.53,2.44,-4.25,0,0,0,0,0,0,0,1.77,0.00,0.00,
3.053,100.7054214608635,88.7122587201772,-4.91,3.51,-4.84,0,0,0,1,0,0,0,2.26,0.00,0.00,
3.077,100.26854214608636,89.40322587201773,-2.44,-1.31,-1.5,0,0,0,1,0,0,0,2.45,0.00,0.00,
3.1,99.78385421460864,89.88632258720176,-1.49,-2.11,-1.18,0,0,0,1,0,0,1,2.55,0.00,0.00,
3.124,99.14138542146085,90.42963225872018,-1.2,-2.16,-4.45,0,0,0,2,0,0,1,2.55,0.00,0.00,
3.147,98.82513854214608,90.84396322587202,-1.57,1.22,-3.56,0,0,0,2,0,0,1,2.55,0.00,0.00,
3.172,98.6585138542146,91.3263963225872,-2.08,2.43,-0.3,0,0,0,2,0,0,1,2.55,0.00,0.00,
3.195,98.65085138542148,91.61763963225873,-1.59,0.69,1.62,0,0,0,2,0,0,1,2.75,0.00,0.00,
3.219,98.41608513854214,92.00676396322586,0.87,-5.38,1.11,0,0,0,2,0,0,1,2.75,0.00,0.00,
3.243,97.96960851385421,92.36967639632257,-0.73,-2.03,-0.95,0,0,0,2,0,0,1,2.65,0.00,0.00,
3.266,97.81696085138542,92.47796763963225,-1.51,3.72,-1.38,0,0,0,2,0,0,1,2.75,0.00,0.00,
3.29,97.75669608513854,92.63279676396323,0.21,4.85,-4.95,0,0,0,2,0,0,1,2.55,0.00,0.00,
3.313,97.76866960851385,92.84627967639634,1.64,6.13,-3.51,0,0,0,2,0,0,2,2.55,0.00,0.29,
3.337,97.49086696085138,93.20962796763963,3.34,-1.31,-2.74,0,0,0,2,0,0,2,2.35,0.00,0.00,
3.36,97.53508669608513,93.51596279676396,2.82,-6.09,-3.17,0,0,0,2,0,0,2,2.35,0.00,0.00,
3.384,97.19750866960851,93.7715962796764,0.72,-0.64,0.57,0,0,0,2,0,0,2,2.35,0.00,0.20,
3.407,97.18175086696085,93.86015962796765,3.55,-1.4,-2.63,0,0,0,2,0,0,2,2.35,0.00,0.29,
3.431,97.38717508669608,94.17501596279676,2.98,8.59,1.63,0,0,0,2,0,0,2,2.55,0.00,1.28,
3.456,97.83971750866961,94.54850159627968,1.1,5.82,-8.73,0,0,0,2,0,0,2,2.55,0.00,2.75,
3.479,97.71397175086696,94.64885015962797,7.83,-14.55,-7.5,0,0,0,2,0,0,2,2.65,0.00,0.88,
3.503,97.2963971750867,94.8478850159628,1.66,-2.89,0.82,0,0,0,2,0,0,2,2.65,0.00,0.00,
3.526,97.13763971750868,94.84078850159628,3.66,-3.89,0.32,0,0,0,3,0,0,2,2.65,0.00,0.00,
3.55,96.88776397175087,94.88507885015963,4.25,-12.15,-4.05,0,0,0,3,0,0,2,2.75,0.00,0.00,
3.573,96.63777639717509,95.05150788501597,0.1,1.54,-2.42,0,0,0,3,0,0,2,2.65,0.00,0.59,
3.597,96.46877763971752,95.1311507885016,3.56,-0.56,-1.73,0,0,0,3,0,0,2,2.55,0.00,0.88,
3.62,96.30787776397175,95.26511507885017,2.21,-0.58,-3.69,0,0,0,2,0,0,2,2.55,0.00,1.18,
3.644,96.16578777639718,95.53051150788502,3.33,-4.82,-1.47,0,0,0,2,0,0,2,2.26,0.00,0.88,
3.668,96.10657877763971,95.7820511507885,1.57,-1.31,-0.86,0,0,0,2,0,0,2,2.06,0.00,0.39,
3.692,96.04665787776398,96.00520511507885,1.25,-2.6,-1.36,0,0,0,2,0,0,2,2.06,0.00,0.59,
3.716,95.8516657877764,96.18052051150788,0.43,-1.52,-1.0,0,0,0,2,0,0,1,2.06,0.00,0.59,
3.739,95.71516657877766,96.38705205115079,-1.96,0.37,-2.21,0,0,0,2,0,0,1,2.26,0.00,0.78,
3.763,95.73751665787776,96.53370520511507,-4.25,2.34,-3.66,0,0,0,2,0,0,1,2.65,0.00,1.08,
3.786,95.88375166578777,96.66537052051152,-3.24,9.88,0.02,0,0,0,3,0,0,1,3.04,0.00,1.96,
3.811,95.85337516657877,96.56153705205115,-0.63,-3.51,-2.66,0,0,0,3,0,0,2,3.14,0.00,0.59,
3.834,96.02133751665788,96.75815370520512,-0.27,-1.13,-7.5,0,0,0,3,0,0,2,3.34,0.00,0.00,
3.859,95.85813375166579,96.82281537052052,1.53,-4.53,-3.22,0,0,0,3,0,0,2,3.43,0.00,0.00,
3.883,95.86881337516658,96.90128153705204,1.12,-2.98,0.11,0,0,0,3,0,0,2,3.43,0.00,0.00,
3.906,95.71688133751667,97.0441281537052,0.75,-4.77,0.64,0,0,0,3,0,0,2,3.53,0.00,0.39,
3.93,95.65668813375167,97.08541281537052,0.26,-1.89,2.61,0,0,0,3,0,0,2,3.43,0.00,0.59,
3.954,95.52466881337517,97.18854128153706,1.84,-8.27,1.57,0,0,0,3,0,0,1,3.04,0.00,0.88,
3.978,95.3764668813375,97.2618541281537,1.28,-6.26,2.16,0,0,0,3,0,0,1,2.94,0.00,1.96,
4.001,95.14564668813375,97.31418541281536,1.62,-7.24,2.56,0,0,0,3,0,0,1,2.65,0.00,2.55,
4.025,94.97856466881338,97.39141854128155,0.61,-5.31,1.6,0,0,0,2,0,0,1,2.45,0.00,0.20,
4.049,94.86285646688133,97.52514185412815,-0.18,-4.72,0.22,0,0,0,2,0,0,1,2.35,0.00,0.20,
4.073,94.84228564668814,97.60151418541281,-1.44,-1.02,1.05,0,0,0,2,0,0,1,2.26,0.00,0.39,
4.097,94.8042285646688,97.68115141854129,-0.79,-4.47,1.47,0,0,0,2,0,0,1,2.26,0.00,1.18,
4.12,94.71942285646686,97.78811514185412,-1.03,-4.38,0.81,0,0,0,2,0,0,0,2.16,0.00,0.98,
4.144,94.61194228564668,97.80781151418542,-0.57,-6.47,1.56,0,0,0,2,0,0,0,2.16,0.00,3.63,
4.167,94.48419422856466,97.89978115141854,-1.3,-4.14,1.79,0,0,0,2,0,0,0,2.06,0.00,3.53,
4.192,94.34541942285647,98.00797811514185,-2.0,-3.13,0.35,0,0,0,2,0,0,0,2.06,0.00,1.37,
4.215,94.20554194228565,98.04579781151419,-1.76,-2.9,0.69,0,0,0,2,0,0,0,1.96,0.00,0.78,
4.239,94.08355419422855,98.17557978115141,-0.5,-3.05,1.27,0,0,0,2,0,0,0,1.96,0.00,0.78,
4.262,93.95435541942285,98.15255797811514,-1.54,-3.51,0.01,0,0,0,2,0,0,0,1.96,0.00,1.28,
4.286,93.8874355419423,98.20425579781151,-1.66,-2.73,0.37,0,0,0,2,0,0,0,1.96,0.00,1.08,
4.31,93.70974355419423,98.23642557978114,-1.6,-2.06,0.92,0,0,0,1,0,0,0,1.96,0.00,1.67,
4.333,93.52997435541943,98.3116425579781,-1.85,-1.54,-0.53,0,0,0,1,0,0,0,1.86,0.00,1.08,
4.357,93.50299743554194,98.3371642557978,-2.15,-0.72,-0.08,0,0,0,1,0,0,0,1.77,0.00,1.08,
4.381,93.41929974355419,98.41171642557978,-2.1,-0.73,0.19,0,0,0,1,0,0,0,1.86,0.00,0.00,
4.405,93.35692997435541,98.40117164255798,-2.18,-0.62,-0.05,0,0,0,1,0,0,0,1.86,0.00,0.39,
4.428,93.25169299743554,98.3911171642558,-1.84,-1.3,-0.32,0,0,0,1,0,0,0,1.67,0.00,0.39,
4.452,93.21416929974355,98.36311171642558,-2.19,-0.79,-0.51,0,0,0,1,0,0,0,1.86,0.00,0.59,
4.475,93.22841692997436,98.40531117164255,-2.37,-0.18,0.05,0,0,0,1,0,0,0,1.67,0.00,0.20,
4.499,93.20284169299744,98.44553111716425,-2.43,-0.01,-0.03,0,0,0,1,0,0,0,1.86,0.00,0.49,
4.524,93.13728416929973,98.45855311171641,-2.87,0.65,-0.27,0,0,0,1,0,0,0,1.86,0.00,1.08,
4.547,93.07672841692997,98.45085531117164,-3.02,1.71,-0.66,0,0,0,1,0,0,0,1.86,0.00,0.98,
4.571,93.079672841693,98.44108553111717,-2.8,2.06,-1.02,0,0,0,1,0,0,0,1.86,0.00,0.69,
4.594,93.0889672841693,98.46710855311171,-2.82,1.73,-1.0,0,0,0,1,0,0,0,1.77,0.00,0.00,
4.618,92.99989672841693,98.46071085531116,-3.05,3.18,-1.58,0,0,0,1,0,0,0,1.77,0.00,0.39,
4.641,93.0089896728417,98.4600710855311,-2.94,3.11,-1.79,0,0,0,1,0,0,0,1.67,0.00,0.49,
4.665,93.02789896728417,98.4600071085531,-2.95,4.01,-1.51,0,0,0,1,0,0,0,1.57,0.00,0.10,
4.688,93.11078989672842,98.49600071085531,-3.47,5.45,-2.14,0,0,0,1,0,0,0,1.47,0.00,0.00,
4.712,93.21807898967285,98.48160007108554,-3.25,3.86,-2.37,0,0,0,1,0,0,0,1.57,0.00,0.00,
4.736,93.27380789896728,98.47116000710855,-3.47,4.03,-1.84,0,0,0,1,0,0,0,1.67,0.00,0.00,
4.76,93.36938078989672,98.48811600071085,-3.82,5.09,-1.85,0,0,0,2,0,0,1,1.57,0.00,0.00,
4.784,93.38793807898968,98.48981160007108,-3.75,3.66,-1.53,0,0,0,2,0,0,1,1.77,0.00,0.00,
4.807,93.43479380789897,98.4809811600071,-3.62,2.66,-1.46,0,0,0,2,0,0,1,1.67,0.00,0.59,
4.831,93.50247938078991,98.5430981160007,-3.21,2.41,-1.15,0,0,0,2,0,0,1,1.57,0.00,1.37,
4.854,93.536247938079,98.52230981160005,-2.92,1.79,-0.69,0,0,0,2,0,0,1,1.57,0.00,1.57,
4.878,93.60262479380789,98.54723098116,-2.4,0.27,-0.13,0,0,0,2,0,0,1,1.67,0.00,2.55,
4.901,93.62726247938079,98.585723098116,-2.55,0.91,0.07,0,0,0,2,0,0,1,1.47,0.00,1.57,
4.926,93.65672624793808,98.5805723098116,-2.47,0.94,0.16,0,0,0,2,0,0,1,1.57,0.00,0.49,
4.95,93.67767262479381,98.61605723098117,-2.14,-0.86,0.25,0,0,0,2,0,0,1,1.47,0.00,0.00,
4.973,93.69776726247937,98.65560572309812,-2.5,-0.88,0.8,0,0,0,2,0,0,1,1.57,0.00,0.00,
4.997,93.60977672624793,98.6955605723098,-1.91,-2.42,0.97,0,0,0,2,0,0,1,1.57,0.00,0.00,
5.02,93.69997767262478,98.66355605723098,-2.04,-3.35,1.56,0,0,0,2,0,0,1,1.57,0.00,0.00,
5.044,93.64599776726247,98.7233556057231,-1.97,-3.58,2.04,0,0,0,2,0,0,1,1.57,0.00,0.00,
5.067,93.56859977672624,98.78333556057231,-1.68,-4.73,1.47,0,0,0,2,0,0,1,1.47,0.00,0.00,
5.091,93.49785997767262,98.79833355605723,-2.37,-2.4,1.86,0,0,0,2,0,0,1,1.47,0.00,0.00,
5.114,93.40078599776726,98.80883335560573,-2.23,-3.73,2.05,0,0,0,2,0,0,1,1.57,0.00,0.00,
5.138,93.31007859977672,98.81888333556057,-2.56,-1.56,1.95,0,0,0,2,0,0,1,1.57,0.00,0.10,
5.161,93.22900785997767,98.83788833355607,-2.14,-2.99,1.57,0,0,0,2,0,0,1,1.67,0.00,0.49,
5.186,93.13090078599777,98.82178883335561,-2.41,-2.25,1.82,0,0,0,2,0,0,1,1.67,0.00,0.59,
5.21,93.02209007859977,98.91917888333556,-2.62,-1.76,0.88,0,0,0,2,0,0,1,1.77,0.00,0.78,
5.233,92.94820900785997,98.97391788833356,-2.36,-1.64,0.37,0,0,0,1,0,0,1,1.77,0.00,0.49,
5.257,92.904820900786,98.97039178883335,-2.71,-1.65,0.51,0,0,0,1,0,0,1,1.67,0.00,0.29,
5.28,92.9094820900786,98.98803917888333,-2.55,-0.28,0.86,0,0,0,1,0,0,1,1.86,0.00,0.59,
5.304,92.81994820900786,99.03480391788834,-2.95,-0.73,1.06,0,0,0,1,0,0,0,1.77,0.00,0.69,
5.327,92.6759948209008,99.03048039178884,-2.65,-1.18,0.79,0,0,0,1,0,0,0,1.77,0.00,1.37,
5.351,92.59859948209008,98.99404803917888,-2.78,-0.5,0.53,0,0,0,1,0,0,0,1.67,0.00,0.00,
5.374,92.51885994820901,98.9994048039179,-3.05,-0.15,0.89,0,0,0,1,0,0,0,1.77,0.00,0.10,
5.399,92.5558859948209,98.9999404803918,-2.73,-0.09,-0.02,0,0,0,1,0,0,0,1.86,0.00,0.69,
5.423,92.50558859948208,98.99999404803918,-2.85,0.4,0.57,0,0,0,1,0,0,0,1.86,0.00,0.20,
5.446,92.47355885994821,99.05399940480393,-2.92,0.11,0.77,0,0,0,1,0,0,0,1.77,0.00,0.20,
5.47,92.47935588599482,99.05039994048039,-2.82,0.35,0.72,0,0,0,1,0,0,0,1.86,0.00,0.10,
5.493,92.45293558859947,99.02303999404803,-2.82,0.25,0.66,0,0,0,1,0,0,0,1.86,0.00,0.20,
5.517,92.44129355885994,99.0743039994048,-2.9,0.14,0.4,0,0,0,1,0,0,0,1.77,0.00,0.29,
5.54,92.404129355886,99.1154303999405,-3.0,0.95,0.64,0,0,0,1,0,0,0,1.77,0.00,0.59,
5.564,92.31041293558859,99.20054303999405,-2.95,1.2,0.23,0,0,0,1,0,0,0,1.77,0.00,0.49,
5.587,92.26504129355887,99.17305430399941,-2.79,0.34,0.85,0,0,0,2,0,0,0,1.77,0.00,0.29,
5.611,92.32350412935588,99.13430543039993,-3.03,0.98,0.07,0,0,0,2,0,0,0,1.77,0.00,0.10,
5.635,92.3653504129356,99.07643054303999,-2.73,-0.06,0.44,0,0,0,2,0,0,0,1.77,0.00,0.29,
5.658,92.35153504129354,99.079643054304,-2.86,0.51,0.73,0,0,0,2,0,0,0,1.77,0.00,0.39,
5.682,92.34115350412937,99.1519643054304,-2.85,0.48,0.83,0,0,0,1,0,0,0,1.77,0.00,0.29,
5.705,92.36711535041294,99.15919643054303,-2.84,0.08,0.49,0,0,0,1,0,0,0,1.77,0.00,0.29,
5.729,92.33371153504129,99.1689196430543,-2.47,-0.19,0.83,0,0,0,1,0,0,0,1.77,0.00,0.29,
5.752,92.34837115350412,99.12489196430545,-2.82,0.03,0.86,0,0,0,1,0,0,0,1.86,0.00,0.49,
5.776,92.29583711535042,99.16548919643054,-2.57,0.37,1.12,0,0,0,1,0,0,0,1.86,0.00,0.29,
5.799,92.26358371153505,99.16954891964305,-2.0,0.1,0.95,0,0,0,1,0,0,0,1.67,0.00,0.59,
5.823,92.28735837115352,99.0529548919643,-1.82,-2.24,0.62,0,0,0,1,0,0,0,1.77,0.00,1.77,
5.848,92.27173583711534,98.88829548919644,-2.73,-3.54,1.72,0,0,0,1,0,0,0,1.86,0.00,0.98,
5.871,92.09017358371153,98.89882954891965,-2.26,-0.47,0.05,0,0,0,1,0,0,0,1.86,0.00,0.59,
5.895,92.11701735837116,98.89088295489196,-3.18,0.41,0.21,0,0,0,1,0,0,0,1.86,0.00,0.49,
5.918,93.44270173583712,99.97908829548919,-6.8,-10.54,4.04,0,0,0,1,0,0,0,1.96,0.00,0.59,
5.942,92.23427017358371,100.16890882954893,3.95,-48.07,5.0,0,0,0,1,0,0,0,1.77,0.00,0.49,
5.965,92.18542701735836,100.1428908829549,-5.11,19.04,-0.34,0,0,0,1,0,0,0,1.86,0.00,0.78,
5.99,92.03654270173584,100.09528908829549,-0.37,-16.01,1.81,0,0,0,1,0,0,0,1.86,0.00,0.49,
6.013,91.76965427017359,100.00952890882955,-3.47,5.23,-0.21,0,0,0,1,0,0,0,1.77,0.00,0.39,
6.037,91.56296542701736,99.95595289088295,-1.64,-7.04,0.6,0,0,0,1,0,0,0,1.86,0.00,0.59,
6.061,91.29029654270174,99.8515952890883,-2.29,0.96,-1.08,0,0,0,1,0,0,0,1.67,0.00,1.37,
6.084,91.18202965427017,99.71515952890883,-0.44,-11.02,-2.95,0,0,0,1,0,0,0,1.67,0.00,3.14,
6.109,90.82920296542703,99.48551595289088,-0.33,-10.39,-4.66,0,0,0,1,0,0,0,1.57,0.00,3.34,
6.132,90.5869202965427,99.33655159528908,-0.58,-0.97,-6.32,0,0,0,0,0,0,0,1.57,0.00,4.41,
6.156,90.51769202965427,99.36665515952892,0.41,1.59,-2.48,0,0,0,0,0,0,0,1.47,0.00,1.77,
6.179,90.43876920296543,99.54966551595288,-0.16,-1.53,-2.91,0,0,0,0,0,0,0,1.28,0.00,1.96,
6.203,90.41287692029654,99.7119665515953,-0.62,-2.83,-3.37,0,0,0,0,0,0,0,1.28,0.00,5.59,
6.227,90.10428769202966,99.82719665515954,0.37,-1.13,-1.48,0,0,0,0,0,0,0,1.08,0.00,4.61,
6.25,90.03742876920296,100.03671966551596,-0.17,4.53,0.47,0,0,0,0,0,0,0,0.59,0.00,0.00,
6.274,90.0217428769203,100.0666719665516,1.05,6.49,1.43,0,0,0,0,0,0,0,0.69,0.00,0.00,
6.297,90.13717428769203,100.20466719665517,0.15,6.64,3.65,0,0,0,0,0,0,0,0.69,0.00,0.00,
6.321,90.1847174287692,100.25446671966552,0.76,1.47,5.33,0,0,0,0,0,0,0,0.59,0.00,0.98,
6.344,90.00947174287691,100.31344667196655,2.12,-0.8,4.63,0,0,0,0,0,0,0,0.59,0.00,1.57,
6.368,90.09094717428769,100.61634466719666,-1.06,9.28,9.63,0,0,0,0,0,0,0,0.39,0.00,1.37,
6.391,90.27909471742876,100.82663446671967,0.6,-3.91,15.11,0,0,0,0,0,0,0,0.29,0.00,0.78,
6.415,89.73990947174288,100.58666344667196,3.14,-8.95,9.2,0,0,0,0,0,0,0,0.20,0.00,0.78,
6.438,90.1539909471743,100.6436663446672,0.02,11.69,13.16,0,0,0,0,0,0,0,0.20,0.00,1.57,
6.462,90.64539909471743,100.57736663446671,-3.11,-6.02,8.21,0,0,0,0,0,0,0,0.20,0.00,3.14,
6.486,91.37853990947173,100.53473666344667,-6.66,-4.79,-2.83,0,0,0,0,0,0,0,0.10,0.00,9.42,
6.509,91.01085399094717,100.31447366634467,-1.77,-53.11,-5.87,0,0,0,0,0,0,0,0.00,0.00,5.00,
6.534,89.60608539909472,99.91444736663448,-16.37,10.64,4.3,0,0,0,0,0,0,0,0.00,0.00,0.00,
6.557,89.25860853990947,99.74844473666346,-11.61,-0.24,7.63,0,0,0,0,0,0,0,0.00,0.00,0.00,
6.581,89.08886085399094,99.66884447366635,-15.2,30.94,2.76,0,0,0,0,0,0,0,0.10,0.00,0.00,
6.604,89.86388608539909,99.38188444736663,-9.18,20.44,6.24,0,0,0,0,0,0,0,0.10,0.00,0.49,
6.629,89.95038860853991,99.22718844473667,-14.92,17.34,5.68,0,0,0,0,0,0,0,0.00,0.00,0.00,
6.652,90.463038860854,99.43671884447366,-16.28,18.73,5.14,0,0,0,0,0,0,0,0.10,0.00,0.00,
6.676,90.5413038860854,99.28667188444737,-16.19,15.63,6.22,0,0,0,0,0,0,0,0.10,0.00,0.00,
6.701,90.64813038860854,99.37066718844473,-20.27,14.75,7.18,0,0,0,1,0,1,1,0.10,0.00,1.37,
6.724,90.75781303886085,99.11806671884449,-17.66,15.95,3.43,0,0,0,1,0,1,1,0.10,0.00,0.49,
6.748,91.37178130388608,98.57080667188445,-17.69,23.75,6.69,0,0,0,2,0,1,2,0.00,0.00,0.00,
6.771,91.8831781303886,98.30008066718844,-12.74,26.96,4.3,0,0,0,2,0,1,2,0.00,0.00,0.00,
6.796,92.34831781303888,98.03000806671885,-8.25,15.92,2.79,0,0,0,3,0,1,2,0.20,0.00,0.00,
6.819,92.79983178130388,98.01200080667189,-7.66,15.42,2.56,0,0,0,4,0,1,2,0.59,0.00,0.00,
6.843,93.15098317813039,97.86620008066718,-6.62,13.04,2.18,0,0,0,4,0,2,2,0.98,0.00,0.00,
6.867,93.45609831781303,97.71662000806673,-7.12,10.13,1.63,0,0,0,4,0,2,2,1.47,0.00,0.00,
6.891,93.6936098317813,97.61166200080667,-8.26,10.06,2.31,0,0,0,5,0,2,3,2.45,0.00,0.20,
6.915,93.96036098317812,97.43916620008066,-8.82,7.47,2.26,0,0,0,5,0,2,3,3.04,0.00,0.00,
6.939,94.07703609831782,97.32291662000807,-7.37,2.82,2.44,0,0,0,6,0,2,3,3.73,0.00,1.86,
6.963,94.28670360983179,97.25729166200081,-6.82,1.23,2.66,0,0,0,6,0,3,3,4.32,0.00,0.20,
6.986,94.56867036098318,97.07972916620008,-8.32,0.4,3.36,0,0,0,7,0,3,4,5.00,0.00,0.00,
7.011,94.72286703609831,96.90897291662002,-8.5,-3.27,2.43,0,0,0,7,0,4,4,6.08,0.00,0.00,
7.034,94.64828670360983,96.67589729166201,-3.78,-4.82,2.79,0,0,0,8,0,4,4,7.36,0.00,0.00,
7.059,94.69482867036098,96.6435897291662,-0.41,-6.58,2.66,0,0,0,8,0,4,4,8.34,0.00,0.00,
7.083,94.58248286703609,96.65835897291662,0.85,-10.91,2.96,0,0,0,8,0,3,4,8.24,0.00,0.00,
7.107,94.36424828670361,96.64183589729166,0.01,-11.62,2.35,0,0,0,8,0,3,3,8.04,0.00,0.59,
7.131,94.25242482867036,96.73918358972917,-0.47,-12.21,1.11,0,0,0,8,0,3,3,8.04,0.00,0.78,
7.155,94.06124248286704,96.66791835897291,1.25,-9.34,-0.18,0,0,0,8,0,3,3,8.44,0.00,0.10,
7.179,94.0241242482867,96.63379183589728,4.61,-6.89,-1.28,0,0,0,7,0,3,3,8.53,0.00,0.78,
7.202,93.92141242482867,96.72037918358973,5.11,-8.19,-1.24,0,0,0,6,0,3,3,8.24,0.00,0.98,
7.227,93.65914124248286,96.76503791835897,3.4,-12.74,0.92,0,0,0,6,0,2,2,7.85,0.00,0.29,
7.25,93.3269141242483,96.9675037918359,4.65,-21.13,1.62,0,0,0,6,0,2,2,7.26,0.00,0.49,
7.275,92.88869141242483,97.02375037918358,5.8,-17.59,2.32,0,0,0,5,0,1,2,6.97,0.00,0.78,
7.299,92.65586914124249,97.47937503791836,5.83,-24.39,2.33,0,0,0,4,0,1,1,6.57,0.00,0.59,
7.323,92.07458691412425,97.56993750379183,4.1,-17.4,5.69,0,0,0,4,0,1,2,6.18,0.00,0.59,
7.347,91.73745869141243,97.74999375037918,3.37,-11.15,5.61,0,0,0,4,0,1,1,6.08,0.00,0.49,
7.37,91.49674586914125,98.07399937503791,0.22,1.22,4.5,0,0,0,4,0,1,2,6.08,0.00,1.18,
7.395,91.47267458691414,98.0523999375038,-1.1,7.85,3.22,0,0,0,4,0,1,2,6.18,0.00,0.00,
7.418,91.56026745869141,98.09523999375037,-2.51,15.55,1.8,0,0,0,4,0,1,2,6.67,0.00,0.39,
7.442,91.56902674586914,98.12652399937502,-3.62,12.59,0.68,0,0,0,5,0,1,2,7.36,0.00,0.00,
7.467,91.73190267458692,98.2016523999375,-4.82,16.33,-1.08,0,0,0,5,0,2,2,7.95,0.00,0.10,
7.49,91.8561902674587,98.20016523999377,-4.92,15.15,-1.42,0,0,0,6,0,2,2,8.53,0.00,0.39,
7.515,92.18361902674587,98.23601652399937,-2.94,7.78,0.26,0,0,0,6,0,2,3,9.12,0.00,0.00,
7.538,92.17136190267459,98.28460165239994,-2.66,3.46,0.44,0,0,0,6,0,2,3,9.52,0.00,0.00,
7.563,92.41313619026745,98.32546016523999,-2.11,-0.43,1.68,0,0,0,6,0,2,3,9.71,0.00,0.00,
7.586,92.28431361902673,98.365546016524,-2.58,-1.01,1.81,0,0,0,6,0,2,3,10.01,0.00,0.00,
7.611,92.34343136190267,98.4595546016524,-0.97,-9.03,3.48,0,0,0,7,0,3,3,11.18,0.00,0.69,
7.634,92.16034313619026,98.47795546016525,-0.11,-10.41,3.11,0,0,0,7,0,3,3,11.87,0.00,0.00,
7.659,92.00703431361902,98.54279554601652,0.47,-10.1,2.29,1,0,0,8,0,3,4,12.65,0.00,0.00,
7.683,91.8027034313619,98.66627955460166,-0.41,-5.96,2.65,1,0,0,8,0,3,4,13.54,0.00,0.00,
7.707,91.89927034313618,98.67862795546017,-1.21,-3.22,2.6,1,0,0,8,0,4,4,14.42,0.00,0.00,
7.731,91.8279270343136,98.74286279554602,-0.38,-12.42,3.23,1,0,0,8,1,4,4,15.70,0.49,0.00,
7.755,91.60479270343136,98.7582862795546,-1.95,-6.23,2.07,1,0,0,9,1,4,5,16.68,1.28,0.00,
7.78,91.38447927034314,98.75082862795546,-4.38,3.13,-1.21,1,0,0,9,1,4,5,17.95,1.86,0.29,
7.803,91.35344792703431,98.75008286279555,-5.22,4.32,-1.05,1,0,0,9,1,5,5,18.64,2.16,0.00,
7.828,91.23334479270343,98.75900828627955,-4.91,3.7,0.32,1,0,0,9,1,5,5,19.23,2.26,0.00,
7.852,91.32033447927034,98.72390082862795,-3.76,1.9,1.66,1,0,0,9,1,5,6,19.82,2.55,0.00,
7.876,91.31103344792703,98.7473900828628,-2.67,2.99,2.31,1,0,0,10,1,5,6,20.40,3.04,0.00,
7.9,91.2201033447927,98.74973900828627,-2.2,6.03,1.49,1,0,0,10,1,5,6,20.60,3.43,0.00,
7.924,91.40901033447928,98.78597390082862,-2.37,8.93,0.47,1,0,0,10,1,5,6,20.70,3.83,0.39,
7.948,91.51790103344794,98.79859739008286,-2.34,4.76,0.89,1,0,0,10,1,5,6,20.99,4.22,0.39,
7.972,91.56479010334479,98.79085973900828,-2.27,3.11,1.24,1,0,0,10,1,5,6,21.09,4.32,0.29,
7.997,91.61447901033449,98.80808597390083,-2.83,4.29,0.87,1,0,0,10,1,5,6,21.29,4.71,0.20,
8.02,91.70044790103344,98.77380859739009,-3.82,7.28,0.82,1,0,0,10,1,5,6,21.39,4.91,0.39,
8.045,91.84404479010335,98.78838085973901,-3.86,4.77,1.16,1,0,0,10,1,5,6,21.68,5.20,0.49,
8.069,91.91240447901035,98.8168380859739,-2.96,0.62,1.05,1,0,0,10,1,5,6,21.97,5.40,0.39,
8.093,91.91924044790105,98.82868380859739,-3.12,0.87,0.59,1,0,0,10,1,5,6,22.27,5.49,0.49,
8.117,91.9649240447901,98.83886838085974,-2.64,-1.37,0.36,1,0,0,11,1,5,7,22.56,5.59,0.49,
8.141,91.95149240447901,98.86688683808597,-2.65,-0.76,0.38,1,0,0,11,1,5,7,22.96,5.59,0.39,
8.166,91.80614924044791,98.9326886838086,-2.4,-2.14,0.26,1,0,0,11,1,5,7,23.15,5.69,0.49,
8.189,91.7736149240448,98.97526886838087,-2.37,-6.63,0.66,1,0,0,11,1,5,7,23.45,5.69,0.88,
8.214,91.69836149240447,98.97052688683809,-2.09,-7.1,0.48,1,0,0,11,1,6,7,23.74,5.79,0.69,
8.239,91.58283614924045,98.98805268868381,-2.14,-6.82,-0.11,1,0,0,11,1,6,7,24.23,5.79,0.49,
8.262,91.47228361492404,98.98080526886838,-2.26,-4.99,-0.05,1,0,0,11,1,6,7,24.52,5.59,0.39,
8.287,91.2812283614924,98.98908052688682,-2.42,-4.56,0.15,1,0,0,11,1,6,7,25.21,5.69,0.49,
8.311,91.16312283614926,98.98090805268869,-2.65,-2.67,-0.38,1,0,0,12,1,6,7,25.60,5.59,0.00,
8.335,91.13331228361491,99.00709080526887,-3.04,-0.68,0.02,1,0,0,12,1,6,7,25.80,5.40,0.10,
8.359,91.0943312283615,99.00970908052689,-3.35,0.93,-0.34,1,0,0,12,1,6,7,25.70,5.20,0.00,
8.384,91.06343312283616,99.01897090805268,-3.77,3.08,-0.47,2,0,0,12,1,6,7,25.60,5.10,0.10,
8.408,91.00634331228362,99.01089709080527,-3.4,3.53,-0.24,2,0,0,12,1,6,7,25.60,4.81,0.10,
8.432,91.04563433122836,99.01908970908052,-3.78,6.05,-0.47,2,0,0,12,1,6,7,25.11,4.51,0.20,
8.457,91.13056343312283,99.04690897090805,-4.41,8.79,-0.51,2,0,0,12,1,6,7,24.72,4.22,0.39,
8.48,91.22905634331228,99.0946908970908,-4.76,10.74,-0.66,2,0,0,12,1,6,7,24.23,3.92,0.39,
8.505,91.31090563433122,99.04546908970909,-4.58,9.26,-0.22,2,0,0,12,1,6,7,23.74,3.63,0.59,
8.529,91.40909056343312,99.0225469089709,-4.79,11.45,-0.22,2,0,0,12,1,6,7,23.25,3.34,0.59,
8.553,91.57190905634332,98.9842546908971,-5.31,14.21,-0.56,2,0,0,12,1,6,7,22.66,3.04,0.39,
8.578,91.77719090563434,98.89942546908972,-5.58,16.57,-0.37,2,0,0,11,1,6,6,21.78,2.26,0.39,
8.602,92.02271909056343,98.84594254690897,-4.98,10.92,0.01,1,0,0,11,1,5,6,20.01,1.67,0.10,
8.626,92.44327190905634,98.8495942546909,-4.2,10.01,0.69,1,0,0,11,1,5,5,18.84,0.98,0.20,
8.65,92.67432719090564,98.8319594254691,-3.51,10.51,0.76,1,0,0,10,1,5,5,17.76,0.39,0.39,
8.675,92.90443271909058,98.85719594254691,-3.4,8.08,0.9,1,0,0,10,1,4,5,16.87,0.00,0.78,
8.698,93.10744327190905,98.88671959425469,-3.3,7.18,0.88,1,0,0,10,1,4,5,16.09,0.00,1.18,
8.723,93.24474432719092,98.91667195942547,-3.34,5.91,0.73,1,0,0,10,1,4,4,15.40,0.00,0.69,
8.747,93.41147443271909,98.93766719594255,-3.15,5.72,0.95,1,0,0,9,1,4,4,14.91,0.00,0.59,
8.771,93.59914744327192,98.93976671959426,-3.41,4.8,0.94,1,0,0,9,1,4,4,14.32,0.00,0.88,
8.795,93.76191474432719,98.91297667195943,-3.5,5.09,0.73,1,0,0,9,0,4,4,13.93,0.00,0.49,
8.819,93.91319147443272,98.83829766719595,-3.46,5.34,0.95,1,0,0,9,0,3,4,13.64,0.00,0.20,
8.843,94.01831914744328,98.7768297667196,-3.5,5.44,1.01,1,0,0,9,0,3,4,13.44,0.00,0.39,
8.866,94.14583191474432,98.76168297667196,-3.46,4.1,1.01,1,0,0,9,0,3,4,13.15,0.00,0.69,
8.891,94.26658319147444,98.72416829766719,-3.29,3.53,1.23,1,0,0,9,0,3,4,13.24,0.00,0.39,
8.914,94.35065831914744,98.72041682976672,-3.22,3.58,1.0,1,0,0,9,0,3,4,13.24,0.00,0.20,
8.939,94.44906583191474,98.75604168297667,-3.51,3.68,0.96,1,0,0,9,0,3,4,13.15,0.00,0.10,
8.963,94.53990658319147,98.75060416829767,-3.81,3.54,0.85,1,0,0,9,0,3,4,13.24,0.00,0.49,
8.987,94.62999065831914,98.76806041682977,-3.47,2.71,0.71,1,0,0,9,0,4,4,13.34,0.00,0.39,
9.011,94.71999906583191,98.76980604168298,-3.54,2.05,0.84,1,0,0,10,0,4,4,13.64,0.00,0.49,
9.035,94.79199990658319,98.7789806041683,-3.53,0.44,1.11,1,0,0,10,0,4,4,13.83,0.00,0.29,
9.059,94.79919999065831,98.71689806041682,-3.56,0.24,0.88,1,0,0,10,1,4,4,14.22,0.00,0.00,
9.083,94.77291999906582,98.69268980604167,-3.53,0.0,1.11,1,0,0,10,1,4,4,14.72,0.00,0.20,
9.107,94.80629199990659,98.69026898060416,-3.5,0.27,0.94,1,0,0,10,1,4,4,15.21,0.00,0.29,
9.132,94.85462919999065,98.73502689806041,-3.38,0.59,0.88,2,0,0,10,1,4,4,15.60,0.00,0.39,
9.155,94.88646291999906,98.71250268980603,-3.53,-0.07,1.03,2,0,0,10,1,4,4,15.89,0.00,0.39,
9.18,94.9346462919999,98.6922502689806,-3.24,-0.72,0.92,2,0,0,10,1,4,4,16.19,0.00,0.39,
9.204,94.93946462919999,98.69022502689805,-3.28,-0.95,1.15,2,0,0,10,1,4,4,16.28,0.00,0.49,
9.228,94.87694646292,98.6990225026898,-3.23,-1.14,1.26,2,0,0,11,1,4,5,16.58,0.00,0.29,
9.252,94.879694646292,98.71790225026898,-3.27,-2.36,1.18,2,0,0,11,1,5,5,16.78,0.00,0.39,
9.276,94.81696946462921,98.6927902250269,-3.04,-1.3,1.15,2,0,0,11,1,5,5,17.17,0.00,0.69,
9.3,94.79269694646293,98.69927902250268,-3.21,-0.58,1.11,2,0,0,11,1,5,5,17.36,0.00,0.78,
9.325,94.7812696946463,98.70892790225027,-3.27,-1.44,0.98,2,0,0,11,1,5,5,17.56,0.00,0.39,
9.349,94.75312696946463,98.67389279022503,-2.97,-1.9,1.34,2,0,0,11,1,5,5,17.76,0.00,0.29,
9.373,94.74131269694645,98.6883892790225,-3.11,-1.48,0.95,2,0,0,11,1,5,5,17.85,0.00,0.00,
9.398,94.64113126969464,98.65383892790226,-3.13,-0.3,1.2,2,0,0,11,1,5,5,18.05,0.00,0.00,
9.421,94.60411312696947,98.64138389279022,-3.08,0.55,0.8,2,0,0,11,1,5,5,17.95,0.00,0.00,
9.446,94.56441131269695,98.65813838927902,-3.25,0.49,1.03,2,0,0,11,1,5,5,18.05,0.00,0.29,
9.469,94.5244411312697,98.6598138389279,-3.02,0.16,0.99,2,0,0,11,1,5,5,18.25,0.10,0.39,
9.494,94.53844411312699,98.65998138389278,-3.35,-0.07,1.05,2,0,0,11,1,5,5,18.15,0.10,0.20,
9.519,94.5488444113127,98.68699813838927,-3.24,-0.68,0.75,2,0,0,11,1,5,5,18.15,0.29,0.20,
9.542,94.45988444113128,98.72569981383893,-2.85,0.25,0.76,2,0,0,11,1,5,5,18.25,0.29,0.20,
9.567,94.45998844411312,98.75656998138389,-2.73,0.37,0.44,2,0,0,11,1,5,5,18.54,0.59,0.39,
9.59,94.42399884441132,98.79565699813838,-2.58,0.66,0.49,2,0,0,11,1,5,5,18.74,0.59,0.39,
9.615,94.30339988444113,98.79956569981384,-2.9,2.12,0.57,2,0,0,11,1,5,5,18.74,0.49,0.49,
9.638,94.30033998844411,98.79095656998138,-3.5,3.63,0.78,2,0,0,11,1,5,5,18.64,0.39,0.39,
9.663,94.30003399884441,98.80809565699813,-3.42,4.18,1.24,2,0,0,11,1,5,5,18.44,0.29,0.49,
9.687,94.35400339988445,98.79180956569981,-3.05,6.21,1.06,2,0,0,11,1,5,5,18.25,0.29,0.39,
9.711,94.38640033998846,98.86218095656999,-2.66,6.5,1.02,2,0,0,11,1,5,5,17.66,0.20,0.69,
9.735,94.52464003399885,98.815218095657,-2.32,7.66,0.99,2,0,0,10,1,4,4,16.87,0.00,0.78,
9.759,94.76346400339989,98.8555218095657,-2.08,5.58,0.97,1,0,0,10,1,4,4,16.09,0.00,1.18,
9.784,94.92234640033999,98.85955218095657,-1.97,3.87,1.13,1,0,0,10,1,4,4,14.52,0.00,0.88,
9.807,95.082234640034,98.86895521809566,-2.31,3.76,1.37,1,0,0,10,1,4,4,13.93,0.00,0.98,
9.832,95.1342234640034,98.91489552180957,-2.63,4.35,1.38,1,0,0,9,1,3,3,13.44,0.00,0.88,
9.856,95.19342234640034,98.91948955218096,-2.92,4.75,1.37,1,0,0,9,1,3,3,13.05,0.00,1.18,
9.88,95.24434223464004,98.8929489552181,-2.69,3.27,1.08,1,0,0,9,1,3,3,12.65,0.00,1.08,
9.904,95.348434223464,98.93529489552182,-2.51,2.39,0.95,1,0,0,9,1,3,3,12.36,0.00,0.69,
9.928,95.3768434223464,98.95752948955217,-2.78,2.17,1.23,1,0,0,9,0,3,3,12.07,0.00,0.49,
9.952,95.40668434223464,98.99575294895523,-2.69,2.31,1.05,1,0,0,9,0,3,3,11.67,0.00,0.69,
9.975,95.41866843422346,99.05357529489552,-2.73,2.69,0.88,1,0,0,9,0,3,3,11.48,0.00,0.29,
10.0,95.42886684342236,98.99635752948954,-2.72,2.18,0.94,1,0,0,9,0,2,3,11.28,0.00,0.59,
10.023,95.48388668434224,99.01763575294895,-2.81,1.64,0.95,1,0,0,9,0,2,3,11.09,0.00,0.29,
10.048,95.51638866843422,99.0107635752949,-3.0,0.65,0.89,1,0,0,9,0,2,2,10.89,0.00,0.88,
10.073,95.58263886684342,99.0100763575295,-2.94,0.23,0.73,1,0,0,8,0,2,2,10.69,0.00,0.59,
10.096,95.60726388668435,99.05500763575296,-2.96,0.49,0.6,1,0,0,8,0,2,2,10.50,0.00,0.88,
10.121,95.56472638866843,99.0595007635753,-2.95,0.83,0.73,1,0,0,8,0,2,2,10.20,0.00,1.18,
10.144,95.56047263886684,99.08695007635754,-3.1,0.12,0.68,1,0,0,8,0,2,2,10.20,0.00,0.69,
10.169,95.55104726388669,99.08069500763575,-3.07,0.05,0.76,1,0,0,8,0,2,2,10.10,0.00,0.69,
10.192,95.55010472638867,99.09806950076357,-3.47,0.21,0.85,1,0,0,8,0,2,2,10.01,0.00,0.59,
10.217,95.54101047263887,99.11780695007637,-3.05,0.14,0.74,1,0,0,8,0,2,2,10.01,0.00,0.39,
10.241,95.53110104726389,99.10178069500763,-2.94,-0.25,0.6,1,0,0,8,0,2,2,10.01,0.00,0.49,
10.265,95.53911010472639,99.13617806950076,-3.02,0.23,0.47,1,0,0,8,0,2,2,9.91,0.00,0.49,
10.29,95.58491101047264,99.15761780695007,-2.99,0.53,0.6,1,0,0,8,0,2,2,9.71,0.00,0.78,
10.313,95.54449110104727,99.159761780695,-2.89,0.85,0.69,1,0,0,8,0,2,2,9.71,0.00,0.78,
10.337,95.55844911010473,99.1689761780695,-3.15,1.05,0.59,1,0,0,8,0,2,2,9.52,0.00,0.69,
10.361,95.53284491101047,99.17889761780697,-3.36,0.98,0.83,1,0,0,8,0,2,2,9.61,0.00,0.49,
10.385,95.52128449110106,99.1348897617807,-3.15,0.94,1.05,1,0,0,8,0,2,2,9.52,0.00,0.39,
10.409,95.4571284491101,99.08548897617807,-3.18,1.29,0.96,1,0,0,8,0,2,2,9.52,0.00,0.59,
10.433,95.45071284491101,99.14354889761782,-2.92,2.31,0.83,1,0,0,8,0,2,2,9.61,0.00,0.49,
10.458,95.43207128449112,99.1223548897618,-3.22,3.59,0.71,1,0,0,8,0,2,2,9.42,0.00,0.69,
10.481,95.46620712844911,99.12023548897619,-3.14,3.55,0.89,1,0,0,8,0,2,2,9.42,0.00,0.59,
10.506,95.55062071284492,99.18302354889762,-2.84,2.81,0.92,1,0,0,8,0,2,2,9.52,0.00,0.49,
10.529,95.6670620712845,99.18030235488978,-2.83,1.95,0.68,1,0,0,8,0,2,2,9.32,0.00,0.59,
10.554,95.69670620712846,99.20703023548897,-3.01,0.97,0.88,1,0,0,8,0,2,2,9.32,0.00,0.69,
10.577,95.71767062071284,99.1737030235489,-3.05,-0.04,1.08,1,0,0,8,0,2,2,9.22,0.00,0.59,
10.602,95.71076706207128,99.16137030235488,-3.09,-0.39,1.22,1,0,0,8,0,2,2,9.22,0.00,0.10,
10.626,95.69207670620712,99.08813703023549,-3.18,-0.55,1.38,1,0,0,8,0,2,2,9.22,0.00,0.10,
10.65,95.72620767062072,99.04481370302355,-3.04,0.03,1.37,0,0,0,8,0,2,2,9.03,0.00,0.29,
10.674,95.79262076706206,99.09448137030235,-3.46,-0.67,0.92,0,0,0,8,0,2,2,9.03,0.00,0.10,
10.698,95.7722620767062,99.08144813703024,-3.16,-0.18,0.99,0,0,0,8,0,2,2,9.03,0.00,0.29,
10.722,95.72522620767062,99.06214481370303,-3.34,0.05,1.12,0,0,0,8,0,2,2,9.12,0.00,0.10,
10.746,95.70252262076707,99.0512144813703,-3.4,0.76,1.08,1,0,0,8,0,2,2,9.12,0.00,0.10,
10.77,95.6102522620767,99.06812144813702,-3.31,0.5,1.1,1,0,0,8,0,2,2,9.22,0.00,0.49,
10.795,95.58302522620767,99.08781214481371,-2.95,1.19,1.19,1,0,0,8,0,2,2,9.42,0.00,0.49,
10.818,95.61630252262077,99.11678121448138,-3.47,2.55,1.02,1,0,0,8,0,2,2,9.42,0.00,0.39,
10.843,95.67363025226209,99.10167812144813,-3.53,2.54,1.2,1,0,0,8,0,2,3,9.61,0.00,0.29,
10.866,95.68836302522621,99.1361678121448,-3.8,1.48,1.1,1,0,0,8,0,2,3,9.91,0.00,0.20,
10.89,95.63583630252262,99.13061678121448,-3.73,0.43,1.01,1,0,0,8,0,2,3,10.01,0.00,0.29,
10.914,95.62158363025227,99.13006167812145,-3.68,0.22,1.41,1,0,0,9,0,2,3,10.40,0.00,0.49,
10.939,95.67415836302524,99.10300616781214,-3.69,1.54,1.48,1,0,0,9,0,3,3,10.79,0.00,0.39,
10.962,95.66141583630252,99.10030061678121,-3.7,0.62,1.4,1,0,0,9,0,3,3,11.09,0.00,0.00,
10.987,95.66014158363025,99.13603006167811,-3.72,0.42,1.38,1,0,0,9,0,3,3,11.48,0.00,0.00,
11.011,95.69601415836303,99.14860300616782,-3.98,-0.44,1.21,1,0,0,9,0,3,3,11.97,0.00,0.10,
11.035,95.69960141583631,99.10486030061678,-4.26,-0.26,1.13,1,0,0,9,0,3,3,12.46,0.00,0.78,
11.059,95.64596014158363,99.08248603006167,-3.89,-0.48,1.17,1,0,0,9,0,3,3,13.05,0.00,0.59,
11.083,95.60459601415835,99.04424860300617,-3.76,-0.75,1.12,1,0,0,9,0,3,3,13.64,0.00,0.00,
11.108,95.45645960141583,99.04042486030062,-3.67,-0.1,1.19,1,0,0,10,0,4,4,14.03,0.00,0.00,
11.131,95.39664596014158,99.02204248603006,-3.8,-0.02,0.98,1,0,0,10,1,4,4,14.42,0.00,0.00,
11.156,95.30066459601417,99.01120424860301,-4.09,1.6,1.51,1,0,0,10,1,4,4,14.81,0.00,0.20,
11.181,95.34506645960141,98.9471204248603,-2.76,2.07,3.24,1,0,0,10,1,4,4,15.30,0.20,0.10,
11.204,95.39450664596015,98.88671204248604,-1.52,3.43,3.35,1,0,0,10,1,3,4,15.50,1.18,0.29,
11.229,95.56145066459602,98.91667120424862,-2.0,2.72,2.02,1,0,0,10,1,3,4,15.11,2.26,0.20,
11.253,95.64114506645961,98.93766712042486,-3.16,2.98,1.7,1,0,0,10,1,3,4,15.21,3.14,0.39,
11.277,95.68511450664596,98.92176671204248,-4.83,1.86,2.69,1,0,0,10,1,4,4,15.70,4.02,0.20,
11.301,95.7525114506646,98.89317667120426,-5.4,-1.56,4.73,1,0,0,10,1,5,4,16.68,4.91,0.10,
11.326,95.84025114506646,98.85431766712043,-3.99,-9.98,3.17,1,0,0,11,2,5,5,17.95,5.59,0.00,
11.35,95.64202511450665,98.87743176671205,-3.83,-11.86,2.3,1,0,0,11,2,6,5,18.34,5.49,0.00,
11.374,95.33420251145066,98.92474317667121,-4.15,-8.73,1.3,1,0,0,11,2,6,6,18.54,5.10,0.39,
11.399,95.21342025114507,98.89347431766713,-3.45,-8.48,0.47,1,0,0,11,2,6,6,18.84,4.41,0.69,
11.423,94.9673420251145,98.79134743176671,-3.18,-4.76,0.18,1,0,0,11,2,6,6,18.84,3.53,0.39,
11.447,94.78073420251145,98.77213474317666,-3.11,-0.42,-0.51,1,0,0,11,1,6,6,18.54,2.65,0.59,
11.471,94.69907342025115,98.76121347431766,-3.26,2.18,-0.56,1,0,0,11,1,6,6,18.05,1.96,0.78,
11.496,94.63690734202511,98.76912134743176,-3.66,4.88,-0.11,1,0,0,11,1,5,5,17.66,1.47,0.39,
11.52,94.8646907342025,98.76091213474318,-3.89,3.33,0.34,1,0,0,11,1,5,5,17.17,0.78,0.00,
11.544,94.86046907342025,98.74209121347431,-3.16,-2.04,1.65,1,0,0,11,1,5,5,16.87,0.49,0.00,
11.569,94.74304690734203,98.74920912134743,-2.67,-3.91,1.44,0,0,0,11,1,5,5,16.97,0.39,0.20,
11.592,94.56030469073421,98.74992091213474,-2.9,-2.85,1.74,0,0,0,11,1,5,5,16.68,0.10,0.20,
11.617,94.56903046907343,98.82199209121347,-3.47,2.65,1.76,0,0,0,11,1,5,5,15.89,0.00,0.00,
11.641,94.49790304690734,98.82019920912134,-3.59,1.75,1.73,0,0,0,11,1,5,5,15.40,0.20,0.00,
11.665,94.51779030469073,98.83801992091213,-4.24,4.79,2.11,0,0,0,11,1,5,5,15.60,0.69,0.10,
11.689,94.46577903046906,98.7408019920912,-6.5,13.57,3.25,0,0,0,11,1,5,5,15.70,1.57,0.39,
11.714,94.7665779030469,98.69508019920912,-6.65,18.18,2.79,1,0,0,12,2,5,5,16.19,2.55,0.59,
11.739,95.02165779030469,98.67250801992091,-6.1,16.02,1.66,1,0,0,12,2,5,6,16.78,3.73,0.69,
11.762,95.22716577903047,98.5982508019921,-6.38,15.02,1.89,1,0,0,0,2,5,6,17.46,4.81,0.59,
11.787,95.41871657790304,98.60882508019921,-7.48,17.31,2.04,1,0,0,0,2,5,6,18.15,5.89,0.39,
11.811,95.77087165779031,98.51088250801993,-6.96,12.33,2.18,2,0,0,0,2,6,6,18.05,6.47,0.20,
11.835,96.02208716577903,98.420088250802,-7.08,7.64,1.93,2,0,0,0,2,6,6,17.76,6.77,0.39,
11.859,96.34420871657791,98.3390088250802,-5.44,1.52,-0.48,2,0,0,0,2,6,6,17.46,6.38,0.39,
11.883,96.72742087165778,98.21390088250803,-0.78,-14.24,-3.54,1,0,0,12,2,5,6,17.17,5.69,0.49,
11.908,97.35974208716578,98.13839008825079,7.52,-42.57,-0.86,0,0,0,10,2,5,5,15.89,4.22,0.20,
11.932,98.07097420871659,98.80583900882507,23.25,-125.78,-1.16,0,0,0,7,1,3,4,12.26,2.35,0.29,
11.957,99.22209742087165,101.27558390088251,-25.55,-250.13,18.57,0,0,0,4,0,2,3,9.03,0.00,0.00,
11.98,99.78720974208716,102.35055839008825,-190.99,132.71,6.2,0,0,0,2,0,1,2,5.69,0.00,0.00,
12.005,99.97872097420871,102.02605583900882,-95.56,69.1,95.98,0,0,0,1,0,1,0,2.16,0.00,3.04,
12.028,103.00387209742087,103.03760558390088,-12.05,116.6,96.09,0,0,0,1,0,1,0,2.45,0.00,10.59,
12.053,102.32538720974209,106.27976055839008,5.09,-55.02,25.01,0,0,0,1,0,1,0,0.98,0.00,5.89,
12.077,101.44753872097421,112.075976055839,23.37,-128.41,-12.11,0,0,0,0,0,1,0,0.78,0.00,4.61,
12.101,99.73075387209744,118.0105976055839,10.92,-67.15,-11.24,0,0,0,0,0,1,0,0.78,0.00,2.06,
12.125,95.93207538720975,122.2580597605584,28.21,-44.63,6.67,0,0,0,0,0,1,0,0.98,0.00,8.93,
12.149,92.62720753872098,127.00280597605584,55.16,67.3,5.55,0,0,0,0,0,1,0,0.69,0.00,5.59,
12.173,90.15472075387208,128.58428059760558,69.68,32.36,3.31,0,0,0,0,0,1,0,0.49,0.00,1.67,
12.196,88.99847207538721,129.57042805976056,76.53,46.01,-5.15,0,0,0,0,0,1,0,0.49,0.00,0.29,
12.22,90.70984720753873,129.91204280597606,76.17,30.06,-25.44,0,0,0,0,0,1,0,0.49,0.00,2.45,
12.244,89.26098472075387,128.8482042805976,79.09,31.63,-42.51,0,0,0,0,0,1,0,0.39,0.00,1.57,
12.268,88.33309847207539,127.37382042805974,88.03,49.59,-47.93,0,0,0,0,0,1,0,0.39,0.00,0.39,
12.292,87.90730984720753,126.01138204280598,87.41,38.87,-55.43,0,0,0,0,0,1,0,0.29,0.00,0.49,
12.315,87.08173098472075,123.76913820428058,80.89,18.05,-50.58,0,0,0,0,0,1,0,0.39,0.00,0.10,
12.34,87.00817309847207,121.11491382042806,93.43,40.26,-50.7,0,0,0,0,0,1,0,0.29,0.00,0.69,
12.363,89.4398173098472,118.9684913820428,78.89,46.89,-45.44,0,0,0,0,0,1,0,0.20,0.00,0.39,
12.387,90.93398173098471,116.70184913820428,67.22,4.89,-30.89,0,0,0,0,0,1,0,0.20,0.00,0.39,
12.411,91.01139817309846,114.04518491382042,70.97,-1.41,-28.43,0,0,0,0,0,1,0,0.20,0.00,0.49,
12.435,89.69613981730984,110.85451849138204,55.81,33.89,-45.89,0,0,0,0,0,1,0,0.20,0.00,0.10,
12.459,88.58361398173098,106.7644518491382,34.5,9.41,-66.44,0,0,0,0,0,1,0,0.39,0.00,0.98,
12.483,88.60736139817308,101.85544518491382,15.49,-30.05,-66.31,0,0,0,0,0,1,0,0.39,0.00,0.00,
12.507,94.53173613981731,101.30154451849138,28.47,-15.54,-20.55,0,0,0,0,0,1,0,0.29,0.00,0.59,
12.53,91.86617361398173,93.65015445184913,-147.0,42.3,3.5,0,0,0,0,0,1,0,0.39,0.00,1.67,
12.555,87.13561736139818,93.91101544518492,-177.12,-55.78,-89.21,0,0,0,0,0,1,0,0.39,0.00,8.14,
12.578,90.14556173613983,92.8481015445185,-221.86,-23.04,39.98,0,0,0,0,0,1,0,0.49,0.00,14.91,
12.603,89.64555617361398,90.79781015445184,-196.71,122.16,120.98,0,0,0,0,0,1,0,0.39,0.00,0.00,
12.626,89.9555556173614,86.49778101544517,-34.89,250.14,72.37,0,0,0,1,0,1,0,1.77,0.00,0.00,
12.65,95.41355556173613,88.20077810154451,-48.46,-184.43,-14.15,0,0,0,2,0,1,0,6.87,6.97,5.79,
12.675,92.35035555617362,88.96507781015444,-47.12,-41.56,-55.53,0,0,0,4,0,1,0,10.01,8.93,5.20,
12.699,92.39503555561737,90.20250778101546,-22.11,14.51,-3.4,0,0,0,6,0,1,0,11.48,11.09,0.00,
12.723,94.55950355556173,91.73925077810154,-8.61,45.25,14.66,0,0,0,7,0,0,0,12.75,12.56,1.28,
12.747,94.87495035555617,92.72992507781017,-13.16,-6.14,3.33,1,0,0,8,0,1,1,13.73,13.73,3.92,
12.772,94.95149503555561,93.56699250778101,-14.79,4.75,5.61,1,0,0,9,0,2,1,14.81,13.83,0.00,
12.796,95.15714950355556,94.04669925077809,-17.04,12.37,5.43,2,0,0,11,0,4,2,16.38,13.93,0.00,
12.821,95.44771495035556,94.28366992507782,-16.02,1.91,4.28,2,0,0,3,0,6,2,18.93,14.03,0.00,
12.845,95.50377149503555,94.65836699250778,-8.87,3.37,9.56,3,0,0,7,0,7,3,24.92,14.81,0.00,
12.869,95.72537714950354,94.97483669925077,-4.67,3.99,7.22,3,0,0,11,0,7,3,29.72,16.58,0.00,
12.894,96.00853771495036,95.31248366992507,-3.4,-1.76,2.87,3,0,0,14,0,8,3,34.34,19.03,0.00,
12.918,96.00985377149505,95.4902483669925,-5.3,-11.52,0.83,3,0,0,16,0,8,4,36.98,20.50,0.00,
12.943,95.7399853771495,95.68802483669924,-1.91,-8.6,-0.89,3,0,0,18,0,8,4,39.73,19.82,0.00,
12.967,95.64999853771495,95.96880248366993,2.04,-3.47,-0.89,3,0,0,20,0,8,4,43.65,18.34,0.00,
12.992,95.4609998537715,96.21288024836699,1.79,5.09,0.21,3,0,0,21,1,9,4,46.11,17.66,0.00,
13.017,95.36109998537714,96.3182880248367,0.44,10.93,0.82,3,0,0,23,1,9,5,48.95,17.95,0.20,
13.04,95.47710999853771,96.65282880248367,-4.78,2.53,1.48,3,0,0,25,1,10,5,52.68,18.74,0.20,
13.065,95.45271099985376,96.76728288024837,-6.39,1.05,-0.13,4,1,0,26,1,10,5,56.31,19.42,0.20,
13.089,95.40527109998538,97.38172828802483,-3.6,3.37,-0.12,4,1,0,28,1,11,5,59.64,19.42,0.20,
13.114,96.61552710999854,105.86717282880248,250.13,-250.13,-250.14,4,1,0,30,1,11,6,62.98,19.13,0.29,
13.139,103.85555271099986,114.45571728288024,218.2,126.69,-145.02,4,1,0,30,1,11,6,64.65,18.93,0.39,
13.165,94.2475552711,100.74357172828802,47.92,218.26,-39.29,4,1,0,30,1,11,6,64.55,18.64,0.88,
13.19,101.42275552711,100.66835717282879,-0.02,5.03,-24.72,5,0,0,30,1,11,6,64.45,18.84,2.45,
13.214,97.39727555271101,99.61683571728287,-1.09,-34.68,-16.54,5,0,0,31,1,12,6,66.12,19.33,1.57,
13.239,98.37172755527111,99.25968357172829,12.13,40.96,-3.63,5,0,0,31,2,12,6,71.02,20.21,0.00,
13.263,97.5781727555271,98.89096835717282,-3.11,-66.44,-16.11,5,0,0,32,2,1,6,74.56,23.64,9.52,
13.288,97.7508172755527,98.77309683571728,7.0,10.88,-10.25,4,0,0,32,2,3,6,78.77,23.64,10.20,
13.314,97.31808172755527,98.77030968357172,2.93,-27.63,-13.98,3,0,0,32,3,5,7,83.88,24.72,0.00,
13.338,97.34680817275552,99.50803096835718,8.57,-61.85,17.66,2,0,0,30,4,8,10,87.21,26.98,0.00,
13.363,96.74668081727556,100.08580309683572,3.97,-54.14,5.65,0,0,0,26,5,10,7,80.64,31.29,0.00,
13.387,97.27166808172754,100.40458030968357,-29.82,-36.51,-15.06,0,0,0,23,6,13,7,78.97,32.86,0.00,
13.412,94.31816680817275,100.15745803096836,-26.77,-72.6,-17.24,0,0,0,20,6,14,8,80.74,32.08,0.00,
13.436,92.37581668081728,99.89874580309684,-33.13,-42.22,-18.61,0,0,0,15,7,16,4,82.99,31.00,0.00,
13.461,91.37158166808173,99.53087458030967,-37.94,-34.19,-16.72,0,0,0,10,8,18,8,84.56,30.31,0.20,
13.487,90.05615816680816,99.12508745803096,-44.1,-33.85,-11.66,0,0,0,3,8,20,7,83.58,30.21,0.00,
13.511,88.46661581668083,98.4005087458031,-50.38,-33.27,-14.24,0,0,0,10,9,23,8,80.44,30.71,0.00,
13.536,87.38966158166807,97.56305087458031,-60.44,-24.76,-11.56,0,0,0,9,10,24,10,76.22,30.80,0.00,
13.56,87.21896615816681,96.74130508745804,-70.82,-39.62,-14.73,0,0,0,7,10,26,9,72.79,29.04,0.00,
13.585,86.38289661581668,95.37213050874581,-83.1,-33.31,-17.4,0,0,0,6,10,27,8,69.65,26.29,0.00,
13.609,86.27228966158167,95.82921305087459,-116.65,-49.81,-16.34,0,0,0,5,10,27,11,63.86,22.96,0.39,
13.634,84.09222896615817,94.53392130508746,-136.31,-71.89,-26.69,0,0,0,4,9,26,1,60.04,17.76,0.20,
13.659,82.27222289661582,93.37839213050874,-167.99,-54.76,-27.85,0,0,0,3,9,23,10,55.72,15.21,1.96,
13.684,81.80222228966159,91.48983921305087,-209.37,-29.23,-24.73,0,0,0,3,7,20,7,46.70,13.34,5.10,
13.709,80.59422222896616,89.2849839213051,-240.11,39.85,-45.11,0,0,0,4,5,18,9,30.80,11.97,6.18,
13.733,80.68042222289661,86.8234983921305,-250.14,86.38,-48.26,0,0,0,4,2,10,11,18.15,9.42,4.61,
13.758,81.68804222228967,84.42634983921305,-250.07,94.6,-37.95,0,0,0,2,0,0,8,12.75,5.59,2.84,
13.782,87.52180422222898,79.38063498392131,-215.19,63.66,31.94,0,0,0,1,0,8,5,6.57,1.96,3.43,
13.806,94.11718042222289,77.39106349839213,-176.82,-27.76,53.68,0,0,0,1,0,1,1,2.45,0.00,5.98,
13.83,103.00271804222228,85.7151063498392,5.9,71.21,156.66,0,0,0,0,0,1,1,0.39,0.00,3.14,
13.854,98.11327180422222,87.91551063498392,79.11,169.73,163.92,0,0,0,0,0,1,1,0.00,0.00,5.00,
13.878,89.85732718042223,91.48355106349838,160.62,122.66,114.92,0,0,0,0,0,1,1,0.00,0.00,4.41,
13.901,86.67373271804223,96.33135510634985,205.06,250.14,70.96,0,0,0,0,0,1,1,0.00,0.00,3.73,
13.926,84.39337327180422,102.70213551063499,164.08,12.97,16.31,0,0,0,0,0,1,1,0.00,0.00,0.00,
13.949,81.15033732718044,107.03821355106349,151.28,-42.28,2.63,0,0,0,0,0,1,1,0.00,0.00,0.00,
13.973,79.02603373271805,107.60682135510635,160.54,4.88,10.7,0,0,0,0,0,1,1,0.00,0.00,2.16,
13.997,79.38960337327181,105.71068213551064,167.18,46.76,8.79,0,0,0,0,0,1,1,0.00,0.00,2.45,
14.021,78.90396033732718,103.36106821355105,186.55,91.98,-2.89,0,0,0,0,0,1,1,0.00,0.00,1.96,
14.045,80.8353960337327,100.2821068213551,182.61,83.93,-25.32,0,0,0,0,0,1,1,0.00,0.00,1.18,
14.068,81.61353960337327,96.5182106821355,170.3,-2.84,-38.4,0,0,0,0,0,1,1,0.00,0.00,0.00,
14.093,83.09535396033733,93.40582106821356,147.51,-8.56,-37.74,0,0,0,0,0,1,1,0.00,0.00,0.00,
14.116,82.79353539603375,90.79058210682136,119.39,-27.05,-48.4,0,0,0,0,0,1,1,0.00,0.00,0.00,
14.14,82.57435353960338,88.96305821068214,106.73,-1.22,-50.97,0,0,0,0,0,1,1,0.00,0.00,7.46,
14.163,83.40743535396034,86.53930582106821,87.66,42.01,-60.29,0,0,0,0,0,1,1,0.00,0.00,0.00,
14.187,84.57974353539602,83.86693058210682,42.02,20.47,-68.8,0,0,0,0,0,1,1,0.00,0.00,0.39,
14.212,83.9859743535396,81.57469305821068,1.9,-45.24,-44.19,0,0,0,0,0,1,1,0.00,0.00,0.00,
14.235,85.58259743535397,78.21346930582108,-58.7,-146.27,-13.39,0,0,0,0,0,0,0,0.00,0.00,0.10,
14.26,81.83625974353541,75.49234693058212,11.31,104.53,31.63,0,0,0,0,0,1,1,0.00,0.00,0.00,
14.283,78.13162597435354,72.52923469305821,60.63,216.98,-57.64,0,0,0,1,0,2,3,0.69,0.00,26.59,
14.308,88.37216259743536,75.25692346930583,-38.37,92.64,40.9,0,0,0,3,0,3,4,4.12,1.47,12.65,
14.332,88.80221625974355,78.42769234693058,-24.9,-20.21,9.37,0,0,0,5,0,4,3,7.85,3.04,0.00,
14.357,88.76422162597436,80.81476923469305,-16.79,-18.04,9.28,1,0,0,8,0,5,4,10.79,3.04,0.00,
14.381,89.84942216259743,83.1414769234693,-9.95,15.68,4.02,1,0,0,9,0,5,4,13.73,2.94,0.00,
14.405,90.57894221625973,85.01214769234693,-7.59,16.24,2.0,2,0,0,9,0,5,4,14.72,3.43,0.00,
14.43,91.89389422162598,86.7562147692347,-5.01,11.31,4.52,2,0,0,10,1,5,4,15.40,4.12,1.86,
14.453,92.9973894221626,88.11862147692347,-2.63,-5.52,3.42,2,0,0,10,1,5,4,15.50,5.00,1.96,
14.478,93.35073894221625,89.46086214769235,0.09,-9.63,4.25,2,0,0,10,1,5,4,14.72,4.71,0.20,
14.502,93.80907389422163,90.72008621476924,1.11,-10.21,1.65,1,0,0,9,1,5,4,13.54,4.32,0.00,
14.526,94.06190738942217,91.80000862147693,1.61,-9.27,0.91,1,0,0,9,0,4,3,12.07,4.12,0.39,
14.551,94.11419073894223,92.70000086214769,1.39,1.38,2.89,1,0,0,8,1,4,3,10.79,4.22,1.08,
14.574,94.54241907389422,93.37500008621477,4.66,5.05,-1.11,1,0,0,8,1,4,3,10.30,4.81,1.28,
14.599,94.44124190738943,94.28850000862148,1.71,0.42,1.21,1,0,0,8,1,4,3,10.50,5.69,1.57,
14.622,94.34112419073895,94.83885000086215,-5.06,8.46,1.52,1,0,0,8,1,4,3,10.59,6.38,0.69,
14.647,94.3311124190739,95.23588500008623,-5.23,-17.06,4.0,1,0,0,9,1,4,3,11.38,6.87,0.29,
14.671,94.38411124190739,95.61758850000862,-5.64,-10.18,2.56,1,0,0,9,1,5,3,12.46,7.26,0.10,
14.695,94.50641112419073,95.94375885000086,-3.22,-4.84,1.65,1,0,0,9,1,5,3,13.24,7.55,0.20,
14.72,94.71664111241907,96.24637588500008,-1.92,2.24,1.06,1,0,0,9,1,5,3,13.64,7.75,0.00,
14.744,94.8996641112419,96.44763758850002,-1.5,0.37,0.92,1,0,0,9,1,5,3,13.54,7.95,0.10,
14.768,95.04396641112419,96.71976375885001,-0.53,0.56,1.23,1,0,0,9,1,5,3,13.64,8.14,0.20,
14.792,95.13939664111243,96.980976375885,-1.49,3.53,1.34,1,0,0,9,1,4,3,13.64,8.53,0.29,
14.816,95.25693966411123,97.20509763758851,-2.52,2.63,1.56,1,0,0,9,1,4,3,13.73,8.73,0.59,
14.84,95.37669396641112,97.29950976375886,-2.61,0.55,1.29,1,0,0,9,1,4,3,13.83,9.12,0.59,
14.864,95.46066939664111,97.45295097637589,-2.96,-0.66,0.79,2,0,0,10,1,4,3,14.13,9.32,0.49,
14.888,95.55906693966409,97.5582950976376,-2.99,-1.85,0.83,2,0,0,10,1,5,3,14.52,9.61,0.29,
14.913,95.6229066939664,97.63182950976376,-3.25,-1.42,0.79,2,0,0,10,1,5,3,14.91,9.91,0.29,
14.937,95.57529066939662,97.70218295097636,-2.74,2.14,0.59,2,0,0,10,1,5,3,15.70,10.20,0.49,
14.961,95.57052906693966,97.81721829509763,-2.86,2.44,0.37,2,0,0,10,1,5,3,15.99,10.30,0.78,
14.986,95.57905290669397,97.82872182950976,-3.01,0.79,0.56,2,0,0,10,1,5,3,16.09,10.30,0.59,
15.01,95.5619052906694,97.83887218295098,-3.5,0.12,0.41,2,0,0,10,1,5,3,16.38,10.40,0.49,
15.034,95.60519052906695,97.87588721829509,-3.47,0.18,0.98,2,0,0,10,1,5,3,16.58,10.40,0.39,
15.058,95.61851905290669,97.94258872182951,-3.35,0.98,0.73,2,0,0,10,1,5,3,16.58,10.50,0.59,
15.083,95.64685190529067,97.96725887218295,-3.11,2.28,0.33,2,0,0,10,1,5,3,16.68,10.30,0.00,
15.107,95.63168519052905,98.00572588721829,-3.23,2.66,0.11,2,0,0,10,1,5,3,16.48,10.40,0.00,
15.131,95.59416851905291,98.03657258872184,-3.24,3.07,0.43,2,0,0,10,1,5,3,16.38,10.01,0.10,
15.156,95.5364168519053,98.04865725887218,-3.45,1.3,0.52,2,0,0,10,1,5,3,16.28,9.91,0.39,
15.179,95.57564168519053,98.04986572588722,-3.39,-0.38,0.61,2,0,0,10,1,5,3,15.99,9.61,0.39,
15.204,95.57056416851904,98.05898657258872,-3.37,0.11,0.6,2,0,0,10,1,5,3,15.99,9.52,0.10,
15.228,95.58805641685191,98.14089865725887,-3.4,1.2,0.93,2,0,0,11,1,5,3,15.99,9.52,0.29,
15.252,95.60780564168519,98.1670898657259,-2.98,1.47,1.14,2,0,0,10,1,5,3,15.89,9.42,0.29,
15.277,95.61878056416853,98.21470898657259,-3.36,1.43,0.54,2,0,0,10,1,5,3,15.79,9.42,0.49,
15.301,95.66487805641685,98.16547089865725,-3.24,1.25,0.67,2,0,0,10,1,5,3,15.70,9.42,0.49,
15.325,95.68748780564168,98.20554708986572,-3.31,0.53,0.69,2,0,0,11,1,5,3,15.70,9.22,0.29,
15.349,95.77974878056418,98.23655470898657,-3.4,0.56,0.67,2,0,0,11,1,5,3,15.79,9.32,0.39,
15.374,95.78897487805642,98.19465547089865,-3.34,0.24,0.7,2,0,0,11,1,5,3,15.79,9.22,0.39,
15.397,95.76289748780565,98.11846554708987,-3.15,0.12,0.57,2,0,0,11,1,5,3,15.70,9.12,0.59,
15.422,95.67028974878056,98.119846554709,-3.27,0.29,0.6,2,0,0,11,1,5,3,15.60,9.03,0.69,
15.447,95.65202897487806,98.1379846554709,-3.08,0.05,0.62,2,0,0,10,1,5,3,15.60,8.93,0.59,
15.47,95.62320289748781,98.15779846554707,-3.37,0.27,0.75,2,0,0,10,1,5,3,15.60,8.83,0.59,
15.495,95.61132028974879,98.15077984655471,-3.34,0.34,1.02,2,0,0,10,1,5,3,15.50,8.83,0.49,
15.518,95.59213202897489,98.09607798465548,-3.37,0.82,0.58,2,0,0,10,1,5,3,15.50,8.83,0.49,
15.543,95.63521320289749,98.10860779846556,-3.44,0.45,0.67,2,0,0,10,1,5,3,15.50,8.83,0.29,
15.567,95.64852132028976,98.10986077984656,-3.38,1.26,0.58,2,0,0,10,1,5,3,15.40,8.83,0.29,
15.591,95.65885213202897,98.07398607798464,-3.17,2.12,0.56,2,0,0,10,1,5,3,15.21,8.63,0.20,
15.616,95.5608852132029,98.07939860779847,-3.67,2.66,0.29,2,0,0,10,1,5,3,15.01,8.63,0.20,
15.64,95.42508852132029,98.07993986077985,-3.4,0.63,0.79,2,0,0,10,1,5,3,14.81,8.53,0.49,
15.664,95.53750885213204,98.03499398607798,-3.13,0.02,0.93,2,0,0,10,1,5,3,14.62,8.34,0.29,
15.688,95.65675088521321,98.06649939860779,-3.64,1.3,0.88,2,0,0,10,1,5,3,14.52,8.24,0.29,
15.712,95.65967508852131,98.05164993986078,-3.69,1.54,0.61,2,0,0,10,1,5,3,14.32,8.24,0.39,
15.736,95.67796750885213,98.08616499398607,-3.59,0.61,0.86,2,0,0,10,1,5,3,14.32,8.24,0.59,
15.761,95.7157967508852,98.11661649939862,-3.4,0.79,0.91,2,0,0,10,1,5,3,14.32,8.14,0.59,
15.784,95.75557967508853,98.11066164993987,-3.5,1.25,0.47,2,0,0,10,1,5,3,14.32,8.24,0.69,
15.809,95.76855796750885,98.10106616499398,-3.3,1.44,0.53,2,0,0,10,1,5,3,14.42,8.24,0.49,
15.834,95.76085579675089,98.0821066164994,-3.36,0.37,0.85,2,0,0,10,1,5,3,14.42,8.14,0.49,
15.857,95.7330855796751,98.05321066164994,-3.37,0.0,0.65,2,0,0,10,1,5,3,14.52,8.34,0.59,
15.882,95.63130855796751,98.20332106616499,-3.33,0.55,-0.15,2,0,0,10,1,5,3,14.62,8.53,0.78,
15.906,95.54913085579676,98.1913321066165,-3.18,-0.89,0.68,2,0,0,10,1,5,3,14.72,8.63,0.69,
15.93,95.54091308557967,98.18113321066166,-3.59,0.49,0.16,2,0,0,10,1,5,3,14.81,8.53,0.98,
15.954,95.54009130855798,98.10811332106616,-3.53,-0.09,0.27,2,0,0,10,1,5,3,15.01,8.73,0.69,
15.979,95.5130091308558,98.09181133210662,-3.03,-0.92,0.94,2,0,0,11,1,5,3,15.21,8.83,0.00,
16.003,95.4383009130856,98.09018113321066,-3.55,1.7,0.17,2,0,0,10,1,5,3,15.21,8.83,0.00,
16.027,95.38583009130855,98.06301811332106,-3.48,0.05,0.46,2,0,0,10,1,5,3,15.11,9.03,0.10,
16.052,95.45258300913085,98.05130181133211,-3.34,-0.61,0.77,2,0,0,10,1,5,3,15.01,9.12,0.29,
16.075,95.41425830091308,98.05913018113321,-3.15,-0.25,1.1,2,0,0,10,1,5,3,15.21,9.12,0.29,
16.1,95.4464258300913,97.97891301811332,-3.39,1.2,0.85,2,0,0,10,1,5,3,15.11,9.32,0.49,
16.124,95.38664258300912,97.95289130181133,-3.21,1.36,0.84,2,0,0,10,1,5,3,15.01,9.61,0.29,
16.148,95.38966425830091,97.93228913018115,-3.26,1.81,1.02,2,0,0,10,1,5,3,14.81,9.61,0.20,
16.173,95.3539664258301,97.91222891301811,-3.24,1.51,0.89,2,0,0,10,1,5,3,14.72,10.10,0.29,
16.197,95.31439664258302,97.93722289130181,-3.4,2.68,0.8,2,0,0,10,1,5,3,14.42,10.10,0.49,
16.221,95.3284396642583,97.93072228913019,-3.31,2.24,0.87,2,0,0,10,1,5,3,14.22,10.40,0.69,
16.245,95.39284396642584,97.91207222891302,-3.12,2.5,0.72,2,0,0,10,1,5,3,14.13,10.50,0.69,
16.27,95.45328439664259,97.8922072228913,-3.11,2.79,0.66,2,0,0,10,1,5,3,13.83,10.40,0.49,
16.293,95.55832843966425,97.90822072228913,-3.31,1.96,0.82,2,0,0,10,1,5,3,13.83,9.91,0.39,
16.318,95.62283284396642,97.90082207222892,-3.33,1.21,0.85,2,0,0,10,1,5,3,13.54,9.91,0.49,
16.343,95.69228328439665,97.8820822072229,-3.17,1.07,0.85,2,0,0,10,1,4,3,13.44,10.59,0.59,
16.366,95.71722832843966,97.85320822072228,-3.11,1.94,0.79,2,0,0,10,1,4,3,13.05,10.01,0.59,
16.391,95.71972283284396,97.86832082207223,-3.21,2.09,0.69,1,0,0,10,1,4,3,12.95,9.71,0.69,
16.415,95.7289722832844,97.84283208220724,-3.14,1.68,0.83,1,0,0,10,1,4,3,12.56,9.71,0.69,
16.439,95.73889722832844,97.86728320822073,-3.09,1.37,0.77,1,0,0,10,1,4,3,12.36,9.91,0.29,
16.463,95.72188972283284,97.79772832082207,-3.3,1.53,0.72,1,0,0,10,1,4,3,12.36,10.10,0.00,
16.488,95.72018897228328,97.7997728320822,-3.18,1.0,0.97,1,0,0,10,1,4,3,12.07,10.69,0.20,
16.513,95.72001889722833,97.83597728320822,-3.18,1.76,0.99,1,0,0,10,1,4,3,11.97,9.71,0.29,
16.536,95.74700188972282,97.89359772832083,-3.05,1.44,1.05,1,0,0,10,1,4,3,11.77,9.61,0.29,
16.561,95.74070018897228,97.90835977283209,-3.25,1.41,1.04,1,0,0,9,1,4,3,11.58,9.91,0.49,
16.584,95.74007001889723,97.91883597728321,-2.85,1.05,1.03,1,0,0,9,1,4,3,11.48,10.69,0.39,
16.609,95.77600700188972,97.96488359772832,-2.89,0.87,1.04,1,0,0,9,1,4,3,11.38,9.42,0.49,
16.633,95.77960070018896,98.02348835977284,-2.96,1.15,0.88,1,0,0,9,1,4,3,11.28,9.42,0.39,
16.657,95.7889600700189,98.06534883597728,-3.17,1.28,0.85,1,0,0,9,1,4,3,11.09,9.91,0.39,
16.681,95.79889600700189,98.08753488359773,-3.14,1.56,0.85,1,0,0,9,1,4,3,11.09,10.69,0.49,
16.705,95.88988960070019,98.08075348835978,-3.25,1.34,1.02,1,0,0,9,1,4,3,10.89,8.14,0.88,
16.73,95.90798896007001,98.09807534883596,-3.2,1.07,0.8,1,0,0,9,1,4,3,10.79,7.75,0.98,
16.753,95.882798896007,98.0818075348836,-3.11,1.34,0.69,1,0,0,9,1,4,3,10.69,7.85,0.39,
16.778,95.8982798896007,98.08018075348836,-3.05,0.94,0.74,1,0,0,9,1,4,3,10.59,7.75,0.49,
16.801,95.86382798896007,98.08001807534885,-3.01,0.68,1.0,1,0,0,9,1,4,3,10.59,7.65,0.78,
16.826,95.869382798896,98.11600180753489,-3.14,1.44,0.82,1,0,0,9,1,4,3,10.50,7.65,0.69,
16.85,95.8879382798896,98.1196001807535,-2.92,0.87,0.88,1,0,0,9,1,4,3,10.30,7.75,0.59,
16.874,95.88979382798897,98.11996001807535,-2.95,1.21,0.87,1,0,0,9,1,4,3,10.40,7.75,0.39,
16.899,95.97997938279889,98.11999600180754,-2.97,1.21,0.73,1,0,0,9,1,4,3,10.40,7.75,0.59,
16.922,96.0069979382799,98.11099960018076,-3.18,1.36,0.89,1,0,0,9,1,4,3,10.20,7.95,0.78,
16.947,96.00069979382799,98.06509996001807,-3.11,1.05,0.92,1,0,0,9,1,4,3,10.20,7.46,0.69,
16.97,95.9820699793828,98.0695099960018,-2.91,0.91,0.95,1,0,0,9,1,4,3,10.20,7.36,0.00,
16.995,95.96220699793827,98.03395099960018,-3.19,0.56,0.85,1,0,0,9,1,4,3,10.30,7.46,0.20,
17.019,95.95122069979382,98.07539509996002,-2.98,0.47,1.02,1,0,0,9,1,4,3,10.30,7.26,0.29,
17.043,95.88712206997938,98.11553950999601,-3.14,0.32,1.12,1,0,0,9,1,4,3,10.30,7.36,0.29,
17.068,95.92571220699794,98.1375539509996,-3.24,1.03,0.92,1,0,0,9,1,4,3,10.30,7.26,0.29,
17.091,95.95657122069979,98.13975539509997,-3.19,0.84,0.89,1,0,0,9,1,4,3,10.50,7.36,0.20,
17.116,95.95965712206997,98.08597553951,-3.27,0.91,0.76,1,0,0,9,1,4,3,10.50,7.36,0.39,
17.139,95.950965712207,98.08959755395101,-3.34,0.95,1.06,1,0,0,9,1,4,3,10.40,7.36,0.29,
17.164,95.9680965712207,98.0629597553951,-3.02,1.06,0.92,1,0,0,9,1,4,3,10.59,7.36,0.49,
17.187,96.02380965712207,98.0962959755395,-3.1,0.82,0.79,1,0,0,9,1,4,3,10.59,7.36,0.59,
17.212,96.02038096571219,98.10862959755396,-3.11,0.58,0.94,1,0,0,9,1,4,3,10.59,7.46,0.39,
17.235,96.04703809657121,98.1458629597554,-3.05,1.16,0.76,1,0,0,9,1,4,3,10.59,7.46,0.39,
17.26,96.06770380965712,98.16758629597555,-3.15,0.85,0.83,1,0,0,9,1,4,3,10.59,7.36,0.49,
17.285,96.0517703809657,98.19675862959757,-3.04,0.81,0.92,1,0,0,9,1,4,3,10.59,7.46,0.69,
17.308,96.06817703809656,98.16367586295975,-3.12,0.96,0.87,1,0,0,9,1,4,3,10.69,7.46,0.88,
17.333,96.05181770380965,98.13336758629596,-3.11,0.79,0.75,1,0,0,9,1,4,3,10.59,7.46,0.69,
17.356,96.06818177038096,98.1213367586296,-3.02,0.89,0.74,1,0,0,9,1,4,3,10.50,7.36,0.69,
17.381,96.02481817703809,98.12913367586295,-2.87,0.74,0.91,1,0,0,9,1,4,3,10.59,7.36,0.49,
17.404,95.9664818177038,98.1659133675863,-2.94,0.32,1.01,1,0,0,9,1,4,3,10.50,7.26,0.78,
17.429,95.98764818177037,98.21459133675862,-3.11,0.4,0.86,1,0,0,9,1,4,3,10.50,7.26,0.49,
17.453,95.99876481817704,98.19245913367585,-3.07,0.63,0.82,1,0,0,9,1,4,3,10.50,7.16,0.49,
17.477,95.9908764818177,98.13624591336757,-3.08,1.09,0.9,1,0,0,9,1,4,3,10.50,7.36,0.49,
17.501,95.99008764818176,98.18462459133676,-2.98,0.11,0.83,1,0,0,9,1,4,3,10.59,7.26,0.49,
17.525,95.94500876481817,98.18046245913368,-2.87,0.18,0.92,1,0,0,9,1,4,3,10.40,7.36,0.29,
17.55,95.96750087648182,98.21604624591336,-2.99,0.45,1.05,1,0,0,9,1,4,3,10.59,7.26,0.29,
17.573,95.99675008764818,98.21060462459133,-2.94,0.27,0.98,1,0,0,9,1,4,3,10.59,7.36,0.49,
17.598,96.03567500876483,98.21906046245913,-2.82,0.95,0.98,1,0,0,9,1,4,3,10.50,7.36,0.00,
17.622,96.03956750087649,98.21990604624591,-3.0,0.76,0.96,1,0,0,9,1,4,3,10.50,7.55,0.20,
17.646,96.05795675008765,98.23799060462458,-3.11,0.66,0.98,1,0,0,9,1,4,3,10.40,7.46,0.29,
17.67,96.07779567500876,98.23979906046245,-3.15,0.23,0.9,1,0,0,9,1,4,3,10.40,7.46,0.20,
17.694,96.04377956750088,98.19497990604624,-3.08,0.06,0.98,2,0,0,9,1,4,3,10.59,7.55,0.20,
17.718,96.04937795675008,98.19949799060463,-3.12,0.43,0.79,2,0,0,9,1,4,3,10.59,7.55,0.29,
17.742,96.03193779567502,98.19994979906048,-3.15,0.77,0.8,2,0,0,9,1,4,3,10.59,7.55,0.39,
17.767,96.03019377956751,98.21799497990604,-3.15,0.43,0.89,2,0,0,9,1,4,3,10.59,7.55,0.49,
17.79,96.03901937795675,98.21979949799059,-3.05,0.37,0.92,2,0,0,9,1,4,3,10.59,7.65,0.39,
17.815,96.00390193779567,98.24697994979906,-3.08,0.35,0.98,2,0,0,10,1,4,3,10.69,7.75,0.39,
17.839,95.94639019377956,98.2766979949799,-3.11,0.19,0.95,2,0,0,10,1,4,3,10.79,7.65,0.59,
17.863,95.92263901937795,98.24366979949798,-3.21,0.23,1.04,2,0,0,10,1,4,3,10.99,7.75,0.69,
17.888,95.8752639019378,98.2403669799498,-3.2,0.29,0.78,2,0,0,10,1,4,3,10.99,7.65,0.49,
17.911,95.86152639019377,98.231036697995,-3.15,0.37,1.0,2,0,0,10,1,4,3,11.09,7.85,0.59,
17.936,95.84215263901937,98.24810366979949,-3.37,0.42,0.84,2,0,0,10,1,4,3,11.28,7.85,0.69,
17.959,95.83121526390194,98.25881036697996,-3.3,0.06,0.91,2,0,0,10,1,4,3,11.28,8.04,0.00,
17.984,95.89312152639019,98.24188103669799,-3.2,-0.21,0.92,2,0,0,10,1,4,3,11.58,8.14,0.29,
18.009,95.87231215263901,98.2761881036698,-3.4,0.17,0.78,2,0,0,10,1,4,3,11.67,8.24,0.20,
18.032,95.8522312152639,98.27061881036698,-3.15,0.15,0.85,2,0,0,10,1,4,3,11.77,8.24,0.10,
18.057,95.7962231215264,98.2700618810367,-3.3,0.43,0.79,2,0,0,10,1,4,3,11.87,8.34,0.29,
18.081,95.82662231215264,98.31500618810367,-3.01,0.0,0.75,2,0,0,10,1,4,3,11.87,8.44,0.10,
18.105,95.72166223121526,98.27450061881036,-3.31,0.39,0.92,2,0,0,10,1,4,3,12.16,8.44,0.20,
18.129,95.68416622312154,98.24345006188103,-3.2,0.02,0.82,2,0,0,10,1,4,3,12.26,8.53,0.10,
18.153,95.65341662231216,98.28534500618811,-3.19,-0.11,0.83,2,0,0,10,1,4,3,12.36,8.83,0.10,
18.178,95.68634166223121,98.28053450061881,-3.17,-0.22,0.71,2,0,0,10,1,4,3,12.65,8.83,0.29,
18.202,95.67163416622313,98.27105345006188,-3.22,0.02,0.62,2,0,0,10,1,4,3,12.75,8.83,0.29,
18.227,95.7061634166223,98.27010534500619,-3.15,0.27,0.78,2,0,0,10,1,4,3,12.75,8.73,0.39,
18.25,95.66461634166222,98.33301053450062,-3.27,-0.11,0.92,2,0,0,10,1,4,3,12.75,8.83,0.78,
18.275,95.57046163416622,98.32130105345006,-2.95,-0.12,0.97,2,0,0,10,1,4,3,12.85,9.03,0.00,
18.299,95.55204616341662,98.29313010534501,-3.24,0.32,1.0,2,0,0,10,1,4,3,12.75,9.32,0.29,
18.323,95.56820461634165,98.3263130105345,-3.1,0.5,1.09,2,0,0,10,1,4,3,12.75,8.34,0.49,
18.348,95.56982046163415,98.28463130105345,-3.27,0.69,1.05,2,0,0,10,1,4,3,12.65,8.34,0.59,
18.371,95.57898204616342,98.27146313010535,-3.15,0.34,0.88,2,0,0,10,1,4,3,12.65,8.34,0.49,
18.396,95.62489820461633,98.28814631301054,-3.28,0.09,0.91,2,0,0,10,1,4,3,12.75,8.24,0.49,
18.42,95.58448982046164,98.33481463130106,-3.27,0.95,0.79,2,0,0,10,1,4,3,12.75,8.34,0.49,
18.444,95.54444898204616,98.3304814631301,-3.24,0.81,0.86,2,0,0,10,1,4,3,12.75,8.24,0.49,
18.468,95.45944489820462,98.348048146313,-3.16,0.92,1.02,2,0,0,10,1,4,3,12.75,8.34,0.10,
18.493,95.44194448982046,98.3498048146313,-3.13,0.83,0.92,2,0,0,10,1,4,3,12.75,8.34,0.00,
18.516,95.55719444898203,98.31398048146312,-3.05,1.5,0.85,2,0,0,10,1,4,3,12.75,8.34,0.10,
18.541,95.5327194448982,98.27439804814631,-3.18,1.26,0.79,2,0,0,10,1,4,3,12.75,8.44,0.20,
18.566,95.47627194448982,98.26143980481464,-2.9,0.39,0.77,2,0,0,10,1,4,3,12.75,8.53,0.39,
18.589,95.41662719444898,98.28714398048147,-3.08,0.93,0.89,2,0,0,10,1,4,3,12.85,8.34,0.49,
18.614,95.4826627194449,98.28071439804815,-3.15,1.44,0.82,2,0,0,10,1,4,3,12.75,8.44,0.69,
18.637,95.55226627194449,98.31607143980482,-3.29,3.18,0.69,2,0,0,10,1,4,3,12.65,8.34,0.00,
18.662,95.51422662719445,98.31960714398048,-3.23,2.1,0.74,2,0,0,10,1,4,3,12.56,8.24,0.20,
18.686,95.50142266271945,98.30196071439805,-2.94,0.52,0.98,2,0,0,10,1,4,3,12.46,8.24,0.39,
18.71,95.54514226627195,98.23719607143981,-3.05,0.59,1.14,2,0,0,10,1,4,3,12.36,8.34,0.49,
18.735,95.5495142266272,98.22171960714397,-3.17,1.42,0.79,2,0,0,10,1,4,3,12.36,8.24,0.49,
18.759,95.49595142266273,98.20217196071441,-3.15,1.4,0.73,2,0,0,10,1,4,3,12.26,8.24,0.00,
18.783,95.50859514226627,98.28121719607145,-3.17,0.74,0.69,2,0,0,10,1,4,3,12.16,8.14,0.29,
18.807,95.54585951422663,98.30712171960714,-3.12,1.14,0.94,2,0,0,10,1,4,3,12.07,8.04,0.59,
18.831,95.52258595142267,98.31871217196071,-2.94,1.28,0.87,2,0,0,10,1,4,3,11.97,8.04,0.59,
18.855,95.54725859514227,98.31087121719607,-3.12,1.23,0.66,2,0,0,10,1,4,3,11.97,7.95,0.59,
18.88,95.53172585951422,98.3280871217196,-2.89,0.89,0.79,2,0,0,10,1,4,3,11.77,7.85,0.39,
18.904,95.53917258595142,98.28480871217195,-3.07,0.92,0.63,2,0,0,10,1,4,3,11.67,7.95,0.88,
18.928,95.51291725859514,98.25348087121719,-3.06,0.96,0.92,2,0,0,10,1,4,3,11.67,7.95,0.49,
18.953,95.53729172585952,98.25034808712172,-3.13,1.12,0.99,2,0,0,10,1,4,3,11.67,7.85,0.10,
18.976,95.49472917258595,98.30403480871217,-2.88,0.76,0.92,2,0,0,10,1,4,3,11.58,7.95,0.20,
19.001,95.5534729172586,98.30040348087121,-2.96,0.96,0.9,2,0,0,10,1,4,3,11.38,7.65,0.20,
19.025,95.51434729172587,98.33604034808712,-3.09,1.29,0.73,2,0,0,10,1,4,3,11.38,7.65,0.39,
19.049,95.49243472917259,98.32160403480871,-3.0,1.27,0.81,2,0,0,10,1,4,3,11.28,7.55,0.20,
19.074,95.50824347291726,98.29316040348088,-3.03,1.2,0.7,2,0,0,10,1,4,3,11.18,7.55,0.29,
19.097,95.53682434729173,98.2903160403481,-3.11,0.82,0.98,2,0,0,10,1,4,3,11.18,7.46,0.29,
19.122,95.54868243472917,98.29003160403482,-3.2,0.58,0.81,2,0,0,10,1,4,3,11.18,7.46,0.49,
19.146,95.49586824347291,98.31700316040349,-3.26,0.92,0.78,2,0,0,10,1,4,3,11.18,6.47,0.78,
19.17,95.49958682434729,98.33770031604035,-3.18,0.64,0.93,2,0,0,10,1,4,3,11.18,5.40,0.49,
19.194,95.48195868243474,98.33077003160403,-3.1,0.8,0.89,2,0,0,10,1,4,3,11.28,5.10,0.39,
19.219,95.53419586824347,98.3480770031604,-3.25,0.89,0.8,2,0,0,10,1,4,3,11.38,4.71,0.59,
19.243,95.54841958682435,98.34980770031603,-3.17,0.8,0.79,2,0,0,10,1,4,3,11.48,4.91,0.49,
19.267,95.54984195868244,98.37698077003161,-3.11,0.13,0.9,2,0,0,10,1,4,3,11.48,5.20,0.49,
19.291,95.56798419586823,98.38869807700316,-3.24,0.16,0.98,2,0,0,10,1,4,3,11.48,5.30,0.49,
19.315,95.55179841958683,98.38986980770031,-3.04,0.36,0.98,2,0,0,10,1,4,3,11.58,5.00,0.69,
19.34,95.51417984195868,98.38998698077003,-3.19,1.02,0.82,2,0,0,10,1,4,3,11.67,5.10,0.29,
19.363,95.51941798419587,98.40799869807701,-2.93,1.06,0.9,2,0,0,10,1,4,3,11.67,5.49,0.29,
19.388,95.5469417984196,98.3827998698077,-3.01,0.81,0.97,2,0,0,10,1,4,3,11.67,5.69,0.59,
19.412,95.54069417984196,98.30827998698076,-2.76,0.85,0.92,2,0,0,10,1,4,3,11.58,5.59,346.29,
19.436,95.5040694179842,98.31882799869807,-2.82,1.07,0.88,2,0,0,10,1,4,3,11.48,5.59,0.20,
19.461,95.52740694179842,98.3828827998698,-3.08,0.82,0.91,2,0,0,10,1,4,3,11.48,5.49,0.00,
19.485,95.52074069417984,98.36228827998698,-3.16,0.7,0.87,2,0,0,10,1,4,3,11.28,5.98,0.10,
19.509,95.43007406941798,98.3332288279987,-3.29,0.73,0.76,2,0,0,10,1,4,3,11.28,6.38,0.00,
19.533,95.4660074069418,98.36632288279986,-3.08,1.14,0.81,2,0,0,10,1,4,3,11.28,6.38,0.29,
19.558,95.48760074069418,98.37863228827999,-3.2,0.47,0.92,2,0,0,10,1,4,3,11.48,6.18,0.29,
19.581,95.50776007406942,98.424863228828,-3.19,0.41,0.89,2,0,0,10,1,4,3,11.48,6.67,0.10,
19.606,95.50977600740694,98.42948632288281,-3.16,0.16,0.92,2,0,0,10,1,4,3,11.67,7.06,0.29,
19.63,95.5189776007407,98.44794863228829,-3.12,0.42,0.93,2,0,0,10,1,4,3,11.67,7.16,0.39,
19.654,95.46589776007407,98.48579486322882,-3.12,0.58,0.78,2,0,0,10,1,4,3,11.67,7.16,0.39,
19.679,95.44258977600741,98.49857948632288,-2.98,0.46,0.79,2,0,0,10,1,4,3,11.77,7.26,0.29,
19.702,95.43125897760075,98.4818579486323,-3.11,0.77,1.03,2,0,0,10,1,4,3,11.77,6.97,0.29,
19.727,95.43912589776008,98.50718579486323,-3.08,0.5,0.91,2,0,0,10,1,4,3,11.77,7.36,0.39,
19.751,95.43991258977601,98.52771857948633,-3.02,0.22,0.95,2,0,0,10,1,4,3,11.87,6.87,0.49,
19.775,95.4129912589776,98.50277185794863,-3.1,0.31,0.8,2,0,0,10,1,4,3,11.87,6.08,0.59,
19.8,95.42829912589778,98.45527718579487,-3.13,0.63,0.76,2,0,0,10,1,4,3,11.87,6.97,0.49,
19.823,95.45682991258978,98.4775277185795,-3.11,0.4,0.84,2,0,0,10,1,4,3,11.77,6.57,0.39,
19.848,95.43268299125899,98.46175277185793,-3.25,0.46,0.79,2,0,0,10,1,4,3,11.97,6.18,0.69,
19.872,95.4572682991259,98.4781752771858,-3.02,0.12,1.01,2,0,0,10,1,4,3,12.07,7.85,0.39,
19.896,95.4237268299126,98.50681752771858,-3.18,0.54,0.91,2,0,0,10,1,4,3,11.97,7.95,0.29,
19.92,95.38437268299126,98.51868175277184,-3.05,0.49,0.85,2,0,0,10,1,4,3,12.07,7.65,0.10,
19.945,95.39843726829913,98.52886817527718,-3.14,0.56,0.87,2,0,0,10,1,4,3,11.97,7.85,0.29,
19.969,95.38184372682991,98.49388681752771,-2.99,0.41,0.88,2,0,0,10,1,4,3,11.97,7.95,0.20,
19.993,95.32618437268299,98.48138868175278,-3.05,0.26,0.97,2,0,0,10,1,4,3,12.16,7.85,0.20,
20.018,95.31161843726831,98.47113886817527,-3.27,0.34,0.89,2,0,0,10,1,4,3,12.07,7.95,0.10,
20.041,95.31016184372683,98.51511388681752,-3.22,0.38,0.94,2,0,0,10,1,4,3,12.16,7.95,0.39,
20.066,95.28301618437268,98.58251138868175,-3.11,0.71,0.76,2,0,0,10,1,4,3,12.16,7.95,0.39,
20.089,95.28930161843728,98.57125113886816,-3.18,1.22,0.63,2,0,0,10,1,4,3,12.16,8.04,0.49,
20.114,95.34393016184373,98.5701251138868,-3.23,0.88,0.76,2,0,0,10,1,4,3,12.26,8.14,0.39,
20.139,95.39439301618438,98.60601251138867,-3.07,0.85,0.85,2,0,0,10,1,4,3,12.26,8.24,0.29,
20.162,95.42643930161844,98.63660125113886,-3.24,0.48,0.85,2,0,0,10,1,4,3,12.36,8.14,0.39,
20.187,95.42964393016186,98.64866012511389,-3.18,0.37,0.9,2,0,0,10,1,4,3,12.26,8.34,0.29,
20.211,95.40296439301619,98.60486601251138,-2.99,0.82,0.83,2,0,0,10,1,4,3,12.26,8.53,0.49,
20.235,95.36429643930161,98.60948660125113,-2.98,0.9,0.83,2,0,0,10,1,4,3,12.46,8.63,0.49,
20.259,95.36942964393018,98.61894866012511,-3.13,0.69,0.87,2,0,0,10,1,4,3,12.26,8.63,0.49,
20.283,95.36994296439303,98.5748948660125,-3.05,0.13,0.89,2,0,0,10,1,4,3,12.36,8.83,0.29,
20.307,95.3249942964393,98.56148948660126,-2.9,0.45,1.02,2,0,0,10,1,4,3,12.36,8.83,0.49,
20.332,95.32049942964392,98.60514894866012,-3.14,1.15,0.76,2,0,0,10,1,4,3,12.26,7.95,0.49,
20.356,95.32904994296439,98.60951489486601,-3.11,1.13,0.76,2,0,0,10,1,4,3,12.36,4.22,0.20,
20.38,95.32990499429644,98.60095148948659,-3.05,0.56,0.76,2,0,0,10,1,4,3,12.46,1.57,0.29,
20.405,95.36599049942966,98.58209514894865,-3.22,0.52,0.92,2,0,0,10,1,4,3,12.26,1.67,0.20,
20.428,95.40559904994296,98.60720951489486,-2.94,0.45,0.93,2,0,0,10,1,4,3,12.26,1.86,0.20,
20.453,95.4635599049943,98.60972095148948,-3.12,0.53,0.91,2,0,0,10,1,4,3,12.36,2.65,0.20,
20.477,95.41535599049942,98.55597209514895,-3.37,0.36,0.85,2,0,0,10,1,4,3,12.16,3.63,0.00,
20.501,95.38353559904994,98.5055972095149,-3.03,0.44,0.83,2,0,0,10,1,4,3,12.36,5.59,0.49,
20.526,95.38035355990499,98.49155972095147,-3.23,0.92,0.79,2,0,0,10,1,4,3,12.26,5.30,0.39,
20.549,95.3800353559905,98.48115597209515,-3.0,0.64,0.92,2,0,0,10,1,4,3,12.36,4.61,0.49,
20.574,95.35300353559904,98.4621155972095,-3.1,0.76,0.8,2,0,0,10,1,4,3,12.36,6.38,0.29,
20.598,95.3593003535599,98.46021155972093,-3.05,0.41,1.04,2,0,0,10,1,4,3,12.36,6.87,0.20,
20.622,95.35993003535599,98.4780211559721,-3.14,0.9,0.98,2,0,0,10,1,4,3,12.26,8.73,0.29,
20.646,95.33299300353559,98.49780211559721,-3.19,0.9,0.78,2,0,0,10,1,4,3,12.36,7.26,0.59,
20.671,95.33029930035356,98.50878021155972,-3.11,0.87,0.98,2,0,0,10,1,4,3,12.26,8.53,0.49,
20.695,95.33902993003537,98.57287802115596,-2.98,0.85,0.99,2,0,0,10,1,4,3,12.26,8.73,0.59,
20.719,95.35790299300353,98.60628780211559,-3.03,0.89,0.74,2,0,0,10,1,4,3,12.16,8.93,0.49,
20.743,95.36879029930037,98.55562878021155,-3.1,0.86,0.97,2,0,0,10,1,4,3,12.16,7.95,0.69,
20.767,95.38787902993003,98.55056287802114,-3.13,1.18,1.06,2,0,0,10,1,4,3,11.97,5.49,0.98,
20.792,95.35378790299299,98.54105628780212,-3.26,1.07,0.77,2,0,0,10,1,4,3,12.16,2.55,1.18,
20.815,95.3233787902993,98.56710562878021,-3.04,0.97,0.82,2,0,0,10,1,4,3,11.97,4.71,0.20,
20.84,95.33833787902994,98.60571056287802,-2.98,0.66,0.82,2,0,0,10,1,4,3,12.16,6.77,0.20,
20.865,95.294833787903,98.60957105628779,-2.95,0.5,0.98,2,0,0,10,1,4,3,12.07,4.61,0.20,
20.888,95.30848337879031,98.6189571056288,-3.05,0.67,0.92,2,0,0,10,1,4,3,11.97,3.63,0.29,
20.913,95.32784833787903,98.63789571056287,-3.19,0.79,0.85,2,0,0,10,1,4,3,12.07,3.34,0.20,
20.936,95.26678483378791,98.61278957105628,-3.21,0.88,0.84,2,0,0,10,1,4,3,12.16,4.91,0.00,
20.961,95.24267848337878,98.63727895710562,-3.18,0.49,0.89,2,0,0,10,1,4,3,12.26,5.59,0.29,
20.985,95.22226784833788,98.63972789571056,-2.87,0.68,0.9,2,0,0,10,1,4,3,12.26,6.18,0.29,
21.009,95.1932267848338,98.64897278957106,-3.08,0.79,0.92,2,0,0,10,1,4,3,12.16,4.22,0.49,
21.033,95.20832267848337,98.6678972789571,-2.98,0.47,1.01,2,0,0,10,1,4,3,12.16,7.06,0.29,
21.058,95.21883226784834,98.6427897278957,-3.21,-0.37,1.02,2,0,0,10,1,4,3,12.16,4.22,0.69,
21.082,95.22888322678484,98.64927897278957,-3.15,0.45,0.9,2,0,0,10,1,4,3,12.36,2.75,0.59,
21.106,95.20288832267849,98.64092789727896,-3.03,0.53,0.99,2,0,0,10,1,4,3,12.16,3.34,0.29,
21.131,95.18228883226786,98.6760927897279,-3.2,0.54,1.02,2,0,0,10,1,4,3,12.26,3.14,0.49,
21.154,95.22522888322679,98.67060927897279,-3.19,0.73,0.89,2,0,0,10,1,4,3,12.36,4.12,0.49,
21.179,95.26552288832266,98.68806092789728,-3.37,0.52,0.79,2,0,0,10,1,4,3,12.46,3.04,0.59,
21.203,95.27855228883227,98.67180609278972,-3.26,0.74,0.78,2,0,0,10,1,4,3,12.65,3.14,0.49,
21.227,95.19885522888323,98.68818060927897,-3.34,0.38,0.84,2,0,0,10,1,4,3,12.75,4.71,0.78,
21.252,95.14588552288832,98.69881806092789,-3.37,0.4,0.8,2,0,0,10,1,5,3,12.85,3.43,0.98,
21.275,95.17658855228883,98.6818818060928,-3.35,0.45,0.81,2,0,0,10,1,5,3,12.95,4.61,0.59,
21.3,95.23365885522887,98.68018818060929,-3.37,1.38,0.76,2,0,0,11,1,5,3,13.15,4.71,0.20,
21.324,95.2483658855229,98.62601881806094,-3.3,1.01,0.84,2,0,0,11,1,5,3,13.15,4.32,0.00,
21.348,95.31283658855229,98.61160188180608,-3.34,1.18,0.77,2,0,0,11,1,5,3,13.34,2.06,0.39,
21.372,95.31928365885523,98.5831601881806,-3.24,1.16,0.85,2,0,0,11,1,5,3,13.34,1.96,0.10,
21.397,95.26592836588553,98.59831601881805,-3.27,0.95,0.72,2,0,0,11,1,5,3,13.34,5.59,0.20,
21.421,95.31459283658855,98.6268316018818,-2.91,1.05,0.83,2,0,0,11,1,5,3,13.24,3.24,0.29,
21.445,95.30145928365884,98.63868316018818,-2.76,0.96,0.66,2,0,0,11,1,5,3,13.15,2.55,0.29,
21.469,95.31814592836588,98.64886831601882,-2.73,1.38,0.91,2,0,0,10,1,5,3,13.05,3.63,0.39,
21.493,95.31081459283659,98.62288683160189,-2.76,1.62,0.68,2,0,0,10,1,4,3,12.75,3.92,0.49,
21.518,95.26508145928366,98.6202886831602,-2.63,1.67,0.83,2,0,0,10,1,4,3,12.36,2.55,0.69,
21.541,95.26950814592836,98.64702886831603,-2.39,2.03,1.05,2,0,0,10,1,4,3,12.16,4.02,0.20,
