time,pitch,roll,gyrx,gyry,gyrz,f1,f2,f3,f4,f5,f6,f7,g1,g2,g3
0.421,53.25,73.72,-3.93,1.17,-0.74,0.0,0.0,0.0,1.0,0.0,0.0,0.0,0.0,0.0,0.0,
0.445,58.992,81.85600000000001,-3.6,-1.05,-1.98,0.0,0.0,0.0,1.0,0.0,0.0,0.0,0.0,0.0,0.0,
0.47,64.37219999999999,89.3476,-2.72,-3.02,-1.6,0.0,0.0,0.0,1.0,0.0,0.0,0.0,0.0,0.0,0.0,
0.493,68.87922,95.70376,-3.66,-2.82,-1.71,0.0,0.0,0.0,1.0,0.0,0.0,0.0,0.0,0.0,0.0,
0.517,72.65992200000001,101.190376,-5.51,0.54,-2.27,0.0,0.0,0.0,1.0,0.0,0.0,0.0,0.0,0.0,0.0,
0.54,75.82799220000001,105.9060376,-5.79,1.03,-0.71,0.0,0.0,0.0,1.0,0.0,0.0,0.0,0.0,0.0,0.0,
0.564,78.88079922,110.01360376,-5.07,-1.27,0.75,0.0,0.0,0.0,1.0,0.0,0.0,0.0,0.0,0.0,0.0,
0.587,81.31907992200001,113.286360376,-4.92,-0.92,0.25,0.0,0.0,0.0,1.0,0.0,0.0,0.0,0.0,0.0,0.0,
0.611,83.1289079922,116.24163603759999,-4.25,-1.4,-0.66,0.0,0.0,0.0,1.0,0.0,0.0,0.0,0.0,0.0,0.0,
0.635,84.93889079922,118.81416360376,0.17,-5.27,-1.31,0.0,0.0,0.0,1.0,0.0,0.0,0.0,0.0,0.0,0.0,
0.659,86.883889079922,120.988416360376,-0.57,-5.65,-0.21,0.0,0.0,0.0,1.0,0.0,0.0,0.0,0.0,0.0,0.0,
0.683,88.43738890799219,122.72684163603759,-3.44,0.31,1.11,0.0,0.0,0.0,1.0,0.0,0.0,0.0,0.0,0.0,0.0,
0.706,89.74473889079921,123.98968416360375,-3.03,2.32,2.52,0.0,0.0,0.0,1.0,0.0,0.0,0.0,0.0,0.0,0.0,
0.73,90.70347388907992,125.13296841636038,-3.29,-2.47,-2.95,0.0,0.0,0.0,1.0,0.0,0.0,0.0,0.0,0.0,0.0,
0.753,91.21334738890799,126.31829684163604,-5.88,-3.51,-8.41,0.0,0.0,0.0,1.0,0.0,0.0,0.0,0.0,0.0,0.0,
0.778,91.8223347388908,127.3278296841636,-5.53,-0.56,-4.44,0.0,0.0,0.0,1.0,0.0,0.0,0.0,0.0,0.0,0.0,
0.801,92.47723347388907,128.08578296841634,-2.53,-0.12,3.15,0.0,0.0,0.0,1.0,0.0,0.0,0.0,0.0,0.0,0.0,
0.825,92.5877233473889,128.75557829684163,-3.21,-1.32,-0.71,0.0,0.0,0.0,1.0,0.0,0.0,0.0,0.0,0.39,0.0,
0.848,92.87777233473889,129.38955782968418,-4.86,-0.92,-2.51,0.0,0.0,0.0,1.0,0.0,0.0,0.0,0.0,0.69,0.0,
0.872,93.37477723347389,129.83995578296842,-2.51,-1.85,2.16,0.0,0.0,0.0,1.0,0.0,0.0,0.0,0.0,0.69,0.0,
0.897,93.63147772334739,130.13699557829682,-3.18,-1.82,-1.26,0.0,0.0,0.0,1.0,0.0,0.0,0.0,0.0,0.78,0.0,
0.92,94.22414777233475,130.58069955782966,-4.4,-0.4,-1.51,0.0,0.0,0.0,1.0,0.0,0.0,0.0,0.0,0.78,0.0,
0.944,94.72441477723348,131.20106995578297,-1.36,0.21,1.52,0.0,0.0,0.0,1.0,0.0,0.0,0.0,0.0,0.69,0.0,
0.967,94.72044147772336,131.39810699557827,-1.11,-1.84,-2.01,0.0,0.0,0.0,1.0,0.0,0.0,0.0,0.0,0.69,0.0,
0.991,94.60304414777234,131.48081069955782,-2.64,-2.64,-5.99,0.0,0.0,0.0,1.0,0.0,0.0,0.0,0.0,0.69,0.0,
1.015,94.83430441477722,131.66908106995578,-3.48,-1.16,-1.31,0.0,0.0,0.0,1.0,0.0,0.0,0.0,0.0,0.78,0.0,
1.039,94.84843044147772,131.84090810699558,-3.24,-1.11,-0.53,0.0,0.0,0.0,1.0,0.0,0.0,0.0,0.0,0.88,0.0,
1.062,94.95784304414776,132.04709081069956,-3.2,-0.78,-1.63,0.0,0.0,0.0,1.0,0.0,0.0,0.0,0.0,0.88,0.0,
1.086,95.06778430441477,132.12170908106995,-2.95,0.41,0.17,0.0,0.0,0.0,1.0,0.0,0.0,0.0,0.0,0.88,0.0,
1.11,95.10577843044148,132.12017090810699,-3.71,-1.93,0.5,0.0,0.0,0.0,1.0,0.0,0.0,0.0,0.0,0.78,0.0,
1.133,95.08257784304415,132.2550170908107,-5.24,-1.67,-1.88,0.0,0.0,0.0,1.0,0.0,0.0,0.0,0.0,0.78,0.0,
1.158,95.19725778430441,132.32250170908108,-5.31,-0.63,-0.06,0.0,0.0,0.0,1.0,0.0,0.0,0.0,0.0,0.78,0.0,
1.181,95.12772577843045,132.1942501709081,-4.15,-0.25,1.58,0.0,0.0,0.0,1.0,0.0,0.0,0.0,0.0,0.78,0.0,
1.205,95.10277257784304,132.21742501709082,-4.2,-1.91,-0.74,0.0,0.0,0.0,1.0,0.0,0.0,0.0,0.0,0.78,0.0,
1.228,95.0732772577843,132.25574250170908,-5.08,-2.14,-1.01,0.0,0.0,0.0,1.0,0.0,0.0,0.0,0.0,0.78,0.0,
1.253,95.42132772577843,132.49357425017092,-3.08,-2.13,2.58,0.0,0.0,0.0,1.0,0.0,0.0,0.0,0.0,0.69,0.0,
1.276,95.56413277257785,132.48135742501708,-1.98,-2.99,0.49,0.0,0.0,0.0,1.0,0.0,0.0,0.0,0.0,0.78,0.0,
1.3,95.69541327725779,132.3901357425017,-3.41,-1.2,-2.67,0.0,0.0,0.0,1.0,0.0,0.0,0.0,0.0,0.78,0.0,
1.324,95.95154132772578,132.59701357425018,-5.02,2.37,-2.16,0.0,0.0,0.0,1.0,0.0,0.0,0.0,0.0,0.78,0.0,
1.347,95.99515413277258,132.617701357425,-3.42,0.89,-1.18,0.0,0.0,0.0,1.0,0.0,0.0,0.0,0.0,0.78,0.0,
1.371,95.82851541327726,132.47577013574252,-2.7,-1.12,-2.4,0.0,0.0,0.0,1.0,0.0,0.0,0.0,0.0,0.88,0.0,
1.395,95.72185154132772,132.54257701357426,-4.85,-1.5,-3.82,0.0,0.0,0.0,1.0,0.0,0.0,0.0,0.0,0.98,0.0,
1.419,95.52218515413277,132.56725770135742,-7.15,0.95,-0.43,0.0,0.0,0.0,1.0,0.0,0.0,0.0,0.0,1.18,0.0,
1.442,95.65521851541328,132.52472577013575,-4.6,-0.39,1.56,0.0,0.0,0.0,1.0,0.0,0.0,0.0,0.0,1.18,0.0,
1.466,95.51552185154134,132.3854725770136,-4.98,-2.23,-0.1,0.0,0.0,0.0,1.0,0.0,0.0,0.0,0.0,1.28,0.0,
1.489,95.32155218515413,132.36254725770135,-6.2,-1.11,-1.33,0.0,0.0,0.0,1.0,0.0,0.0,0.0,0.0,1.37,0.0,
1.514,95.63515521851542,132.50425472577015,-3.09,-1.68,2.43,0.0,0.0,0.0,1.0,0.0,0.0,0.0,0.0,1.37,0.0,
1.538,95.81051552185154,132.30242547257703,-2.22,-1.7,1.7,0.0,0.0,0.0,1.0,0.0,0.0,0.0,0.0,1.47,0.0,
1.561,95.64805155218514,132.1742425472577,-7.37,-1.95,-2.78,0.0,0.0,0.0,1.0,0.0,0.0,0.0,0.0,1.57,0.0,
1.585,95.86580515521851,132.23342425472578,-8.98,-1.47,-1.66,0.0,0.0,0.0,1.0,0.0,0.0,0.0,0.0,1.47,0.0,
1.608,95.91458051552185,132.0143424254726,-8.03,-2.24,-0.93,0.0,0.0,0.0,1.0,0.0,0.0,0.0,0.0,1.28,0.0,
1.633,95.89245805155218,131.80343424254727,-12.02,-1.45,-3.88,0.0,0.0,0.0,1.0,0.0,0.0,0.0,0.0,1.18,0.0,
1.656,96.38524580515522,131.76434342425472,-11.88,-2.49,-3.92,0.0,0.0,0.0,1.0,0.0,0.0,0.0,0.0,1.37,0.0,
1.68,96.66852458051552,131.39143434242547,-13.01,-2.17,-1.4,0.0,0.0,0.0,1.0,0.0,0.0,0.0,0.0,1.28,0.0,
1.704,96.61585245805155,130.67914343424255,-17.99,-2.16,-3.92,0.0,0.0,0.0,1.0,0.0,0.0,0.0,0.0,1.28,0.0,
1.728,96.46658524580516,130.07691434342425,-24.21,-4.66,-8.85,0.0,0.0,0.0,1.0,0.0,0.0,0.0,0.0,1.37,0.0,
1.752,96.27165852458052,129.40469143434245,-30.49,-3.74,-10.17,0.0,0.0,0.0,1.0,0.0,0.0,0.0,0.0,1.47,0.0,
1.776,96.29716585245805,128.68946914343425,-29.74,-4.23,-7.6,0.0,0.0,0.0,1.0,0.0,0.0,0.0,0.0,1.67,0.0,
1.8,96.40771658524581,127.68194691434343,-31.21,-3.96,-4.93,0.0,0.0,0.0,1.0,0.0,0.0,0.0,0.0,1.67,0.0,
1.823,96.30177165852459,126.61819469143435,-38.66,-1.95,-0.93,0.0,0.0,0.0,1.0,0.0,0.0,0.0,0.0,1.67,0.0,
1.848,96.03017716585246,125.53081946914344,-46.52,-0.14,1.47,0.0,0.0,0.0,1.0,0.0,0.0,0.0,0.0,1.96,-2627.61,
1.871,95.98501771658525,124.77408194691435,-48.56,1.95,0.31,0.0,0.0,0.0,1.0,0.0,0.0,0.0,0.0,2.06,0.0,
1.895,96.21450177165852,123.96940819469144,-45.38,7.05,-0.57,0.0,0.0,0.0,1.0,0.0,0.0,0.0,0.0,1.96,0.0,
1.92,96.89445017716585,122.89894081946915,-42.39,3.12,-0.89,0.0,0.0,0.0,1.0,0.0,0.0,0.0,0.0,2.06,0.0,
1.943,97.93444501771658,121.73889408194691,-46.3,5.31,-1.4,0.0,0.0,1.0,1.0,0.0,0.0,0.0,0.0,1.86,0.0,
1.967,100.09944450177167,121.84788940819469,-48.75,-0.97,18.76,0.0,0.0,1.0,1.0,0.0,0.0,0.0,0.0,1.77,0.0,
1.99,100.67594445017716,120.36478894081947,-60.3,7.93,12.15,0.0,0.0,1.0,1.0,0.0,0.0,0.0,0.0,1.28,0.0,
2.015,99.66259444501772,117.34547889408195,-69.51,-1.36,0.89,0.0,0.0,1.0,1.0,0.0,0.0,0.0,0.0,0.88,0.0,
2.038,98.56225944450178,114.87454788940819,-71.8,28.63,8.11,0.0,0.0,1.0,1.0,0.0,0.0,0.0,0.0,1.37,0.0,
2.062,99.14522594445017,112.51245478894083,-72.37,19.24,-0.89,0.0,0.0,1.0,1.0,0.0,0.0,0.0,0.0,1.37,0.0,
2.086,98.95152259444502,109.72024547889407,-66.44,9.42,14.46,0.0,0.0,1.0,1.0,0.0,0.0,0.0,0.0,1.47,0.0,
2.11,98.7701522594445,108.6130245478894,-81.1,12.42,2.73,0.0,0.0,1.0,1.0,0.0,0.0,0.0,0.0,1.67,0.0,
2.134,98.08601522594445,107.96230245478894,-92.73,21.11,13.02,0.0,0.0,1.0,1.0,0.0,0.0,0.0,0.0,1.67,0.0,
2.157,97.54960152259444,107.33923024547889,-89.42,15.26,14.6,0.0,0.0,1.0,1.0,0.0,0.0,0.0,0.0,1.28,0.0,
2.182,97.24396015225943,106.8899230245479,-77.65,18.18,12.5,0.0,0.0,1.0,1.0,0.0,0.0,0.0,0.0,1.08,0.0,
2.205,97.12339601522595,106.0349923024548,-63.64,7.11,11.7,0.0,0.0,1.0,1.0,0.0,0.0,0.0,0.0,1.18,0.0,
2.229,97.5973396015226,105.31049923024548,-55.64,7.85,16.34,0.0,0.0,1.0,1.0,0.0,0.0,0.0,0.0,1.18,0.0,
2.252,97.27573396015225,103.49204992302455,-61.28,11.15,14.82,0.0,0.0,1.0,1.0,0.0,0.0,0.0,0.0,1.28,0.0,
2.277,97.78357339601524,102.06820499230244,-74.69,0.13,2.93,0.0,0.0,1.0,1.0,0.0,0.0,0.0,0.0,0.59,0.0,
2.3,98.56335733960154,101.51182049923025,-79.69,0.47,-8.31,0.0,0.0,1.0,1.0,0.0,0.0,0.0,0.0,0.2,0.0,
2.324,99.10033573396015,100.15118204992302,-80.61,-0.2,-12.87,0.0,0.0,1.0,1.0,0.0,0.0,0.0,0.0,0.29,0.0,
2.349,99.56803357339601,98.61111820499231,-76.15,3.63,-13.24,0.0,0.0,1.0,1.0,0.0,0.0,0.0,0.0,0.29,0.0,
2.372,99.3538033573396,95.73911182049923,-75.39,-4.63,-16.08,0.0,0.0,1.0,1.0,0.0,0.0,0.0,0.0,0.29,0.0,
2.396,98.94538033573396,93.50791118204994,-78.74,-12.05,-20.15,0.0,0.0,1.0,1.0,0.0,0.0,0.0,0.0,0.29,0.0,
2.42,99.0215380335734,91.277791118205,-94.36,-7.22,-22.78,0.0,0.0,1.0,1.0,0.0,0.0,0.0,0.0,0.29,0.0,
2.444,102.49415380335734,92.2517791118205,-85.56,3.62,-13.54,0.0,0.0,1.0,1.0,0.0,0.0,0.0,0.0,0.49,0.0,
2.467,102.52641538033573,90.85517791118205,-100.83,-0.45,-17.71,0.0,0.0,1.0,1.0,0.0,0.0,0.0,0.0,0.69,0.0,
2.492,101.67464153803357,90.22051779111821,-87.91,-16.71,-8.85,0.0,0.0,1.0,1.0,0.0,0.0,0.0,0.0,0.59,0.0,
2.515,100.61746415380335,89.39205177911182,-78.76,-3.15,-9.98,0.0,0.0,1.0,1.0,0.0,0.0,0.0,0.0,0.78,0.0,
2.539,99.35074641538034,88.23820517791118,-71.3,-5.31,-16.21,0.0,0.0,1.0,1.0,0.0,0.0,0.0,0.0,1.08,0.0,
2.564,99.23307464153804,88.06882051779112,-62.01,4.63,-13.22,0.0,0.0,1.0,1.0,0.0,0.0,0.0,0.0,0.0,0.0,
2.587,99.5723074641538,88.65488205177911,-61.53,19.57,-10.02,0.0,0.0,1.0,1.0,0.0,0.0,0.0,0.0,0.0,0.0,
2.611,99.46223074641539,89.06448820517791,-47.99,25.19,-0.04,0.0,0.0,1.0,1.0,0.0,0.0,0.0,0.0,0.0,0.0,
2.635,98.65922307464153,88.86244882051778,-25.02,27.85,2.11,0.0,0.0,1.0,1.0,0.0,0.0,0.0,0.0,0.0,0.0,
2.659,96.87792230746416,87.9422448820518,10.34,10.55,-35.55,0.0,0.0,1.0,1.0,0.0,0.0,0.0,0.0,0.0,0.0,
2.682,96.40279223074641,88.39922448820518,7.25,29.92,28.05,0.0,0.0,1.0,1.0,0.0,0.0,0.0,0.0,0.0,0.0,
2.706,96.07627922307465,88.48092244882051,-42.12,55.59,-7.89,0.0,0.0,1.0,1.0,0.0,0.0,0.0,0.0,0.0,0.0,
2.729,98.03262792230746,82.55809224488206,-28.3,5.5,-6.65,0.0,0.0,0.0,1.0,0.0,0.0,0.0,0.0,0.0,0.0,
2.753,99.20926279223075,80.5708092244882,-2.25,11.21,-2.96,0.0,0.0,0.0,2.0,0.0,0.0,0.0,0.0,0.0,0.0,
2.778,99.91192627922307,80.00308092244882,-18.42,12.85,-14.56,0.0,0.0,0.0,2.0,0.0,0.0,0.0,0.0,0.0,0.0,
2.801,101.5301926279223,79.37030809224488,-31.47,14.34,1.95,0.0,0.0,0.0,3.0,0.0,0.0,0.0,0.0,0.0,0.0,
2.825,102.21401926279223,76.61603080922448,-25.16,7.5,-1.54,0.0,0.0,1.0,4.0,0.0,0.0,0.0,0.0,0.0,0.0,
2.848,101.94940192627922,75.40460308092244,-17.12,3.92,4.04,0.0,0.0,1.0,5.0,0.0,0.0,0.0,0.0,0.0,0.0,
2.873,102.44494019262793,74.33846030809224,-11.5,9.46,-2.21,0.0,0.0,2.0,5.0,0.0,0.0,0.0,0.0,0.0,0.0,
2.896,103.1064940192628,72.90884603080923,-5.79,5.45,1.39,0.0,0.0,2.0,5.0,0.0,0.0,0.0,0.0,0.0,0.0,
2.92,103.45164940192626,72.28888460308093,-4.27,4.45,-1.43,0.0,0.0,2.0,6.0,0.0,0.0,0.0,0.0,0.0,0.0,
2.944,103.67516494019262,71.7408884603081,-7.2,3.29,-1.98,0.0,0.0,2.0,6.0,0.0,0.0,0.0,0.0,0.0,0.0,
2.967,104.18351649401926,71.17308884603081,-5.31,1.76,-2.58,0.0,0.0,2.0,6.0,0.0,0.0,0.0,0.0,0.0,0.0,
2.991,104.46835164940192,70.91830888460308,-4.34,-0.07,-2.03,0.0,0.0,2.0,6.0,0.0,0.0,0.0,0.0,0.0,0.0,
3.015,104.4518351649402,70.55083088846031,-1.21,-0.42,-0.4,0.0,0.0,2.0,6.0,0.0,0.0,0.0,0.0,0.0,0.0,
3.039,104.54018351649401,70.21708308884604,2.33,3.68,-1.61,0.0,0.0,2.0,6.0,0.0,0.0,0.0,0.0,0.0,0.0,
3.062,104.9270183516494,70.1027083088846,1.41,2.85,-0.61,0.0,0.0,1.0,6.0,0.0,0.0,0.0,0.0,0.0,0.0,
3.086,105.13670183516494,69.55127083088846,7.26,3.71,0.28,0.0,0.0,1.0,5.0,0.0,0.0,0.0,0.0,0.0,0.0,
3.109,105.4546701835165,69.37912708308885,23.03,7.73,5.66,0.0,0.0,0.0,4.0,0.0,0.0,0.0,0.0,0.0,0.0,
3.133,105.85546701835165,69.72191270830889,27.73,1.42,12.74,0.0,0.0,0.0,3.0,0.0,0.0,0.0,0.0,0.0,0.0,
3.156,105.69754670183517,70.71919127083089,21.75,-3.0,10.35,0.0,0.0,0.0,2.0,0.0,0.0,0.0,0.0,0.0,0.0,
3.18,105.70875467018351,71.46691912708309,9.2,-2.24,6.0,0.0,0.0,0.0,2.0,0.0,0.0,0.0,0.0,0.0,0.0,
3.205,105.95287546701836,71.75769191270831,-0.44,-4.27,5.67,0.0,0.0,0.0,2.0,0.0,0.0,0.0,0.0,0.0,0.0,
3.228,105.71628754670184,71.99376919127083,-6.45,-3.01,3.6,0.0,0.0,0.0,3.0,0.0,0.0,0.0,0.0,0.0,0.0,
3.252,105.58462875467018,72.25137691912708,-11.01,0.22,7.35,0.0,0.0,0.0,3.0,0.0,0.0,0.0,0.0,0.0,0.0,
3.275,105.26546287546702,72.17813769191271,-18.12,0.72,-2.25,0.0,0.0,1.0,3.0,0.0,0.0,0.0,0.0,0.0,0.0,
3.299,105.9085462875467,71.52281376919127,-28.15,-5.87,-8.44,0.0,0.0,1.0,4.0,0.0,0.0,0.0,0.0,0.0,0.0,
3.323,105.28885462875468,70.43128137691913,-19.69,-10.9,-6.11,0.0,0.0,2.0,5.0,0.0,0.0,0.0,0.0,0.0,0.0,
3.347,104.29988546287547,70.06112813769191,-12.67,-7.37,-8.94,0.0,0.0,2.0,5.0,0.0,0.0,0.0,0.0,0.0,0.0,
3.371,103.56198854628755,69.7901128137692,-12.58,-14.65,-15.56,0.0,0.0,3.0,5.0,0.0,0.0,0.0,0.0,0.0,0.0,
3.395,104.46919885462876,69.94301128137691,-7.54,-12.63,-17.38,0.0,0.0,4.0,5.0,0.0,0.0,0.0,0.0,0.0,0.0,
3.419,103.95691988546288,70.05730112813768,-4.18,-9.27,-20.04,0.0,0.0,4.0,5.0,0.0,0.0,0.0,0.0,0.0,0.0,
3.443,103.34769198854629,69.52873011281378,-10.6,-17.14,-19.98,0.0,0.0,4.0,5.0,0.0,0.0,0.0,0.0,0.0,0.0,
3.467,103.36776919885463,69.24187301128137,-15.23,-10.08,-23.4,0.0,0.0,5.0,5.0,0.0,0.0,0.0,0.0,0.0,0.0,
3.491,103.84677691988547,69.40218730112814,-12.11,-6.92,-20.84,0.0,0.0,5.0,5.0,0.0,0.0,0.0,0.0,0.0,0.0,
3.516,105.02867769198855,69.47221873011281,-7.11,-5.02,-14.69,0.0,0.0,4.0,5.0,0.0,0.0,0.0,0.0,0.0,0.0,
3.539,106.70386776919887,69.75822187301128,-0.07,3.85,-2.6,0.0,0.0,4.0,5.0,0.0,0.0,0.0,0.0,0.0,0.0,
3.563,106.77238677691989,70.05682218730112,-1.89,8.88,1.45,0.0,0.0,3.0,5.0,0.0,0.0,0.0,0.0,0.0,0.0,
3.587,106.31123867769199,70.34768221873011,-4.98,9.45,2.21,0.0,0.0,3.0,5.0,0.0,0.0,0.0,0.0,0.0,0.0,
3.61,105.7881238677692,70.13376822187301,-4.73,0.76,4.34,0.0,0.0,2.0,5.0,0.0,0.0,0.0,0.0,0.0,0.0,
3.634,105.56481238677692,69.96837682218731,-2.54,0.16,2.58,0.0,0.0,2.0,4.0,0.0,0.0,0.0,0.0,0.0,0.0,
3.658,105.5154812386777,69.96983768221872,-2.02,-0.85,0.76,0.0,0.0,2.0,4.0,0.0,0.0,0.0,0.0,0.0,0.0,
3.682,105.42054812386776,69.91598376822186,-3.6,1.06,-0.79,0.0,0.0,2.0,4.0,0.0,0.0,0.0,0.0,0.0,0.0,
3.705,105.63605481238676,69.75759837682219,-4.02,-0.88,3.3,0.0,0.0,2.0,4.0,0.0,0.0,0.0,0.0,0.0,0.0,
3.729,105.84660548123867,69.68775983768222,-2.98,1.12,2.92,0.0,0.0,2.0,4.0,0.0,0.0,0.0,0.0,0.0,0.0,
3.752,105.78666054812386,69.61777598376823,-1.01,4.64,0.92,0.0,0.0,1.0,4.0,0.0,0.0,0.0,0.0,0.0,0.0,
3.776,105.9876660548124,69.82677759837682,-0.4,2.05,2.37,0.0,0.0,1.0,4.0,0.0,0.0,0.0,0.0,0.0,0.0,
3.8,106.21476660548123,69.84767775983768,-0.61,2.73,1.61,0.0,0.0,0.0,3.0,0.0,0.0,0.0,0.0,0.0,0.0,
3.823,106.00347666054813,69.80476777598376,-1.71,2.1,-0.32,0.0,0.0,0.0,3.0,0.0,0.0,0.0,0.0,0.0,0.0,
3.848,106.04534766605481,69.72847677759837,-2.93,0.95,0.01,0.0,0.0,0.0,3.0,0.0,0.0,0.0,0.0,0.0,0.0,
3.871,106.1665347666055,69.62184767775983,-2.63,1.11,0.05,0.0,0.0,0.0,3.0,0.0,0.0,0.0,0.0,0.0,0.0,
3.895,106.09765347666055,69.73718476777599,-1.63,1.95,0.57,0.0,0.0,0.0,3.0,0.0,0.0,0.0,0.0,0.0,0.0,
3.918,105.71276534766606,69.65871847677761,-1.92,-0.45,1.65,0.0,0.0,0.0,3.0,0.0,0.0,0.0,0.0,0.0,0.0,
3.942,105.7012765347666,69.65987184767775,-1.43,-0.55,0.73,0.0,0.0,0.0,3.0,0.0,0.0,0.0,0.0,0.0,0.0,
3.965,105.73612765347666,69.62398718476778,-2.84,0.05,-0.38,0.0,0.0,0.0,3.0,0.0,0.0,0.0,0.0,0.0,0.0,
3.989,105.88361276534766,69.68339871847678,-2.97,-0.53,0.01,0.0,0.0,0.0,3.0,0.0,0.0,0.0,0.0,0.0,0.0,
4.013,105.75436127653477,69.65333987184769,-2.8,-0.56,0.05,0.0,0.0,0.0,3.0,0.0,0.0,0.0,0.0,0.0,0.0,
4.037,105.69643612765347,69.60533398718476,-2.36,-0.49,-0.28,0.0,0.0,0.0,3.0,0.0,0.0,0.0,0.0,0.0,0.0,
4.061,105.69964361276536,69.71753339871847,-2.73,-3.91,2.27,0.0,0.0,0.0,3.0,0.0,0.0,0.0,0.0,0.0,0.0,
4.084,105.78996436127653,69.62075333987184,-2.2,-1.92,-0.07,0.0,0.0,0.0,3.0,0.0,0.0,0.0,0.0,0.0,0.0,
4.108,105.87099643612765,69.67407533398719,-3.07,-0.09,-0.23,0.0,0.0,0.0,3.0,0.0,0.0,0.0,0.0,0.0,0.0,
4.131,105.91509964361276,69.52640753339873,-2.73,-2.24,0.32,0.0,0.0,0.0,3.0,0.0,0.0,0.0,0.0,0.0,0.0,
4.156,105.94650996436128,69.48464075333987,-2.37,-1.75,0.48,0.0,0.0,0.0,2.0,0.0,0.0,0.0,0.0,0.0,0.0,
4.179,105.80565099643614,69.36346407533398,-2.27,-1.37,-0.3,0.0,0.0,0.0,2.0,0.0,0.0,0.0,0.0,0.0,0.0,
4.203,105.87256509964361,69.3603464075334,-1.89,-1.45,0.05,0.0,0.0,0.0,2.0,0.0,0.0,0.0,0.0,0.0,0.0,
4.227,105.82525650996436,69.41403464075334,-1.75,-1.85,-0.27,0.0,0.0,0.0,2.0,0.0,0.0,0.0,0.0,0.0,0.0,
4.25,105.76652565099644,69.49140346407533,-1.82,-1.33,0.08,0.0,0.0,0.0,2.0,0.0,0.0,0.0,0.0,0.0,0.0,
4.274,105.71565256509963,69.52614034640754,-2.45,-0.42,-1.1,0.0,0.0,0.0,2.0,0.0,0.0,0.0,0.0,0.0,0.0,
4.298,105.70156525650997,69.44861403464076,-3.17,-1.4,-1.44,0.0,0.0,0.0,2.0,0.0,0.0,0.0,0.0,0.0,0.0,
4.322,105.709156525651,69.42286140346408,-2.35,-2.02,-0.21,0.0,0.0,0.0,2.0,0.0,0.0,0.0,0.0,0.0,0.0,
4.345,105.6829156525651,69.52828614034641,-2.73,-1.4,-0.61,0.0,0.0,0.0,2.0,0.0,0.0,0.0,0.0,0.0,0.0,
4.369,105.6892915652565,69.55682861403464,-3.26,-1.72,-0.59,0.0,0.0,0.0,2.0,0.0,0.0,0.0,0.0,0.0,0.0,
4.393,105.71692915652564,69.59568286140346,-3.51,-1.1,-1.07,0.0,0.0,0.0,2.0,0.0,0.0,0.0,0.0,0.0,0.0,
4.417,105.70169291565257,69.62656828614034,-2.41,-2.15,-0.16,0.0,0.0,0.0,2.0,0.0,0.0,0.0,0.0,0.0,0.0,
4.441,105.66416929156524,69.62965682861403,-2.31,-2.05,-0.23,0.0,0.0,0.0,2.0,0.0,0.0,0.0,0.0,0.0,0.0,
4.464,105.64241692915652,69.6569656828614,-2.69,-0.86,-1.27,0.0,0.0,0.0,2.0,0.0,0.0,0.0,0.0,0.0,0.0,
4.489,105.65824169291564,69.69569656828614,-3.1,-0.77,-1.1,0.0,0.0,0.0,2.0,0.0,0.0,0.0,0.0,0.0,0.0,
4.512,105.62382416929157,69.72656965682862,-3.17,-0.21,-1.92,0.0,0.0,0.0,2.0,0.0,0.0,0.0,0.0,0.0,0.0,
4.536,105.69238241692916,69.75665696568286,-2.95,-1.26,-1.38,0.0,0.0,0.0,2.0,0.0,0.0,0.0,0.0,0.0,0.0,
4.559,105.75323824169293,69.75966569656829,-3.11,-1.49,-0.85,0.0,0.0,0.0,2.0,0.0,0.0,0.0,0.0,0.0,0.0,
4.584,105.7863238241693,69.79596656965683,-3.21,-1.29,-0.76,0.0,0.0,0.0,2.0,0.0,0.0,0.0,0.0,0.0,0.0,
4.608,105.74463238241692,69.80859665696568,-3.17,-1.41,-0.44,0.0,0.0,0.0,2.0,0.0,0.0,0.0,0.0,0.0,0.0,
4.631,105.74046323824169,69.82785966569656,-3.57,-0.61,-1.31,0.0,0.0,0.0,2.0,0.0,0.0,0.0,0.0,0.0,0.0,
4.655,105.74904632382416,69.80278596656966,-3.44,-0.59,-1.38,0.0,0.0,0.0,2.0,0.0,0.0,0.0,0.0,0.0,0.0,
4.679,105.77690463238241,69.86327859665697,-3.0,-0.89,-1.21,0.0,0.0,0.0,2.0,0.0,0.0,0.0,0.0,0.0,0.0,
4.703,105.82469046323824,69.8423278596657,-3.25,-1.62,-0.98,0.0,0.0,0.0,2.0,0.0,0.0,0.0,0.0,0.0,0.0,
4.726,105.81146904632382,69.85823278596658,-3.51,-1.52,-1.01,0.0,0.0,0.0,2.0,0.0,0.0,0.0,0.0,0.0,0.0,
4.75,105.78314690463237,69.88682327859667,-3.6,-1.22,-1.08,0.0,0.0,0.0,2.0,0.0,0.0,0.0,0.0,0.0,0.0,
4.774,105.76231469046324,69.85368232785966,-3.59,-1.3,-0.92,0.0,0.0,0.0,2.0,0.0,0.0,0.0,0.0,0.0,0.0,
4.798,105.71523146904632,69.86836823278597,-3.69,-1.31,-1.24,0.0,0.0,0.0,2.0,0.0,0.0,0.0,0.0,0.0,0.0,
4.822,105.67452314690463,69.9238368232786,-3.53,-1.39,-1.32,0.0,0.0,0.0,2.0,0.0,0.0,0.0,0.0,0.0,0.0,
4.845,105.66145231469045,69.96538368232785,-3.53,-0.76,-1.76,0.0,0.0,0.0,2.0,0.0,0.0,0.0,0.0,0.0,0.0,
4.87,105.63314523146903,69.87953836823279,-3.73,-1.16,-1.81,0.0,0.0,0.0,2.0,0.0,0.0,0.0,0.0,0.0,0.0,
4.893,105.7023145231469,69.86195383682328,-3.5,-1.36,-1.19,0.0,0.0,0.0,2.0,0.0,0.0,0.0,0.0,0.0,0.0,
4.917,105.7272314523147,69.84219538368232,-3.82,-1.22,-1.1,0.0,0.0,0.0,2.0,0.0,0.0,0.0,0.0,0.0,0.0,
4.94,105.70272314523147,69.84021953836823,-3.98,-0.92,-1.3,0.0,0.0,0.0,2.0,0.0,0.0,0.0,0.0,0.0,0.0,
4.964,105.68227231452315,69.79502195383682,-3.0,-1.35,-0.92,0.0,0.0,0.0,2.0,0.0,0.0,0.0,0.0,0.0,0.0,
4.988,105.68022723145232,69.85350219538368,-2.75,-1.27,-0.55,0.0,0.0,0.0,2.0,0.0,0.0,0.0,0.0,0.0,0.0,
5.012,105.68002272314524,69.85935021953837,-2.6,-1.22,-0.42,0.0,0.0,0.0,2.0,0.0,0.0,0.0,0.0,0.0,0.0,
5.036,105.60800227231451,69.84193502195384,-3.34,-0.89,-1.39,0.0,0.0,0.0,2.0,0.0,0.0,0.0,0.0,0.0,0.0,
5.059,105.67280022723146,69.79519350219539,-3.51,-1.15,-1.2,0.0,0.0,0.0,2.0,0.0,0.0,0.0,0.0,0.0,0.0,
5.084,105.67028002272315,69.82651935021954,-3.09,-1.65,-0.74,0.0,0.0,0.0,2.0,0.0,0.0,0.0,0.0,0.0,0.0,
5.107,105.6880280022723,69.85665193502196,-3.09,-1.46,-0.64,0.0,0.0,0.0,2.0,0.0,0.0,0.0,0.0,0.0,0.0,
5.131,105.64480280022724,69.8236651935022,-3.01,-1.12,-0.97,0.0,0.0,0.0,2.0,0.0,0.0,0.0,0.0,0.0,0.0,
5.154,105.67648028002273,69.87436651935022,-3.1,-0.66,-0.98,0.0,0.0,0.0,2.0,0.0,0.0,0.0,0.0,0.0,0.0,
5.179,105.72464802800228,69.87943665193501,-2.98,-1.01,-0.96,0.0,0.0,0.0,2.0,0.0,0.0,0.0,0.0,0.0,0.0,
5.202,105.66646480280022,69.88894366519351,-2.56,-1.4,-0.87,0.0,0.0,0.0,2.0,0.0,0.0,0.0,0.0,0.0,0.0,
5.226,105.73264648028001,69.95289436651935,-3.02,-1.08,-1.15,0.0,0.0,0.0,2.0,0.0,0.0,0.0,0.0,0.0,0.0,
5.25,105.694264648028,69.93228943665194,-3.49,-1.19,-1.09,0.0,0.0,0.0,2.0,0.0,0.0,0.0,0.0,0.0,0.0,
5.274,105.72642646480281,69.9212289436652,-3.89,-1.16,-1.24,0.0,0.0,0.0,2.0,0.0,0.0,0.0,0.0,0.0,0.0,
5.298,105.72064264648027,69.89312289436653,-3.56,-1.58,-0.73,0.0,0.0,0.0,2.0,0.0,0.0,0.0,0.0,0.0,0.0,
5.321,105.75606426464803,69.97131228943665,-2.92,-1.35,-0.72,0.0,0.0,0.0,2.0,0.0,0.0,0.0,0.0,0.0,0.0,
5.345,105.8046064264648,69.93413122894367,-2.75,-1.18,-0.76,0.0,0.0,0.0,2.0,0.0,0.0,0.0,0.0,0.0,0.0,
5.369,105.86346064264647,69.88541312289436,-3.14,-0.85,-1.19,0.0,0.0,0.0,2.0,0.0,0.0,0.0,0.0,0.0,0.0,
5.393,105.86934606426465,69.88054131228944,-3.25,-1.43,-1.21,0.0,0.0,0.0,2.0,0.0,0.0,0.0,0.0,0.0,0.0,
5.416,105.83393460642647,69.89805413122895,-3.65,-0.65,-1.79,0.0,0.0,0.0,2.0,0.0,0.0,0.0,0.0,0.0,0.0,
5.44,105.80339346064264,69.88180541312289,-3.58,-1.27,-1.1,0.0,0.0,0.0,2.0,0.0,0.0,0.0,0.0,0.0,0.0,
5.465,105.79133934606428,69.90718054131229,-3.13,-1.63,-0.96,0.0,0.0,0.0,2.0,0.0,0.0,0.0,0.0,0.0,0.0,
5.488,105.82613393460642,69.94571805413123,-3.14,-1.34,-0.85,0.0,0.0,0.0,2.0,0.0,0.0,0.0,0.0,0.0,0.0,
5.512,105.82061339346063,69.97657180541313,-3.73,-1.38,-1.23,0.0,0.0,0.0,2.0,0.0,0.0,0.0,0.0,0.0,0.0,
5.535,105.82006133934605,69.93465718054132,-3.58,-1.02,-1.77,0.0,0.0,0.0,2.0,0.0,0.0,0.0,0.0,0.0,0.0,
5.56,105.7750061339346,69.87646571805413,-3.34,-1.02,-1.47,0.0,0.0,0.0,2.0,0.0,0.0,0.0,0.0,0.0,0.0,
5.583,105.75250061339345,69.85264657180541,-2.73,-1.47,-0.82,0.0,0.0,0.0,2.0,0.0,0.0,0.0,0.0,0.0,0.0,
5.607,105.78625006133936,69.79626465718054,-2.95,-1.37,-0.9,0.0,0.0,0.0,2.0,0.0,0.0,0.0,0.0,0.0,0.0,
5.63,105.86162500613393,69.76362646571806,-3.28,-1.28,-0.94,0.0,0.0,0.0,2.0,0.0,0.0,0.0,0.0,0.0,0.0,
5.654,105.8781625006134,69.6973626465718,-3.33,-1.23,-0.98,0.0,0.0,0.0,2.0,0.0,0.0,0.0,0.0,0.0,0.0,
5.679,105.81681625006134,69.69973626465719,-3.33,-1.59,-0.73,0.0,0.0,0.0,2.0,0.0,0.0,0.0,0.0,0.0,0.0,
5.702,105.82868162500613,69.76297362646572,-3.39,-1.42,-0.88,0.0,0.0,0.0,2.0,0.0,0.0,0.0,0.0,0.0,0.0,
5.726,105.86586816250062,69.80529736264657,-3.72,-1.38,-1.24,0.0,0.0,0.0,2.0,0.0,0.0,0.0,0.0,0.0,0.0,
5.749,105.83358681625006,69.79152973626466,-3.11,-1.91,-0.95,0.0,0.0,0.0,2.0,0.0,0.0,0.0,0.0,0.0,0.0,
5.774,105.803358681625,69.81715297362646,-2.6,-1.36,-1.06,0.0,0.0,0.0,2.0,0.0,0.0,0.0,0.0,0.0,0.0,
5.797,105.8453358681625,69.80171529736265,-3.1,-1.34,-0.96,0.0,0.0,0.0,2.0,0.0,0.0,0.0,0.0,0.0,0.0,
5.821,105.84953358681625,69.79117152973627,-3.33,-1.27,-0.93,0.0,0.0,0.0,2.0,0.0,0.0,0.0,0.0,0.0,0.0,
5.844,105.82295335868162,69.79911715297362,-3.47,-1.08,-1.05,0.0,0.0,0.0,2.0,0.0,0.0,0.0,0.0,0.0,0.0,
5.869,105.73929533586816,69.79991171529736,-3.22,-1.44,-1.16,0.0,0.0,0.0,2.0,0.0,0.0,0.0,0.0,0.0,0.0,
5.893,105.7219295335868,69.81799117152973,-3.4,-1.19,-1.25,0.0,0.0,0.0,2.0,0.0,0.0,0.0,0.0,0.0,0.0,
5.916,105.73819295335868,69.82879911715297,-3.42,-1.12,-1.23,0.0,0.0,0.0,2.0,0.0,0.0,0.0,0.0,0.0,0.0,
5.94,105.72181929533586,69.8478799117153,-3.17,-1.61,-1.18,0.0,0.0,0.0,2.0,0.0,0.0,0.0,0.0,0.0,0.0,
5.964,105.69318192953358,69.86778799117153,-3.29,-1.44,-1.21,0.0,0.0,0.0,2.0,0.0,0.0,0.0,0.0,0.0,0.0,
5.988,105.68131819295337,69.90577879911714,-3.69,-1.31,-1.43,0.0,0.0,0.0,2.0,0.0,0.0,0.0,0.0,0.0,0.0,
6.011,105.66213181929533,69.8555778799117,-3.98,-1.05,-1.49,0.0,0.0,0.0,2.0,0.0,0.0,0.0,0.0,0.0,0.0,
6.035,105.63321318192952,69.85955778799118,-3.58,-1.1,-1.79,0.0,0.0,0.0,2.0,0.0,0.0,0.0,0.0,0.0,0.0,
6.06,105.71132131819294,69.84195577879912,-3.34,-1.06,-1.53,0.0,0.0,0.0,2.0,0.0,0.0,0.0,0.0,0.0,0.0,
6.083,105.63813213181929,69.84919557787991,-3.21,-1.37,-1.09,0.0,0.0,0.0,2.0,0.0,0.0,0.0,0.0,0.0,0.0,
6.107,105.69381321318194,69.82291955778798,-3.41,-0.83,-1.6,0.0,0.0,0.0,2.0,0.0,0.0,0.0,0.0,0.0,0.0,
6.13,105.6993813213182,69.84729195577879,-3.32,-1.18,-1.35,0.0,0.0,0.0,2.0,0.0,0.0,0.0,0.0,0.0,0.0,
6.155,105.7089381321318,69.86772919557788,-3.47,-1.44,-1.15,0.0,0.0,0.0,2.0,0.0,0.0,0.0,0.0,0.0,0.0,
6.178,105.73689381321317,69.87877291955778,-3.47,-1.48,-0.82,0.0,0.0,0.0,2.0,0.0,0.0,0.0,0.0,0.0,0.0,
6.202,105.69468938132131,69.86187729195578,-3.47,-1.4,-1.03,0.0,0.0,0.0,2.0,0.0,0.0,0.0,0.0,0.0,0.0,
6.225,105.70846893813213,69.83318772919557,-3.31,-1.83,-1.03,0.0,0.0,0.0,2.0,0.0,0.0,0.0,0.0,0.0,0.0,
6.249,105.6918468938132,69.80331877291955,-3.43,-1.31,-1.01,0.0,0.0,0.0,2.0,0.0,0.0,0.0,0.0,0.0,0.0,
6.274,105.65418468938132,69.83633187729195,-3.58,-1.21,-1.18,0.0,0.0,0.0,2.0,0.0,0.0,0.0,0.0,0.0,0.0,
6.297,105.59641846893814,69.81263318772919,-3.63,-0.95,-1.73,0.0,0.0,0.0,2.0,0.0,0.0,0.0,0.0,0.0,0.0,
6.321,105.60864184689382,69.79226331877292,-3.7,-1.12,-1.44,0.0,0.0,0.0,2.0,0.0,0.0,0.0,0.0,0.0,0.0,
6.344,105.61886418468939,69.79022633187729,-3.59,-1.44,-1.3,0.0,0.0,0.0,2.0,0.0,0.0,0.0,0.0,0.0,0.0,
6.369,105.63788641846894,69.79902263318773,-3.22,-1.57,-0.89,0.0,0.0,0.0,2.0,0.0,0.0,0.0,0.0,0.0,0.0,
6.392,105.63078864184689,69.80890226331877,-3.47,-1.44,-0.95,0.0,0.0,0.0,2.0,0.0,0.0,0.0,0.0,0.0,0.0,
6.416,105.6480788641847,69.81889022633187,-3.27,-1.13,-1.14,0.0,0.0,0.0,2.0,0.0,0.0,0.0,0.0,0.0,0.0,
6.439,105.65880788641846,69.83788902263319,-2.89,-1.79,-0.61,0.0,0.0,0.0,2.0,0.0,0.0,0.0,0.0,0.0,0.0,
6.464,105.59688078864185,69.88478890226332,-2.98,-1.17,-0.67,0.0,0.0,0.0,2.0,0.0,0.0,0.0,0.0,0.0,0.0,
6.488,105.59068807886419,69.87147889022633,-3.34,-1.04,-1.55,0.0,0.0,0.0,2.0,0.0,0.0,0.0,0.0,0.0,0.0,
6.511,105.61706880788643,69.88814788902263,-3.68,-1.4,-1.42,0.0,0.0,0.0,2.0,0.0,0.0,0.0,0.0,0.0,0.0,
6.535,105.70970688078863,69.89881478890227,-3.66,-1.53,-1.51,0.0,0.0,0.0,2.0,0.0,0.0,0.0,0.0,0.0,0.0,
6.559,105.72797068807887,69.90888147889022,-3.73,-1.53,-0.89,0.0,0.0,0.0,2.0,0.0,0.0,0.0,0.0,0.0,0.0,
6.583,105.7567970688079,69.85588814788902,-3.35,-1.6,-0.84,0.0,0.0,0.0,2.0,0.0,0.0,0.0,0.0,0.0,0.0,
6.606,105.81367970688079,69.86858881478891,-3.05,-1.41,-0.82,0.0,0.0,0.0,2.0,0.0,0.0,0.0,0.0,0.0,0.0,
6.63,105.81036797068808,69.86085888147889,-3.3,-0.79,-1.11,0.0,0.0,0.0,2.0,0.0,0.0,0.0,0.0,0.0,0.0,
6.654,105.7830367970688,69.90508588814788,-3.12,-0.92,-1.3,0.0,0.0,0.0,2.0,0.0,0.0,0.0,0.0,0.0,0.0,
6.678,105.74430367970687,69.90950858881479,-3.37,-0.93,-1.5,0.0,0.0,0.0,2.0,0.0,0.0,0.0,0.0,0.0,0.0,
6.702,105.76743036797069,69.90095085888149,-2.97,-1.4,-0.85,0.0,0.0,0.0,2.0,0.0,0.0,0.0,0.0,0.0,0.0,
6.725,105.73374303679708,69.94509508588816,-3.02,-1.77,-0.91,0.0,0.0,0.0,2.0,0.0,0.0,0.0,0.0,0.0,0.0,
6.75,105.7213743036797,69.96750950858882,-3.31,-1.5,-0.99,0.0,0.0,0.0,2.0,0.0,0.0,0.0,0.0,0.0,0.0,
6.773,105.69313743036795,69.92475095085888,-3.48,-1.43,-0.66,0.0,0.0,0.0,2.0,0.0,0.0,0.0,0.0,0.0,0.0,
6.797,105.6993137430368,69.92047509508589,-3.39,-1.23,-0.9,0.0,0.0,0.0,2.0,0.0,0.0,0.0,0.0,0.0,0.0,
6.82,105.74493137430368,69.92904750950859,-3.38,-1.63,-0.73,0.0,0.0,0.0,2.0,0.0,0.0,0.0,0.0,0.0,0.0,
6.845,105.70449313743038,69.93890475095085,-3.41,-1.3,-1.14,0.0,0.0,0.0,2.0,0.0,0.0,0.0,0.0,0.0,0.0,
6.868,105.71844931374304,69.89489047509508,-3.15,-1.41,-1.24,0.0,0.0,0.0,2.0,0.0,0.0,0.0,0.0,0.0,0.0,
6.892,105.7108449313743,69.9084890475095,-3.07,-1.21,-0.6,0.0,0.0,0.0,2.0,0.0,0.0,0.0,0.0,0.0,0.0,
6.916,105.72808449313743,69.90084890475096,-3.08,-1.0,-0.85,0.0,0.0,0.0,2.0,0.0,0.0,0.0,0.0,0.0,0.0,
6.94,105.71180844931374,69.8730848904751,-2.63,-1.05,-0.75,0.0,0.0,0.0,2.0,0.0,0.0,0.0,0.0,0.0,0.0,
6.964,105.75518084493139,69.9063084890475,-2.88,-1.08,-0.9,0.0,0.0,0.0,2.0,0.0,0.0,0.0,0.0,0.0,0.0,
6.987,105.74151808449314,69.94563084890476,-3.13,-1.5,-1.17,0.0,0.0,0.0,2.0,0.0,0.0,0.0,0.0,0.0,0.0,
7.011,105.74015180844931,69.92256308489048,-3.49,-1.55,-1.0,0.0,0.0,0.0,2.0,0.0,0.0,0.0,0.0,0.0,0.0,
7.034,105.73101518084493,69.92025630848906,-3.5,-1.52,-1.44,0.0,0.0,0.0,2.0,0.0,0.0,0.0,0.0,0.0,0.0,
7.059,105.73910151808448,69.92902563084891,-3.61,-1.11,-1.39,0.0,0.0,0.0,2.0,0.0,0.0,0.0,0.0,0.0,0.0,
7.083,105.73991015180844,69.9479025630849,-3.27,-1.12,-1.31,0.0,0.0,0.0,2.0,0.0,0.0,0.0,0.0,0.0,0.0,
7.106,105.73099101518085,69.90479025630849,-3.73,-0.87,-1.34,0.0,0.0,0.0,2.0,0.0,0.0,0.0,0.0,0.0,0.0,
7.13,105.7840991015181,69.86447902563086,-3.5,-0.84,-1.33,0.0,0.0,0.0,2.0,0.0,0.0,0.0,0.0,0.0,0.0,
7.154,105.8074099101518,69.86944790256308,-3.27,-1.47,-1.02,0.0,0.0,0.0,2.0,0.0,0.0,0.0,0.0,0.0,0.0,
7.178,105.82774099101518,69.91494479025631,-3.57,-0.98,-1.13,0.0,0.0,0.0,2.0,0.0,0.0,0.0,0.0,0.0,0.0,
7.201,105.80277409910151,69.91049447902563,-3.9,-1.06,-1.14,0.0,0.0,0.0,2.0,0.0,0.0,0.0,0.0,0.0,0.0,
7.225,105.80027740991015,69.94604944790257,-3.66,-1.01,-1.3,0.0,0.0,0.0,2.0,0.0,0.0,0.0,0.0,0.0,0.0,
7.249,105.76402774099103,69.93160494479027,-3.47,-0.53,-1.58,0.0,0.0,0.0,2.0,0.0,0.0,0.0,0.0,0.0,0.0,
7.273,105.7604027740991,69.91216049447902,-3.25,-1.06,-1.18,0.0,0.0,0.0,2.0,0.0,0.0,0.0,0.0,0.0,0.0,
7.297,105.8050402774099,69.94621604944791,-3.44,-1.02,-1.21,0.0,0.0,0.0,2.0,0.0,0.0,0.0,0.0,0.0,0.0,
7.32,105.764504027741,69.91362160494478,-3.25,-1.32,-1.06,0.0,0.0,0.0,2.0,0.0,0.0,0.0,0.0,0.0,0.0,
7.345,105.68845040277411,69.87436216049448,-2.86,-1.73,-0.82,0.0,0.0,0.0,2.0,0.0,0.0,0.0,0.0,0.0,0.0,
7.368,105.68084504027742,69.92443621604946,-2.56,-1.95,-0.37,0.0,0.0,0.0,2.0,0.0,0.0,0.0,0.0,0.0,0.0,
7.392,105.62608450402774,69.87544362160494,-2.56,-2.64,-0.11,0.0,0.0,0.0,2.0,0.0,0.0,0.0,0.0,0.0,0.0,
7.415,105.69260845040279,69.90654436216049,-1.84,-2.75,0.04,0.0,0.0,0.0,2.0,0.0,0.0,0.0,0.0,0.0,0.0,
7.44,105.64526084504028,69.80165443621605,-1.31,-2.15,0.11,0.0,0.0,0.0,2.0,0.0,0.0,0.0,0.0,0.0,0.0,
7.463,105.63152608450402,69.8721654436216,-0.82,-2.93,-2.05,0.0,0.0,0.0,2.0,0.0,0.0,0.0,0.0,0.0,0.0,
7.487,105.68415260845039,69.87921654436215,-1.53,-1.99,-1.27,0.0,0.0,0.0,2.0,0.0,0.0,0.0,0.0,0.0,0.0,
7.511,105.68041526084505,69.91592165443622,-1.92,-2.0,-1.79,0.0,0.0,0.0,2.0,0.0,0.0,0.0,0.0,0.0,0.0,
7.534,105.7160415260845,69.92859216544363,-1.84,-2.15,-2.34,0.0,0.0,0.0,1.0,0.0,0.0,0.0,0.0,0.2,0.0,
7.559,105.66560415260844,69.89385921654437,-0.63,-3.83,-1.24,0.0,0.0,0.0,1.0,0.0,0.0,0.0,0.0,0.49,0.0,
7.582,105.74156041526084,69.93538592165443,0.35,-6.87,-0.31,0.0,0.0,0.0,1.0,0.0,0.0,0.0,0.0,0.0,0.0,
7.606,105.74915604152608,69.93053859216545,3.65,-10.37,3.15,0.0,0.0,0.0,1.0,0.0,0.0,0.0,0.0,0.0,0.0,
7.629,105.4169156041526,69.69605385921655,5.69,-12.89,2.99,0.0,0.0,0.0,1.0,0.0,0.0,0.0,0.0,0.0,0.0,
7.653,104.82569156041527,69.82560538592165,10.37,-8.98,1.83,0.0,0.0,0.0,1.0,0.0,0.0,0.0,0.0,0.0,0.0,
7.677,104.41556915604153,70.52256053859216,7.26,0.66,0.61,0.0,0.0,0.0,0.0,0.0,0.0,0.0,0.1,0.0,0.0,
7.701,104.42855691560416,71.52825605385921,-0.24,0.16,4.39,0.0,0.0,0.0,0.0,0.0,0.0,0.0,0.0,0.0,0.0,
7.725,104.67285569156041,71.18782560538592,-2.24,1.23,1.5,0.0,0.0,0.0,1.0,0.0,0.0,0.0,0.1,0.0,0.0,
7.748,105.25528556915603,69.7047825605386,5.49,5.73,-1.02,0.0,0.0,0.0,1.0,0.0,0.0,0.0,0.0,0.0,0.0,
7.772,105.7815285569156,68.74647825605386,5.52,1.18,-7.76,0.0,0.0,0.0,1.0,0.0,0.0,0.0,0.1,0.0,0.0,
7.795,106.94115285569156,69.08264782560539,2.6,1.53,3.48,0.0,0.0,0.0,0.0,0.0,0.0,0.0,0.2,0.0,0.0,
7.819,107.77711528556917,69.80026478256053,10.54,-1.24,3.93,0.0,0.0,0.0,1.0,0.0,0.0,0.0,0.2,0.0,0.0,
7.842,107.50971152855692,70.81702647825607,6.45,-3.34,2.37,0.0,0.0,0.0,0.0,0.0,0.0,0.0,0.1,0.0,0.0,
7.866,106.30397115285568,71.97170264782561,-2.09,6.86,3.53,0.0,0.0,0.0,1.0,0.0,0.0,0.0,0.0,0.0,0.0,
7.889,105.06739711528557,71.98817026478255,-3.89,10.51,7.91,0.0,0.0,0.0,1.0,0.0,0.0,0.0,0.0,0.0,0.0,
7.913,105.33073971152855,70.91881702647825,8.64,5.82,-1.01,0.0,0.0,0.0,0.0,0.0,0.0,0.0,0.0,0.0,0.0,
7.937,105.36607397115287,71.45088170264783,22.38,-4.17,-0.83,0.0,0.0,0.0,0.0,0.0,0.0,0.0,0.0,0.1,0.0,
7.961,105.30660739711529,73.33108817026479,9.2,4.64,-2.04,0.0,0.0,0.0,0.0,0.0,0.0,0.0,0.0,0.39,0.0,
7.985,105.08466073971152,74.23910881702648,0.35,11.11,13.34,0.0,0.0,0.0,0.0,0.0,0.0,0.0,0.0,0.59,0.0,
8.008,105.34146607397116,74.11391088170265,-5.7,20.1,10.79,0.0,0.0,0.0,0.0,0.0,0.0,0.0,0.0,0.59,0.0,
8.032,106.13214660739712,73.16539108817027,3.69,23.87,6.42,0.0,0.0,0.0,0.0,0.0,0.0,0.0,0.0,0.0,0.0,
8.055,107.23721466073971,75.23953910881703,-10.59,13.18,8.43,0.0,0.0,0.0,0.0,0.0,0.0,0.0,0.0,0.0,0.0,
8.079,107.34772146607396,75.0869539108817,-51.39,4.88,8.51,0.0,0.0,0.0,0.0,0.0,0.0,0.0,0.0,0.0,0.0,
8.102,108.42977214660739,72.15569539108817,-47.46,-7.37,8.44,0.0,0.0,0.0,0.0,0.0,0.0,0.0,0.0,0.0,0.0,
8.126,108.78097721466074,70.62056953910881,-31.92,-8.95,-4.02,0.0,0.0,0.0,0.0,0.0,0.0,0.0,0.0,0.0,0.0,
8.15,107.72709772146608,70.30505695391088,-15.51,-12.4,-4.47,0.0,0.0,0.0,0.0,0.0,0.0,0.0,0.0,2.75,0.0,
8.174,106.9377097721466,70.6155056953911,-18.15,-10.74,3.34,0.0,0.0,1.0,1.0,0.0,0.0,0.0,0.0,0.69,0.0,
8.198,106.51677097721466,70.9075505695391,-30.08,-8.18,2.44,0.0,0.0,1.0,4.0,0.0,0.0,0.0,0.0,4.12,0.0,
8.221,105.84467709772146,69.9107550569539,-25.59,-0.23,0.68,0.0,0.0,1.0,6.0,0.0,0.0,0.0,0.0,1.47,0.0,
8.245,106.22746770977214,69.10907550569539,-23.41,6.56,3.16,0.0,0.0,1.0,8.0,0.0,0.0,0.0,0.0,6.18,0.0,
8.269,106.47274677097722,68.56090755056954,-8.74,-0.31,2.15,0.0,0.0,2.0,8.0,0.0,0.0,0.0,0.0,6.77,0.0,
8.293,106.33527467709771,68.46109075505696,-5.78,-1.41,-0.05,0.0,0.0,2.0,8.0,0.0,0.0,0.0,0.0,5.89,0.0,
8.316,106.42952746770978,68.63110907550569,-21.79,-2.02,-12.63,0.0,0.0,3.0,10.0,0.0,0.0,0.0,0.0,6.97,0.0,
8.34,106.51995274677098,68.07211090755057,-38.24,-6.4,-14.49,0.0,0.0,3.0,11.0,0.0,0.0,0.0,0.0,7.46,0.0,
8.365,106.4299952746771,67.60221109075506,-12.56,1.63,-3.98,0.0,0.0,4.0,0.0,0.0,0.0,0.0,0.0,10.01,0.0,
8.388,106.1869995274677,67.42022110907551,-4.35,7.71,-2.14,0.0,0.0,4.0,2.0,0.0,0.0,0.0,0.0,7.95,0.0,
8.412,106.72969995274677,67.55502211090754,-3.82,-0.4,-3.15,0.0,0.0,5.0,2.0,0.0,0.0,0.0,0.0,9.81,0.0,
8.436,106.88296999527468,67.11850221109074,-10.23,0.51,-5.83,0.0,0.0,5.0,3.0,0.0,0.0,0.0,0.0,10.69,0.0,
8.46,106.92529699952748,67.06585022110907,0.21,3.12,-4.1,0.0,0.0,5.0,3.0,0.0,0.0,0.0,0.0,11.77,0.0,
8.483,107.30752969995274,66.8265850221109,14.45,7.95,-1.13,0.0,0.0,4.0,0.0,0.0,0.0,0.0,0.0,12.56,0.0,
8.507,107.27375296999526,67.0096585022111,18.21,3.42,-0.17,0.0,0.0,3.0,10.0,0.0,0.0,0.0,0.0,11.58,0.0,
8.531,107.80137529699952,67.48696585022111,7.89,-1.44,-1.08,0.0,0.0,3.0,9.0,0.0,0.0,0.0,0.0,9.12,0.0,
8.555,108.24113752969996,68.02069658502211,-12.27,-5.37,-6.87,0.0,0.0,3.0,10.0,0.0,0.0,0.0,0.0,6.28,0.0,
8.579,108.03311375297,67.66906965850221,-4.5,-3.5,-1.08,0.0,0.0,3.0,10.0,0.0,0.0,0.0,0.0,4.71,0.0,
8.603,107.83231137529701,67.35490696585022,6.67,2.6,1.82,0.0,0.0,3.0,10.0,0.0,0.0,0.0,0.0,4.61,0.0,
8.627,108.0012311375297,67.62949069658502,5.74,2.02,1.05,0.0,0.0,3.0,10.0,0.0,0.0,0.0,0.0,4.91,0.0,
8.65,108.09012311375295,67.9089490696585,-3.7,1.63,-0.46,0.0,0.0,4.0,10.0,0.0,0.0,0.0,0.0,4.81,0.0,
8.674,108.15301231137529,67.89189490696585,-10.21,-1.11,-1.3,0.0,0.0,4.0,10.0,0.0,0.0,0.0,0.0,4.71,0.0,
8.697,108.24930123113754,67.88118949069658,-8.82,-5.2,0.33,0.0,0.0,4.0,10.0,0.0,0.0,0.0,0.0,5.49,0.0,
8.722,108.09693012311375,67.59211894906966,-3.72,-10.47,3.92,0.0,0.0,4.0,10.0,0.0,0.0,0.0,0.0,5.59,0.0,
8.745,107.83869301231138,67.25721189490696,1.37,-15.25,3.53,0.0,0.0,4.0,8.0,0.0,0.0,0.0,0.0,3.92,0.0,
8.769,107.56986930123114,67.2327211894907,0.34,-21.58,4.7,0.0,0.0,4.0,6.0,0.0,0.0,0.0,0.0,0.1,0.0,
8.793,107.2729869301231,67.16727211894906,6.11,-29.79,6.81,0.0,0.0,3.0,4.0,0.0,0.0,0.0,0.0,0.0,0.0,
8.816,106.16329869301231,66.9807272118949,12.97,-31.34,12.61,0.0,0.0,2.0,2.0,0.0,0.0,0.0,0.0,0.0,0.0,
8.841,105.11632986930123,66.76407272118948,1.15,-24.79,13.18,0.0,0.0,2.0,1.0,0.0,0.0,0.0,0.0,0.0,0.0,
8.864,104.04863298693013,66.16640727211895,-15.92,-9.95,10.7,0.0,0.0,2.0,1.0,0.0,0.0,0.0,0.0,0.0,0.0,
8.888,102.78986329869302,64.36064072721189,-21.74,-27.49,14.6,0.0,0.0,2.0,0.0,0.0,0.0,0.0,0.0,0.49,0.0,
8.912,101.5299863298693,63.57706407272119,-23.47,-10.18,7.98,0.0,0.0,2.0,0.0,0.0,0.0,0.0,0.0,1.18,0.0,
8.936,100.89099863298694,63.55270640727212,-30.08,-34.46,2.35,0.0,0.0,2.0,0.0,0.0,0.0,0.0,0.0,2.55,0.0,
8.96,100.38609986329868,64.45927064072721,-35.07,-31.5,-5.34,0.0,0.0,2.0,0.0,0.0,0.0,0.0,0.0,3.43,0.0,
8.984,99.71460998632986,65.44092706407272,-27.1,-15.7,-5.89,0.0,0.0,2.0,0.0,0.0,0.0,0.0,0.0,4.02,0.0,
9.008,99.350460998633,66.80809270640727,0.31,-1.92,-28.96,0.0,0.0,2.0,0.0,0.0,0.0,0.0,0.0,4.22,0.0,
9.031,101.4290460998633,67.64680927064072,5.51,-10.2,-29.57,0.0,0.0,2.0,1.0,0.0,0.0,0.0,0.0,3.43,0.0,
9.056,104.84990460998634,68.15368092706407,17.53,16.33,-2.15,0.0,0.0,2.0,1.0,0.0,0.0,0.0,0.0,2.65,0.0,
9.079,105.35399046099863,68.4833680927064,12.51,7.1,12.66,0.0,0.0,2.0,2.0,0.0,0.0,0.0,0.0,1.47,0.0,
9.103,103.84739904609987,68.65133680927065,2.29,4.66,14.86,0.0,0.0,2.0,3.0,0.0,0.0,0.0,0.0,0.39,0.0,
9.126,102.60773990460999,68.67713368092707,-2.83,9.66,8.18,0.0,0.0,2.0,3.0,0.0,0.0,0.0,0.0,0.0,0.0,
9.15,101.94377399046101,68.2207133680927,-2.02,13.27,2.96,0.0,0.0,2.0,3.0,0.0,0.0,0.0,0.0,0.0,0.0,
9.174,101.7513773990461,67.83307133680928,-1.9,15.02,-6.22,0.0,0.0,2.0,3.0,0.0,0.0,0.0,0.0,0.0,0.0,
9.198,101.97513773990461,67.44330713368093,-2.7,14.51,-11.58,0.0,0.0,2.0,3.0,0.0,0.0,0.0,0.0,0.0,0.0,
9.222,102.60051377399046,67.3233307133681,-2.24,8.83,-9.52,0.0,0.0,2.0,4.0,0.0,0.0,0.0,0.0,0.0,0.0,
9.245,103.27505137739905,67.3023330713368,-3.37,3.21,-4.06,0.0,0.0,2.0,4.0,0.0,0.0,0.0,0.0,0.0,0.0,
9.269,103.95450513773991,67.32723330713368,-3.93,2.23,2.28,0.0,0.0,2.0,4.0,0.0,0.0,0.0,0.0,0.0,0.0,
9.292,104.220450513774,67.15872333071337,-3.02,0.6,6.42,0.0,0.0,2.0,5.0,0.0,0.0,0.0,0.0,0.0,0.0,
9.316,103.9950450513774,66.95287233307134,-1.68,2.18,7.08,0.0,0.0,2.0,5.0,0.0,0.0,0.0,0.0,0.0,0.0,
9.339,103.61250450513774,66.90528723330713,-1.53,6.97,2.76,0.0,0.0,2.0,5.0,0.0,0.0,0.0,0.0,0.0,0.0,
9.363,103.64625045051378,66.71152872333072,-2.98,7.88,-1.34,0.0,0.0,2.0,5.0,0.0,0.0,0.0,0.0,0.0,0.0,
9.388,103.86562504505139,66.66515287233307,-3.15,5.2,-1.24,0.0,0.0,2.0,5.0,0.0,0.0,0.0,0.0,0.0,0.0,
9.411,104.21156250450514,66.4355152872333,-3.32,3.47,-0.46,0.0,0.0,2.0,6.0,0.0,0.0,0.0,0.0,0.0,0.0,
9.435,104.37215625045052,66.53855152872333,-2.66,1.33,1.85,0.0,0.0,2.0,6.0,0.0,0.0,0.0,0.0,0.0,0.0,
9.458,104.42421562504506,66.50385515287233,-3.51,2.39,2.94,0.0,0.0,2.0,6.0,0.0,0.0,0.0,0.0,0.0,0.0,
9.482,104.3574215625045,66.44638551528723,-3.47,2.53,0.73,0.0,0.0,2.0,7.0,0.0,0.0,0.0,0.0,0.0,0.0,
9.505,104.28774215625045,66.65663855152873,-2.96,3.29,-0.56,0.0,0.0,2.0,7.0,0.0,0.0,0.0,0.0,0.0,0.0,
9.529,104.37077421562503,66.93866385515287,-3.71,2.48,-1.19,0.0,0.0,2.0,7.0,0.0,0.0,0.0,0.0,0.0,0.0,
9.552,104.5320774215625,66.92186638551529,-5.05,3.58,-2.37,0.0,0.0,2.0,7.0,0.0,0.0,0.0,0.0,0.0,0.0,
9.577,104.69220774215624,66.91118663855153,-4.27,3.23,-2.05,0.0,0.0,2.0,8.0,0.0,0.0,0.0,0.0,0.0,0.0,
9.601,104.69922077421563,66.75711866385515,-2.87,3.5,-0.27,0.0,0.0,3.0,8.0,0.0,0.0,0.0,0.0,0.0,0.0,
9.624,104.69992207742156,66.65171186638551,0.07,3.47,0.31,0.0,0.0,3.0,8.0,0.0,0.0,0.0,0.0,0.0,0.0,
9.648,104.82599220774216,66.65917118663855,-0.07,3.43,-1.02,0.0,0.0,3.0,8.0,0.0,0.0,0.0,0.0,0.0,0.0,
9.671,105.00059922077422,66.71391711866386,-2.97,1.55,-2.31,0.0,0.0,3.0,8.0,0.0,0.0,0.0,0.0,0.0,0.0,
9.695,105.02705992207743,66.8273917118664,-4.29,2.18,-2.71,0.0,0.0,3.0,8.0,0.0,0.0,0.0,0.0,0.0,0.0,
9.718,105.06570599220774,66.81173917118664,-5.61,6.26,-3.4,0.0,0.0,3.0,9.0,0.0,0.0,0.0,0.0,0.0,0.0,
9.743,105.30357059922076,66.71117391711866,-4.56,7.06,-3.27,0.0,0.0,3.0,10.0,0.0,0.0,0.0,0.0,0.0,0.0,
9.766,105.67835705992206,66.81811739171187,-5.37,3.87,-0.93,0.0,0.0,3.0,10.0,0.0,0.0,0.0,0.0,0.0,0.0,
9.79,105.96783570599221,66.81081173917119,-7.21,0.29,-0.44,0.0,0.0,3.0,11.0,0.0,0.0,0.0,0.0,0.0,0.0,
9.814,106.15878357059923,66.57608117391712,-8.38,-2.98,1.35,0.0,0.0,3.0,11.0,0.0,0.0,0.0,0.0,0.0,0.0,
9.838,106.20487835705993,66.48060811739171,-8.12,-3.5,1.75,0.0,0.0,3.0,12.0,0.0,0.0,0.0,0.0,0.2,0.0,
9.862,106.182487835706,66.41706081173916,-8.43,-3.53,1.42,0.0,0.0,4.0,1.0,0.0,0.0,0.0,0.0,0.98,0.0,
9.885,106.0002487835706,66.40170608117393,-10.38,-4.44,0.46,0.0,0.0,4.0,2.0,0.0,0.0,0.0,0.0,1.86,0.0,
9.909,105.85602487835706,66.2471706081174,-10.2,-3.27,-1.61,0.0,0.0,4.0,4.0,0.0,0.0,0.0,0.0,2.94,0.0,
9.933,105.8776024878357,65.90771706081175,-7.97,-1.56,-2.02,0.0,0.0,4.0,5.0,0.0,0.0,0.0,0.0,4.32,0.0,
9.957,105.90676024878357,65.83777170608117,-4.87,-0.43,-0.9,0.0,0.0,4.0,7.0,0.0,0.0,0.0,0.0,5.4,0.0,
9.981,105.92767602487835,65.79477717060811,-5.08,-1.11,1.08,0.0,0.0,5.0,8.0,0.0,0.0,0.0,0.0,6.38,0.0,
10.005,105.85776760248783,65.73647771706081,-5.71,-0.1,-0.19,0.0,0.0,5.0,9.0,0.0,0.0,0.0,0.0,7.46,0.0,
10.029,105.82377676024878,65.69464777170609,-5.11,0.8,-1.63,0.0,0.0,5.0,9.0,0.0,0.0,0.0,0.0,8.63,0.0,
10.053,105.93737767602488,65.5104647771706,-3.75,0.94,-1.79,0.0,0.0,5.0,9.0,0.0,0.0,0.0,0.0,9.61,0.0,
10.077,106.01173776760248,65.39304647771706,-1.6,1.63,-1.03,0.0,0.0,5.0,10.0,0.0,0.0,0.0,0.0,10.1,0.0,
10.1,106.01917377676024,65.39930464777171,-0.34,2.53,-1.19,0.0,0.0,5.0,10.0,0.0,0.0,0.0,0.0,10.5,0.0,
10.125,106.16391737767603,65.48093046477716,-3.37,1.14,-1.31,0.0,0.0,5.0,10.0,0.0,0.0,0.0,0.0,10.89,0.0,
10.149,106.2233917377676,65.39009304647772,-3.73,1.6,-2.69,0.0,0.0,5.0,11.0,0.0,0.0,0.0,0.0,11.48,0.0,
10.173,106.17533917377675,65.39000930464778,-2.53,1.03,-2.56,0.0,0.0,5.0,11.0,0.0,0.0,0.0,0.0,12.36,0.0,
10.198,106.27853391737767,65.44400093046478,-0.79,1.15,-0.99,0.0,0.0,5.0,11.0,0.0,0.0,0.0,0.0,12.46,0.0,
10.221,106.32485339173776,65.47640009304648,0.61,1.15,-1.48,0.0,0.0,4.0,10.0,0.0,0.0,0.0,0.0,12.26,0.0,
10.246,106.19448533917378,65.62364000930465,1.18,2.5,-3.08,0.0,0.0,4.0,8.0,0.0,0.0,0.0,0.0,11.87,0.0,
10.269,106.20844853391738,65.61136400093046,2.55,2.99,-2.58,0.0,0.0,4.0,8.0,0.0,0.0,0.0,0.0,11.58,0.0,
10.293,106.35384485339173,65.88013640009304,2.94,2.58,-2.98,0.0,0.0,4.0,5.0,0.0,0.0,0.0,0.0,11.09,0.0,
10.317,106.66538448533917,65.92501364000931,1.35,0.04,-2.07,0.0,0.0,4.0,4.0,0.0,0.0,0.0,0.0,10.2,0.0,
10.341,106.81353844853392,66.00150136400093,-1.72,-1.75,-2.25,0.0,0.0,4.0,4.0,0.0,0.0,0.0,0.0,9.42,0.0,
10.364,106.7743538448534,66.06315013640008,-2.64,-1.85,-2.3,0.0,0.0,4.0,4.0,0.0,0.0,0.0,0.0,8.83,0.0,
10.389,106.85143538448534,65.99731501364,-3.03,-1.95,-1.65,0.0,0.0,4.0,3.0,0.0,0.0,0.0,0.0,8.53,0.0,
10.413,106.90414353844852,66.053731501364,-2.79,-3.15,-0.29,0.0,0.0,4.0,3.0,0.0,0.0,0.0,0.0,8.04,0.0,
10.436,106.90041435384485,66.0863731501364,-2.55,-4.5,0.45,0.0,0.0,4.0,3.0,0.0,0.0,0.0,0.0,7.55,0.0,
10.46,106.88204143538448,66.12563731501363,-2.89,-6.04,0.57,0.0,0.0,4.0,3.0,0.0,0.0,0.0,0.0,6.57,0.0,
10.484,106.68220414353844,66.10256373150136,-4.66,-7.06,0.92,0.0,0.0,4.0,3.0,0.0,0.0,0.0,0.0,5.4,0.0,
10.508,106.59922041435385,66.19925637315013,-6.02,-7.4,0.84,0.0,0.0,4.0,3.0,0.0,0.0,0.0,0.0,4.61,0.0,
10.531,106.39292204143538,66.136925637315,-5.28,-5.31,0.36,0.0,0.0,4.0,4.0,0.0,0.0,0.0,0.0,4.22,0.0,
10.555,106.12929220414352,66.1126925637315,-4.32,-2.44,-1.14,0.0,0.0,4.0,4.0,0.0,0.0,0.0,0.0,3.73,0.0,
10.579,106.12092922041435,66.01126925637314,-2.95,-1.29,-2.14,0.0,0.0,4.0,4.0,0.0,0.0,0.0,0.0,2.94,0.0,
10.603,106.14709292204144,66.07312692563731,-3.76,-1.45,-1.82,0.0,0.0,4.0,4.0,0.0,0.0,0.0,0.0,2.65,0.0,
10.627,106.23070929220414,66.11531269256373,-4.71,-2.21,-0.69,0.0,0.0,4.0,5.0,0.0,0.0,0.0,0.0,2.65,0.0,
10.651,106.25707092922042,66.08353126925637,-5.04,-1.79,-0.4,0.0,0.0,4.0,5.0,0.0,0.0,0.0,0.0,2.75,0.0,
10.675,106.17870709292204,65.98135312692563,-5.04,-1.47,-0.76,0.0,0.0,4.0,5.0,0.0,0.0,0.0,0.0,2.94,0.0,
10.698,106.2788707092922,65.90813531269256,-4.27,-1.71,-0.89,0.0,0.0,4.0,6.0,0.0,0.0,0.0,0.0,3.24,0.0,
10.723,106.36088707092922,65.84681353126926,-3.3,-3.09,0.37,0.0,0.0,4.0,6.0,0.0,0.0,0.0,0.0,3.43,0.0,
10.746,106.29708870709293,65.88568135312693,-3.39,-2.76,0.46,0.0,0.0,4.0,6.0,0.0,0.0,0.0,0.0,3.34,0.0,
10.77,106.20970887070929,65.96156813531269,-4.51,-3.84,0.14,0.0,0.0,4.0,6.0,0.0,0.0,0.0,0.0,3.04,0.0,
10.795,106.11997088707092,65.93315681353128,-6.54,-5.23,-0.01,0.0,0.0,4.0,6.0,0.0,0.0,0.0,0.0,2.65,0.0,
10.818,106.03899708870709,65.81331568135313,-6.61,-5.21,-0.11,0.0,0.0,4.0,7.0,0.0,0.0,0.0,0.0,2.16,0.0,
10.843,105.85089970887071,65.77433156813531,-4.53,-3.04,-0.79,0.0,0.0,4.0,8.0,0.0,0.0,0.0,0.0,1.96,0.0,
10.866,105.78708997088707,65.71643315681352,-2.22,-1.77,-1.05,0.0,0.0,4.0,8.0,0.0,0.0,0.0,0.0,1.86,0.0,
10.89,105.7537089970887,65.71064331568135,-1.72,-0.6,-0.92,0.0,0.0,4.0,8.0,0.0,0.0,0.0,0.0,1.96,0.0,
10.914,105.75937089970888,65.67406433156813,-2.25,-0.47,-1.15,0.0,0.0,4.0,7.0,0.0,0.0,0.0,0.0,2.16,0.0,
10.938,105.75993708997089,65.64340643315681,-2.34,-0.3,-1.39,0.0,0.0,4.0,7.0,0.0,0.0,0.0,0.0,2.26,0.0,
10.961,105.7869937089971,65.70334064331567,-2.05,-1.47,-0.99,0.0,0.0,4.0,6.0,0.0,0.0,0.0,0.0,2.35,0.0,
10.986,105.74469937089971,65.70933406433156,-1.66,-3.05,-0.59,0.0,0.0,4.0,6.0,0.0,0.0,0.0,0.0,1.96,0.0,
11.01,105.66846993708997,65.63793340643315,-1.15,-2.89,-0.37,0.0,0.0,4.0,6.0,0.0,0.0,0.0,0.0,1.57,0.0,
11.033,105.597846993709,65.66679334064331,-1.39,-0.97,-1.29,0.0,0.0,4.0,5.0,0.0,0.0,0.0,0.0,1.08,0.0,
11.058,105.5907846993709,65.77767933406433,-1.66,-0.06,-1.92,0.0,0.0,4.0,5.0,0.0,0.0,0.0,0.0,0.78,0.0,
11.081,105.5900784699371,65.79776793340643,-3.73,-0.65,-2.06,0.0,0.0,4.0,5.0,0.0,0.0,0.0,0.0,0.39,0.0,
11.106,105.6530078469937,65.74577679334064,-3.98,-0.68,-1.9,0.0,0.0,4.0,5.0,0.0,0.0,0.0,0.0,0.2,0.0,
11.129,105.65930078469935,65.73157767933407,-2.74,-2.02,-0.89,0.0,0.0,4.0,5.0,0.0,0.0,0.0,0.0,0.1,0.0,
11.153,105.61493007846994,65.7571577679334,-2.76,-2.86,-0.4,0.0,0.0,4.0,5.0,0.0,0.0,0.0,0.0,0.0,0.0,
11.177,105.57449300784698,65.84971577679335,-2.98,-2.3,-0.85,0.0,0.0,4.0,5.0,0.0,0.0,0.0,0.0,0.0,0.0,
11.201,105.5614493007847,65.90397157767933,-3.7,-1.26,-1.51,0.0,0.0,4.0,5.0,0.0,0.0,0.0,0.0,0.0,0.0,
11.226,105.67714493007847,65.88239715776793,-2.37,-1.5,-1.55,0.0,0.0,4.0,5.0,0.0,0.0,0.0,0.0,0.0,0.0,
11.249,105.63471449300783,65.80823971577679,6.91,-1.65,3.8,0.0,0.0,3.0,3.0,0.0,0.0,0.0,0.0,0.1,0.0,
11.273,105.72947144930077,66.52982397157767,26.67,2.59,20.27,0.0,0.0,1.0,11.0,0.0,0.0,0.0,0.0,0.39,0.0,
11.297,105.54094714493007,66.47598239715776,26.82,9.15,28.45,0.0,0.0,0.0,9.0,0.0,0.0,0.0,0.0,0.69,0.0,
11.321,105.61209471449301,66.44359823971577,22.63,7.47,12.4,0.0,0.0,0.0,7.0,0.0,0.0,0.0,0.0,8.14,0.0,
11.344,105.7272094714493,67.10635982397159,16.21,6.46,0.02,0.0,0.0,0.0,5.0,0.0,0.0,0.0,0.0,11.18,0.0,
11.369,106.14372094714493,67.55063598239715,10.07,4.19,-1.6,0.0,0.0,0.0,4.0,0.0,0.0,0.0,0.0,11.67,0.0,
11.393,106.39237209471449,68.14406359823971,1.69,0.02,-3.62,0.0,0.0,0.0,4.0,0.0,0.0,0.0,0.0,11.38,0.0,
11.416,106.22823720947144,68.49140635982397,-7.43,0.4,-6.02,0.0,0.0,0.0,5.0,0.0,0.0,0.0,0.0,11.48,0.0,
11.44,106.00482372094714,68.4001406359824,4.72,-0.46,-1.5,0.0,0.0,0.0,5.0,0.0,0.0,0.0,0.0,12.56,0.0,
11.464,105.76648237209471,68.40001406359825,9.23,4.22,-3.37,0.0,0.0,0.0,4.0,0.0,0.0,0.0,0.0,13.15,0.0,
11.488,105.76964823720947,68.73300140635982,11.88,3.36,0.46,0.0,0.0,0.0,3.0,0.0,0.0,0.0,0.0,13.15,0.0,
11.511,105.91396482372095,69.54030014063598,5.34,4.15,2.56,0.0,0.0,0.0,3.0,0.0,0.0,0.0,0.0,13.24,0.0,
11.535,106.27039648237209,69.5400300140636,-3.35,-0.58,0.38,0.0,0.0,1.0,3.0,0.0,0.0,0.0,0.0,13.83,0.0,
11.559,106.2610396482372,69.54900300140636,-9.76,-1.07,-0.11,0.0,0.0,1.0,3.0,0.0,0.0,0.0,0.0,15.01,0.0,
11.583,106.13410396482372,69.30690030014064,-5.32,1.87,0.67,0.0,0.0,1.0,4.0,0.0,0.0,0.0,0.0,16.19,0.0,
11.607,105.85141039648236,69.38169003001406,2.64,3.08,1.13,0.0,0.0,1.0,3.0,0.0,0.0,0.0,0.0,17.85,0.0,
11.631,105.58914103964824,69.72216900300141,1.57,5.88,1.04,0.0,0.0,1.0,3.0,0.0,0.0,0.0,0.0,19.52,0.0,
11.655,105.24791410396482,70.51221690030013,-12.29,6.66,-1.31,0.0,0.0,1.0,3.0,0.0,0.0,0.0,0.0,21.48,0.0,
11.678,105.16879141039648,71.30222169003002,-30.6,0.45,-4.09,0.0,0.0,2.0,4.0,0.0,0.0,0.0,0.0,24.33,0.0,
11.703,104.82787914103966,71.58822216900302,-48.4,-24.62,8.5,0.0,0.0,2.0,4.0,0.0,0.0,0.0,0.0,28.06,0.0,
11.726,104.63178791410397,71.6258222169003,-88.13,-27.07,-8.24,0.0,0.0,3.0,3.0,0.0,0.0,0.0,0.0,24.23,0.0,
11.751,103.5591787914104,72.37658222169003,-91.3,33.53,15.35,0.0,0.0,3.0,2.0,0.0,0.0,0.0,0.0,15.11,0.0,
11.774,102.68691787914105,72.100658222169,-88.37,38.21,35.47,0.0,0.0,3.0,1.0,2.0,0.0,0.0,0.0,15.7,0.0,
11.799,103.35569178791411,76.70806582221691,-61.43,24.24,-25.43,0.0,0.0,2.0,0.0,2.0,0.0,0.0,0.0,13.24,0.0,
11.823,101.28056917879141,82.5778065822217,-46.69,-73.72,-21.76,0.0,0.0,1.0,0.0,2.0,0.0,0.0,0.0,10.2,0.0,
11.847,99.67805691787913,90.17578065822217,7.77,-54.24,-29.27,0.0,0.0,1.0,0.0,2.0,0.0,0.0,0.0,1.67,0.0,
11.871,97.59180569178791,96.79457806582221,26.8,-46.21,-5.36,0.0,0.0,1.0,0.0,2.0,0.0,0.0,0.0,0.0,0.0,
11.895,95.2051805691788,101.60545780658222,40.64,-42.33,7.53,0.0,0.0,1.0,0.0,2.0,0.0,0.0,0.0,0.0,0.0,
11.919,94.03051805691788,105.02954578065822,54.64,-48.17,11.65,0.0,0.0,1.0,0.0,2.0,0.0,0.0,0.0,0.0,0.0,
11.942,93.96705180569178,106.48795457806584,86.82,-50.47,12.61,0.0,0.0,1.0,0.0,2.0,0.0,0.0,0.0,0.0,0.0,
11.967,93.96970518056918,106.00379545780659,102.19,-44.79,1.23,0.0,0.0,1.0,0.0,0.0,0.0,0.0,0.0,0.0,0.0,
11.991,94.23097051805692,103.58837954578065,81.21,-48.37,-10.21,0.0,0.0,1.0,0.0,0.0,0.0,0.0,0.0,0.0,0.0,
12.015,94.25709705180569,99.80983795457807,60.28,-47.8,-21.89,0.0,0.0,1.0,0.0,0.0,0.0,0.0,0.1,0.0,0.0,
12.039,94.95270970518057,95.41798379545781,62.27,-39.94,-33.02,0.0,0.0,2.0,0.0,0.0,0.0,0.0,0.2,0.0,0.0,
12.063,96.20127097051805,90.85679837954578,81.08,-27.49,-31.94,0.0,0.0,2.0,0.0,0.0,0.0,0.0,0.2,0.0,0.0,
12.087,97.50512709705181,85.44167983795458,102.19,-3.3,-21.83,0.0,0.0,2.0,0.0,0.0,0.0,0.0,0.1,0.0,0.0,
12.11,100.34451270970517,78.04216798379547,117.71,9.35,-8.11,0.0,0.0,3.0,0.0,0.0,0.0,0.0,0.2,0.39,0.0,
12.135,106.71245127097052,69.85921679837955,116.38,11.65,18.13,0.0,0.0,3.0,0.0,0.0,0.0,0.0,0.2,0.0,0.0,
12.158,114.01824512709705,61.60692167983795,85.85,36.04,41.21,0.0,0.0,3.0,0.0,0.0,0.0,0.0,0.1,0.0,0.0,
12.183,120.22982451270971,53.4106921679838,21.37,45.37,49.31,0.0,0.0,3.0,0.0,0.0,0.0,0.0,0.0,0.0,0.0,
12.207,124.77498245127097,45.77806921679838,-56.55,44.48,53.05,0.0,0.0,3.0,0.0,0.0,0.0,0.0,0.1,0.0,0.0,
12.23,120.9634982451271,54.75280692167984,-90.87,49.92,21.98,0.0,0.0,2.0,0.0,0.0,0.0,0.0,0.0,0.0,0.0,
12.255,116.22634982451271,58.944280692167986,-128.18,15.6,131.08,0.0,0.0,1.0,0.0,0.0,0.0,0.0,0.0,0.0,0.0,
12.278,112.91763498245128,58.15742806921679,-155.31,63.06,13.0,0.0,0.0,0.0,0.0,0.0,0.0,0.0,0.0,0.0,0.0,
12.302,111.48876349824513,58.60974280692167,-120.81,54.16,-18.35,0.0,0.0,1.0,0.0,0.0,0.0,0.0,0.0,0.0,0.0,
12.326,110.8688763498245,58.40297428069217,-80.89,29.6,8.41,0.0,0.0,1.0,0.0,0.0,0.0,0.0,0.0,1.47,0.0,
12.35,113.07488763498245,57.73429742806921,-58.98,22.99,-23.66,0.0,0.0,1.0,2.0,0.0,0.0,0.0,0.0,0.0,0.0,
12.375,113.54748876349824,57.69442974280692,-35.28,0.47,-4.89,0.0,0.0,1.0,9.0,0.0,0.0,0.0,0.0,10.59,0.0,
12.398,113.36974887634982,59.229442974280694,-28.44,-25.75,1.53,0.0,0.0,1.0,11.0,0.0,0.0,0.0,0.0,10.4,0.0,
12.423,112.10097488763498,60.12094429742807,-23.76,-39.29,14.34,0.0,0.0,0.0,11.0,0.0,0.0,0.0,0.0,5.49,0.0,
12.446,110.1830974887635,61.236094429742806,-18.55,-33.59,10.08,0.0,0.0,0.0,12.0,0.0,0.0,0.0,0.0,1.47,0.0,
12.471,108.32630974887635,62.310609442974275,-12.39,-23.92,5.06,0.0,0.0,0.0,2.0,0.0,0.0,0.0,0.0,0.0,0.0,
12.494,107.07863097488763,63.34506094429743,-16.85,-10.79,0.76,0.0,0.0,0.0,4.0,0.0,0.0,0.0,0.0,0.0,0.0,
12.518,106.35986309748876,63.71850609442974,-26.98,-5.64,0.58,0.0,0.0,0.0,8.0,0.0,0.0,0.0,0.0,0.0,0.0,
12.542,105.97298630974888,63.791850609442974,-27.42,-3.29,5.2,0.0,0.0,1.0,12.0,0.0,0.0,0.0,0.98,0.0,0.0,
12.566,105.2952986309749,63.601185060944296,-20.98,-2.3,3.14,0.0,0.0,2.0,16.0,0.0,0.0,0.0,3.34,0.0,0.0,
12.591,105.0025298630975,63.59111850609443,-18.02,-2.98,0.72,0.0,0.0,2.0,19.0,0.0,0.0,0.0,6.47,0.0,0.0,
12.614,105.01825298630975,64.08511185060944,-23.5,-3.98,-2.23,0.0,0.0,2.0,23.0,0.0,0.0,0.0,9.22,0.0,0.0,
12.639,104.71382529863098,64.45851118506094,-30.13,-10.57,3.99,0.0,0.0,4.0,25.0,0.0,0.0,0.0,11.38,2.45,0.0,
12.663,104.3233825298631,64.1538511185061,-34.63,-17.47,3.98,0.0,0.0,5.0,30.0,1.0,0.0,0.0,17.17,3.73,0.0,
12.687,103.82533825298631,63.529385111850615,-35.29,-18.18,3.51,0.0,0.0,6.0,34.0,1.0,0.0,0.0,23.15,5.2,0.0,
12.711,103.28953382529863,63.00793851118506,-32.81,-14.63,6.56,0.0,0.0,7.0,39.0,2.0,0.0,0.0,29.63,7.26,0.0,
12.736,102.88495338252987,62.77579385111851,-41.82,-21.43,7.99,0.0,0.0,9.0,42.0,3.0,0.0,0.0,35.9,9.42,0.0,
12.76,101.98049533825298,62.131579385111856,-53.39,-30.48,3.6,0.0,0.0,11.0,46.0,5.0,0.0,0.0,41.99,12.65,0.0,
12.784,100.6660495338253,61.635157938511185,-60.3,-33.99,-3.69,0.0,0.0,2.0,48.0,7.0,0.0,0.0,46.7,15.7,0.0,
12.809,99.65260495338254,60.77551579385112,-68.39,-28.92,-10.19,0.0,0.0,8.0,50.0,7.0,0.0,0.0,53.27,19.42,0.0,
12.833,99.31726049533826,60.17655157938511,-74.43,-3.63,-6.06,0.0,0.0,12.0,46.0,10.0,0.0,0.0,56.31,23.74,0.0,
12.858,99.06772604953383,59.70265515793851,-85.08,22.12,-9.43,0.0,0.0,18.0,37.0,12.0,0.0,1.0,60.72,27.08,0.0,
12.882,98.79077260495339,58.96226551579385,-95.79,29.31,-1.77,0.0,0.0,21.0,18.0,5.0,0.0,1.0,63.57,28.35,0.0,
12.907,98.23207726049534,58.16822655157938,-121.7,40.02,-7.32,0.0,0.0,23.0,11.0,10.0,0.0,2.0,68.47,25.7,0.0,
12.932,96.61920772604954,57.953822655157936,-173.02,71.14,-44.12,0.0,0.0,25.0,5.0,11.0,0.0,3.0,69.65,32.18,0.0,
12.957,96.08892077260495,57.833382265515795,-199.09,89.63,-26.58,0.0,0.0,26.0,5.0,11.0,0.0,3.0,59.94,39.93,0.0,
12.982,97.7908920772605,56.12033822655158,-234.41,85.69,-34.08,0.0,0.0,22.0,7.0,5.0,1.0,4.0,33.75,21.97,0.0,
13.006,99.20308920772605,54.158033822655156,-250.14,92.83,-48.47,0.0,0.0,6.0,7.0,8.0,2.0,3.0,6.38,19.91,0.0,
13.031,103.62830892077261,54.888803382265515,-202.78,22.46,7.69,0.0,0.0,9.0,4.0,2.0,1.0,1.0,0.0,12.46,0.0,
13.054,104.35883089207725,54.01688033822656,-119.05,-4.23,82.69,0.0,0.0,7.0,2.0,2.0,1.0,1.0,0.0,7.85,0.0,
13.079,104.77388308920771,64.69368803382265,-26.4,-19.89,102.47,0.0,0.0,5.0,1.0,2.0,1.0,1.0,0.0,5.69,0.0,
13.103,113.75238830892077,80.58436880338226,82.4,-22.53,80.08,0.0,0.0,1.0,1.0,2.0,1.0,1.0,0.0,3.83,0.0,
13.127,109.80823883089208,84.88243688033822,115.33,-33.37,25.24,0.0,0.0,0.0,1.0,0.0,1.0,1.0,0.0,0.2,0.0,
13.151,107.0648238830892,92.22424368803382,113.31,-32.13,-5.96,0.0,0.0,0.0,1.0,0.0,1.0,1.0,0.0,0.0,0.0,
13.175,106.77248238830892,97.43142436880339,132.37,-39.08,-20.95,0.0,0.0,0.0,0.0,0.0,1.0,1.0,0.0,0.0,0.0,
13.2,107.85924823883089,100.34614243688034,166.35,-49.27,-28.11,0.0,0.0,0.0,0.0,0.0,1.0,1.0,0.0,0.0,0.0,
13.223,108.5709248238831,99.79161424368803,186.56,-41.07,-22.0,0.0,0.0,0.0,0.0,0.0,1.0,1.0,0.0,0.0,0.0,
13.248,107.09409248238832,95.0201614243688,196.38,-29.44,-20.85,0.0,0.0,1.0,0.0,0.0,1.0,1.0,0.0,0.0,0.0,
13.272,106.58640924823884,87.28901614243688,180.86,-10.46,-42.12,0.0,0.0,1.0,0.0,0.0,1.0,1.0,0.0,0.98,0.0,
13.296,106.70664092482389,79.73890161424369,186.69,-32.11,-55.45,0.0,0.0,1.0,0.0,0.0,1.0,1.0,0.0,2.45,0.0,
13.32,106.96166409248238,73.00789016142437,177.11,-51.92,-55.76,0.0,0.0,1.0,0.0,0.0,1.0,1.0,0.0,0.0,0.0,
13.344,108.13916640924823,66.91678901614243,154.87,-35.22,-39.45,0.0,0.0,1.0,0.0,0.0,1.0,1.0,0.0,0.0,0.0,
13.368,109.21091664092482,61.222678901614245,93.65,-5.44,-15.85,0.0,0.0,2.0,0.0,0.0,1.0,1.0,0.0,0.0,0.0,
13.392,109.87609166409248,55.78426789016142,46.36,16.15,11.45,0.0,0.0,2.0,0.0,0.0,1.0,1.0,0.0,0.0,0.0,
13.416,111.99460916640925,51.08242678901615,28.69,6.49,22.82,0.0,0.0,1.0,0.0,0.0,1.0,1.0,0.0,2.45,0.0,
13.44,112.65646091664092,47.30024267890161,7.86,3.21,35.08,0.0,0.0,2.0,0.0,0.0,1.0,1.0,0.0,0.59,0.0,
13.463,110.7246460916641,44.74402426789016,-7.2,-26.84,11.89,0.0,0.0,2.0,0.0,0.0,1.0,1.0,0.0,0.0,0.0,
13.488,107.21946460916641,51.10340242678902,17.73,10.45,6.32,0.0,0.0,2.0,2.0,0.0,1.0,1.0,0.0,0.0,0.0,
13.511,104.78994646091664,55.11434024267891,-2.63,21.24,23.05,0.0,0.0,2.0,3.0,0.0,1.0,1.0,0.0,2.06,0.0,
13.535,103.95299464609167,55.92043402426789,-14.03,4.82,8.76,0.0,0.0,2.0,5.0,0.0,1.0,1.0,0.0,0.0,0.0,
13.559,102.70829946460917,57.32404340242679,-5.42,-0.65,7.24,0.0,0.0,2.0,6.0,0.0,1.0,1.0,0.0,0.0,0.0,
13.583,101.91782994646093,58.00440434024267,0.24,6.24,-3.31,0.0,0.0,2.0,7.0,0.0,1.0,1.0,0.0,0.0,0.0,
13.606,102.0277829946461,59.34144043402427,6.18,12.11,-2.06,0.0,0.0,2.0,7.0,0.0,1.0,1.0,0.0,0.0,0.0,
13.631,102.05677829946461,60.77114404340243,4.58,17.5,2.22,0.0,0.0,2.0,7.0,0.0,1.0,1.0,0.0,0.0,0.0,
13.655,102.31167782994646,61.445114404340245,6.98,17.19,5.5,0.0,0.0,2.0,8.0,0.0,1.0,1.0,0.0,0.0,0.0,
13.678,102.49016778299465,62.16051144043403,5.53,9.97,7.5,0.0,0.0,2.0,8.0,0.0,1.0,1.0,0.0,0.0,0.0,
13.702,102.26501677829945,62.979051144043396,2.85,7.08,3.42,0.0,0.0,2.0,8.0,0.0,1.0,1.0,0.0,0.0,0.0,
13.725,101.98150167782995,63.46590511440434,1.24,6.97,-0.41,0.0,0.0,2.0,8.0,0.0,1.0,1.0,0.0,0.0,0.0,
13.749,102.025150167783,63.84759051144044,6.31,7.43,0.66,0.0,0.0,2.0,8.0,0.0,1.0,1.0,0.0,0.0,0.0,
13.773,102.31751501677829,64.15575905114405,8.45,8.2,4.35,0.0,0.0,2.0,7.0,0.0,1.0,1.0,0.0,0.0,0.0,
13.797,102.58975150167782,64.72657590511442,8.81,6.65,5.64,0.0,0.0,2.0,7.0,0.0,1.0,1.0,0.0,0.0,0.0,
13.82,102.7339751501678,65.26065759051144,3.97,4.03,4.2,0.0,0.0,2.0,7.0,0.0,1.0,1.0,0.0,0.0,0.0,
13.844,102.80239751501679,65.51206575905115,0.12,2.05,2.17,0.0,0.0,2.0,6.0,0.0,1.0,1.0,0.0,0.0,0.0,
13.868,102.71923975150168,65.61820657590512,3.63,3.31,3.73,0.0,0.0,2.0,6.0,0.0,1.0,1.0,0.0,0.0,0.0,
13.892,102.73792397515015,65.83582065759052,3.21,4.63,3.05,0.0,0.0,2.0,6.0,0.0,1.0,1.0,0.0,0.0,0.0,
13.916,102.86579239751501,66.13658206575906,2.81,3.27,1.3,0.0,0.0,1.0,6.0,0.0,1.0,1.0,0.0,0.0,0.0,
13.939,102.9955792397515,66.47265820657591,0.66,1.53,0.07,0.0,0.0,1.0,6.0,0.0,1.0,1.0,0.0,0.0,0.0,
13.963,103.12555792397515,66.59626582065759,1.31,0.31,0.3,0.0,0.0,1.0,6.0,0.0,1.0,1.0,0.0,0.0,0.0,
13.986,103.10255579239751,66.89662658206576,5.74,1.7,4.92,0.0,0.0,0.0,5.0,0.0,1.0,1.0,0.0,0.0,0.0,
14.01,103.01925557923975,67.25066265820658,8.95,-0.16,5.93,0.0,0.0,1.0,4.0,0.0,1.0,1.0,0.0,0.0,0.0,
14.033,102.99292555792397,67.52006626582066,4.9,2.67,1.71,0.0,0.0,1.0,4.0,0.0,1.0,1.0,0.0,0.0,0.0,
14.058,103.22429255579239,67.85300662658206,-0.02,2.64,-3.02,0.0,0.0,1.0,3.0,0.0,1.0,1.0,0.0,0.0,0.0,
14.082,103.31942925557924,68.19230066265821,-6.56,0.95,-3.24,0.0,0.0,1.0,3.0,0.0,1.0,1.0,0.0,0.0,0.0,
14.105,103.41894292555793,68.05523006626582,-6.4,0.1,-2.65,0.0,0.0,1.0,4.0,0.0,1.0,1.0,0.0,0.0,0.0,
14.129,103.3658942925558,68.09552300662658,-4.6,-0.37,-1.95,0.0,0.0,1.0,4.0,0.0,1.0,1.0,0.0,0.0,0.0,
14.153,103.41458942925559,68.20755230066266,-5.82,-0.27,-1.81,0.0,0.0,1.0,4.0,0.0,1.0,1.0,0.0,0.0,0.0,
14.177,103.13145894292555,68.46175523006626,-8.18,-1.05,-3.42,0.0,0.0,1.0,5.0,0.0,1.0,1.0,0.0,0.0,0.0,
14.2,102.75214589429254,68.66717552300662,-7.93,2.98,-2.09,0.0,0.0,1.0,5.0,0.0,1.0,1.0,0.0,0.0,0.0,
14.225,102.74121458942925,68.45371755230067,-6.16,0.82,-3.47,0.0,0.0,1.0,6.0,0.0,1.0,1.0,0.0,19.72,0.0,
14.248,102.91112145894294,68.48637175523007,-5.95,0.47,-2.93,0.0,0.0,1.0,6.0,0.0,1.0,1.0,0.0,0.0,0.0,
14.273,103.1531121458943,68.43563717552301,-7.67,-0.97,-2.63,0.0,0.0,1.0,6.0,0.0,1.0,1.0,0.0,0.78,0.0,
14.297,103.28531121458943,68.29556371755231,-5.78,-0.89,-1.53,0.0,0.0,1.0,7.0,0.0,1.0,1.0,0.0,3.92,0.0,
14.321,103.29853112145894,68.23655637175523,-6.31,-1.02,-1.59,0.0,0.0,1.0,7.0,0.0,1.0,1.0,0.0,6.08,0.0,
14.345,103.35385311214588,68.20365563717553,-7.39,0.02,-3.23,0.0,0.0,1.0,8.0,0.0,1.0,1.0,0.0,0.0,0.0,
14.368,103.3953853112146,68.18236556371755,-9.79,-0.73,-4.66,0.0,0.0,2.0,8.0,0.0,1.0,1.0,0.0,0.0,0.0,
14.393,103.49853853112147,68.01823655637176,-11.89,-2.45,-4.37,0.0,0.0,2.0,9.0,1.0,1.0,1.0,0.0,0.0,0.0,
14.416,103.50885385311216,67.61482365563717,-7.74,-2.45,-2.16,0.0,0.0,2.0,10.0,1.0,1.0,1.0,0.0,0.0,0.0,
14.441,103.55488538531122,67.39448236556372,-5.31,-1.23,-0.76,0.0,0.0,3.0,10.0,1.0,1.0,1.0,0.0,0.0,0.0,
14.465,103.63148853853112,67.33644823655638,-4.57,0.43,-0.78,0.0,0.0,3.0,11.0,1.0,1.0,1.0,0.0,3.04,0.0,
14.489,103.6661488538531,67.33064482365563,-5.17,0.44,-0.74,0.0,0.0,3.0,11.0,1.0,1.0,1.0,0.0,3.63,0.0,
14.513,103.7056148853853,67.25806448236555,-5.75,0.89,-1.68,0.0,0.0,3.0,11.0,1.0,1.0,1.0,0.0,3.63,0.0,
14.537,103.84456148853853,67.09780644823655,-5.02,-0.24,-1.63,0.0,0.0,3.0,11.0,1.0,1.0,1.0,0.0,3.43,0.0,
14.561,103.93945614885385,66.96478064482366,-4.88,-0.98,-1.48,0.0,0.0,3.0,12.0,1.0,1.0,1.0,0.0,3.43,0.0,
14.585,104.03894561488538,66.90647806448237,-4.02,-0.47,-1.38,0.0,0.0,3.0,12.0,1.0,1.0,1.0,0.0,3.04,0.0,
14.609,104.02189456148852,66.96364780644824,-4.47,-1.24,-1.57,0.0,0.0,3.0,0.0,1.0,1.0,1.0,0.0,2.84,0.0,
14.633,104.03818945614886,66.91536478064482,-5.47,0.13,-1.79,0.0,0.0,3.0,0.0,2.0,1.0,1.0,0.0,3.04,0.0,
14.657,104.07581894561488,66.86553647806448,-5.45,1.02,-2.68,0.0,0.0,4.0,2.0,2.0,1.0,1.0,0.0,2.65,0.0,
14.681,104.13358189456149,66.86055364780644,-5.17,0.95,-2.61,0.0,0.0,4.0,2.0,2.0,1.0,1.0,0.0,2.55,0.0,
14.705,104.21135818945615,66.81505536478065,-5.21,0.63,-2.66,0.0,0.0,4.0,2.0,2.0,1.0,1.0,0.0,3.24,0.0,
14.729,104.25513581894562,66.79250553647807,-6.47,-0.2,-1.97,0.0,0.0,4.0,2.0,2.0,1.0,1.0,0.0,3.43,0.0,
14.753,104.25951358189457,66.7362505536478,-6.45,-0.37,-2.63,0.0,0.0,4.0,3.0,2.0,1.0,1.0,0.0,4.02,0.0,
14.777,104.33195135818946,66.64062505536478,-7.49,0.31,-2.68,0.0,0.0,4.0,4.0,2.0,1.0,1.0,0.0,3.43,0.0,
14.8,104.36619513581896,66.52306250553649,-7.27,0.16,-1.87,0.0,0.0,4.0,4.0,2.0,1.0,1.0,0.0,0.98,0.0,
14.825,104.48661951358189,66.51130625055366,-6.69,-0.66,-1.56,0.0,0.0,5.0,5.0,2.0,1.0,1.0,0.0,0.49,0.0,
14.849,104.5076619513582,66.43813062505536,-7.18,-1.19,-1.86,0.0,0.0,5.0,6.0,2.0,1.0,1.0,0.0,0.69,0.0,
14.873,104.53676619513583,66.34981306250553,-7.4,-1.3,-2.31,0.0,0.0,5.0,6.0,3.0,1.0,1.0,0.0,1.18,0.0,
14.897,104.5126766195136,66.27798130625055,-8.62,-1.81,-2.64,0.0,0.0,5.0,8.0,3.0,1.0,1.0,0.0,1.96,0.0,
14.921,104.54626766195136,66.15379813062506,-8.56,-1.35,-1.98,0.0,0.0,5.0,10.0,3.0,1.0,1.0,0.0,2.65,0.0,
14.945,104.69362676619512,66.02437981306251,-7.89,-2.21,-0.97,0.0,0.0,5.0,11.0,3.0,1.0,1.0,0.29,3.83,0.0,
14.969,104.82536267661952,65.93043798130626,-6.36,-2.11,-0.29,0.0,0.0,6.0,11.0,3.0,1.0,1.0,0.69,5.4,0.0,
14.993,104.82953626766195,65.87604379813064,-6.24,-2.16,-0.07,0.0,0.0,6.0,13.0,3.0,1.0,1.0,0.88,5.98,0.0,
15.017,104.74895362676618,65.84360437981307,-9.11,-3.16,-0.4,0.0,0.0,6.0,14.0,3.0,1.0,1.0,1.08,6.77,0.0,
15.041,104.56989536267662,65.74136043798131,-9.3,-2.88,-2.11,0.0,0.0,6.0,14.0,3.0,1.0,1.0,1.67,8.04,0.0,
15.066,104.52498953626765,65.64113604379813,-8.66,-3.44,-1.97,0.0,0.0,6.0,16.0,4.0,1.0,1.0,2.65,9.71,0.0,
15.089,104.61949895362676,65.4781136043798,-7.25,-2.88,-1.7,0.0,0.0,7.0,18.0,3.0,1.0,1.0,3.63,11.28,0.0,
15.114,104.60194989536268,65.31781136043797,-4.63,-1.4,-1.36,0.0,0.0,7.0,19.0,4.0,1.0,1.0,4.02,12.26,0.0,
15.137,104.66319498953627,65.3917811360438,-4.79,-1.77,-0.5,0.0,0.0,7.0,20.0,4.0,1.0,1.0,3.92,12.75,0.0,
15.162,104.72331949895363,65.21917811360439,-7.24,-2.66,0.04,0.0,0.0,7.0,21.0,4.0,1.0,1.0,3.63,13.24,0.0,
15.186,104.63933194989536,65.08491781136043,-7.11,-1.86,-1.79,0.0,0.0,7.0,21.0,3.0,1.0,1.0,3.63,14.22,0.0,
15.21,104.56793319498954,64.95449178113604,-5.17,-1.08,-2.18,0.0,0.0,7.0,22.0,4.0,1.0,1.0,3.73,15.01,0.0,
15.235,104.61479331949896,64.8154491781136,-2.33,0.05,-2.21,0.0,0.0,7.0,22.0,4.0,1.0,1.0,4.22,15.21,0.0,
15.258,104.68247933194989,64.77454491781135,-2.66,-0.31,-2.06,0.0,0.0,7.0,23.0,4.0,1.0,1.0,4.02,14.72,0.0,
15.283,104.67124793319499,64.77945449178114,-3.31,-1.59,-1.29,0.0,0.0,7.0,22.0,4.0,1.0,1.0,3.73,14.32,0.0,
15.307,104.5981247933195,64.72594544917811,-3.34,-1.34,-2.05,0.0,0.0,7.0,23.0,4.0,1.0,1.0,3.43,14.03,0.0,
15.331,104.60881247933195,64.7385945449178,-3.22,-1.08,-2.45,0.0,0.0,7.0,22.0,4.0,1.0,1.0,3.14,13.83,0.0,
15.355,104.60988124793319,64.84785945449178,-3.7,-2.19,-1.57,0.0,0.0,7.0,22.0,4.0,1.0,1.0,2.84,13.73,0.0,
15.379,104.58298812479332,64.84978594544917,-3.88,-2.73,-1.16,0.0,0.0,7.0,22.0,4.0,1.0,1.0,2.84,13.44,0.0,
15.404,104.58929881247933,64.75097859454492,-3.01,-2.38,-1.27,0.0,0.0,7.0,22.0,3.0,1.0,1.0,2.75,12.85,0.0,
15.428,104.67092988124793,64.7860978594545,-2.81,-3.02,-0.52,0.0,0.0,7.0,21.0,3.0,1.0,1.0,2.55,12.26,0.0,
15.452,104.7240929881248,64.78060978594544,-3.92,-3.89,0.49,0.0,0.0,7.0,21.0,3.0,1.0,1.0,2.45,11.58,0.0,
15.476,104.69340929881248,64.71706097859455,-4.63,-5.01,1.24,0.0,0.0,7.0,21.0,3.0,1.0,1.0,2.35,10.59,0.0,
15.5,104.52834092988125,64.72870609785946,-4.1,-3.64,0.6,0.0,0.0,7.0,20.0,3.0,1.0,1.0,2.45,9.52,0.0,
15.524,104.49383409298812,64.69387060978595,-2.92,-2.01,-0.37,0.0,0.0,7.0,19.0,3.0,1.0,1.0,2.55,8.53,0.0,
15.548,104.3913834092988,64.6993870609786,-3.21,-2.31,-0.13,0.0,0.0,7.0,19.0,2.0,1.0,1.0,2.65,7.75,0.0,
15.572,104.38113834092987,64.67293870609787,-2.82,-2.45,-0.39,0.0,0.0,7.0,19.0,2.0,1.0,1.0,2.35,7.26,0.0,
15.596,104.38011383409298,64.6522938706098,-2.43,-2.6,-0.47,0.0,0.0,7.0,19.0,2.0,1.0,1.0,2.16,6.97,0.0,
15.621,104.40701138340928,64.69522938706098,-2.95,-3.0,0.02,0.0,0.0,7.0,18.0,2.0,1.0,1.0,1.96,6.57,0.0,
15.644,104.29270113834093,64.68152293870611,-2.77,-3.58,0.55,0.0,0.0,7.0,17.0,2.0,1.0,1.0,1.86,5.98,0.0,
15.669,104.2092701138341,64.65315229387062,-2.54,-2.34,0.21,0.0,0.0,7.0,17.0,2.0,1.0,1.0,1.96,5.4,0.0,
15.692,104.11092701138341,64.71331522938706,-2.41,-2.14,0.11,0.0,0.0,6.0,17.0,2.0,1.0,1.0,1.86,4.81,0.0,
15.717,104.13709270113834,64.75533152293872,-3.26,-2.48,0.6,0.0,0.0,6.0,17.0,2.0,1.0,1.0,1.77,4.32,0.0,
15.74,104.08570927011382,64.72353315229387,-3.75,-3.6,1.45,0.0,0.0,6.0,17.0,2.0,1.0,1.0,1.57,3.92,0.0,
15.764,103.92757092701139,64.72935331522939,-2.92,-2.62,0.56,0.0,0.0,6.0,17.0,2.0,1.0,1.0,1.57,3.53,0.0,
15.789,103.88475709270114,64.71193533152294,-2.1,-1.12,-0.39,0.0,0.0,6.0,17.0,2.0,1.0,1.0,1.57,3.24,0.0,
15.812,103.90747570927012,64.7371935331523,-1.37,-0.6,-0.44,0.0,0.0,6.0,16.0,2.0,1.0,1.0,1.57,3.04,0.0,
15.837,103.91874757092701,64.82071935331523,-2.29,-1.24,-0.06,0.0,0.0,6.0,16.0,2.0,1.0,1.0,1.28,2.65,0.0,
15.861,103.8388747570927,64.84707193533151,-2.43,-1.6,-0.17,0.0,0.0,6.0,16.0,2.0,1.0,1.0,1.18,2.55,0.0,
15.885,103.80388747570927,64.85870719353315,-2.25,-0.95,-0.42,0.0,0.0,6.0,16.0,2.0,1.0,1.0,1.28,2.16,0.0,
15.909,103.82738874757092,64.86887071935331,-2.21,-1.06,-0.59,0.0,0.0,6.0,15.0,2.0,1.0,1.0,0.98,2.06,0.0,
15.933,103.8387388747571,64.94188707193534,-2.5,-2.18,-0.21,0.0,0.0,6.0,14.0,2.0,1.0,1.0,0.78,1.77,0.0,
15.958,103.8038738874757,64.98518870719353,-2.63,-2.08,0.05,0.0,0.0,6.0,14.0,2.0,1.0,1.0,0.59,1.57,0.0,
15.981,103.74638738874756,65.00751887071937,-1.92,-1.61,-0.27,0.0,0.0,6.0,14.0,2.0,1.0,1.0,0.39,1.28,0.0,
16.006,103.75863873887475,64.97375188707193,-1.07,-0.85,-0.92,0.0,0.0,6.0,13.0,2.0,1.0,1.0,0.29,1.08,0.0,
16.029,103.75986387388747,65.0513751887072,-1.05,-1.31,-0.53,0.0,0.0,6.0,12.0,2.0,1.0,1.0,0.0,0.69,0.0,
16.054,103.65198638738875,65.06813751887071,-2.11,-1.82,-0.64,0.0,0.0,6.0,11.0,2.0,1.0,1.0,0.0,0.0,0.0,
16.077,103.67719863873889,65.07881375188707,-2.34,-1.83,-1.27,0.0,0.0,6.0,11.0,2.0,1.0,1.0,0.0,0.0,0.0,
16.102,103.63471986387388,65.0708813751887,-2.25,-2.23,-0.95,0.0,0.0,6.0,11.0,2.0,1.0,1.0,0.0,0.0,0.0,
16.125,103.55847198638737,65.04308813751888,-1.53,-2.28,-0.56,0.0,0.0,5.0,10.0,2.0,1.0,1.0,0.0,0.0,0.0,
16.15,103.46984719863872,65.02230881375189,-0.05,-1.38,-1.0,0.0,0.0,5.0,10.0,2.0,1.0,1.0,0.0,0.0,0.0,
16.174,103.47898471986387,65.14623088137519,-0.56,-1.23,-1.27,0.0,0.0,5.0,8.0,2.0,1.0,1.0,0.0,0.0,0.0,
16.198,103.59689847198638,65.16762308813752,-1.36,-1.5,-1.21,0.0,0.0,5.0,6.0,2.0,1.0,1.0,0.0,0.0,0.0,
16.222,103.58168984719863,65.18776230881375,-1.81,-1.53,-1.02,0.0,0.0,5.0,6.0,2.0,1.0,1.0,0.0,0.0,0.0,
16.245,103.58016898471985,65.25277623088138,-1.2,-1.53,-0.83,0.0,0.0,5.0,6.0,2.0,1.0,1.0,0.0,0.0,0.0,
16.27,103.60701689847198,65.35827762308814,-1.03,-0.62,-1.21,0.0,0.0,5.0,5.0,2.0,1.0,1.0,0.0,0.0,0.0,
16.293,103.62770168984719,65.42282776230883,-3.17,-1.46,-0.82,0.0,0.0,5.0,5.0,2.0,1.0,1.0,0.0,0.0,0.0,
16.318,103.64777016898472,65.43828277623088,-3.27,-1.07,-1.23,0.0,0.0,5.0,5.0,2.0,1.0,1.0,0.0,0.0,0.0,
16.342,103.60477701689847,65.4488282776231,-2.82,-1.23,-0.99,0.0,0.0,5.0,5.0,2.0,1.0,1.0,0.0,0.0,0.0,
16.366,103.58247770168984,65.48588282776231,-2.66,-0.54,-0.92,0.0,0.0,5.0,5.0,2.0,1.0,1.0,0.0,0.0,0.0,
16.39,103.643247770169,65.52558828277623,-2.53,0.14,-1.18,0.0,0.0,5.0,5.0,2.0,1.0,1.0,0.0,0.0,0.0,
16.413,103.6223247770169,65.59255882827762,-3.31,-0.42,-1.37,0.0,0.0,5.0,5.0,2.0,1.0,1.0,0.0,0.0,0.0,
16.438,103.6202324777017,65.61725588282776,-4.44,-0.94,-1.14,0.0,0.0,5.0,5.0,2.0,1.0,1.0,0.0,0.0,0.0,
16.461,103.60202324777016,65.56572558828277,-3.71,-0.54,-1.27,0.0,0.0,5.0,6.0,2.0,1.0,1.0,0.0,0.0,0.0,
16.486,103.61820232477703,65.50657255882828,-3.08,-0.47,-1.98,0.0,0.0,5.0,6.0,2.0,1.0,1.0,0.0,0.0,0.0,
16.509,103.6918202324777,65.53665725588283,-2.82,-0.11,-2.01,0.0,0.0,5.0,6.0,2.0,1.0,1.0,0.0,0.0,0.0,
16.534,103.73518202324777,65.5576657255883,-3.03,-0.45,-1.1,0.0,0.0,5.0,6.0,2.0,1.0,1.0,0.0,0.0,0.0,
16.558,103.78451820232478,65.57776657255883,-3.93,-0.95,-0.43,0.0,0.0,5.0,6.0,2.0,1.0,1.0,0.0,0.0,0.0,
16.581,103.73545182023247,65.53477665725589,-3.53,-0.54,-0.81,0.0,0.0,5.0,7.0,2.0,1.0,1.0,0.0,0.0,0.0,
16.606,103.80254518202325,65.47647766572558,-2.7,-0.1,-1.24,0.0,0.0,5.0,7.0,2.0,1.0,1.0,0.0,0.0,0.0,
16.629,103.83625451820232,65.46164776657255,-2.46,0.24,-1.71,0.0,0.0,5.0,7.0,2.0,1.0,1.0,0.0,0.0,0.0,
16.654,103.84862545182023,65.47816477665725,-2.73,-0.23,-1.86,0.0,0.0,5.0,8.0,2.0,1.0,1.0,0.0,0.0,0.0,
16.677,103.82286254518202,65.54281647766572,-3.36,-0.67,-1.53,0.0,0.0,5.0,8.0,2.0,1.0,1.0,0.0,0.0,0.0,
16.701,103.8112862545182,65.54928164776656,-2.9,-0.19,-1.69,0.0,0.0,5.0,8.0,2.0,1.0,1.0,0.0,0.0,0.0,
16.726,103.84612862545183,65.63092816477666,-2.64,0.14,-2.5,0.0,0.0,5.0,8.0,2.0,1.0,1.0,0.0,0.0,0.0,
16.749,103.93961286254519,65.69309281647767,-3.66,-0.44,-1.74,0.0,0.0,5.0,8.0,2.0,1.0,1.0,0.0,0.0,0.0,
16.774,103.90396128625451,65.69930928164777,-3.98,-0.79,-1.54,0.0,0.0,5.0,9.0,2.0,1.0,1.0,0.0,0.0,0.0,
16.797,103.92739612862546,65.63693092816477,-3.25,-0.17,-1.56,0.0,0.0,5.0,9.0,2.0,1.0,1.0,0.0,0.0,0.0,
16.822,104.01073961286254,65.61269309281647,-2.37,0.01,-1.46,0.0,0.0,5.0,9.0,2.0,1.0,1.0,0.0,0.0,0.0,
16.845,104.07307396128624,65.67326930928165,-2.76,-0.6,-1.04,0.0,0.0,5.0,9.0,2.0,1.0,1.0,0.0,0.0,0.0,
16.869,104.09730739612861,65.69732693092817,-3.72,-1.27,-0.85,0.0,0.0,5.0,9.0,2.0,1.0,1.0,0.0,0.0,0.0,
16.893,104.08173073961285,65.67273269309281,-3.84,-1.35,-0.9,0.0,0.0,5.0,10.0,2.0,1.0,1.0,0.0,0.0,0.0,
16.917,104.02617307396127,65.66127326930928,-3.02,-0.63,-1.34,0.0,0.0,5.0,10.0,2.0,1.0,1.0,0.0,0.0,0.0,
16.942,104.03861730739614,65.69612732693093,-2.96,-0.23,-1.63,0.0,0.0,5.0,10.0,2.0,1.0,1.0,0.0,0.0,0.0,
16.965,104.1298617307396,65.73561273269308,-3.35,-0.67,-1.65,0.0,0.0,5.0,10.0,2.0,1.0,1.0,0.0,0.1,0.0,
16.99,104.15698617307396,65.72156127326932,-3.84,-1.31,-1.07,0.0,0.0,5.0,10.0,2.0,1.0,1.0,0.0,0.29,0.0,
17.013,104.1416986173074,65.73815612732693,-3.56,-0.95,-1.44,0.0,0.0,5.0,10.0,2.0,1.0,1.0,0.0,0.29,0.0,
17.038,104.16716986173074,65.6858156127327,-3.2,-0.96,-1.49,0.0,0.0,5.0,10.0,2.0,1.0,1.0,0.0,0.39,0.0,
17.061,104.18771698617307,65.69858156127327,-3.31,-1.39,-0.82,0.0,0.0,5.0,10.0,2.0,1.0,1.0,0.0,0.29,0.0,
17.086,104.20777169861731,65.69085815612733,-3.11,-1.37,-0.84,0.0,0.0,5.0,10.0,2.0,1.0,1.0,0.0,0.2,0.0,
17.111,104.21877716986172,65.68108581561275,-3.18,-0.99,-0.64,0.0,0.0,5.0,10.0,2.0,1.0,1.0,0.0,0.2,0.0,
17.134,104.21087771698618,65.70710858156127,-3.0,-1.16,-0.44,0.0,0.0,5.0,10.0,2.0,1.0,1.0,0.0,0.29,0.0,
17.159,104.19208777169861,65.66471085815613,-3.21,-1.21,-0.74,0.0,0.0,5.0,10.0,2.0,1.0,1.0,0.0,0.2,0.0,
17.182,104.26220877716986,65.64247108581561,-3.01,-0.95,-1.24,0.0,0.0,5.0,13.0,2.0,1.0,1.0,0.0,0.1,0.0,
17.207,104.28722087771699,65.64924710858156,-2.76,-1.19,-1.34,0.0,0.0,5.0,10.0,2.0,1.0,1.0,0.0,0.1,0.0,
17.23,104.3347220877717,65.65892471085816,-2.89,-0.87,-1.31,0.0,0.0,5.0,10.0,2.0,1.0,1.0,0.0,0.1,0.0,
17.255,104.27647220877716,65.65089247108583,-2.74,-0.53,-1.37,0.0,0.0,5.0,10.0,2.0,1.0,1.0,0.0,0.0,0.0,
17.278,104.32464722087772,65.65908924710858,-3.05,-0.94,-1.4,0.0,0.0,5.0,10.0,2.0,1.0,1.0,0.0,0.0,0.0,
17.303,104.30246472208778,65.67790892471086,-3.13,-1.2,-1.08,0.0,0.0,5.0,10.0,2.0,1.0,1.0,0.0,0.0,0.0,
17.327,104.24624647220878,65.70679089247108,-3.1,-1.06,-1.18,0.0,0.0,5.0,10.0,2.0,1.0,1.0,0.0,0.0,0.0,
17.351,104.20462464722088,65.7096790892471,-3.44,-1.22,-1.08,0.0,0.0,5.0,10.0,2.0,1.0,1.0,0.0,0.0,0.0,
17.375,104.21846246472208,65.70996790892471,-3.43,-1.06,-1.21,0.0,0.0,5.0,10.0,2.0,1.0,1.0,0.0,0.0,0.0,
17.399,104.2288462464722,65.72799679089248,-3.47,-1.5,-1.2,0.0,0.0,5.0,10.0,2.0,1.0,1.0,0.0,0.0,0.0,
17.423,104.18488462464722,65.69379967908925,-3.5,-1.93,-0.73,0.0,0.0,5.0,10.0,2.0,1.0,1.0,0.0,0.0,0.0,
17.447,104.14448846246472,65.64537996790892,-3.3,-1.4,-0.91,0.0,0.0,5.0,10.0,2.0,1.0,1.0,0.0,0.0,0.0,
17.471,104.14944884624649,65.5865379967909,-3.21,-0.76,-1.24,0.0,0.0,5.0,10.0,2.0,1.0,1.0,0.0,0.0,0.0,
17.496,104.14094488462464,65.6436537996791,-3.34,-1.0,-1.15,0.0,0.0,5.0,10.0,2.0,1.0,1.0,0.0,0.0,0.0,
17.519,104.18509448846247,65.67636537996792,-3.43,-1.37,-1.18,0.0,0.0,5.0,10.0,2.0,1.0,1.0,0.0,0.0,0.0,
17.544,104.18050944884627,65.6436365379968,-3.3,-1.21,-1.69,0.0,0.0,5.0,10.0,2.0,1.0,1.0,0.0,0.0,0.0,
17.567,104.15305094488464,65.64036365379968,-3.55,-1.05,-1.07,0.0,0.0,5.0,10.0,2.0,1.0,1.0,0.0,0.0,0.0,
17.592,104.15030509448847,65.68503636537997,-3.45,-1.21,-1.2,0.0,0.0,5.0,10.0,2.0,1.0,1.0,0.0,0.0,0.0,
17.615,104.18603050944884,65.67150363653799,-3.29,-1.87,-0.7,0.0,0.0,5.0,10.0,2.0,1.0,1.0,0.0,0.0,0.0,
17.64,104.1536030509449,65.6701503636538,-3.46,-1.66,-0.37,0.0,0.0,5.0,10.0,2.0,1.0,1.0,0.0,0.0,0.0,
17.664,104.1773603050945,65.67001503636538,-3.34,-1.41,-0.56,0.0,0.0,5.0,10.0,2.0,1.0,1.0,0.0,0.0,0.0,
17.688,104.12573603050946,65.65200150363654,-3.31,-1.14,-0.59,0.0,0.0,5.0,10.0,2.0,1.0,1.0,0.0,0.0,0.0,
17.712,104.12057360305096,65.64120015036366,-2.91,-0.97,-0.85,0.0,0.0,5.0,10.0,2.0,1.0,1.0,0.0,0.2,0.0,
17.736,104.1920573603051,65.65812001503636,-3.05,-0.79,-0.98,0.0,0.0,5.0,10.0,2.0,1.0,1.0,0.0,0.49,0.0,
17.76,104.22620573603051,65.64181200150364,-3.55,-1.13,-1.16,0.0,0.0,5.0,10.0,2.0,1.0,1.0,0.0,0.29,0.0,
17.784,104.18462057360307,65.66718120015037,-3.86,-1.17,-1.5,0.0,0.0,5.0,10.0,2.0,1.0,0.0,0.0,0.29,0.0,
17.809,104.2074620573603,65.66971812001503,-3.47,-1.08,-1.23,0.0,0.0,5.0,10.0,2.0,1.0,0.0,0.0,0.29,0.0,
17.832,104.24574620573603,65.72397181200151,-3.27,-1.31,-1.21,0.0,0.0,5.0,10.0,2.0,1.0,0.0,0.0,0.39,0.0,
17.857,104.18657462057361,65.75639718120016,-3.15,-1.24,-0.89,0.0,0.0,5.0,10.0,2.0,1.0,0.0,0.0,0.39,0.0,
17.881,104.19865746205735,65.74163971812001,-3.47,-1.46,-0.94,0.0,0.0,5.0,10.0,2.0,1.0,0.0,0.0,0.49,0.0,
17.905,104.27186574620573,65.73116397181201,-3.74,-1.39,-0.95,0.0,0.0,5.0,11.0,2.0,1.0,0.0,0.0,0.49,0.0,
17.929,104.30618657462057,65.71211639718119,-3.49,-1.57,-0.99,0.0,0.0,5.0,10.0,2.0,1.0,0.0,0.0,0.78,0.0,
17.953,104.31861865746204,65.66521163971812,-3.09,-1.39,-0.89,0.0,0.0,5.0,11.0,2.0,1.0,0.0,0.0,0.78,0.0,
17.977,104.2928618657462,65.65152116397182,-2.9,-1.06,-1.21,0.0,0.0,5.0,11.0,2.0,1.0,0.0,0.0,0.88,0.0,
18.001,104.30828618657462,65.6771521163972,-2.96,-1.15,-1.22,0.0,0.0,5.0,11.0,2.0,1.0,0.0,0.0,0.78,0.0,
18.025,104.30982861865746,65.72471521163972,-3.46,-1.47,-0.91,0.0,0.0,5.0,10.0,2.0,1.0,0.0,0.0,0.59,0.0,
18.05,104.32798286186575,65.68447152116399,-3.67,-1.5,-1.08,0.0,0.0,5.0,10.0,2.0,1.0,0.0,0.0,0.49,0.0,
18.073,104.32079828618656,65.6534471521164,-3.53,-1.54,-1.53,0.0,0.0,5.0,11.0,2.0,1.0,0.0,0.0,0.39,0.0,
18.098,104.27507982861866,65.63234471521164,-3.5,-1.68,-1.19,0.0,0.0,5.0,11.0,2.0,1.0,0.0,0.0,0.29,0.0,
18.121,104.28850798286187,65.56723447152118,-3.02,-1.34,-1.24,0.0,0.0,5.0,11.0,2.0,1.0,0.0,0.0,0.39,0.0,
18.146,104.2628507982862,65.56972344715211,-3.09,-1.5,-1.24,0.0,0.0,5.0,11.0,2.0,1.0,0.0,0.0,0.29,0.0,
18.17,104.22428507982862,65.55197234471521,-3.51,-1.91,-0.82,0.0,0.0,5.0,11.0,2.0,1.0,0.0,0.0,0.49,0.0,
18.194,104.13942850798286,65.56819723447151,-3.61,-1.63,-0.86,0.0,0.0,5.0,10.0,2.0,1.0,0.0,0.0,1.47,0.0,
18.219,104.13094285079828,65.54281972344715,-3.27,-1.57,-0.63,0.0,0.0,5.0,10.0,2.0,1.0,0.0,0.0,1.77,0.0,
18.242,104.13909428507982,65.51328197234471,-3.24,-1.89,-0.81,0.0,0.0,5.0,10.0,2.0,1.0,0.0,0.0,0.69,0.0,
18.267,104.16690942850798,65.50132819723447,-2.99,-1.69,-0.81,0.0,0.0,5.0,11.0,2.0,1.0,0.0,0.0,0.0,0.0,
18.29,104.1786909428508,65.51813281972345,-3.02,-1.64,-0.72,0.0,0.0,5.0,10.0,2.0,1.0,0.0,0.0,0.0,0.0,
18.315,104.1528690942851,65.56481328197233,-2.93,-1.35,-0.88,0.0,0.0,5.0,10.0,2.0,1.0,0.0,0.0,0.0,0.0,
18.338,104.1052869094285,65.59648132819723,-3.56,-1.29,-1.02,0.0,0.0,5.0,10.0,2.0,1.0,0.0,0.0,0.0,0.0,
18.363,104.05552869094285,65.59064813281972,-3.56,-1.33,-0.95,0.0,0.0,5.0,10.0,2.0,1.0,0.0,0.0,0.0,0.0,
18.386,104.11355286909429,65.60806481328197,-3.34,-1.27,-0.96,0.0,0.0,5.0,10.0,2.0,1.0,0.0,0.0,0.0,0.0,
18.411,104.02935528690942,65.64580648132821,-3.05,-1.57,-0.77,0.0,0.0,5.0,10.0,2.0,1.0,0.0,0.0,0.0,0.0,
18.435,104.00293552869095,65.62258064813282,-2.83,-1.12,-1.18,0.0,0.0,5.0,9.0,2.0,1.0,0.0,0.0,0.0,0.0,
18.459,104.0362935528691,65.59325806481328,-2.95,-1.11,-1.3,0.0,0.0,5.0,9.0,2.0,1.0,0.0,0.0,0.0,0.0,
18.483,104.03962935528692,65.63532580648133,-2.89,-1.44,-1.04,0.0,0.0,5.0,8.0,2.0,1.0,0.0,0.0,0.0,0.0,
18.507,104.0669629355287,65.66653258064814,-3.41,-1.5,-1.1,0.0,0.0,5.0,8.0,2.0,1.0,0.0,0.0,0.0,0.0,
18.531,104.04269629355288,65.66965325806481,-3.45,-1.71,-1.1,0.0,0.0,5.0,9.0,2.0,1.0,0.0,0.0,0.0,0.0,
18.554,103.98626962935529,65.62496532580649,-3.18,-1.4,-1.08,0.0,0.0,5.0,9.0,2.0,1.0,0.0,0.0,0.0,0.0,
18.579,104.01662696293552,65.61149653258065,-3.1,-1.22,-1.21,0.0,0.0,5.0,8.0,2.0,1.0,0.0,0.0,0.0,0.0,
18.603,104.05566269629355,65.61014965325806,-3.31,-1.17,-1.51,0.0,0.0,5.0,9.0,2.0,1.0,0.0,0.0,0.0,0.0,
18.627,104.05056626962934,65.61901496532582,-3.65,-1.15,-1.4,0.0,0.0,5.0,8.0,2.0,1.0,0.0,0.0,0.0,0.0,
18.651,104.02305662696293,65.59290149653259,-3.79,-1.34,-1.27,0.0,0.0,5.0,9.0,2.0,1.0,0.0,0.0,0.0,0.0,
18.675,104.06530566269629,65.60829014965326,-3.69,-1.5,-0.99,0.0,0.0,5.0,9.0,2.0,1.0,0.0,0.0,0.0,0.0,
18.699,104.07853056626962,65.60082901496533,-3.37,-1.53,-0.89,0.0,0.0,5.0,9.0,2.0,1.0,0.0,0.0,0.0,0.0,
18.722,104.02585305662696,65.60008290149653,-3.22,-1.71,-0.5,0.0,0.0,5.0,9.0,2.0,1.0,0.0,0.0,0.0,0.0,
18.747,104.0655853056627,65.66300829014965,-2.98,-1.12,-0.85,0.0,0.0,5.0,9.0,2.0,1.0,0.0,0.0,0.0,0.0,
18.77,104.03355853056628,65.64230082901497,-3.06,-0.89,-0.87,0.0,0.0,5.0,10.0,2.0,1.0,0.0,0.0,0.0,0.0,
18.795,103.97635585305663,65.6852300829015,-3.31,-1.04,-1.11,0.0,0.0,5.0,9.0,2.0,1.0,0.0,0.0,0.0,0.0,
18.819,103.93463558530567,65.68052300829015,-3.64,-1.53,-1.0,0.0,0.0,5.0,9.0,2.0,1.0,0.0,0.0,0.0,0.0,
18.843,103.83146355853057,65.66205230082902,-3.69,-1.66,-1.27,0.0,0.0,5.0,10.0,2.0,1.0,0.0,0.0,0.0,0.0,
18.867,103.87514635585306,65.6062052300829,-3.67,-1.28,-1.68,0.0,0.0,5.0,10.0,2.0,1.0,0.0,0.0,0.0,0.0,
18.891,103.92451463558531,65.65462052300829,-3.8,-1.49,-1.2,0.0,0.0,5.0,9.0,2.0,1.0,0.0,0.0,0.0,0.0,
18.915,103.93845146355854,65.64146205230082,-3.89,-1.73,-0.72,0.0,0.0,5.0,10.0,2.0,1.0,0.0,0.0,0.0,0.0,
18.939,103.93084514635586,65.67614620523008,-3.86,-2.1,-0.83,0.0,0.0,5.0,9.0,2.0,1.0,0.0,0.0,990.91,0.0,
18.963,103.8850845146356,65.66161462052301,-3.8,-1.62,-1.12,0.0,0.0,5.0,10.0,2.0,1.0,0.0,0.0,0.0,0.0,
18.988,103.88050845146356,65.62416146205231,-3.79,-1.74,-1.15,0.0,0.0,5.0,10.0,2.0,1.0,0.0,0.0,0.0,0.0,
19.011,103.86205084514636,65.60241614620523,-3.63,-1.76,-1.14,0.0,0.0,5.0,10.0,2.0,1.0,0.0,0.0,0.0,0.0,
19.036,103.85120508451463,65.62724161462052,-3.67,-1.65,-0.84,0.0,0.0,5.0,10.0,2.0,1.0,0.0,0.0,0.0,0.0,
19.059,103.82312050845147,65.61172416146205,-3.74,-1.49,-0.88,0.0,0.0,5.0,10.0,2.0,1.0,0.0,0.0,0.0,0.0,
19.084,103.84731205084515,65.6281724161462,-3.1,-1.06,-1.26,0.0,0.0,5.0,10.0,2.0,1.0,0.0,0.0,0.0,0.0,
19.107,103.83173120508451,65.62081724161463,-3.18,-0.82,-1.21,0.0,0.0,5.0,10.0,2.0,1.0,0.0,0.0,0.0,0.0,
19.132,103.84817312050845,65.60208172416147,-3.27,-0.93,-1.36,0.0,0.0,5.0,10.0,2.0,1.0,0.0,0.0,0.0,0.0,
19.155,103.89481731205085,65.61820817241615,-3.34,-1.14,-1.42,0.0,0.0,5.0,10.0,2.0,1.0,0.0,0.0,0.0,0.0,
19.18,103.93548173120509,65.58382081724162,-3.52,-1.56,-0.93,0.0,0.0,5.0,10.0,2.0,1.0,0.0,0.0,0.0,0.0,
19.204,103.97554817312052,65.51738208172416,-3.61,-1.61,-0.9,0.0,0.0,5.0,10.0,2.0,1.0,0.0,0.0,0.0,0.0,
19.228,103.98855481731204,65.51973820817241,-3.28,-1.48,-0.8,0.0,0.0,5.0,10.0,2.0,1.0,0.0,0.0,0.0,0.0,
19.252,103.97185548173121,65.55597382081724,-3.05,-1.4,-0.53,0.0,0.0,5.0,11.0,2.0,1.0,0.0,0.0,0.0,0.0,
19.276,103.94318554817312,65.55059738208172,-3.18,-1.55,-0.43,0.0,0.0,5.0,10.0,2.0,1.0,0.0,0.0,0.0,0.0,
19.3,103.99431855481731,65.58605973820818,-3.05,-1.21,-0.68,0.0,0.0,5.0,10.0,2.0,1.0,0.0,0.0,0.0,0.0,
19.324,103.93643185548174,65.53560597382082,-3.5,-1.66,-1.03,0.0,0.0,5.0,10.0,2.0,1.0,0.0,0.0,0.0,0.0,
19.348,103.94864318554818,65.53056059738208,-3.62,-1.5,-1.22,0.0,0.0,5.0,10.0,2.0,1.0,0.0,0.0,0.0,0.0,
19.373,103.94086431855482,65.5480560597382,-3.37,-1.44,-0.98,0.0,0.0,5.0,10.0,2.0,1.0,0.0,0.0,0.0,0.0,
19.396,103.93108643185549,65.55880560597382,-3.21,-1.27,-1.17,0.0,0.0,5.0,10.0,2.0,1.0,0.0,0.0,0.0,0.0,
19.421,103.96610864318555,65.51488056059739,-3.21,-1.31,-1.05,0.0,0.0,5.0,10.0,2.0,1.0,0.0,0.0,0.0,0.0,
19.444,103.94261086431857,65.48348805605974,-3.19,-1.39,-1.02,0.0,0.0,5.0,10.0,2.0,1.0,0.0,0.0,0.0,0.0,
19.469,103.91326108643186,65.51634880560597,-3.44,-1.47,-1.02,0.0,0.0,5.0,10.0,2.0,1.0,0.0,0.0,0.0,0.0,
19.492,103.88332610864319,65.54663488056059,-3.71,-1.69,-1.02,0.0,0.0,5.0,10.0,2.0,1.0,0.0,0.0,0.0,0.0,
19.517,103.88033261086431,65.55866348805606,-3.6,-1.68,-1.16,0.0,0.0,5.0,10.0,2.0,1.0,0.0,0.0,0.0,0.0,
19.542,103.85303326108644,65.61386634880562,-3.35,-1.7,-1.14,0.0,0.0,5.0,11.0,2.0,1.0,0.0,0.0,0.0,0.0,
19.565,103.84130332610864,65.61038663488056,-3.45,-1.57,-0.94,0.0,0.0,5.0,10.0,2.0,1.0,0.0,0.0,0.0,0.0,
19.59,103.89413033261087,65.60103866348805,-3.34,-1.45,-1.02,0.0,0.0,5.0,10.0,2.0,1.0,0.0,0.0,0.0,0.0,
19.613,103.8364130332611,65.59110386634882,-3.53,-1.5,-1.02,0.0,0.0,5.0,10.0,2.0,1.0,0.0,0.0,0.0,0.0,
19.638,103.7946413033261,65.53611038663489,-3.62,-1.49,-1.14,0.0,0.0,5.0,11.0,2.0,1.0,0.0,0.0,0.0,0.0,
19.661,103.86246413033261,65.48561103866349,-3.6,-1.5,-1.4,0.0,0.0,5.0,11.0,2.0,1.0,0.0,0.0,0.0,0.0,
19.686,103.80624641303326,65.46256110386634,-3.33,-1.37,-1.21,0.0,0.0,5.0,10.0,2.0,1.0,0.0,0.0,0.0,0.0,
19.709,103.75562464130333,65.47825611038664,-3.4,-1.2,-1.15,0.0,0.0,5.0,10.0,2.0,1.0,0.0,0.0,0.0,0.0,
19.734,103.76856246413033,65.47082561103866,-3.7,-1.46,-1.0,0.0,0.0,5.0,11.0,2.0,1.0,0.0,0.0,0.0,0.0,
19.758,103.80585624641303,65.44308256110386,-3.34,-1.56,-0.82,0.0,0.0,5.0,11.0,2.0,1.0,0.0,0.0,0.0,0.0,
19.782,103.8275856246413,65.44930825611038,-3.07,-1.47,-0.72,0.0,0.0,5.0,10.0,2.0,1.0,0.0,0.0,0.0,0.0,
